"rt","stimulus","button_pressed","trial_type","trial_index","time_elapsed","internal_node_id","subject","list","ppt_race","ppt_gender","url","first_guess","correct","key_press","responses","image_type","phrase_type","test_part","response","stimulus1","stimulus2","question_type","survey_item"
"1546.6999999999534","Welcome to the experiment. Press Continue to begin.","0","html-button-response","0","1549","0.0-0.0","60999","List2A","black","woman","","","","","","","","","","","","",""
"12001.399999999907","","","external-html","1","14702","0.0-1.0","60999","List2A","black","woman","consent.html","","","","","","","","","","","",""
"12064.699999999953","<p>On the next page, you will see portraits of 8 people and their names.</p><p>Your first task is to take a few minutes to memorise the names of these people.</p><p>You will have to recall their names during the rest of the experiment, so it is</p><p>essential that you try to memorise these people and their names as best as you can.</p><br><p><strong>You will then be tested on your memory of these names and portraits.</strong></p><br><p>The experiment will start after you have completed this memory test.</p><br><p>Ready?</p>","0","html-button-response","2","26768","0.0-2.0","60999","List2A","black","woman","","","","","","","","","","","","",""
"38352.39999999991","<img src='img/portrait_matrix_list2.jpg' style='width:900px;height:500px;''></img><p>If you have memorised all the portraits and names and are ready to start, press Continue.</p><p><strong>Please note: Your memory of these faces will be tested 4 times during this experiment.</strong></p>","0","html-button-response","3","66123","0.0-3.0-0.0","60999","List2A","black","woman","","","","","","","","","","","","",""
"3513.600000000093","<img src=""portrait/BW2.jpg""style=""height:400px;""></img>","2","html-button-response","4","70639","0.0-3.0-1.0","60999","List2A","black","woman","","true","2","","","","","","","","","",""
"null","CORRECT","","html-keyboard-response","5","72143","0.0-3.0-2.0-0.0","60999","List2A","black","woman","","","","null","","","","","","","","",""
"2845.3000000000466","<img src=""portrait/WM1.jpg""style=""height:400px;""></img>","6","html-button-response","6","74990","0.0-3.0-4.0","60999","List2A","black","woman","","true","6","","","","","","","","","",""
"null","CORRECT","","html-keyboard-response","7","76495","0.0-3.0-5.0-0.0","60999","List2A","black","woman","","","","null","","","","","","","","",""
"3024.6999999999534","<img src=""portrait/BM1.jpg""style=""height:400px;""></img>","4","html-button-response","8","79520","0.0-3.0-7.0","60999","List2A","black","woman","","true","4","","","","","","","","","",""
"null","CORRECT","","html-keyboard-response","9","81023","0.0-3.0-8.0-0.0","60999","List2A","black","woman","","","","null","","","","","","","","",""
"5285.5","<img src=""portrait/BW1.jpg""style=""height:400px;""></img>","0","html-button-response","10","86309","0.0-3.0-10.0","60999","List2A","black","woman","","true","0","","","","","","","","","",""
"null","CORRECT","","html-keyboard-response","11","87812","0.0-3.0-11.0-0.0","60999","List2A","black","woman","","","","null","","","","","","","","",""
"2440.100000000093","<img src=""portrait/BM2.jpg""style=""height:400px;""></img>","5","html-button-response","12","90253","0.0-3.0-13.0","60999","List2A","black","woman","","true","5","","","","","","","","","",""
"null","CORRECT","","html-keyboard-response","13","91758","0.0-3.0-14.0-0.0","60999","List2A","black","woman","","","","null","","","","","","","","",""
"4169.100000000093","<img src=""portrait/WW2.jpg""style=""height:400px;""></img>","3","html-button-response","14","95929","0.0-3.0-16.0","60999","List2A","black","woman","","true","3","","","","","","","","","",""
"null","CORRECT","","html-keyboard-response","15","97433","0.0-3.0-17.0-0.0","60999","List2A","black","woman","","","","null","","","","","","","","",""
"3834","<img src=""portrait/WM2.jpg""style=""height:400px;""></img>","7","html-button-response","16","101268","0.0-3.0-19.0","60999","List2A","black","woman","","true","7","","","","","","","","","",""
"null","CORRECT","","html-keyboard-response","17","102772","0.0-3.0-20.0-0.0","60999","List2A","black","woman","","","","null","","","","","","","","",""
"5144.300000000047","<img src=""portrait/WW1.jpg""style=""height:400px;""></img>","1","html-button-response","18","107917","0.0-3.0-22.0","60999","List2A","black","woman","","true","1","","","","","","","","","",""
"null","CORRECT","","html-keyboard-response","19","109422","0.0-3.0-23.0-0.0","60999","List2A","black","woman","","","","null","","","","","","","","",""
"1588.5","<p>You got 8 out of 8 right first time. Press Continue.</p>","0","html-button-response","20","111012","0.0-3.0-25.0","60999","List2A","black","woman","","","","","","","","","","","","",""
"61464.5","<p>In this experiment, you will view photographs of the people from the memory game interacting.</p><p>By using the <strong>exact</strong> phrase given <i>after</i> the photograph appears and recalling the correct names of the people in the photographs, form a sentence describing the interaction. You do not need to capitalise names.</p><p>Type your answer in the space provided. Please complete every sentence before moving onto the next trial.</p><p>You will only have a few seconds to memorise each given photograph and phrase before you can respond, so try your best to focus.</p><p>An example is given below. Press 'Continue' when you are ready.</p><img src='img/speaking_example.jpg' style='width:800px;height:460px;''></img>","0","html-button-response","21","173480","0.0-4.0","60999","List2A","black","woman","","","","","","","","","","","","",""
"2413.899999999907","<p>Before the experiment starts, you will watch two example trials. Press 'Continue'.</p>","0","html-button-response","22","176898","0.0-5.0","60999","List2A","black","woman","","","","","","","","","","","","",""
"null","<img src='img/play_eg.gif' style='height:400px;''></img>","","html-keyboard-response","23","179907","0.0-6.0","60999","List2A","black","woman","","","","null","","","","","","","","",""
"null","<p>is playing with</p>","","html-keyboard-response","24","181912","0.0-7.0","60999","List2A","black","woman","","","","null","","","","","","","","",""
"7262.399999999907","<p><b>Answer:</b> jane is playing with ruth</p>","0","html-button-response","25","189176","0.0-8.0","60999","List2A","black","woman","","","","","","","","","","","","",""
"null","<img src='img/dance_eg.gif' style='height:400px;''></img>","","html-keyboard-response","26","192184","0.0-9.0","60999","List2A","black","woman","","","","null","","","","","","","","",""
"null","<p>is being entertained by</p>","","html-keyboard-response","27","194189","0.0-10.0","60999","List2A","black","woman","","","","null","","","","","","","","",""
"2742.5999999998603","<p><b>Answer:</b> fred is being entertained by mike</p>","0","html-button-response","28","196933","0.0-11.0","60999","List2A","black","woman","","","","","","","","","","","","",""
"84214.5","<p>Ready to start the experiment?</p><br><p><strong>Remember to describe the picture using a full sentence,</strong></p><p><strong>that combines the names of the people with the <i>exact</i> phrase given.</strong></p><p><strong>To receive full payment you must do this correctly.</strong></p><p><strong> You do not need to capitalise names or use punctuation.</strong></p><br><p>Press 'Continue' to begin.</p>","0","html-button-response","29","282149","0.0-12.0","60999","List2A","black","woman","","","","","","","","","","","","",""
"null","<div style=""font-size:60px;"">+</div>","","html-keyboard-response","30","283655","0.0-13.0-0.0","60999","List2A","black","woman","","","","null","","","","","","","","",""
"null","<img src=""stim_listA/seduce1.gif""style=""height:400px;""></stim_listA>","","html-keyboard-response","31","285661","0.0-13.0-1.0","60999","List2A","black","woman","","","","null","","","","","","","","",""
"null","is seducing","","html-keyboard-response","32","287663","0.0-13.0-2.0","60999","List2A","black","woman","","","","null","","","","","","","","",""
"10092.5","","","survey-text","33","297759","0.0-13.0-3.0","60999","List2A","black","woman","","","","","{""Q0"":""luke is seducing jane""}","<img src=""stim_listA/seduce1.gif""style=""height:400px;""></stim_listA>","is seducing","","","","","",""
"null","<div style=""font-size:60px;"">+</div>","","html-keyboard-response","34","298261","0.0-13.0-0.1","60999","List2A","black","woman","","","","null","","","","","","","","",""
"null","<img src=""stim_listA/challenge8.gif""style=""height:400px;""></stim_listA>","","html-keyboard-response","35","300263","0.0-13.0-1.1","60999","List2A","black","woman","","","","null","","","","","","","","",""
"null","is being challenged by","","html-keyboard-response","36","302264","0.0-13.0-2.1","60999","List2A","black","woman","","","","null","","","","","","","","",""
"13137.600000000093","","","survey-text","37","315404","0.0-13.0-3.1","60999","List2A","black","woman","","","","","{""Q0"":""ruth is being challenged by kate""}","<img src=""stim_listA/challenge8.gif""style=""height:400px;""></stim_listA>","is being challenged by","","","","","",""
"null","<div style=""font-size:60px;"">+</div>","","html-keyboard-response","38","315906","0.0-13.0-0.2","60999","List2A","black","woman","","","","null","","","","","","","","",""
"null","<img src=""stim_listA/greet2.gif""style=""height:400px;""></stim_listA>","","html-keyboard-response","39","317911","0.0-13.0-1.2","60999","List2A","black","woman","","","","null","","","","","","","","",""
"null","is being greeted by","","html-keyboard-response","40","319913","0.0-13.0-2.2","60999","List2A","black","woman","","","","null","","","","","","","","",""
"7389.100000000093","","","survey-text","41","327304","0.0-13.0-3.2","60999","List2A","black","woman","","","","","{""Q0"":""jane is being greeted by luke""}","<img src=""stim_listA/greet2.gif""style=""height:400px;""></stim_listA>","is being greeted by","","","","","",""
"null","<div style=""font-size:60px;"">+</div>","","html-keyboard-response","42","327805","0.0-13.0-0.3","60999","List2A","black","woman","","","","null","","","","","","","","",""
"null","<img src=""stim_listA/look6.gif""style=""height:400px;""></stim_listA>","","html-keyboard-response","43","329810","0.0-13.0-1.3","60999","List2A","black","woman","","","","null","","","","","","","","",""
"null","is being looked at by","","html-keyboard-response","44","331815","0.0-13.0-2.3","60999","List2A","black","woman","","","","null","","","","","","","","",""
"38037.700000000186","","","survey-text","45","369855","0.0-13.0-3.3","60999","List2A","black","woman","","","","","{""Q0"":""mike is being looked at by dave""}","<img src=""stim_listA/look6.gif""style=""height:400px;""></stim_listA>","is being looked at by","","","","","",""
"null","<div style=""font-size:60px;"">+</div>","","html-keyboard-response","46","370359","0.0-13.0-0.4","60999","List2A","black","woman","","","","null","","","","","","","","",""
"null","<img src=""stim_listA/greet8.gif""style=""height:400px;""></stim_listA>","","html-keyboard-response","47","372364","0.0-13.0-1.4","60999","List2A","black","woman","","","","null","","","","","","","","",""
"null","is being greeted by","","html-keyboard-response","48","374369","0.0-13.0-2.4","60999","List2A","black","woman","","","","null","","","","","","","","",""
"23564.300000000047","","","survey-text","49","397936","0.0-13.0-3.4","60999","List2A","black","woman","","","","","{""Q0"":""kate is being greeted by ruth""}","<img src=""stim_listA/greet8.gif""style=""height:400px;""></stim_listA>","is being greeted by","","","","","",""
"null","<div style=""font-size:60px;"">+</div>","","html-keyboard-response","50","398437","0.0-13.0-0.5","60999","List2A","black","woman","","","","null","","","","","","","","",""
"null","<img src=""stim_listA/seduce2.gif""style=""height:400px;""></stim_listA>","","html-keyboard-response","51","400438","0.0-13.0-1.5","60999","List2A","black","woman","","","","null","","","","","","","","",""
"null","is being seduced by","","html-keyboard-response","52","402439","0.0-13.0-2.5","60999","List2A","black","woman","","","","null","","","","","","","","",""
"10036.699999999953","","","survey-text","53","412478","0.0-13.0-3.5","60999","List2A","black","woman","","","","","{""Q0"":""ruth is being seduced by dave""}","<img src=""stim_listA/seduce2.gif""style=""height:400px;""></stim_listA>","is being seduced by","","","","","",""
"null","<div style=""font-size:60px;"">+</div>","","html-keyboard-response","54","412982","0.0-13.0-0.6","60999","List2A","black","woman","","","","null","","","","","","","","",""
"null","<img src=""stim_listA/oppose7.gif""style=""height:400px;""></stim_listA>","","html-keyboard-response","55","414987","0.0-13.0-1.6","60999","List2A","black","woman","","","","null","","","","","","","","",""
"null","is opposing","","html-keyboard-response","56","416988","0.0-13.0-2.6","60999","List2A","black","woman","","","","null","","","","","","","","",""
"5808.399999999907","","","survey-text","57","422799","0.0-13.0-3.6","60999","List2A","black","woman","","","","","{""Q0"":""jane is opposing kate""}","<img src=""stim_listA/oppose7.gif""style=""height:400px;""></stim_listA>","is opposing","","","","","",""
"null","<div style=""font-size:60px;"">+</div>","","html-keyboard-response","58","423302","0.0-13.0-0.7","60999","List2A","black","woman","","","","null","","","","","","","","",""
"null","<img src=""stim_listA/challenge6.gif""style=""height:400px;""></stim_listA>","","html-keyboard-response","59","425307","0.0-13.0-1.7","60999","List2A","black","woman","","","","null","","","","","","","","",""
"null","is being challenged by","","html-keyboard-response","60","427313","0.0-13.0-2.7","60999","List2A","black","woman","","","","null","","","","","","","","",""
"6741.799999999814","","","survey-text","61","434057","0.0-13.0-3.7","60999","List2A","black","woman","","","","","{""Q0"":""mike is being challenged by luke""}","<img src=""stim_listA/challenge6.gif""style=""height:400px;""></stim_listA>","is being challenged by","","","","","",""
"null","<div style=""font-size:60px;"">+</div>","","html-keyboard-response","62","434561","0.0-13.0-0.8","60999","List2A","black","woman","","","","null","","","","","","","","",""
"null","<img src=""stim_listA/oppose6.gif""style=""height:400px;""></stim_listA>","","html-keyboard-response","63","436566","0.0-13.0-1.8","60999","List2A","black","woman","","","","null","","","","","","","","",""
"null","is being opposed by","","html-keyboard-response","64","438571","0.0-13.0-2.8","60999","List2A","black","woman","","","","null","","","","","","","","",""
"24291","","","survey-text","65","462865","0.0-13.0-3.8","60999","List2A","black","woman","","","","","{""Q0"":""fred is being opposed by luke""}","<img src=""stim_listA/oppose6.gif""style=""height:400px;""></stim_listA>","is being opposed by","","","","","",""
"null","<div style=""font-size:60px;"">+</div>","","html-keyboard-response","66","463366","0.0-13.0-0.9","60999","List2A","black","woman","","","","null","","","","","","","","",""
"null","<img src=""stim_listA/touch5.gif""style=""height:400px;""></stim_listA>","","html-keyboard-response","67","465371","0.0-13.0-1.9","60999","List2A","black","woman","","","","null","","","","","","","","",""
"null","is touching","","html-keyboard-response","68","467373","0.0-13.0-2.9","60999","List2A","black","woman","","","","null","","","","","","","","",""
"4705.800000000047","","","survey-text","69","472081","0.0-13.0-3.9","60999","List2A","black","woman","","","","","{""Q0"":""dave is touching mike""}","<img src=""stim_listA/touch5.gif""style=""height:400px;""></stim_listA>","is touching","","","","","",""
"null","<div style=""font-size:60px;"">+</div>","","html-keyboard-response","70","472582","0.0-13.0-0.10","60999","List2A","black","woman","","","","null","","","","","","","","",""
"null","<img src=""stim_listA/touch1.gif""style=""height:400px;""></stim_listA>","","html-keyboard-response","71","474587","0.0-13.0-1.10","60999","List2A","black","woman","","","","null","","","","","","","","",""
"null","is touching","","html-keyboard-response","72","476592","0.0-13.0-2.10","60999","List2A","black","woman","","","","null","","","","","","","","",""
"4349","","","survey-text","73","480944","0.0-13.0-3.10","60999","List2A","black","woman","","","","","{""Q0"":""dave is touching jane""}","<img src=""stim_listA/touch1.gif""style=""height:400px;""></stim_listA>","is touching","","","","","",""
"null","<div style=""font-size:60px;"">+</div>","","html-keyboard-response","74","481446","0.0-13.0-0.11","60999","List2A","black","woman","","","","null","","","","","","","","",""
"null","<img src=""stim_listA/kiss1.gif""style=""height:400px;""></stim_listA>","","html-keyboard-response","75","483451","0.0-13.0-1.11","60999","List2A","black","woman","","","","null","","","","","","","","",""
"null","is kissing","","html-keyboard-response","76","485456","0.0-13.0-2.11","60999","List2A","black","woman","","","","null","","","","","","","","",""
"3469.1999999999534","","","survey-text","77","488928","0.0-13.0-3.11","60999","List2A","black","woman","","","","","{""Q0"":""ruth is kissing luke""}","<img src=""stim_listA/kiss1.gif""style=""height:400px;""></stim_listA>","is kissing","","","","","",""
"null","<div style=""font-size:60px;"">+</div>","","html-keyboard-response","78","489430","0.0-13.0-0.12","60999","List2A","black","woman","","","","null","","","","","","","","",""
"null","<img src=""stim_listA/copy6.gif""style=""height:400px;""></stim_listA>","","html-keyboard-response","79","491435","0.0-13.0-1.12","60999","List2A","black","woman","","","","null","","","","","","","","",""
"null","is being copied by","","html-keyboard-response","80","493440","0.0-13.0-2.12","60999","List2A","black","woman","","","","null","","","","","","","","",""
"5728.299999999814","","","survey-text","81","499171","0.0-13.0-3.12","60999","List2A","black","woman","","","","","{""Q0"":""luke is being copied by mike""}","<img src=""stim_listA/copy6.gif""style=""height:400px;""></stim_listA>","is being copied by","","","","","",""
"null","<div style=""font-size:60px;"">+</div>","","html-keyboard-response","82","499675","0.0-13.0-0.13","60999","List2A","black","woman","","","","null","","","","","","","","",""
"null","<img src=""stim_listA/challenge1.gif""style=""height:400px;""></stim_listA>","","html-keyboard-response","83","501680","0.0-13.0-1.13","60999","List2A","black","woman","","","","null","","","","","","","","",""
"null","is challenging","","html-keyboard-response","84","503685","0.0-13.0-2.13","60999","List2A","black","woman","","","","null","","","","","","","","",""
"4853.399999999907","","","survey-text","85","508541","0.0-13.0-3.13","60999","List2A","black","woman","","","","","{""Q0"":""dave is challenging ruth""}","<img src=""stim_listA/challenge1.gif""style=""height:400px;""></stim_listA>","is challenging","","","","","",""
"null","<div style=""font-size:60px;"">+</div>","","html-keyboard-response","86","509045","0.0-13.0-0.14","60999","List2A","black","woman","","","","null","","","","","","","","",""
"null","<img src=""stim_listA/hug6.gif""style=""height:400px;""></stim_listA>","","html-keyboard-response","87","511051","0.0-13.0-1.14","60999","List2A","black","woman","","","","null","","","","","","","","",""
"null","is being hugged by","","html-keyboard-response","88","513056","0.0-13.0-2.14","60999","List2A","black","woman","","","","null","","","","","","","","",""
"6252.90000000014","","","survey-text","89","519312","0.0-13.0-3.14","60999","List2A","black","woman","","","","","{""Q0"":""dave is being hugged by mike""}","<img src=""stim_listA/hug6.gif""style=""height:400px;""></stim_listA>","is being hugged by","","","","","",""
"null","<div style=""font-size:60px;"">+</div>","","html-keyboard-response","90","519813","0.0-13.0-0.15","60999","List2A","black","woman","","","","null","","","","","","","","",""
"null","<img src=""stim_listA/oppose2.gif""style=""height:400px;""></stim_listA>","","html-keyboard-response","91","521818","0.0-13.0-1.15","60999","List2A","black","woman","","","","null","","","","","","","","",""
"null","is being opposed by","","html-keyboard-response","92","523824","0.0-13.0-2.15","60999","List2A","black","woman","","","","null","","","","","","","","",""
"6896.800000000047","","","survey-text","93","530723","0.0-13.0-3.15","60999","List2A","black","woman","","","","","{""Q0"":""luke is being opposed by ruth""}","<img src=""stim_listA/oppose2.gif""style=""height:400px;""></stim_listA>","is being opposed by","","","","","",""
"null","<div style=""font-size:60px;"">+</div>","","html-keyboard-response","94","531227","0.0-13.0-0.16","60999","List2A","black","woman","","","","null","","","","","","","","",""
"null","<img src=""stim_listA/challenge3.gif""style=""height:400px;""></stim_listA>","","html-keyboard-response","95","533232","0.0-13.0-1.16","60999","List2A","black","woman","","","","null","","","","","","","","",""
"null","is challenging","","html-keyboard-response","96","535237","0.0-13.0-2.16","60999","List2A","black","woman","","","","null","","","","","","","","",""
"7013.5","","","survey-text","97","542253","0.0-13.0-3.16","60999","List2A","black","woman","","","","","{""Q0"":""mike is challenging beth""}","<img src=""stim_listA/challenge3.gif""style=""height:400px;""></stim_listA>","is challenging","","","","","",""
"null","<div style=""font-size:60px;"">+</div>","","html-keyboard-response","98","542757","0.0-13.0-0.17","60999","List2A","black","woman","","","","null","","","","","","","","",""
"null","<img src=""stim_listA/challenge5.gif""style=""height:400px;""></stim_listA>","","html-keyboard-response","99","544762","0.0-13.0-1.17","60999","List2A","black","woman","","","","null","","","","","","","","",""
"null","is challenging","","html-keyboard-response","100","546768","0.0-13.0-2.17","60999","List2A","black","woman","","","","null","","","","","","","","",""
"8357.5","","","survey-text","101","555128","0.0-13.0-3.17","60999","List2A","black","woman","","","","","{""Q0"":""fred is challenging dave""}","<img src=""stim_listA/challenge5.gif""style=""height:400px;""></stim_listA>","is challenging","","","","","",""
"null","<div style=""font-size:60px;"">+</div>","","html-keyboard-response","102","555632","0.0-13.0-0.18","60999","List2A","black","woman","","","","null","","","","","","","","",""
"null","<img src=""stim_listA/challenge2.gif""style=""height:400px;""></stim_listA>","","html-keyboard-response","103","557637","0.0-13.0-1.18","60999","List2A","black","woman","","","","null","","","","","","","","",""
"null","is being challenged by","","html-keyboard-response","104","559638","0.0-13.0-2.18","60999","List2A","black","woman","","","","null","","","","","","","","",""
"7938.899999999907","","","survey-text","105","567579","0.0-13.0-3.18","60999","List2A","black","woman","","","","","{""Q0"":""jane is being challenged by luke""}","<img src=""stim_listA/challenge2.gif""style=""height:400px;""></stim_listA>","is being challenged by","","","","","",""
"null","<div style=""font-size:60px;"">+</div>","","html-keyboard-response","106","568080","0.0-13.0-0.19","60999","List2A","black","woman","","","","null","","","","","","","","",""
"null","<img src=""stim_listA/greet4.gif""style=""height:400px;""></stim_listA>","","html-keyboard-response","107","570085","0.0-13.0-1.19","60999","List2A","black","woman","","","","null","","","","","","","","",""
"null","is being greeted by","","html-keyboard-response","108","572090","0.0-13.0-2.19","60999","List2A","black","woman","","","","null","","","","","","","","",""
"5286.399999999907","","","survey-text","109","577379","0.0-13.0-3.19","60999","List2A","black","woman","","","","","{""Q0"":""kate is being greeted by fred""}","<img src=""stim_listA/greet4.gif""style=""height:400px;""></stim_listA>","is being greeted by","","","","","",""
"21524.699999999953","<img src='img/portrait_matrix_list2.jpg' style='width:900px;height:500px;''></img><p>If you have memorised all the portraits and names and are ready to start, press Continue.</p><p><strong>Please note: Your memory of these faces will be tested 4 times during this experiment.</strong></p>","0","html-button-response","110","598904","0.0-14.0-0.0","60999","List2A","black","woman","","","","","","","","","","","","",""
"2271","<img src=""portrait/BM2.jpg""style=""height:400px;""></img>","5","html-button-response","111","602181","0.0-14.0-1.0","60999","List2A","black","woman","","true","5","","","","","","","","","",""
"null","CORRECT","","html-keyboard-response","112","603684","0.0-14.0-2.0-0.0","60999","List2A","black","woman","","","","null","","","","","","","","",""
"1396","<img src=""portrait/WM2.jpg""style=""height:400px;""></img>","7","html-button-response","113","605081","0.0-14.0-4.0","60999","List2A","black","woman","","true","7","","","","","","","","","",""
"null","CORRECT","","html-keyboard-response","114","606585","0.0-14.0-5.0-0.0","60999","List2A","black","woman","","","","null","","","","","","","","",""
"2064.3000000000466","<img src=""portrait/WW2.jpg""style=""height:400px;""></img>","3","html-button-response","115","608651","0.0-14.0-7.0","60999","List2A","black","woman","","true","3","","","","","","","","","",""
"null","CORRECT","","html-keyboard-response","116","610154","0.0-14.0-8.0-0.0","60999","List2A","black","woman","","","","null","","","","","","","","",""
"2172","<img src=""portrait/BW2.jpg""style=""height:400px;""></img>","2","html-button-response","117","612327","0.0-14.0-10.0","60999","List2A","black","woman","","true","2","","","","","","","","","",""
"null","CORRECT","","html-keyboard-response","118","613829","0.0-14.0-11.0-0.0","60999","List2A","black","woman","","","","null","","","","","","","","",""
"1136","<img src=""portrait/BM1.jpg""style=""height:400px;""></img>","4","html-button-response","119","614966","0.0-14.0-13.0","60999","List2A","black","woman","","true","4","","","","","","","","","",""
"null","CORRECT","","html-keyboard-response","120","616468","0.0-14.0-14.0-0.0","60999","List2A","black","woman","","","","null","","","","","","","","",""
"1494.6000000000931","<img src=""portrait/WM1.jpg""style=""height:400px;""></img>","6","html-button-response","121","617963","0.0-14.0-16.0","60999","List2A","black","woman","","true","6","","","","","","","","","",""
"null","CORRECT","","html-keyboard-response","122","619466","0.0-14.0-17.0-0.0","60999","List2A","black","woman","","","","null","","","","","","","","",""
"2051.4000000001397","<img src=""portrait/BW1.jpg""style=""height:400px;""></img>","0","html-button-response","123","621518","0.0-14.0-19.0","60999","List2A","black","woman","","true","0","","","","","","","","","",""
"null","CORRECT","","html-keyboard-response","124","623023","0.0-14.0-20.0-0.0","60999","List2A","black","woman","","","","null","","","","","","","","",""
"2601.8000000000466","<img src=""portrait/WW1.jpg""style=""height:400px;""></img>","1","html-button-response","125","625626","0.0-14.0-22.0","60999","List2A","black","woman","","true","1","","","","","","","","","",""
"null","CORRECT","","html-keyboard-response","126","627130","0.0-14.0-23.0-0.0","60999","List2A","black","woman","","","","null","","","","","","","","",""
"1206.6000000000931","<p>You got 8 out of 8 right first time. Press Continue.</p>","0","html-button-response","127","628338","0.0-14.0-25.0","60999","List2A","black","woman","","","","","","","","","","","","",""
"null","<div style=""font-size:60px;"">+</div>","","html-keyboard-response","128","629840","0.0-15.0-0.0","60999","List2A","black","woman","","","","null","","","","","","","","",""
"null","<img src=""stim_listA/shout8.gif""style=""height:400px;""></stim_listA>","","html-keyboard-response","129","631844","0.0-15.0-1.0","60999","List2A","black","woman","","","","null","","","","","","","","",""
"null","is being shouted at by","","html-keyboard-response","130","633849","0.0-15.0-2.0","60999","List2A","black","woman","","","","null","","","","","","","","",""
"87195.80000000005","","","survey-text","131","721047","0.0-15.0-3.0","60999","List2A","black","woman","","","","","{""Q0"":""kate is being shouted at by jane""}","<img src=""stim_listA/shout8.gif""style=""height:400px;""></stim_listA>","is being shouted at by","","","","","",""
"null","<div style=""font-size:60px;"">+</div>","","html-keyboard-response","132","721550","0.0-15.0-0.1","60999","List2A","black","woman","","","","null","","","","","","","","",""
"null","<img src=""stim_listA/oppose8.gif""style=""height:400px;""></stim_listA>","","html-keyboard-response","133","723556","0.0-15.0-1.1","60999","List2A","black","woman","","","","null","","","","","","","","",""
"null","is being opposed by","","html-keyboard-response","134","725559","0.0-15.0-2.1","60999","List2A","black","woman","","","","null","","","","","","","","",""
"5843.5","","","survey-text","135","731405","0.0-15.0-3.1","60999","List2A","black","woman","","","","","{""Q0"":""beth is being opposed by ruth""}","<img src=""stim_listA/oppose8.gif""style=""height:400px;""></stim_listA>","is being opposed by","","","","","",""
"null","<div style=""font-size:60px;"">+</div>","","html-keyboard-response","136","731907","0.0-15.0-0.2","60999","List2A","black","woman","","","","null","","","","","","","","",""
"null","<img src=""stim_listA/hug8.gif""style=""height:400px;""></stim_listA>","","html-keyboard-response","137","733912","0.0-15.0-1.2","60999","List2A","black","woman","","","","null","","","","","","","","",""
"null","is being hugged by","","html-keyboard-response","138","735918","0.0-15.0-2.2","60999","List2A","black","woman","","","","null","","","","","","","","",""
"6891.199999999953","","","survey-text","139","742812","0.0-15.0-3.2","60999","List2A","black","woman","","","","","{""Q0"":""kate is being hugged by jane""}","<img src=""stim_listA/hug8.gif""style=""height:400px;""></stim_listA>","is being hugged by","","","","","",""
"null","<div style=""font-size:60px;"">+</div>","","html-keyboard-response","140","743316","0.0-15.0-0.3","60999","List2A","black","woman","","","","null","","","","","","","","",""
"null","<img src=""stim_listA/touch2.gif""style=""height:400px;""></stim_listA>","","html-keyboard-response","141","745321","0.0-15.0-1.3","60999","List2A","black","woman","","","","null","","","","","","","","",""
"null","is being touched by","","html-keyboard-response","142","747326","0.0-15.0-2.3","60999","List2A","black","woman","","","","null","","","","","","","","",""
"9149.100000000093","","","survey-text","143","756478","0.0-15.0-3.3","60999","List2A","black","woman","","","","","{""Q0"":""luke is being touched by ruth""}","<img src=""stim_listA/touch2.gif""style=""height:400px;""></stim_listA>","is being touched by","","","","","",""
"null","<div style=""font-size:60px;"">+</div>","","html-keyboard-response","144","756979","0.0-15.0-0.4","60999","List2A","black","woman","","","","null","","","","","","","","",""
"null","<img src=""stim_listA/greet1.gif""style=""height:400px;""></stim_listA>","","html-keyboard-response","145","758985","0.0-15.0-1.4","60999","List2A","black","woman","","","","null","","","","","","","","",""
"null","is greeting","","html-keyboard-response","146","760988","0.0-15.0-2.4","60999","List2A","black","woman","","","","null","","","","","","","","",""
"4087.2999999998137","","","survey-text","147","765077","0.0-15.0-3.4","60999","List2A","black","woman","","","","","{""Q0"":""dave is greeting ruth""}","<img src=""stim_listA/greet1.gif""style=""height:400px;""></stim_listA>","is greeting","","","","","",""
"null","<div style=""font-size:60px;"">+</div>","","html-keyboard-response","148","765582","0.0-15.0-0.5","60999","List2A","black","woman","","","","null","","","","","","","","",""
"null","<img src=""stim_listA/hug7.gif""style=""height:400px;""></stim_listA>","","html-keyboard-response","149","767587","0.0-15.0-1.5","60999","List2A","black","woman","","","","null","","","","","","","","",""
"null","is hugging","","html-keyboard-response","150","769592","0.0-15.0-2.5","60999","List2A","black","woman","","","","null","","","","","","","","",""
"4800.199999999953","","","survey-text","151","774395","0.0-15.0-3.5","60999","List2A","black","woman","","","","","{""Q0"":""ruth is hugging beth""}","<img src=""stim_listA/hug7.gif""style=""height:400px;""></stim_listA>","is hugging","","","","","",""
"null","<div style=""font-size:60px;"">+</div>","","html-keyboard-response","152","774898","0.0-15.0-0.6","60999","List2A","black","woman","","","","null","","","","","","","","",""
"null","<img src=""stim_listA/copy1.gif""style=""height:400px;""></stim_listA>","","html-keyboard-response","153","776904","0.0-15.0-1.6","60999","List2A","black","woman","","","","null","","","","","","","","",""
"null","is copying","","html-keyboard-response","154","778909","0.0-15.0-2.6","60999","List2A","black","woman","","","","null","","","","","","","","",""
"3794.4000000001397","","","survey-text","155","782706","0.0-15.0-3.6","60999","List2A","black","woman","","","","","{""Q0"":""dave is copying ruth""}","<img src=""stim_listA/copy1.gif""style=""height:400px;""></stim_listA>","is copying","","","","","",""
"null","<div style=""font-size:60px;"">+</div>","","html-keyboard-response","156","783208","0.0-15.0-0.7","60999","List2A","black","woman","","","","null","","","","","","","","",""
"null","<img src=""stim_listA/kiss8.gif""style=""height:400px;""></stim_listA>","","html-keyboard-response","157","785214","0.0-15.0-1.7","60999","List2A","black","woman","","","","null","","","","","","","","",""
"null","is being kissed by","","html-keyboard-response","158","787219","0.0-15.0-2.7","60999","List2A","black","woman","","","","null","","","","","","","","",""
"5265.59999999986","","","survey-text","159","792487","0.0-15.0-3.7","60999","List2A","black","woman","","","","","{""Q0"":""kate is being kissed by jane""}","<img src=""stim_listA/kiss8.gif""style=""height:400px;""></stim_listA>","is being kissed by","","","","","",""
"null","<div style=""font-size:60px;"">+</div>","","html-keyboard-response","160","792990","0.0-15.0-0.8","60999","List2A","black","woman","","","","null","","","","","","","","",""
"null","<img src=""stim_listA/hug5.gif""style=""height:400px;""></stim_listA>","","html-keyboard-response","161","794995","0.0-15.0-1.8","60999","List2A","black","woman","","","","null","","","","","","","","",""
"null","is hugging","","html-keyboard-response","162","797000","0.0-15.0-2.8","60999","List2A","black","woman","","","","null","","","","","","","","",""
"4621.899999999907","","","survey-text","163","801624","0.0-15.0-3.8","60999","List2A","black","woman","","","","","{""Q0"":""luke is hugging fred""}","<img src=""stim_listA/hug5.gif""style=""height:400px;""></stim_listA>","is hugging","","","","","",""
"null","<div style=""font-size:60px;"">+</div>","","html-keyboard-response","164","802125","0.0-15.0-0.9","60999","List2A","black","woman","","","","null","","","","","","","","",""
"null","<img src=""stim_listA/touch3.gif""style=""height:400px;""></stim_listA>","","html-keyboard-response","165","804131","0.0-15.0-1.9","60999","List2A","black","woman","","","","null","","","","","","","","",""
"null","is touching","","html-keyboard-response","166","806136","0.0-15.0-2.9","60999","List2A","black","woman","","","","null","","","","","","","","",""
"3541.100000000093","","","survey-text","167","809679","0.0-15.0-3.9","60999","List2A","black","woman","","","","","{""Q0"":""mike is touching kate""}","<img src=""stim_listA/touch3.gif""style=""height:400px;""></stim_listA>","is touching","","","","","",""
"null","<div style=""font-size:60px;"">+</div>","","html-keyboard-response","168","810180","0.0-15.0-0.10","60999","List2A","black","woman","","","","null","","","","","","","","",""
"null","<img src=""stim_listA/shout3.gif""style=""height:400px;""></stim_listA>","","html-keyboard-response","169","812184","0.0-15.0-1.10","60999","List2A","black","woman","","","","null","","","","","","","","",""
"null","is shouting at","","html-keyboard-response","170","814189","0.0-15.0-2.10","60999","List2A","black","woman","","","","null","","","","","","","","",""
"5153.5","","","survey-text","171","819345","0.0-15.0-3.10","60999","List2A","black","woman","","","","","{""Q0"":""fred is shouting at beth""}","<img src=""stim_listA/shout3.gif""style=""height:400px;""></stim_listA>","is shouting at","","","","","",""
"null","<div style=""font-size:60px;"">+</div>","","html-keyboard-response","172","819848","0.0-15.0-0.11","60999","List2A","black","woman","","","","null","","","","","","","","",""
"null","<img src=""stim_listA/look4.gif""style=""height:400px;""></stim_listA>","","html-keyboard-response","173","821853","0.0-15.0-1.11","60999","List2A","black","woman","","","","null","","","","","","","","",""
"null","is being looked at by","","html-keyboard-response","174","823858","0.0-15.0-2.11","60999","List2A","black","woman","","","","null","","","","","","","","",""
"7965.899999999907","","","survey-text","175","831826","0.0-15.0-3.11","60999","List2A","black","woman","","","","","{""Q0"":""kate is being looked at by mike""}","<img src=""stim_listA/look4.gif""style=""height:400px;""></stim_listA>","is being looked at by","","","","","",""
"null","<div style=""font-size:60px;"">+</div>","","html-keyboard-response","176","832328","0.0-15.0-0.12","60999","List2A","black","woman","","","","null","","","","","","","","",""
"null","<img src=""stim_listA/copy3.gif""style=""height:400px;""></stim_listA>","","html-keyboard-response","177","834333","0.0-15.0-1.12","60999","List2A","black","woman","","","","null","","","","","","","","",""
"null","is copying","","html-keyboard-response","178","836339","0.0-15.0-2.12","60999","List2A","black","woman","","","","null","","","","","","","","",""
"4324.899999999907","","","survey-text","179","840666","0.0-15.0-3.12","60999","List2A","black","woman","","","","","{""Q0"":""mike is copying beth""}","<img src=""stim_listA/copy3.gif""style=""height:400px;""></stim_listA>","is copying","","","","","",""
"null","<div style=""font-size:60px;"">+</div>","","html-keyboard-response","180","841167","0.0-15.0-0.13","60999","List2A","black","woman","","","","null","","","","","","","","",""
"null","<img src=""stim_listA/seduce4.gif""style=""height:400px;""></stim_listA>","","html-keyboard-response","181","843170","0.0-15.0-1.13","60999","List2A","black","woman","","","","null","","","","","","","","",""
"null","is being seduced by","","html-keyboard-response","182","845176","0.0-15.0-2.13","60999","List2A","black","woman","","","","null","","","","","","","","",""
"5766.299999999814","","","survey-text","183","850944","0.0-15.0-3.13","60999","List2A","black","woman","","","","","{""Q0"":""mike is being seduced by beth""}","<img src=""stim_listA/seduce4.gif""style=""height:400px;""></stim_listA>","is being seduced by","","","","","",""
"null","<div style=""font-size:60px;"">+</div>","","html-keyboard-response","184","851448","0.0-15.0-0.14","60999","List2A","black","woman","","","","null","","","","","","","","",""
"null","<img src=""stim_listA/touch6.gif""style=""height:400px;""></stim_listA>","","html-keyboard-response","185","853453","0.0-15.0-1.14","60999","List2A","black","woman","","","","null","","","","","","","","",""
"null","is being touched by","","html-keyboard-response","186","855458","0.0-15.0-2.14","60999","List2A","black","woman","","","","null","","","","","","","","",""
"6138.5","","","survey-text","187","861599","0.0-15.0-3.14","60999","List2A","black","woman","","","","","{""Q0"":""luke is being touched by fred""}","<img src=""stim_listA/touch6.gif""style=""height:400px;""></stim_listA>","is being touched by","","","","","",""
"null","<div style=""font-size:60px;"">+</div>","","html-keyboard-response","188","862101","0.0-15.0-0.15","60999","List2A","black","woman","","","","null","","","","","","","","",""
"null","<img src=""stim_listA/look7.gif""style=""height:400px;""></stim_listA>","","html-keyboard-response","189","864103","0.0-15.0-1.15","60999","List2A","black","woman","","","","null","","","","","","","","",""
"null","is looking at","","html-keyboard-response","190","866109","0.0-15.0-2.15","60999","List2A","black","woman","","","","null","","","","","","","","",""
"4876.299999999814","","","survey-text","191","870988","0.0-15.0-3.15","60999","List2A","black","woman","","","","","{""Q0"":""ruth is looking at beth""}","<img src=""stim_listA/look7.gif""style=""height:400px;""></stim_listA>","is looking at","","","","","",""
"null","<div style=""font-size:60px;"">+</div>","","html-keyboard-response","192","871490","0.0-15.0-0.16","60999","List2A","black","woman","","","","null","","","","","","","","",""
"null","<img src=""stim_listA/shout6.gif""style=""height:400px;""></stim_listA>","","html-keyboard-response","193","873496","0.0-15.0-1.16","60999","List2A","black","woman","","","","null","","","","","","","","",""
"null","is being shouted at by","","html-keyboard-response","194","875501","0.0-15.0-2.16","60999","List2A","black","woman","","","","null","","","","","","","","",""
"5686.100000000093","","","survey-text","195","881189","0.0-15.0-3.16","60999","List2A","black","woman","","","","","{""Q0"":""mike is being shouted at by dave""}","<img src=""stim_listA/shout6.gif""style=""height:400px;""></stim_listA>","is being shouted at by","","","","","",""
"null","<div style=""font-size:60px;"">+</div>","","html-keyboard-response","196","881693","0.0-15.0-0.17","60999","List2A","black","woman","","","","null","","","","","","","","",""
"null","<img src=""stim_listA/copy2.gif""style=""height:400px;""></stim_listA>","","html-keyboard-response","197","883698","0.0-15.0-1.17","60999","List2A","black","woman","","","","null","","","","","","","","",""
"null","is being copied by","","html-keyboard-response","198","885703","0.0-15.0-2.17","60999","List2A","black","woman","","","","null","","","","","","","","",""
"6668.200000000186","","","survey-text","199","892374","0.0-15.0-3.17","60999","List2A","black","woman","","","","","{""Q0"":""jane is being copied by luke""}","<img src=""stim_listA/copy2.gif""style=""height:400px;""></stim_listA>","is being copied by","","","","","",""
"null","<div style=""font-size:60px;"">+</div>","","html-keyboard-response","200","892877","0.0-15.0-0.18","60999","List2A","black","woman","","","","null","","","","","","","","",""
"null","<img src=""stim_listA/kiss2.gif""style=""height:400px;""></stim_listA>","","html-keyboard-response","201","894882","0.0-15.0-1.18","60999","List2A","black","woman","","","","null","","","","","","","","",""
"null","is being kissed by","","html-keyboard-response","202","896887","0.0-15.0-2.18","60999","List2A","black","woman","","","","null","","","","","","","","",""
"5875.300000000279","","","survey-text","203","902765","0.0-15.0-3.18","60999","List2A","black","woman","","","","","{""Q0"":""jane is being kissed by dave""}","<img src=""stim_listA/kiss2.gif""style=""height:400px;""></stim_listA>","is being kissed by","","","","","",""
"null","<div style=""font-size:60px;"">+</div>","","html-keyboard-response","204","903266","0.0-15.0-0.19","60999","List2A","black","woman","","","","null","","","","","","","","",""
"null","<img src=""stim_listA/shout4.gif""style=""height:400px;""></stim_listA>","","html-keyboard-response","205","905271","0.0-15.0-1.19","60999","List2A","black","woman","","","","null","","","","","","","","",""
"null","is being shouted at by","","html-keyboard-response","206","907276","0.0-15.0-2.19","60999","List2A","black","woman","","","","null","","","","","","","","",""
"6103.800000000279","","","survey-text","207","913383","0.0-15.0-3.19","60999","List2A","black","woman","","","","","{""Q0"":""mike is being shouted at by kate""}","<img src=""stim_listA/shout4.gif""style=""height:400px;""></stim_listA>","is being shouted at by","","","","","",""
"163685.2999999998","<img src='img/portrait_matrix_list2.jpg' style='width:900px;height:500px;''></img><p>If you have memorised all the portraits and names and are ready to start, press Continue.</p><p><strong>Please note: Your memory of these faces will be tested 4 times during this experiment.</strong></p>","0","html-button-response","208","1149878","0.0-16.0-0.0","60999","List2A","black","woman","","","","","","","","","","","","",""
"1643.9000000003725","<img src=""portrait/WM2.jpg""style=""height:400px;""></img>","7","html-button-response","209","1152527","0.0-16.0-1.0","60999","List2A","black","woman","","true","7","","","","","","","","","",""
"null","CORRECT","","html-keyboard-response","210","1154030","0.0-16.0-2.0-0.0","60999","List2A","black","woman","","","","null","","","","","","","","",""
"1412.5","<img src=""portrait/BM2.jpg""style=""height:400px;""></img>","5","html-button-response","211","1155445","0.0-16.0-4.0","60999","List2A","black","woman","","true","5","","","","","","","","","",""
"null","CORRECT","","html-keyboard-response","212","1156949","0.0-16.0-5.0-0.0","60999","List2A","black","woman","","","","null","","","","","","","","",""
"1622.8999999999069","<img src=""portrait/BW2.jpg""style=""height:400px;""></img>","2","html-button-response","213","1158575","0.0-16.0-7.0","60999","List2A","black","woman","","true","2","","","","","","","","","",""
"null","CORRECT","","html-keyboard-response","214","1160081","0.0-16.0-8.0-0.0","60999","List2A","black","woman","","","","null","","","","","","","","",""
"1198.0999999996275","<img src=""portrait/BM1.jpg""style=""height:400px;""></img>","4","html-button-response","215","1161281","0.0-16.0-10.0","60999","List2A","black","woman","","true","4","","","","","","","","","",""
"null","CORRECT","","html-keyboard-response","216","1162786","0.0-16.0-11.0-0.0","60999","List2A","black","woman","","","","null","","","","","","","","",""
"2259.5","<img src=""portrait/BW1.jpg""style=""height:400px;""></img>","0","html-button-response","217","1165047","0.0-16.0-13.0","60999","List2A","black","woman","","true","0","","","","","","","","","",""
"null","CORRECT","","html-keyboard-response","218","1166550","0.0-16.0-14.0-0.0","60999","List2A","black","woman","","","","null","","","","","","","","",""
"1535.1000000000931","<img src=""portrait/WW1.jpg""style=""height:400px;""></img>","1","html-button-response","219","1168087","0.0-16.0-16.0","60999","List2A","black","woman","","true","1","","","","","","","","","",""
"null","CORRECT","","html-keyboard-response","220","1169593","0.0-16.0-17.0-0.0","60999","List2A","black","woman","","","","null","","","","","","","","",""
"1458.9000000003725","<img src=""portrait/WW2.jpg""style=""height:400px;""></img>","3","html-button-response","221","1171053","0.0-16.0-19.0","60999","List2A","black","woman","","true","3","","","","","","","","","",""
"null","CORRECT","","html-keyboard-response","222","1172559","0.0-16.0-20.0-0.0","60999","List2A","black","woman","","","","null","","","","","","","","",""
"2119.2999999998137","<img src=""portrait/WM1.jpg""style=""height:400px;""></img>","6","html-button-response","223","1174679","0.0-16.0-22.0","60999","List2A","black","woman","","true","6","","","","","","","","","",""
"null","CORRECT","","html-keyboard-response","224","1176186","0.0-16.0-23.0-0.0","60999","List2A","black","woman","","","","null","","","","","","","","",""
"6070","<p>You got 8 out of 8 right first time. Press Continue.</p>","0","html-button-response","225","1182258","0.0-16.0-25.0","60999","List2A","black","woman","","","","","","","","","","","","",""
"null","<div style=""font-size:60px;"">+</div>","","html-keyboard-response","226","1183761","0.0-17.0-0.0","60999","List2A","black","woman","","","","null","","","","","","","","",""
"null","<img src=""stim_listA/seduce3.gif""style=""height:400px;""></stim_listA>","","html-keyboard-response","227","1185766","0.0-17.0-1.0","60999","List2A","black","woman","","","","null","","","","","","","","",""
"null","is seducing","","html-keyboard-response","228","1187771","0.0-17.0-2.0","60999","List2A","black","woman","","","","null","","","","","","","","",""
"5706.5999999996275","","","survey-text","229","1193480","0.0-17.0-3.0","60999","List2A","black","woman","","","","","{""Q0"":""fred is seducing kate""}","<img src=""stim_listA/seduce3.gif""style=""height:400px;""></stim_listA>","is seducing","","","","","",""
"null","<div style=""font-size:60px;"">+</div>","","html-keyboard-response","230","1193984","0.0-17.0-0.1","60999","List2A","black","woman","","","","null","","","","","","","","",""
"null","<img src=""stim_listA/kiss6.gif""style=""height:400px;""></stim_listA>","","html-keyboard-response","231","1195988","0.0-17.0-1.1","60999","List2A","black","woman","","","","null","","","","","","","","",""
"null","is being kissed by","","html-keyboard-response","232","1197990","0.0-17.0-2.1","60999","List2A","black","woman","","","","null","","","","","","","","",""
"5694.800000000279","","","survey-text","233","1203687","0.0-17.0-3.1","60999","List2A","black","woman","","","","","{""Q0"":""dave is being kissed by mike""}","<img src=""stim_listA/kiss6.gif""style=""height:400px;""></stim_listA>","is being kissed by","","","","","",""
"null","<div style=""font-size:60px;"">+</div>","","html-keyboard-response","234","1204188","0.0-17.0-0.2","60999","List2A","black","woman","","","","null","","","","","","","","",""
"null","<img src=""stim_listA/look3.gif""style=""height:400px;""></stim_listA>","","html-keyboard-response","235","1206193","0.0-17.0-1.2","60999","List2A","black","woman","","","","null","","","","","","","","",""
"null","is looking at","","html-keyboard-response","236","1208199","0.0-17.0-2.2","60999","List2A","black","woman","","","","null","","","","","","","","",""
"3855.5","","","survey-text","237","1212056","0.0-17.0-3.2","60999","List2A","black","woman","","","","","{""Q0"":""fred is looking at beth""}","<img src=""stim_listA/look3.gif""style=""height:400px;""></stim_listA>","is looking at","","","","","",""
"null","<div style=""font-size:60px;"">+</div>","","html-keyboard-response","238","1212558","0.0-17.0-0.3","60999","List2A","black","woman","","","","null","","","","","","","","",""
"null","<img src=""stim_listA/oppose4.gif""style=""height:400px;""></stim_listA>","","html-keyboard-response","239","1214562","0.0-17.0-1.3","60999","List2A","black","woman","","","","null","","","","","","","","",""
"null","is being opposed by","","html-keyboard-response","240","1216567","0.0-17.0-2.3","60999","List2A","black","woman","","","","null","","","","","","","","",""
"17011.80000000028","","","survey-text","241","1233581","0.0-17.0-3.3","60999","List2A","black","woman","","","","","{""Q0"":""fred is being opposed by beth""}","<img src=""stim_listA/oppose4.gif""style=""height:400px;""></stim_listA>","is being opposed by","","","","","",""
"null","<div style=""font-size:60px;"">+</div>","","html-keyboard-response","242","1234082","0.0-17.0-0.4","60999","List2A","black","woman","","","","null","","","","","","","","",""
"null","<img src=""stim_listA/copy7.gif""style=""height:400px;""></stim_listA>","","html-keyboard-response","243","1236087","0.0-17.0-1.4","60999","List2A","black","woman","","","","null","","","","","","","","",""
"null","is copying","","html-keyboard-response","244","1238089","0.0-17.0-2.4","60999","List2A","black","woman","","","","null","","","","","","","","",""
"3532.5999999996275","","","survey-text","245","1241624","0.0-17.0-3.4","60999","List2A","black","woman","","","","","{""Q0"":""jane is copying beth""}","<img src=""stim_listA/copy7.gif""style=""height:400px;""></stim_listA>","is copying","","","","","",""
"null","<div style=""font-size:60px;"">+</div>","","html-keyboard-response","246","1242125","0.0-17.0-0.5","60999","List2A","black","woman","","","","null","","","","","","","","",""
"null","<img src=""stim_listA/challenge7.gif""style=""height:400px;""></stim_listA>","","html-keyboard-response","247","1244130","0.0-17.0-1.5","60999","List2A","black","woman","","","","null","","","","","","","","",""
"null","is challenging","","html-keyboard-response","248","1246133","0.0-17.0-2.5","60999","List2A","black","woman","","","","null","","","","","","","","",""
"4578.799999999814","","","survey-text","249","1250714","0.0-17.0-3.5","60999","List2A","black","woman","","","","","{""Q0"":""jane is challenging beth""}","<img src=""stim_listA/challenge7.gif""style=""height:400px;""></stim_listA>","is challenging","","","","","",""
"null","<div style=""font-size:60px;"">+</div>","","html-keyboard-response","250","1251218","0.0-17.0-0.6","60999","List2A","black","woman","","","","null","","","","","","","","",""
"null","<img src=""stim_listA/hug1.gif""style=""height:400px;""></stim_listA>","","html-keyboard-response","251","1253223","0.0-17.0-1.6","60999","List2A","black","woman","","","","null","","","","","","","","",""
"null","is hugging","","html-keyboard-response","252","1255228","0.0-17.0-2.6","60999","List2A","black","woman","","","","null","","","","","","","","",""
"5128.200000000186","","","survey-text","253","1260359","0.0-17.0-3.6","60999","List2A","black","woman","","","","","{""Q0"":""luke is hugging ruth""}","<img src=""stim_listA/hug1.gif""style=""height:400px;""></stim_listA>","is hugging","","","","","",""
"null","<div style=""font-size:60px;"">+</div>","","html-keyboard-response","254","1260860","0.0-17.0-0.7","60999","List2A","black","woman","","","","null","","","","","","","","",""
"null","<img src=""stim_listA/look5.gif""style=""height:400px;""></stim_listA>","","html-keyboard-response","255","1262866","0.0-17.0-1.7","60999","List2A","black","woman","","","","null","","","","","","","","",""
"null","is looking at","","html-keyboard-response","256","1264871","0.0-17.0-2.7","60999","List2A","black","woman","","","","null","","","","","","","","",""
"85115.30000000028","","","survey-text","257","1349990","0.0-17.0-3.7","60999","List2A","black","woman","","","","","{""Q0"":""luke is looking at fred""}","<img src=""stim_listA/look5.gif""style=""height:400px;""></stim_listA>","is looking at","","","","","",""
"null","<div style=""font-size:60px;"">+</div>","","html-keyboard-response","258","1350493","0.0-17.0-0.8","60999","List2A","black","woman","","","","null","","","","","","","","",""
"null","<img src=""stim_listA/touch4.gif""style=""height:400px;""></stim_listA>","","html-keyboard-response","259","1352498","0.0-17.0-1.8","60999","List2A","black","woman","","","","null","","","","","","","","",""
"null","is being touched by","","html-keyboard-response","260","1354500","0.0-17.0-2.8","60999","List2A","black","woman","","","","null","","","","","","","","",""
"5593.899999999907","","","survey-text","261","1360097","0.0-17.0-3.8","60999","List2A","black","woman","","","","","{""Q0"":""fred is being touched by beth""}","<img src=""stim_listA/touch4.gif""style=""height:400px;""></stim_listA>","is being touched by","","","","","",""
"null","<div style=""font-size:60px;"">+</div>","","html-keyboard-response","262","1360600","0.0-17.0-0.9","60999","List2A","black","woman","","","","null","","","","","","","","",""
"null","<img src=""stim_listA/kiss7.gif""style=""height:400px;""></stim_listA>","","html-keyboard-response","263","1362605","0.0-17.0-1.9","60999","List2A","black","woman","","","","null","","","","","","","","",""
"null","is kissing","","html-keyboard-response","264","1364607","0.0-17.0-2.9","60999","List2A","black","woman","","","","null","","","","","","","","",""
"4827.9000000003725","","","survey-text","265","1369437","0.0-17.0-3.9","60999","List2A","black","woman","","","","","{""Q0"":""beth is kissing ruth""}","<img src=""stim_listA/kiss7.gif""style=""height:400px;""></stim_listA>","is kissing","","","","","",""
"null","<div style=""font-size:60px;"">+</div>","","html-keyboard-response","266","1369939","0.0-17.0-0.10","60999","List2A","black","woman","","","","null","","","","","","","","",""
"null","<img src=""stim_listA/copy8.gif""style=""height:400px;""></stim_listA>","","html-keyboard-response","267","1371944","0.0-17.0-1.10","60999","List2A","black","woman","","","","null","","","","","","","","",""
"null","is being copied by","","html-keyboard-response","268","1373949","0.0-17.0-2.10","60999","List2A","black","woman","","","","null","","","","","","","","",""
"4476.5","","","survey-text","269","1378428","0.0-17.0-3.10","60999","List2A","black","woman","","","","","{""Q0"":""kate is being copied by ruth""}","<img src=""stim_listA/copy8.gif""style=""height:400px;""></stim_listA>","is being copied by","","","","","",""
"null","<div style=""font-size:60px;"">+</div>","","html-keyboard-response","270","1378931","0.0-17.0-0.11","60999","List2A","black","woman","","","","null","","","","","","","","",""
"null","<img src=""stim_listA/shout7.gif""style=""height:400px;""></stim_listA>","","html-keyboard-response","271","1380936","0.0-17.0-1.11","60999","List2A","black","woman","","","","null","","","","","","","","",""
"null","is shouting at","","html-keyboard-response","272","1382941","0.0-17.0-2.11","60999","List2A","black","woman","","","","null","","","","","","","","",""
"4905.100000000093","","","survey-text","273","1387849","0.0-17.0-3.11","60999","List2A","black","woman","","","","","{""Q0"":""ruth is shouting at beth""}","<img src=""stim_listA/shout7.gif""style=""height:400px;""></stim_listA>","is shouting at","","","","","",""
"null","<div style=""font-size:60px;"">+</div>","","html-keyboard-response","274","1388350","0.0-17.0-0.12","60999","List2A","black","woman","","","","null","","","","","","","","",""
"null","<img src=""stim_listA/copy4.gif""style=""height:400px;""></stim_listA>","","html-keyboard-response","275","1390355","0.0-17.0-1.12","60999","List2A","black","woman","","","","null","","","","","","","","",""
"null","is being copied by","","html-keyboard-response","276","1392360","0.0-17.0-2.12","60999","List2A","black","woman","","","","null","","","","","","","","",""
"5397.800000000279","","","survey-text","277","1397760","0.0-17.0-3.12","60999","List2A","black","woman","","","","","{""Q0"":""kate is being copied by fred""}","<img src=""stim_listA/copy4.gif""style=""height:400px;""></stim_listA>","is being copied by","","","","","",""
"null","<div style=""font-size:60px;"">+</div>","","html-keyboard-response","278","1398264","0.0-17.0-0.13","60999","List2A","black","woman","","","","null","","","","","","","","",""
"null","<img src=""stim_listA/oppose5.gif""style=""height:400px;""></stim_listA>","","html-keyboard-response","279","1400269","0.0-17.0-1.13","60999","List2A","black","woman","","","","null","","","","","","","","",""
"null","is opposing","","html-keyboard-response","280","1402274","0.0-17.0-2.13","60999","List2A","black","woman","","","","null","","","","","","","","",""
"5061.600000000093","","","survey-text","281","1407339","0.0-17.0-3.13","60999","List2A","black","woman","","","","","{""Q0"":""dave is opposing mike""}","<img src=""stim_listA/oppose5.gif""style=""height:400px;""></stim_listA>","is opposing","","","","","",""
"null","<div style=""font-size:60px;"">+</div>","","html-keyboard-response","282","1407843","0.0-17.0-0.14","60999","List2A","black","woman","","","","null","","","","","","","","",""
"null","<img src=""stim_listA/shout1.gif""style=""height:400px;""></stim_listA>","","html-keyboard-response","283","1409848","0.0-17.0-1.14","60999","List2A","black","woman","","","","null","","","","","","","","",""
"null","is shouting at","","html-keyboard-response","284","1411853","0.0-17.0-2.14","60999","List2A","black","woman","","","","null","","","","","","","","",""
"6636","","","survey-text","285","1418492","0.0-17.0-3.14","60999","List2A","black","woman","","","","","{""Q0"":""luke is shouting at ruth""}","<img src=""stim_listA/shout1.gif""style=""height:400px;""></stim_listA>","is shouting at","","","","","",""
"null","<div style=""font-size:60px;"">+</div>","","html-keyboard-response","286","1418995","0.0-17.0-0.15","60999","List2A","black","woman","","","","null","","","","","","","","",""
"null","<img src=""stim_listA/hug4.gif""style=""height:400px;""></stim_listA>","","html-keyboard-response","287","1421000","0.0-17.0-1.15","60999","List2A","black","woman","","","","null","","","","","","","","",""
"null","is being hugged by","","html-keyboard-response","288","1423005","0.0-17.0-2.15","60999","List2A","black","woman","","","","null","","","","","","","","",""
"5316.5","","","survey-text","289","1428324","0.0-17.0-3.15","60999","List2A","black","woman","","","","","{""Q0"":""kate is being hugged by mike""}","<img src=""stim_listA/hug4.gif""style=""height:400px;""></stim_listA>","is being hugged by","","","","","",""
"null","<div style=""font-size:60px;"">+</div>","","html-keyboard-response","290","1428825","0.0-17.0-0.16","60999","List2A","black","woman","","","","null","","","","","","","","",""
"null","<img src=""stim_listA/kiss3.gif""style=""height:400px;""></stim_listA>","","html-keyboard-response","291","1430830","0.0-17.0-1.16","60999","List2A","black","woman","","","","null","","","","","","","","",""
"null","is kissing","","html-keyboard-response","292","1432835","0.0-17.0-2.16","60999","List2A","black","woman","","","","null","","","","","","","","",""
"4385.0999999996275","","","survey-text","293","1437223","0.0-17.0-3.16","60999","List2A","black","woman","","","","","{""Q0"":""beth is kissing fred""}","<img src=""stim_listA/kiss3.gif""style=""height:400px;""></stim_listA>","is kissing","","","","","",""
"null","<div style=""font-size:60px;"">+</div>","","html-keyboard-response","294","1437724","0.0-17.0-0.17","60999","List2A","black","woman","","","","null","","","","","","","","",""
"null","<img src=""stim_listA/oppose1.gif""style=""height:400px;""></stim_listA>","","html-keyboard-response","295","1439726","0.0-17.0-1.17","60999","List2A","black","woman","","","","null","","","","","","","","",""
"null","is opposing","","html-keyboard-response","296","1441730","0.0-17.0-2.17","60999","List2A","black","woman","","","","null","","","","","","","","",""
"3512","","","survey-text","297","1445245","0.0-17.0-3.17","60999","List2A","black","woman","","","","","{""Q0"":""dave is opposing jane""}","<img src=""stim_listA/oppose1.gif""style=""height:400px;""></stim_listA>","is opposing","","","","","",""
"null","<div style=""font-size:60px;"">+</div>","","html-keyboard-response","298","1445747","0.0-17.0-0.18","60999","List2A","black","woman","","","","null","","","","","","","","",""
"null","<img src=""stim_listA/seduce7.gif""style=""height:400px;""></stim_listA>","","html-keyboard-response","299","1447752","0.0-17.0-1.18","60999","List2A","black","woman","","","","null","","","","","","","","",""
"null","is seducing","","html-keyboard-response","300","1449758","0.0-17.0-2.18","60999","List2A","black","woman","","","","null","","","","","","","","",""
"6822.899999999907","","","survey-text","301","1456583","0.0-17.0-3.18","60999","List2A","black","woman","","","","","{""Q0"":""ruth is seducing kate""}","<img src=""stim_listA/seduce7.gif""style=""height:400px;""></stim_listA>","is seducing","","","","","",""
"null","<div style=""font-size:60px;"">+</div>","","html-keyboard-response","302","1457086","0.0-17.0-0.19","60999","List2A","black","woman","","","","null","","","","","","","","",""
"null","<img src=""stim_listA/greet3.gif""style=""height:400px;""></stim_listA>","","html-keyboard-response","303","1459091","0.0-17.0-1.19","60999","List2A","black","woman","","","","null","","","","","","","","",""
"null","is greeting","","html-keyboard-response","304","1461096","0.0-17.0-2.19","60999","List2A","black","woman","","","","null","","","","","","","","",""
"6093.5","","","survey-text","305","1467192","0.0-17.0-3.19","60999","List2A","black","woman","","","","","{""Q0"":""beth is greeting mike""}","<img src=""stim_listA/greet3.gif""style=""height:400px;""></stim_listA>","is greeting","","","","","",""
"1936.6000000000931","<img src='img/portrait_matrix_list2.jpg' style='width:900px;height:500px;''></img><p>If you have memorised all the portraits and names and are ready to start, press Continue.</p><p><strong>Please note: Your memory of these faces will be tested 4 times during this experiment.</strong></p>","0","html-button-response","306","1469130","0.0-18.0-0.0","60999","List2A","black","woman","","","","","","","","","","","","",""
"1031.3999999999069","<img src=""portrait/WM2.jpg""style=""height:400px;""></img>","7","html-button-response","307","1471163","0.0-18.0-1.0","60999","List2A","black","woman","","true","7","","","","","","","","","",""
"null","CORRECT","","html-keyboard-response","308","1472670","0.0-18.0-2.0-0.0","60999","List2A","black","woman","","","","null","","","","","","","","",""
"1956.4000000003725","<img src=""portrait/BW2.jpg""style=""height:400px;""></img>","2","html-button-response","309","1474627","0.0-18.0-4.0","60999","List2A","black","woman","","true","2","","","","","","","","","",""
"null","CORRECT","","html-keyboard-response","310","1476131","0.0-18.0-5.0-0.0","60999","List2A","black","woman","","","","null","","","","","","","","",""
"1124.1000000000931","<img src=""portrait/BM2.jpg""style=""height:400px;""></img>","5","html-button-response","311","1477256","0.0-18.0-7.0","60999","List2A","black","woman","","true","5","","","","","","","","","",""
"null","CORRECT","","html-keyboard-response","312","1478760","0.0-18.0-8.0-0.0","60999","List2A","black","woman","","","","null","","","","","","","","",""
"1205.8999999999069","<img src=""portrait/WW2.jpg""style=""height:400px;""></img>","3","html-button-response","313","1479967","0.0-18.0-10.0","60999","List2A","black","woman","","true","3","","","","","","","","","",""
"null","CORRECT","","html-keyboard-response","314","1481470","0.0-18.0-11.0-0.0","60999","List2A","black","woman","","","","null","","","","","","","","",""
"3911.3000000002794","<img src=""portrait/WW1.jpg""style=""height:400px;""></img>","1","html-button-response","315","1485382","0.0-18.0-13.0","60999","List2A","black","woman","","true","1","","","","","","","","","",""
"null","CORRECT","","html-keyboard-response","316","1486888","0.0-18.0-14.0-0.0","60999","List2A","black","woman","","","","null","","","","","","","","",""
"1441.2000000001863","<img src=""portrait/WM1.jpg""style=""height:400px;""></img>","6","html-button-response","317","1488331","0.0-18.0-16.0","60999","List2A","black","woman","","true","6","","","","","","","","","",""
"null","CORRECT","","html-keyboard-response","318","1489833","0.0-18.0-17.0-0.0","60999","List2A","black","woman","","","","null","","","","","","","","",""
"2368.5","<img src=""portrait/BW1.jpg""style=""height:400px;""></img>","0","html-button-response","319","1492202","0.0-18.0-19.0","60999","List2A","black","woman","","true","0","","","","","","","","","",""
"null","CORRECT","","html-keyboard-response","320","1493704","0.0-18.0-20.0-0.0","60999","List2A","black","woman","","","","null","","","","","","","","",""
"1347.2999999998137","<img src=""portrait/BM1.jpg""style=""height:400px;""></img>","4","html-button-response","321","1495053","0.0-18.0-22.0","60999","List2A","black","woman","","true","4","","","","","","","","","",""
"null","CORRECT","","html-keyboard-response","322","1496558","0.0-18.0-23.0-0.0","60999","List2A","black","woman","","","","null","","","","","","","","",""
"1458.1000000000931","<p>You got 8 out of 8 right first time. Press Continue.</p>","0","html-button-response","323","1498017","0.0-18.0-25.0","60999","List2A","black","woman","","","","","","","","","","","","",""
"null","<div style=""font-size:60px;"">+</div>","","html-keyboard-response","324","1499523","0.0-19.0-0.0","60999","List2A","black","woman","","","","null","","","","","","","","",""
"null","<img src=""stim_listA/seduce5.gif""style=""height:400px;""></stim_listA>","","html-keyboard-response","325","1501529","0.0-19.0-1.0","60999","List2A","black","woman","","","","null","","","","","","","","",""
"null","is seducing","","html-keyboard-response","326","1503533","0.0-19.0-2.0","60999","List2A","black","woman","","","","null","","","","","","","","",""
"6012.300000000279","","","survey-text","327","1509548","0.0-19.0-3.0","60999","List2A","black","woman","","","","","{""Q0"":""mike is seducing luke""}","<img src=""stim_listA/seduce5.gif""style=""height:400px;""></stim_listA>","is seducing","","","","","",""
"null","<div style=""font-size:60px;"">+</div>","","html-keyboard-response","328","1510051","0.0-19.0-0.1","60999","List2A","black","woman","","","","null","","","","","","","","",""
"null","<img src=""stim_listA/seduce8.gif""style=""height:400px;""></stim_listA>","","html-keyboard-response","329","1512057","0.0-19.0-1.1","60999","List2A","black","woman","","","","null","","","","","","","","",""
"null","is being seduced by","","html-keyboard-response","330","1514062","0.0-19.0-2.1","60999","List2A","black","woman","","","","null","","","","","","","","",""
"6792.799999999814","","","survey-text","331","1520858","0.0-19.0-3.1","60999","List2A","black","woman","","","","","{""Q0"":""jane is being seduced by beth""}","<img src=""stim_listA/seduce8.gif""style=""height:400px;""></stim_listA>","is being seduced by","","","","","",""
"null","<div style=""font-size:60px;"">+</div>","","html-keyboard-response","332","1521359","0.0-19.0-0.2","60999","List2A","black","woman","","","","null","","","","","","","","",""
"null","<img src=""stim_listA/look8.gif""style=""height:400px;""></stim_listA>","","html-keyboard-response","333","1523363","0.0-19.0-1.2","60999","List2A","black","woman","","","","null","","","","","","","","",""
"null","is being looked at by","","html-keyboard-response","334","1525369","0.0-19.0-2.2","60999","List2A","black","woman","","","","null","","","","","","","","",""
"6379.799999999814","","","survey-text","335","1531752","0.0-19.0-3.2","60999","List2A","black","woman","","","","","{""Q0"":""kate is being looked at by jane""}","<img src=""stim_listA/look8.gif""style=""height:400px;""></stim_listA>","is being looked at by","","","","","",""
"null","<div style=""font-size:60px;"">+</div>","","html-keyboard-response","336","1532254","0.0-19.0-0.3","60999","List2A","black","woman","","","","null","","","","","","","","",""
"null","<img src=""stim_listA/kiss5.gif""style=""height:400px;""></stim_listA>","","html-keyboard-response","337","1534260","0.0-19.0-1.3","60999","List2A","black","woman","","","","null","","","","","","","","",""
"null","is kissing","","html-keyboard-response","338","1536265","0.0-19.0-2.3","60999","List2A","black","woman","","","","null","","","","","","","","",""
"3940.2999999998137","","","survey-text","339","1540208","0.0-19.0-3.3","60999","List2A","black","woman","","","","","{""Q0"":""fred is kissing luke""}","<img src=""stim_listA/kiss5.gif""style=""height:400px;""></stim_listA>","is kissing","","","","","",""
"null","<div style=""font-size:60px;"">+</div>","","html-keyboard-response","340","1540709","0.0-19.0-0.4","60999","List2A","black","woman","","","","null","","","","","","","","",""
"null","<img src=""stim_listA/greet6.gif""style=""height:400px;""></stim_listA>","","html-keyboard-response","341","1542713","0.0-19.0-1.4","60999","List2A","black","woman","","","","null","","","","","","","","",""
"null","is being greeted by","","html-keyboard-response","342","1544718","0.0-19.0-2.4","60999","List2A","black","woman","","","","null","","","","","","","","",""
"7181.5","","","survey-text","343","1551902","0.0-19.0-3.4","60999","List2A","black","woman","","","","","{""Q0"":""mike is being greeted by luke""}","<img src=""stim_listA/greet6.gif""style=""height:400px;""></stim_listA>","is being greeted by","","","","","",""
"null","<div style=""font-size:60px;"">+</div>","","html-keyboard-response","344","1552403","0.0-19.0-0.5","60999","List2A","black","woman","","","","null","","","","","","","","",""
"null","<img src=""stim_listA/hug2.gif""style=""height:400px;""></stim_listA>","","html-keyboard-response","345","1554409","0.0-19.0-1.5","60999","List2A","black","woman","","","","null","","","","","","","","",""
"null","is being hugged by","","html-keyboard-response","346","1556414","0.0-19.0-2.5","60999","List2A","black","woman","","","","null","","","","","","","","",""
"4772.300000000279","","","survey-text","347","1561189","0.0-19.0-3.5","60999","List2A","black","woman","","","","","{""Q0"":""dave is being hugged by jane""}","<img src=""stim_listA/hug2.gif""style=""height:400px;""></stim_listA>","is being hugged by","","","","","",""
"null","<div style=""font-size:60px;"">+</div>","","html-keyboard-response","348","1561689","0.0-19.0-0.6","60999","List2A","black","woman","","","","null","","","","","","","","",""
"null","<img src=""stim_listA/touch8.gif""style=""height:400px;""></stim_listA>","","html-keyboard-response","349","1563694","0.0-19.0-1.6","60999","List2A","black","woman","","","","null","","","","","","","","",""
"null","is being touched by","","html-keyboard-response","350","1565700","0.0-19.0-2.6","60999","List2A","black","woman","","","","null","","","","","","","","",""
"6439.200000000186","","","survey-text","351","1572141","0.0-19.0-3.6","60999","List2A","black","woman","","","","","{""Q0"":""beth is being touched by ruth""}","<img src=""stim_listA/touch8.gif""style=""height:400px;""></stim_listA>","is being touched by","","","","","",""
"null","<div style=""font-size:60px;"">+</div>","","html-keyboard-response","352","1572644","0.0-19.0-0.7","60999","List2A","black","woman","","","","null","","","","","","","","",""
"null","<img src=""stim_listA/shout5.gif""style=""height:400px;""></stim_listA>","","html-keyboard-response","353","1574649","0.0-19.0-1.7","60999","List2A","black","woman","","","","null","","","","","","","","",""
"null","is shouting at","","html-keyboard-response","354","1576654","0.0-19.0-2.7","60999","List2A","black","woman","","","","null","","","","","","","","",""
"8408.799999999814","","","survey-text","355","1585065","0.0-19.0-3.7","60999","List2A","black","woman","","","","","{""Q0"":""luke is shouting at fred""}","<img src=""stim_listA/shout5.gif""style=""height:400px;""></stim_listA>","is shouting at","","","","","",""
"null","<div style=""font-size:60px;"">+</div>","","html-keyboard-response","356","1585566","0.0-19.0-0.8","60999","List2A","black","woman","","","","null","","","","","","","","",""
"null","<img src=""stim_listA/look1.gif""style=""height:400px;""></stim_listA>","","html-keyboard-response","357","1587572","0.0-19.0-1.8","60999","List2A","black","woman","","","","null","","","","","","","","",""
"null","is looking at","","html-keyboard-response","358","1589577","0.0-19.0-2.8","60999","List2A","black","woman","","","","null","","","","","","","","",""
"4431.800000000279","","","survey-text","359","1594011","0.0-19.0-3.8","60999","List2A","black","woman","","","","","{""Q0"":""ruth is looking at luke""}","<img src=""stim_listA/look1.gif""style=""height:400px;""></stim_listA>","is looking at","","","","","",""
"null","<div style=""font-size:60px;"">+</div>","","html-keyboard-response","360","1594512","0.0-19.0-0.9","60999","List2A","black","woman","","","","null","","","","","","","","",""
"null","<img src=""stim_listA/seduce6.gif""style=""height:400px;""></stim_listA>","","html-keyboard-response","361","1596516","0.0-19.0-1.9","60999","List2A","black","woman","","","","null","","","","","","","","",""
"null","is being seduced by","","html-keyboard-response","362","1598521","0.0-19.0-2.9","60999","List2A","black","woman","","","","null","","","","","","","","",""
"4786.899999999907","","","survey-text","363","1603311","0.0-19.0-3.9","60999","List2A","black","woman","","","","","{""Q0"":""fred is being seduced by dave""}","<img src=""stim_listA/seduce6.gif""style=""height:400px;""></stim_listA>","is being seduced by","","","","","",""
"null","<div style=""font-size:60px;"">+</div>","","html-keyboard-response","364","1603812","0.0-19.0-0.10","60999","List2A","black","woman","","","","null","","","","","","","","",""
"null","<img src=""stim_listA/greet7.gif""style=""height:400px;""></stim_listA>","","html-keyboard-response","365","1605817","0.0-19.0-1.10","60999","List2A","black","woman","","","","null","","","","","","","","",""
"null","is greeting","","html-keyboard-response","366","1607823","0.0-19.0-2.10","60999","List2A","black","woman","","","","null","","","","","","","","",""
"4245.199999999721","","","survey-text","367","1612070","0.0-19.0-3.10","60999","List2A","black","woman","","","","","{""Q0"":""jane is greeting beth""}","<img src=""stim_listA/greet7.gif""style=""height:400px;""></stim_listA>","is greeting","","","","","",""
"null","<div style=""font-size:60px;"">+</div>","","html-keyboard-response","368","1612573","0.0-19.0-0.11","60999","List2A","black","woman","","","","null","","","","","","","","",""
"null","<img src=""stim_listA/copy5.gif""style=""height:400px;""></stim_listA>","","html-keyboard-response","369","1614575","0.0-19.0-1.11","60999","List2A","black","woman","","","","null","","","","","","","","",""
"null","is copying","","html-keyboard-response","370","1616579","0.0-19.0-2.11","60999","List2A","black","woman","","","","null","","","","","","","","",""
"3686.899999999907","","","survey-text","371","1620269","0.0-19.0-3.11","60999","List2A","black","woman","","","","","{""Q0"":""dave is copying fred""}","<img src=""stim_listA/copy5.gif""style=""height:400px;""></stim_listA>","is copying","","","","","",""
"null","<div style=""font-size:60px;"">+</div>","","html-keyboard-response","372","1620772","0.0-19.0-0.12","60999","List2A","black","woman","","","","null","","","","","","","","",""
"null","<img src=""stim_listA/touch7.gif""style=""height:400px;""></stim_listA>","","html-keyboard-response","373","1622777","0.0-19.0-1.12","60999","List2A","black","woman","","","","null","","","","","","","","",""
"null","is touching","","html-keyboard-response","374","1624783","0.0-19.0-2.12","60999","List2A","black","woman","","","","null","","","","","","","","",""
"4142.0999999996275","","","survey-text","375","1628927","0.0-19.0-3.12","60999","List2A","black","woman","","","","","{""Q0"":""jane is touching kate""}","<img src=""stim_listA/touch7.gif""style=""height:400px;""></stim_listA>","is touching","","","","","",""
"null","<div style=""font-size:60px;"">+</div>","","html-keyboard-response","376","1629428","0.0-19.0-0.13","60999","List2A","black","woman","","","","null","","","","","","","","",""
"null","<img src=""stim_listA/kiss4.gif""style=""height:400px;""></stim_listA>","","html-keyboard-response","377","1631433","0.0-19.0-1.13","60999","List2A","black","woman","","","","null","","","","","","","","",""
"null","is being kissed by","","html-keyboard-response","378","1633439","0.0-19.0-2.13","60999","List2A","black","woman","","","","null","","","","","","","","",""
"4875.700000000186","","","survey-text","379","1638317","0.0-19.0-3.13","60999","List2A","black","woman","","","","","{""Q0"":""kate is being kissed by mike""}","<img src=""stim_listA/kiss4.gif""style=""height:400px;""></stim_listA>","is being kissed by","","","","","",""
"null","<div style=""font-size:60px;"">+</div>","","html-keyboard-response","380","1638820","0.0-19.0-0.14","60999","List2A","black","woman","","","","null","","","","","","","","",""
"null","<img src=""stim_listA/oppose3.gif""style=""height:400px;""></stim_listA>","","html-keyboard-response","381","1640825","0.0-19.0-1.14","60999","List2A","black","woman","","","","null","","","","","","","","",""
"null","is opposing","","html-keyboard-response","382","1642831","0.0-19.0-2.14","60999","List2A","black","woman","","","","null","","","","","","","","",""
"4041.8000000002794","","","survey-text","383","1646875","0.0-19.0-3.14","60999","List2A","black","woman","","","","","{""Q0"":""kate is opposing mike""}","<img src=""stim_listA/oppose3.gif""style=""height:400px;""></stim_listA>","is opposing","","","","","",""
"null","<div style=""font-size:60px;"">+</div>","","html-keyboard-response","384","1647376","0.0-19.0-0.15","60999","List2A","black","woman","","","","null","","","","","","","","",""
"null","<img src=""stim_listA/shout2.gif""style=""height:400px;""></stim_listA>","","html-keyboard-response","385","1649380","0.0-19.0-1.15","60999","List2A","black","woman","","","","null","","","","","","","","",""
"null","is being shouted at by","","html-keyboard-response","386","1651385","0.0-19.0-2.15","60999","List2A","black","woman","","","","null","","","","","","","","",""
"5706.600000000093","","","survey-text","387","1657095","0.0-19.0-3.15","60999","List2A","black","woman","","","","","{""Q0"":""jane is being shouted at by dave""}","<img src=""stim_listA/shout2.gif""style=""height:400px;""></stim_listA>","is being shouted at by","","","","","",""
"null","<div style=""font-size:60px;"">+</div>","","html-keyboard-response","388","1657599","0.0-19.0-0.16","60999","List2A","black","woman","","","","null","","","","","","","","",""
"null","<img src=""stim_listA/challenge4.gif""style=""height:400px;""></stim_listA>","","html-keyboard-response","389","1659604","0.0-19.0-1.16","60999","List2A","black","woman","","","","null","","","","","","","","",""
"null","is being challenged by","","html-keyboard-response","390","1661610","0.0-19.0-2.16","60999","List2A","black","woman","","","","null","","","","","","","","",""
"9817.899999999907","","","survey-text","391","1671431","0.0-19.0-3.16","60999","List2A","black","woman","","","","","{""Q0"":""kate is being challenged by fred""}","<img src=""stim_listA/challenge4.gif""style=""height:400px;""></stim_listA>","is being challenged by","","","","","",""
"null","<div style=""font-size:60px;"">+</div>","","html-keyboard-response","392","1671935","0.0-19.0-0.17","60999","List2A","black","woman","","","","null","","","","","","","","",""
"null","<img src=""stim_listA/greet5.gif""style=""height:400px;""></stim_listA>","","html-keyboard-response","393","1673940","0.0-19.0-1.17","60999","List2A","black","woman","","","","null","","","","","","","","",""
"null","is greeting","","html-keyboard-response","394","1675941","0.0-19.0-2.17","60999","List2A","black","woman","","","","null","","","","","","","","",""
"8587.399999999907","","","survey-text","395","1684531","0.0-19.0-3.17","60999","List2A","black","woman","","","","","{""Q0"":""dave is greeting fred""}","<img src=""stim_listA/greet5.gif""style=""height:400px;""></stim_listA>","is greeting","","","","","",""
"null","<div style=""font-size:60px;"">+</div>","","html-keyboard-response","396","1685034","0.0-19.0-0.18","60999","List2A","black","woman","","","","null","","","","","","","","",""
"null","<img src=""stim_listA/hug3.gif""style=""height:400px;""></stim_listA>","","html-keyboard-response","397","1687039","0.0-19.0-1.18","60999","List2A","black","woman","","","","null","","","","","","","","",""
"null","is hugging","","html-keyboard-response","398","1689044","0.0-19.0-2.18","60999","List2A","black","woman","","","","null","","","","","","","","",""
"3229.5","","","survey-text","399","1692276","0.0-19.0-3.18","60999","List2A","black","woman","","","","","{""Q0"":""fred is hugging beth""}","<img src=""stim_listA/hug3.gif""style=""height:400px;""></stim_listA>","is hugging","","","","","",""
"null","<div style=""font-size:60px;"">+</div>","","html-keyboard-response","400","1692778","0.0-19.0-0.19","60999","List2A","black","woman","","","","null","","","","","","","","",""
"null","<img src=""stim_listA/look2.gif""style=""height:400px;""></stim_listA>","","html-keyboard-response","401","1694783","0.0-19.0-1.19","60999","List2A","black","woman","","","","null","","","","","","","","",""
"null","is being looked at by","","html-keyboard-response","402","1696789","0.0-19.0-2.19","60999","List2A","black","woman","","","","null","","","","","","","","",""
"4497","","","survey-text","403","1701288","0.0-19.0-3.19","60999","List2A","black","woman","","","","","{""Q0"":""jane is being looked at by dave""}","<img src=""stim_listA/look2.gif""style=""height:400px;""></stim_listA>","is being looked at by","","","","","",""
"2878.100000000093","<p>Thank you for completing that task.</p><p>The final part of this session is a questionnaire that will take about 4 minutes.</p><p>Press Continue.</p>","0","html-button-response","404","1704167","0.0-20.0","60999","List2A","black","woman","","","","","","","","","","","","",""
"21237","","","survey-text","405","1726417","0.0-21.0","60999","List2A","black","woman","","","","","{""Q0"":""21"",""Q1"":""English"",""Q2"":""English"",""Q3"":""United States"",""Q4"":""American"",""Q5"":""Black"",""Q6"":""Female""}","","","demographics","","","","",""
"1948.7999999998137","<p>Have you lived in the USA for the last 5 years or more?</p>","0","html-button-response","406","1728368","0.0-22.0","60999","List2A","black","woman","","","","","","","","fiveyears","","","","",""
"1936.6000000000931","<p>Move the slider to show the extent to which you agree with the following statements.</p>","0","html-button-response","407","1731307","0.0-23.0","60999","List2A","black","woman","","","","","","","","","","","","",""
"7719.600000000093","","","html-slider-response","408","1740030","0.0-24.0-0.0-0.0","60999","List2A","black","woman","","","","","","","","survey_race","34","","","It is pleasant to be my race.","pleasant"
"2447.5","","","html-slider-response","409","1742479","0.0-24.0-0.0-0.1","60999","List2A","black","woman","","","","","","","","survey_race","73","","","I am glad to be my race.","glad"
"2685.399999999907","","","html-slider-response","410","1745166","0.0-24.0-0.0-0.2","60999","List2A","black","woman","","","","","","","","survey_race","82","","","I am glad to be the age I am.","filler"
"2513.7000000001863","","","html-slider-response","411","1747681","0.0-24.0-0.0-0.3","60999","List2A","black","woman","","","","","","","","survey_race","100","","","I feel a bond with my race.","bond"
"3582.899999999907","","","html-slider-response","412","1751265","0.0-24.0-0.0-0.4","60999","List2A","black","woman","","","","","","","","survey_race","65","","","I have a lot in common with the average person of my race.","average"
"2823.7000000001863","","","html-slider-response","413","1754091","0.0-24.0-0.0-0.5","60999","List2A","black","woman","","","","","","","","survey_race","92","","","I have a lot in common with people of a similar age to me.","filler"
"2782.899999999907","","","html-slider-response","414","1756875","0.0-24.0-0.0-0.6","60999","List2A","black","woman","","","","","","","","survey_race","83","","","Being my race is an important part of how I see myself.","important"
"1982.5","","","html-slider-response","415","1758859","0.0-24.0-0.0-0.7","60999","List2A","black","woman","","","","","","","","survey_race","72","","","Being my age gives me a good feeling.","filler"
"2137.7999999998137","","","html-slider-response","416","1760999","0.0-24.0-0.0-0.8","60999","List2A","black","woman","","","","","","","","survey_race","75","","","The fact that I am my race is an important part of my identity.","identity"
"3925.7000000001863","","","html-slider-response","417","1764926","0.0-24.0-0.0-0.9","60999","List2A","black","woman","","","","","","","","survey_race","77","","","Being my race gives me a good feeling.","feeling"
"2235.6999999997206","","","html-slider-response","418","1767163","0.0-24.0-0.0-0.10","60999","List2A","black","woman","","","","","","","","survey_race","84","","","I am glad to be my age.","filler"
"3093.399999999907","","","html-slider-response","419","1770258","0.0-24.0-0.0-0.11","60999","List2A","black","woman","","","","","","","","survey_race","58","","","People of my race are very similar to each other.","verysimilar"
"2423.399999999907","","","html-slider-response","420","1772682","0.0-24.0-0.0-0.12","60999","List2A","black","woman","","","","","","","","survey_race","69","","","The older I get, the wiser I feel.","filler"
"3175.3000000002794","","","html-slider-response","421","1775859","0.0-24.0-0.0-0.13","60999","List2A","black","woman","","","","","","","","survey_race","34","","","I often think about the fact that I am my age.","filler"
"4300.799999999814","","","html-slider-response","422","1780161","0.0-24.0-0.0-0.14","60999","List2A","black","woman","","","","","","","","survey_race","36","","","I am similar to the average person of my race.","similar"
"2080.600000000093","","","html-slider-response","423","1782243","0.0-24.0-0.0-0.15","60999","List2A","black","woman","","","","","","","","survey_race","32","","","I feel committed to my race.","committed"
"5975.399999999907","","","html-slider-response","424","1788220","0.0-24.0-0.0-0.16","60999","List2A","black","woman","","","","","","","","survey_race","74","","","I think that my race has a lot to be proud of.","proud"
"2790.5999999996275","","","html-slider-response","425","1791013","0.0-24.0-0.0-0.17","60999","List2A","black","woman","","","","","","","","survey_race","88","","","I consider myself an introvert.","filler"
"2014.8999999999069","","","html-slider-response","426","1793029","0.0-24.0-0.0-0.18","60999","List2A","black","woman","","","","","","","","survey_race","74","","","I feel solidarity with my race.","solidarity"
"2766.899999999907","","","html-slider-response","427","1795798","0.0-24.0-0.0-0.19","60999","List2A","black","woman","","","","","","","","survey_race","41","","","I consider myself an extrovert.","filler"
"3583.5","","","html-slider-response","428","1799382","0.0-24.0-0.0-0.20","60999","List2A","black","woman","","","","","","","","survey_race","35","","","My age is not an important part of who I am.","filler"
"3158","","","html-slider-response","429","1802542","0.0-24.0-0.0-0.21","60999","List2A","black","woman","","","","","","","","survey_race","22","","","Getting older does not worry me.","filler"
"2815.600000000093","","","html-slider-response","430","1805359","0.0-24.0-0.0-0.22","60999","List2A","black","woman","","","","","","","","survey_race","67","","","I often think about the fact that I am my race.","often"
"2562.4000000003725","","","html-slider-response","431","1807923","0.0-24.0-0.0-0.23","60999","List2A","black","woman","","","","","","","","survey_race","74","","","People of my race have a lot in common with each other.","common"
"2373.899999999907","","","html-slider-response","432","1810298","0.0-24.0-0.0-0.24","60999","List2A","black","woman","","","","","","","","survey_race","69","","","I feel a bond with people the same age as me.","filler"
"2286","","","html-slider-response","433","1812585","0.0-24.0-0.0-0.25","60999","List2A","black","woman","","","","","","","","survey_race","68","","","I enjoy being in large groups.","filler"
"3191","","","html-slider-response","434","1815778","0.0-24.0-0.0-0.26","60999","List2A","black","woman","","","","","","","","survey_race","91","","","People my age have a lot in common with each other.","filler"
"2162.3000000002794","","","html-slider-response","435","1817941","0.0-24.0-0.0-0.27","60999","List2A","black","woman","","","","","","","","survey_race","88","","","I feel solidarity with people the same age as me.","filler"
"2362.600000000093","","","html-slider-response","436","1820305","0.0-24.0-1.0-0.0","60999","List2A","black","woman","","","","","","","","survey_gender","92","","","I am glad to have the friends that I have.","filler"
"1958.1000000000931","","","html-slider-response","437","1822265","0.0-24.0-1.0-0.1","60999","List2A","black","woman","","","","","","","","survey_gender","78","","","I feel a bond with my friends.","filler"
"2366.3000000002794","","","html-slider-response","438","1824633","0.0-24.0-1.0-0.2","60999","List2A","black","woman","","","","","","","","survey_gender","87","","","I would say I am an animal person.","filler"
"2831.8000000002794","","","html-slider-response","439","1827466","0.0-24.0-1.0-0.3","60999","List2A","black","woman","","","","","","","","survey_gender","76","","","I have a lot in common with the average person of my gender.","average"
"1831.7999999998137","","","html-slider-response","440","1829299","0.0-24.0-1.0-0.4","60999","List2A","black","woman","","","","","","","","survey_gender","80","","","It is pleasant to be my gender.","pleasant"
"7977.699999999721","","","html-slider-response","441","1837278","0.0-24.0-1.0-0.5","60999","List2A","black","woman","","","","","","","","survey_gender","60","","","I feel solidarity with my friends.","filler"
"4811.200000000186","","","html-slider-response","442","1842091","0.0-24.0-1.0-0.6","60999","List2A","black","woman","","","","","","","","survey_gender","66","","","I think that my gender has a lot to be proud of.","proud"
"1974.1999999997206","","","html-slider-response","443","1844067","0.0-24.0-1.0-0.7","60999","List2A","black","woman","","","","","","","","survey_gender","62","","","Being my gender gives me a good feeling.","feeling"
"2390.6999999997206","","","html-slider-response","444","1846459","0.0-24.0-1.0-0.8","60999","List2A","black","woman","","","","","","","","survey_gender","87","","","I consider myself a highly empathetic person.","filler"
"3198.7000000001863","","","html-slider-response","445","1849659","0.0-24.0-1.0-0.9","60999","List2A","black","woman","","","","","","","","survey_gender","64","","","My friends understand me.","filler"
"7028.5999999996275","","","html-slider-response","446","1856689","0.0-24.0-1.0-0.10","60999","List2A","black","woman","","","","","","","","survey_gender","55","","","Being around my friends gives me a good feeling.","filler"
"2500.5","","","html-slider-response","447","1859191","0.0-24.0-1.0-0.11","60999","List2A","black","woman","","","","","","","","survey_gender","54","","","I feel a bond with my gender.","bond"
"2717.5","","","html-slider-response","448","1861910","0.0-24.0-1.0-0.12","60999","List2A","black","woman","","","","","","","","survey_gender","66","","","It is not always easy for people to know what I am thinking.","filler"
"3280.600000000093","","","html-slider-response","449","1865192","0.0-24.0-1.0-0.13","60999","List2A","black","woman","","","","","","","","survey_gender","68","","","Most of the friends in my life are very similar to me.","filler"
"9125.700000000186","","","html-slider-response","450","1874319","0.0-24.0-1.0-0.14","60999","List2A","black","woman","","","","","","","","survey_gender","70","","","I often think about the fact that I am my gender.","often"
"3232.1999999997206","","","html-slider-response","451","1877553","0.0-24.0-1.0-0.15","60999","List2A","black","woman","","","","","","","","survey_gender","65","","","I feel solidarity with my gender.","solidarity"
"4113.300000000279","","","html-slider-response","452","1881668","0.0-24.0-1.0-0.16","60999","List2A","black","woman","","","","","","","","survey_gender","72","","","Being my gender is an important part of how I see myself.","important"
"3023.6999999997206","","","html-slider-response","453","1884693","0.0-24.0-1.0-0.17","60999","List2A","black","woman","","","","","","","","survey_gender","18","","","Routine is not important to me.","filler"
"2990.7999999998137","","","html-slider-response","454","1887686","0.0-24.0-1.0-0.18","60999","List2A","black","woman","","","","","","","","survey_gender","21","","","Family is not more important to me than friendship.","filler"
"3117.2999999998137","","","html-slider-response","455","1890804","0.0-24.0-1.0-0.19","60999","List2A","black","woman","","","","","","","","survey_gender","34","","","People of my gender have a lot in common with each other.","common"
"2725.100000000093","","","html-slider-response","456","1893531","0.0-24.0-1.0-0.20","60999","List2A","black","woman","","","","","","","","survey_gender","59","","","I feel committed to my gender.","committed"
"1704.8999999999069","","","html-slider-response","457","1895238","0.0-24.0-1.0-0.21","60999","List2A","black","woman","","","","","","","","survey_gender","57","","","I have a lot in common with my friends.","filler"
"1729.3999999999069","","","html-slider-response","458","1896968","0.0-24.0-1.0-0.22","60999","List2A","black","woman","","","","","","","","survey_gender","64","","","I am glad to be my gender.","glad"
"2554.399999999907","","","html-slider-response","459","1899524","0.0-24.0-1.0-0.23","60999","List2A","black","woman","","","","","","","","survey_gender","86","","","I often think about my actions.","filler"
"3999.399999999907","","","html-slider-response","460","1903525","0.0-24.0-1.0-0.24","60999","List2A","black","woman","","","","","","","","survey_gender","75","","","I am similar to the average person of my gender.","similar"
"7672.9000000003725","","","html-slider-response","461","1911199","0.0-24.0-1.0-0.25","60999","List2A","black","woman","","","","","","","","survey_gender","71","","","The fact that I am my gender is an important part of my identity.","identity"
"2030.8000000002794","","","html-slider-response","462","1913232","0.0-24.0-1.0-0.26","60999","List2A","black","woman","","","","","","","","survey_gender","67","","","My friends have a lot in common with each other.","filler"
"2154","","","html-slider-response","463","1915387","0.0-24.0-1.0-0.27","60999","List2A","black","woman","","","","","","","","survey_gender","70","","","People of my gender are very similar to each other.","verysimilar"
"6055","","","survey-text","464","1921445","0.0-25.0","60999","List2A","black","woman","","","","","{""Q0"":""60fcbc618cbdbb9771e49ec7""}","","","worker_id","","","","",""
"6343.5","","","external-html","465","1927999","0.0-26.0","60999","List2A","black","woman","debrief.html","","","","","","","","","","","",""
