rt,stimulus,button_pressed,trial_type,trial_index,time_elapsed,internal_node_id,subject,list,ppt_race,ppt_gender,url,first_guess,correct,key_press,responses,image_type,phrase_type,test_part,response,stimulus1,stimulus2,question_type,survey_item
2609.3,Welcome to the experiment. Press Continue to begin.,0,html-button-response,0,2613,0.0-0.0,6133,List2A,white,woman,,,,,,,,,,,,,
11310.6,,,external-html,1,15065,0.0-1.0,6133,List2A,white,woman,consent.html,,,,,,,,,,,,
9415.8,"<p>On the next page, you will see portraits of 8 people and their names.</p><p>Your first task is to take a few minutes to memorise the names of these people.</p><p>You will have to recall their names during the rest of the experiment, so it is</p><p>essential that you try to memorise these people and their names as best as you can.</p><br><p><strong>You will then be tested on your memory of these names and portraits.</strong></p><br><p>The experiment will start after you have completed this memory test.</p><br><p>Ready?</p>",0,html-button-response,2,24483,0.0-2.0,6133,List2A,white,woman,,,,,,,,,,,,,
36077.4,"<img src='img/portrait_matrix_list2.jpg' style='width:900px;height:500px;''></img><p>If you have memorised all the portraits and names and are ready to start, press Continue.</p><p><strong>Please note: Your memory of these faces will be tested 4 times during this experiment.</strong></p>",0,html-button-response,3,61567,0.0-3.0-0.0,6133,List2A,white,woman,,,,,,,,,,,,,
24470.8,"<img src=""portrait/BW2.jpg""style=""height:400px;""></img>",2,html-button-response,4,87045,0.0-3.0-1.0,6133,List2A,white,woman,,TRUE,2,,,,,,,,,,
null,CORRECT,,html-keyboard-response,5,88559,0.0-3.0-2.0-0.0,6133,List2A,white,woman,,,,null,,,,,,,,,
12311.5,"<img src=""portrait/WW1.jpg""style=""height:400px;""></img>",1,html-button-response,6,100873,0.0-3.0-4.0,6133,List2A,white,woman,,TRUE,1,,,,,,,,,,
null,CORRECT,,html-keyboard-response,7,102382,0.0-3.0-5.0-0.0,6133,List2A,white,woman,,,,null,,,,,,,,,
5765.2,"<img src=""portrait/WM1.jpg""style=""height:400px;""></img>",6,html-button-response,8,108149,0.0-3.0-7.0,6133,List2A,white,woman,,TRUE,6,,,,,,,,,,
null,CORRECT,,html-keyboard-response,9,109652,0.0-3.0-8.0-0.0,6133,List2A,white,woman,,,,null,,,,,,,,,
8944.8,"<img src=""portrait/WW2.jpg""style=""height:400px;""></img>",3,html-button-response,10,118599,0.0-3.0-10.0,6133,List2A,white,woman,,TRUE,3,,,,,,,,,,
null,CORRECT,,html-keyboard-response,11,120107,0.0-3.0-11.0-0.0,6133,List2A,white,woman,,,,null,,,,,,,,,
22834.7,"<img src=""portrait/BM2.jpg""style=""height:400px;""></img>",7,html-button-response,12,142944,0.0-3.0-13.0,6133,List2A,white,woman,,TRUE,5,,,,,,,,,,
5429.6,"<img src=""portrait/BM2.jpg""style=""height:400px;""></img>",5,html-button-response,13,149381,0.0-3.0-15.0-0.0,6133,List2A,white,woman,,FALSE,5,,,,,,,,,,
null,CORRECT,,html-keyboard-response,14,150888,0.0-3.0-15.0-1.0-0.0,6133,List2A,white,woman,,,,null,,,,,,,,,
7934.7,"<img src=""portrait/BM1.jpg""style=""height:400px;""></img>",7,html-button-response,15,158825,0.0-3.0-16.0,6133,List2A,white,woman,,TRUE,4,,,,,,,,,,
1777.6,"<img src=""portrait/BM1.jpg""style=""height:400px;""></img>",4,html-button-response,16,161610,0.0-3.0-18.0-0.0,6133,List2A,white,woman,,FALSE,4,,,,,,,,,,
null,CORRECT,,html-keyboard-response,17,163122,0.0-3.0-18.0-1.0-0.0,6133,List2A,white,woman,,,,null,,,,,,,,,
1868.4,"<img src=""portrait/WM2.jpg""style=""height:400px;""></img>",7,html-button-response,18,164993,0.0-3.0-19.0,6133,List2A,white,woman,,TRUE,7,,,,,,,,,,
null,CORRECT,,html-keyboard-response,19,166499,0.0-3.0-20.0-0.0,6133,List2A,white,woman,,,,null,,,,,,,,,
8507.1,"<img src=""portrait/BW1.jpg""style=""height:400px;""></img>",0,html-button-response,20,175008,0.0-3.0-22.0,6133,List2A,white,woman,,TRUE,0,,,,,,,,,,
null,CORRECT,,html-keyboard-response,21,176515,0.0-3.0-23.0-0.0,6133,List2A,white,woman,,,,null,,,,,,,,,
1731.3,<p>You got 6 out of 8 right first time. Press Continue.</p>,0,html-button-response,22,178248,0.0-3.0-25.0,6133,List2A,white,woman,,,,,,,,,,,,,
2786.2,"As you did not score 100%, the memory game will repeat. Press Continue.",0,html-button-response,23,182041,0.0-3.0-26.0-0.0,6133,List2A,white,woman,,,,,,,,,,,,,
10402.1,"<img src='img/portrait_matrix_list2.jpg' style='width:900px;height:500px;''></img><p>If you have memorised all the portraits and names and are ready to start, press Continue.</p><p><strong>Please note: Your memory of these faces will be tested 4 times during this experiment.</strong></p>",0,html-button-response,24,193449,0.0-3.1-0.1,6133,List2A,white,woman,,,,,,,,,,,,,
4072.4,"<img src=""portrait/BW2.jpg""style=""height:400px;""></img>",2,html-button-response,25,198529,0.0-3.1-1.1,6133,List2A,white,woman,,TRUE,2,,,,,,,,,,
null,CORRECT,,html-keyboard-response,26,200037,0.0-3.1-2.1-0.1,6133,List2A,white,woman,,,,null,,,,,,,,,
2622.1,"<img src=""portrait/WW1.jpg""style=""height:400px;""></img>",1,html-button-response,27,202661,0.0-3.1-4.1,6133,List2A,white,woman,,TRUE,1,,,,,,,,,,
null,CORRECT,,html-keyboard-response,28,204172,0.0-3.1-5.1-0.1,6133,List2A,white,woman,,,,null,,,,,,,,,
4400.4,"<img src=""portrait/WM1.jpg""style=""height:400px;""></img>",6,html-button-response,29,208575,0.0-3.1-7.1,6133,List2A,white,woman,,TRUE,6,,,,,,,,,,
null,CORRECT,,html-keyboard-response,30,210078,0.0-3.1-8.1-0.1,6133,List2A,white,woman,,,,null,,,,,,,,,
2161.9,"<img src=""portrait/WW2.jpg""style=""height:400px;""></img>",3,html-button-response,31,212243,0.0-3.1-10.1,6133,List2A,white,woman,,TRUE,3,,,,,,,,,,
null,CORRECT,,html-keyboard-response,32,213751,0.0-3.1-11.1-0.1,6133,List2A,white,woman,,,,null,,,,,,,,,
2768.5,"<img src=""portrait/BM2.jpg""style=""height:400px;""></img>",5,html-button-response,33,216522,0.0-3.1-13.1,6133,List2A,white,woman,,TRUE,5,,,,,,,,,,
null,CORRECT,,html-keyboard-response,34,218029,0.0-3.1-14.1-0.1,6133,List2A,white,woman,,,,null,,,,,,,,,
3245.6,"<img src=""portrait/BM1.jpg""style=""height:400px;""></img>",4,html-button-response,35,221277,0.0-3.1-16.1,6133,List2A,white,woman,,TRUE,4,,,,,,,,,,
null,CORRECT,,html-keyboard-response,36,222784,0.0-3.1-17.1-0.1,6133,List2A,white,woman,,,,null,,,,,,,,,
1495.5,"<img src=""portrait/WM2.jpg""style=""height:400px;""></img>",7,html-button-response,37,224282,0.0-3.1-19.1,6133,List2A,white,woman,,TRUE,7,,,,,,,,,,
null,CORRECT,,html-keyboard-response,38,225791,0.0-3.1-20.1-0.1,6133,List2A,white,woman,,,,null,,,,,,,,,
3839.8,"<img src=""portrait/BW1.jpg""style=""height:400px;""></img>",0,html-button-response,39,229632,0.0-3.1-22.1,6133,List2A,white,woman,,TRUE,0,,,,,,,,,,
null,CORRECT,,html-keyboard-response,40,231139,0.0-3.1-23.1-0.1,6133,List2A,white,woman,,,,null,,,,,,,,,
1317,<p>You got 8 out of 8 right first time. Press Continue.</p>,0,html-button-response,41,232458,0.0-3.1-25.1,6133,List2A,white,woman,,,,,,,,,,,,,
6253.5,"<p>In this experiment, you will view photographs of the people from the memory game interacting.</p><p>By using the <strong>exact</strong> phrase given <i>after</i> the photograph appears and recalling the correct names of the people in the photographs, form a sentence describing the interaction. You do not need to capitalise names.</p><p>Type your answer in the space provided. Please complete every sentence before moving onto the next trial.</p><p>You will only have a few seconds to memorise each given photograph and phrase before you can respond, so try your best to focus.</p><p>An example is given below. Press 'Continue' when you are ready.</p><img src='img/speaking_example.jpg' style='width:800px;height:460px;''></img>",0,html-button-response,42,239719,0.0-4.0,6133,List2A,white,woman,,,,,,,,,,,,,
2614.1,"<p>Before the experiment starts, you will watch two example trials. Press 'Continue'.</p>",0,html-button-response,43,243338,0.0-5.0,6133,List2A,white,woman,,,,,,,,,,,,,
null,<img src='img/play_eg.gif' style='height:400px;''></img>,,html-keyboard-response,44,246344,0.0-6.0,6133,List2A,white,woman,,,,null,,,,,,,,,
null,<p>is playing with</p>,,html-keyboard-response,45,248346,0.0-7.0,6133,List2A,white,woman,,,,null,,,,,,,,,
7891.7,<p><b>Answer:</b> jane is playing with ruth</p>,0,html-button-response,46,256239,0.0-8.0,6133,List2A,white,woman,,,,,,,,,,,,,
null,<img src='img/dance_eg.gif' style='height:400px;''></img>,,html-keyboard-response,47,259245,0.0-9.0,6133,List2A,white,woman,,,,null,,,,,,,,,
null,<p>is being entertained by</p>,,html-keyboard-response,48,261247,0.0-10.0,6133,List2A,white,woman,,,,null,,,,,,,,,
1522,<p><b>Answer:</b> fred is being entertained by mike</p>,0,html-button-response,49,262771,0.0-11.0,6133,List2A,white,woman,,,,,,,,,,,,,
6024.4,"<p>Ready to start the experiment?</p><br><p><strong>Remember to describe the picture using a full sentence,</strong></p><p><strong>that combines the names of the people with the <i>exact</i> phrase given.</strong></p><p><strong>To receive full payment you must do this correctly.</strong></p><p><strong> You do not need to capitalise names or use punctuation.</strong></p><br><p>Press 'Continue' to begin.</p>",0,html-button-response,50,269798,0.0-12.0,6133,List2A,white,woman,,,,,,,,,,,,,
null,"<div style=""font-size:60px;"">+</div>",,html-keyboard-response,51,271302,0.0-13.0-0.0,6133,List2A,white,woman,,,,null,,,,,,,,,
null,"<img src=""stim_listA/copy1.gif""style=""height:400px;""></stim_listA>",,html-keyboard-response,52,273305,0.0-13.0-1.0,6133,List2A,white,woman,,,,null,,,,,,,,,
null,is copying,,html-keyboard-response,53,275310,0.0-13.0-2.0,6133,List2A,white,woman,,,,null,,,,,,,,,
10653.2,,,survey-text,54,285968,0.0-13.0-3.0,6133,List2A,white,woman,,,,,"{""Q0"":""ruth is talking to dave""}","<img src=""stim_listA/copy1.gif""style=""height:400px;""></stim_listA>",is copying,,,,,,
null,"<div style=""font-size:60px;"">+</div>",,html-keyboard-response,55,286471,0.0-13.0-0.1,6133,List2A,white,woman,,,,null,,,,,,,,,
null,"<img src=""stim_listA/oppose1.gif""style=""height:400px;""></stim_listA>",,html-keyboard-response,56,288476,0.0-13.0-1.1,6133,List2A,white,woman,,,,null,,,,,,,,,
null,is opposing,,html-keyboard-response,57,290482,0.0-13.0-2.1,6133,List2A,white,woman,,,,null,,,,,,,,,
11190,,,survey-text,58,301675,0.0-13.0-3.1,6133,List2A,white,woman,,,,,"{""Q0"":""jane is opposing dave""}","<img src=""stim_listA/oppose1.gif""style=""height:400px;""></stim_listA>",is opposing,,,,,,
null,"<div style=""font-size:60px;"">+</div>",,html-keyboard-response,59,302180,0.0-13.0-0.2,6133,List2A,white,woman,,,,null,,,,,,,,,
null,"<img src=""stim_listA/challenge4.gif""style=""height:400px;""></stim_listA>",,html-keyboard-response,60,304189,0.0-13.0-1.2,6133,List2A,white,woman,,,,null,,,,,,,,,
null,is being challenged by,,html-keyboard-response,61,306194,0.0-13.0-2.2,6133,List2A,white,woman,,,,null,,,,,,,,,
6554.5,,,survey-text,62,312751,0.0-13.0-3.2,6133,List2A,white,woman,,,,,"{""Q0"":""kate is arguing with fred""}","<img src=""stim_listA/challenge4.gif""style=""height:400px;""></stim_listA>",is being challenged by,,,,,,
null,"<div style=""font-size:60px;"">+</div>",,html-keyboard-response,63,313256,0.0-13.0-0.3,6133,List2A,white,woman,,,,null,,,,,,,,,
null,"<img src=""stim_listA/copy3.gif""style=""height:400px;""></stim_listA>",,html-keyboard-response,64,315263,0.0-13.0-1.3,6133,List2A,white,woman,,,,null,,,,,,,,,
null,is copying,,html-keyboard-response,65,317269,0.0-13.0-2.3,6133,List2A,white,woman,,,,null,,,,,,,,,
9758.1,,,survey-text,66,327030,0.0-13.0-3.3,6133,List2A,white,woman,,,,,"{""Q0"":""mike is laughing with beth""}","<img src=""stim_listA/copy3.gif""style=""height:400px;""></stim_listA>",is copying,,,,,,
null,"<div style=""font-size:60px;"">+</div>",,html-keyboard-response,67,327535,0.0-13.0-0.4,6133,List2A,white,woman,,,,null,,,,,,,,,
null,"<img src=""stim_listA/seduce7.gif""style=""height:400px;""></stim_listA>",,html-keyboard-response,68,329541,0.0-13.0-1.4,6133,List2A,white,woman,,,,null,,,,,,,,,
null,is seducing,,html-keyboard-response,69,331547,0.0-13.0-2.4,6133,List2A,white,woman,,,,null,,,,,,,,,
13151.6,,,survey-text,70,344701,0.0-13.0-3.4,6133,List2A,white,woman,,,,,"{""Q0"":""beth is seducing ruth""}","<img src=""stim_listA/seduce7.gif""style=""height:400px;""></stim_listA>",is seducing,,,,,,
null,"<div style=""font-size:60px;"">+</div>",,html-keyboard-response,71,345203,0.0-13.0-0.5,6133,List2A,white,woman,,,,null,,,,,,,,,
null,"<img src=""stim_listA/greet1.gif""style=""height:400px;""></stim_listA>",,html-keyboard-response,72,347209,0.0-13.0-1.5,6133,List2A,white,woman,,,,null,,,,,,,,,
null,is greeting,,html-keyboard-response,73,349215,0.0-13.0-2.5,6133,List2A,white,woman,,,,null,,,,,,,,,
8910.1,,,survey-text,74,358128,0.0-13.0-3.5,6133,List2A,white,woman,,,,,"{""Q0"":""ruth is greeting dave""}","<img src=""stim_listA/greet1.gif""style=""height:400px;""></stim_listA>",is greeting,,,,,,
null,"<div style=""font-size:60px;"">+</div>",,html-keyboard-response,75,358632,0.0-13.0-0.6,6133,List2A,white,woman,,,,null,,,,,,,,,
null,"<img src=""stim_listA/shout8.gif""style=""height:400px;""></stim_listA>",,html-keyboard-response,76,360639,0.0-13.0-1.6,6133,List2A,white,woman,,,,null,,,,,,,,,
null,is being shouted at by,,html-keyboard-response,77,362640,0.0-13.0-2.6,6133,List2A,white,woman,,,,null,,,,,,,,,
11308.8,,,survey-text,78,373952,0.0-13.0-3.6,6133,List2A,white,woman,,,,,"{""Q0"":""jane is being shouted at by kate""}","<img src=""stim_listA/shout8.gif""style=""height:400px;""></stim_listA>",is being shouted at by,,,,,,
null,"<div style=""font-size:60px;"">+</div>",,html-keyboard-response,79,374456,0.0-13.0-0.7,6133,List2A,white,woman,,,,null,,,,,,,,,
null,"<img src=""stim_listA/look8.gif""style=""height:400px;""></stim_listA>",,html-keyboard-response,80,376463,0.0-13.0-1.7,6133,List2A,white,woman,,,,null,,,,,,,,,
null,is being looked at by,,html-keyboard-response,81,378468,0.0-13.0-2.7,6133,List2A,white,woman,,,,null,,,,,,,,,
8011.7,,,survey-text,82,386483,0.0-13.0-3.7,6133,List2A,white,woman,,,,,"{""Q0"":""jane is being looked at by kate""}","<img src=""stim_listA/look8.gif""style=""height:400px;""></stim_listA>",is being looked at by,,,,,,
null,"<div style=""font-size:60px;"">+</div>",,html-keyboard-response,83,386987,0.0-13.0-0.8,6133,List2A,white,woman,,,,null,,,,,,,,,
null,"<img src=""stim_listA/oppose2.gif""style=""height:400px;""></stim_listA>",,html-keyboard-response,84,388990,0.0-13.0-1.8,6133,List2A,white,woman,,,,null,,,,,,,,,
null,is being opposed by,,html-keyboard-response,85,390995,0.0-13.0-2.8,6133,List2A,white,woman,,,,null,,,,,,,,,
13769.5,,,survey-text,86,404768,0.0-13.0-3.8,6133,List2A,white,woman,,,,,"{""Q0"":""luke is being opposed by ruth""}","<img src=""stim_listA/oppose2.gif""style=""height:400px;""></stim_listA>",is being opposed by,,,,,,
null,"<div style=""font-size:60px;"">+</div>",,html-keyboard-response,87,405271,0.0-13.0-0.9,6133,List2A,white,woman,,,,null,,,,,,,,,
null,"<img src=""stim_listA/kiss7.gif""style=""height:400px;""></stim_listA>",,html-keyboard-response,88,407278,0.0-13.0-1.9,6133,List2A,white,woman,,,,null,,,,,,,,,
null,is kissing,,html-keyboard-response,89,409283,0.0-13.0-2.9,6133,List2A,white,woman,,,,null,,,,,,,,,
11150.4,,,survey-text,90,420436,0.0-13.0-3.9,6133,List2A,white,woman,,,,,"{""Q0"":""ruth is kissing beth""}","<img src=""stim_listA/kiss7.gif""style=""height:400px;""></stim_listA>",is kissing,,,,,,
null,"<div style=""font-size:60px;"">+</div>",,html-keyboard-response,91,420941,0.0-13.0-0.10,6133,List2A,white,woman,,,,null,,,,,,,,,
null,"<img src=""stim_listA/shout7.gif""style=""height:400px;""></stim_listA>",,html-keyboard-response,92,422947,0.0-13.0-1.10,6133,List2A,white,woman,,,,null,,,,,,,,,
null,is shouting at,,html-keyboard-response,93,424952,0.0-13.0-2.10,6133,List2A,white,woman,,,,null,,,,,,,,,
7706.2,,,survey-text,94,432662,0.0-13.0-3.10,6133,List2A,white,woman,,,,,"{""Q0"":""ruth is shouting at beth""}","<img src=""stim_listA/shout7.gif""style=""height:400px;""></stim_listA>",is shouting at,,,,,,
null,"<div style=""font-size:60px;"">+</div>",,html-keyboard-response,95,433166,0.0-13.0-0.11,6133,List2A,white,woman,,,,null,,,,,,,,,
null,"<img src=""stim_listA/hug3.gif""style=""height:400px;""></stim_listA>",,html-keyboard-response,96,435169,0.0-13.0-1.11,6133,List2A,white,woman,,,,null,,,,,,,,,
null,is hugging,,html-keyboard-response,97,437174,0.0-13.0-2.11,6133,List2A,white,woman,,,,null,,,,,,,,,
9349.6,,,survey-text,98,446527,0.0-13.0-3.11,6133,List2A,white,woman,,,,,"{""Q0"":""fred is hugging beth""}","<img src=""stim_listA/hug3.gif""style=""height:400px;""></stim_listA>",is hugging,,,,,,
null,"<div style=""font-size:60px;"">+</div>",,html-keyboard-response,99,447029,0.0-13.0-0.12,6133,List2A,white,woman,,,,null,,,,,,,,,
null,"<img src=""stim_listA/seduce6.gif""style=""height:400px;""></stim_listA>",,html-keyboard-response,100,449036,0.0-13.0-1.12,6133,List2A,white,woman,,,,null,,,,,,,,,
null,is being seduced by,,html-keyboard-response,101,451041,0.0-13.0-2.12,6133,List2A,white,woman,,,,null,,,,,,,,,
9830,,,survey-text,102,460874,0.0-13.0-3.12,6133,List2A,white,woman,,,,,"{""Q0"":""fred is being seduced by dave""}","<img src=""stim_listA/seduce6.gif""style=""height:400px;""></stim_listA>",is being seduced by,,,,,,
null,"<div style=""font-size:60px;"">+</div>",,html-keyboard-response,103,461379,0.0-13.0-0.13,6133,List2A,white,woman,,,,null,,,,,,,,,
null,"<img src=""stim_listA/kiss4.gif""style=""height:400px;""></stim_listA>",,html-keyboard-response,104,463385,0.0-13.0-1.13,6133,List2A,white,woman,,,,null,,,,,,,,,
null,is being kissed by,,html-keyboard-response,105,465391,0.0-13.0-2.13,6133,List2A,white,woman,,,,null,,,,,,,,,
10600.9,,,survey-text,106,475994,0.0-13.0-3.13,6133,List2A,white,woman,,,,,"{""Q0"":""kate is being kissed by mike""}","<img src=""stim_listA/kiss4.gif""style=""height:400px;""></stim_listA>",is being kissed by,,,,,,
null,"<div style=""font-size:60px;"">+</div>",,html-keyboard-response,107,476499,0.0-13.0-0.14,6133,List2A,white,woman,,,,null,,,,,,,,,
null,"<img src=""stim_listA/look5.gif""style=""height:400px;""></stim_listA>",,html-keyboard-response,108,478504,0.0-13.0-1.14,6133,List2A,white,woman,,,,null,,,,,,,,,
null,is looking at,,html-keyboard-response,109,480509,0.0-13.0-2.14,6133,List2A,white,woman,,,,null,,,,,,,,,
6811.5,,,survey-text,110,487323,0.0-13.0-3.14,6133,List2A,white,woman,,,,,"{""Q0"":""luke is looking at fred""}","<img src=""stim_listA/look5.gif""style=""height:400px;""></stim_listA>",is looking at,,,,,,
null,"<div style=""font-size:60px;"">+</div>",,html-keyboard-response,111,487827,0.0-13.0-0.15,6133,List2A,white,woman,,,,null,,,,,,,,,
null,"<img src=""stim_listA/hug1.gif""style=""height:400px;""></stim_listA>",,html-keyboard-response,112,489834,0.0-13.0-1.15,6133,List2A,white,woman,,,,null,,,,,,,,,
null,is hugging,,html-keyboard-response,113,491837,0.0-13.0-2.15,6133,List2A,white,woman,,,,null,,,,,,,,,
12180.4,,,survey-text,114,504021,0.0-13.0-3.15,6133,List2A,white,woman,,,,,"{""Q0"":""luke is hugging ruth""}","<img src=""stim_listA/hug1.gif""style=""height:400px;""></stim_listA>",is hugging,,,,,,
null,"<div style=""font-size:60px;"">+</div>",,html-keyboard-response,115,504524,0.0-13.0-0.16,6133,List2A,white,woman,,,,null,,,,,,,,,
null,"<img src=""stim_listA/challenge6.gif""style=""height:400px;""></stim_listA>",,html-keyboard-response,116,506530,0.0-13.0-1.16,6133,List2A,white,woman,,,,null,,,,,,,,,
null,is being challenged by,,html-keyboard-response,117,508535,0.0-13.0-2.16,6133,List2A,white,woman,,,,null,,,,,,,,,
8420.6,,,survey-text,118,516959,0.0-13.0-3.16,6133,List2A,white,woman,,,,,"{""Q0"":""mike is being challenged by luke""}","<img src=""stim_listA/challenge6.gif""style=""height:400px;""></stim_listA>",is being challenged by,,,,,,
null,"<div style=""font-size:60px;"">+</div>",,html-keyboard-response,119,517463,0.0-13.0-0.17,6133,List2A,white,woman,,,,null,,,,,,,,,
null,"<img src=""stim_listA/seduce5.gif""style=""height:400px;""></stim_listA>",,html-keyboard-response,120,519469,0.0-13.0-1.17,6133,List2A,white,woman,,,,null,,,,,,,,,
null,is seducing,,html-keyboard-response,121,521474,0.0-13.0-2.17,6133,List2A,white,woman,,,,null,,,,,,,,,
9490.2,,,survey-text,122,530968,0.0-13.0-3.17,6133,List2A,white,woman,,,,,"{""Q0"":""mike is being seduced by luke""}","<img src=""stim_listA/seduce5.gif""style=""height:400px;""></stim_listA>",is seducing,,,,,,
null,"<div style=""font-size:60px;"">+</div>",,html-keyboard-response,123,531472,0.0-13.0-0.18,6133,List2A,white,woman,,,,null,,,,,,,,,
null,"<img src=""stim_listA/challenge2.gif""style=""height:400px;""></stim_listA>",,html-keyboard-response,124,533478,0.0-13.0-1.18,6133,List2A,white,woman,,,,null,,,,,,,,,
null,is being challenged by,,html-keyboard-response,125,535481,0.0-13.0-2.18,6133,List2A,white,woman,,,,null,,,,,,,,,
9814.1,,,survey-text,126,545298,0.0-13.0-3.18,6133,List2A,white,woman,,,,,"{""Q0"":""luke is being challenged by jane""}","<img src=""stim_listA/challenge2.gif""style=""height:400px;""></stim_listA>",is being challenged by,,,,,,
null,"<div style=""font-size:60px;"">+</div>",,html-keyboard-response,127,545802,0.0-13.0-0.19,6133,List2A,white,woman,,,,null,,,,,,,,,
null,"<img src=""stim_listA/oppose3.gif""style=""height:400px;""></stim_listA>",,html-keyboard-response,128,547808,0.0-13.0-1.19,6133,List2A,white,woman,,,,null,,,,,,,,,
null,is opposing,,html-keyboard-response,129,549812,0.0-13.0-2.19,6133,List2A,white,woman,,,,null,,,,,,,,,
13752.1,,,survey-text,130,563567,0.0-13.0-3.19,6133,List2A,white,woman,,,,,"{""Q0"":""mike is fighting with kate""}","<img src=""stim_listA/oppose3.gif""style=""height:400px;""></stim_listA>",is opposing,,,,,,
3777.5,"<img src='img/portrait_matrix_list2.jpg' style='width:900px;height:500px;''></img><p>If you have memorised all the portraits and names and are ready to start, press Continue.</p><p><strong>Please note: Your memory of these faces will be tested 4 times during this experiment.</strong></p>",0,html-button-response,131,567346,0.0-14.0-0.0,6133,List2A,white,woman,,,,,,,,,,,,,
5514.6,"<img src=""portrait/BW1.jpg""style=""height:400px;""></img>",0,html-button-response,132,573868,0.0-14.0-1.0,6133,List2A,white,woman,,TRUE,0,,,,,,,,,,
null,CORRECT,,html-keyboard-response,133,575380,0.0-14.0-2.0-0.0,6133,List2A,white,woman,,,,null,,,,,,,,,
3389.6,"<img src=""portrait/WW2.jpg""style=""height:400px;""></img>",3,html-button-response,134,578772,0.0-14.0-4.0,6133,List2A,white,woman,,TRUE,3,,,,,,,,,,
null,CORRECT,,html-keyboard-response,135,580279,0.0-14.0-5.0-0.0,6133,List2A,white,woman,,,,null,,,,,,,,,
2994.2,"<img src=""portrait/BM2.jpg""style=""height:400px;""></img>",5,html-button-response,136,583276,0.0-14.0-7.0,6133,List2A,white,woman,,TRUE,5,,,,,,,,,,
null,CORRECT,,html-keyboard-response,137,584778,0.0-14.0-8.0-0.0,6133,List2A,white,woman,,,,null,,,,,,,,,
3944.9,"<img src=""portrait/BW2.jpg""style=""height:400px;""></img>",2,html-button-response,138,588725,0.0-14.0-10.0,6133,List2A,white,woman,,TRUE,2,,,,,,,,,,
null,CORRECT,,html-keyboard-response,139,590235,0.0-14.0-11.0-0.0,6133,List2A,white,woman,,,,null,,,,,,,,,
4414.7,"<img src=""portrait/WM1.jpg""style=""height:400px;""></img>",6,html-button-response,140,594652,0.0-14.0-13.0,6133,List2A,white,woman,,TRUE,6,,,,,,,,,,
null,CORRECT,,html-keyboard-response,141,596159,0.0-14.0-14.0-0.0,6133,List2A,white,woman,,,,null,,,,,,,,,
4782.3,"<img src=""portrait/WM2.jpg""style=""height:400px;""></img>",7,html-button-response,142,600944,0.0-14.0-16.0,6133,List2A,white,woman,,TRUE,7,,,,,,,,,,
null,CORRECT,,html-keyboard-response,143,602451,0.0-14.0-17.0-0.0,6133,List2A,white,woman,,,,null,,,,,,,,,
3213,"<img src=""portrait/WW1.jpg""style=""height:400px;""></img>",1,html-button-response,144,605666,0.0-14.0-19.0,6133,List2A,white,woman,,TRUE,1,,,,,,,,,,
null,CORRECT,,html-keyboard-response,145,607174,0.0-14.0-20.0-0.0,6133,List2A,white,woman,,,,null,,,,,,,,,
2612.9,"<img src=""portrait/BM1.jpg""style=""height:400px;""></img>",4,html-button-response,146,609789,0.0-14.0-22.0,6133,List2A,white,woman,,TRUE,4,,,,,,,,,,
null,CORRECT,,html-keyboard-response,147,611299,0.0-14.0-23.0-0.0,6133,List2A,white,woman,,,,null,,,,,,,,,
2068.9,<p>You got 8 out of 8 right first time. Press Continue.</p>,0,html-button-response,148,613370,0.0-14.0-25.0,6133,List2A,white,woman,,,,,,,,,,,,,
null,"<div style=""font-size:60px;"">+</div>",,html-keyboard-response,149,614879,0.0-15.0-0.0,6133,List2A,white,woman,,,,null,,,,,,,,,
null,"<img src=""stim_listA/touch4.gif""style=""height:400px;""></stim_listA>",,html-keyboard-response,150,616882,0.0-15.0-1.0,6133,List2A,white,woman,,,,null,,,,,,,,,
null,is being touched by,,html-keyboard-response,151,618883,0.0-15.0-2.0,6133,List2A,white,woman,,,,null,,,,,,,,,
12144,,,survey-text,152,631031,0.0-15.0-3.0,6133,List2A,white,woman,,,,,"{""Q0"":""beth is being touched by fred""}","<img src=""stim_listA/touch4.gif""style=""height:400px;""></stim_listA>",is being touched by,,,,,,
null,"<div style=""font-size:60px;"">+</div>",,html-keyboard-response,153,631533,0.0-15.0-0.1,6133,List2A,white,woman,,,,null,,,,,,,,,
null,"<img src=""stim_listA/kiss2.gif""style=""height:400px;""></stim_listA>",,html-keyboard-response,154,633540,0.0-15.0-1.1,6133,List2A,white,woman,,,,null,,,,,,,,,
null,is being kissed by,,html-keyboard-response,155,635545,0.0-15.0-2.1,6133,List2A,white,woman,,,,null,,,,,,,,,
8614.9,,,survey-text,156,644163,0.0-15.0-3.1,6133,List2A,white,woman,,,,,"{""Q0"":""jane is being kissed by dave""}","<img src=""stim_listA/kiss2.gif""style=""height:400px;""></stim_listA>",is being kissed by,,,,,,
null,"<div style=""font-size:60px;"">+</div>",,html-keyboard-response,157,644667,0.0-15.0-0.2,6133,List2A,white,woman,,,,null,,,,,,,,,
null,"<img src=""stim_listA/seduce3.gif""style=""height:400px;""></stim_listA>",,html-keyboard-response,158,646674,0.0-15.0-1.2,6133,List2A,white,woman,,,,null,,,,,,,,,
null,is seducing,,html-keyboard-response,159,648675,0.0-15.0-2.2,6133,List2A,white,woman,,,,null,,,,,,,,,
7715.9,,,survey-text,160,656395,0.0-15.0-3.2,6133,List2A,white,woman,,,,,"{""Q0"":""fred is seducing katee""}","<img src=""stim_listA/seduce3.gif""style=""height:400px;""></stim_listA>",is seducing,,,,,,
null,"<div style=""font-size:60px;"">+</div>",,html-keyboard-response,161,656897,0.0-15.0-0.3,6133,List2A,white,woman,,,,null,,,,,,,,,
null,"<img src=""stim_listA/copy7.gif""style=""height:400px;""></stim_listA>",,html-keyboard-response,162,658903,0.0-15.0-1.3,6133,List2A,white,woman,,,,null,,,,,,,,,
null,is copying,,html-keyboard-response,163,660908,0.0-15.0-2.3,6133,List2A,white,woman,,,,null,,,,,,,,,
9066.2,,,survey-text,164,669978,0.0-15.0-3.3,6133,List2A,white,woman,,,,,"{""Q0"":""beth is copying jane""}","<img src=""stim_listA/copy7.gif""style=""height:400px;""></stim_listA>",is copying,,,,,,
null,"<div style=""font-size:60px;"">+</div>",,html-keyboard-response,165,670482,0.0-15.0-0.4,6133,List2A,white,woman,,,,null,,,,,,,,,
null,"<img src=""stim_listA/touch7.gif""style=""height:400px;""></stim_listA>",,html-keyboard-response,166,672489,0.0-15.0-1.4,6133,List2A,white,woman,,,,null,,,,,,,,,
null,is touching,,html-keyboard-response,167,674494,0.0-15.0-2.4,6133,List2A,white,woman,,,,null,,,,,,,,,
8542.1,,,survey-text,168,683039,0.0-15.0-3.4,6133,List2A,white,woman,,,,,"{""Q0"":""jane is staring at kate""}","<img src=""stim_listA/touch7.gif""style=""height:400px;""></stim_listA>",is touching,,,,,,
null,"<div style=""font-size:60px;"">+</div>",,html-keyboard-response,169,683544,0.0-15.0-0.5,6133,List2A,white,woman,,,,null,,,,,,,,,
null,"<img src=""stim_listA/copy6.gif""style=""height:400px;""></stim_listA>",,html-keyboard-response,170,685550,0.0-15.0-1.5,6133,List2A,white,woman,,,,null,,,,,,,,,
null,is being copied by,,html-keyboard-response,171,687555,0.0-15.0-2.5,6133,List2A,white,woman,,,,null,,,,,,,,,
11149,,,survey-text,172,698707,0.0-15.0-3.5,6133,List2A,white,woman,,,,,"{""Q0"":""luke is being copied by mike""}","<img src=""stim_listA/copy6.gif""style=""height:400px;""></stim_listA>",is being copied by,,,,,,
null,"<div style=""font-size:60px;"">+</div>",,html-keyboard-response,173,699212,0.0-15.0-0.6,6133,List2A,white,woman,,,,null,,,,,,,,,
null,"<img src=""stim_listA/touch5.gif""style=""height:400px;""></stim_listA>",,html-keyboard-response,174,701217,0.0-15.0-1.6,6133,List2A,white,woman,,,,null,,,,,,,,,
null,is touching,,html-keyboard-response,175,703222,0.0-15.0-2.6,6133,List2A,white,woman,,,,null,,,,,,,,,
7367.1,,,survey-text,176,710593,0.0-15.0-3.6,6133,List2A,white,woman,,,,,"{""Q0"":""dave is touching mike""}","<img src=""stim_listA/touch5.gif""style=""height:400px;""></stim_listA>",is touching,,,,,,
null,"<div style=""font-size:60px;"">+</div>",,html-keyboard-response,177,711097,0.0-15.0-0.7,6133,List2A,white,woman,,,,null,,,,,,,,,
null,"<img src=""stim_listA/seduce8.gif""style=""height:400px;""></stim_listA>",,html-keyboard-response,178,713104,0.0-15.0-1.7,6133,List2A,white,woman,,,,null,,,,,,,,,
null,is being seduced by,,html-keyboard-response,179,715111,0.0-15.0-2.7,6133,List2A,white,woman,,,,null,,,,,,,,,
9839,,,survey-text,180,724953,0.0-15.0-3.7,6133,List2A,white,woman,,,,,"{""Q0"":""jane is being seduced by beth""}","<img src=""stim_listA/seduce8.gif""style=""height:400px;""></stim_listA>",is being seduced by,,,,,,
null,"<div style=""font-size:60px;"">+</div>",,html-keyboard-response,181,725458,0.0-15.0-0.8,6133,List2A,white,woman,,,,null,,,,,,,,,
null,"<img src=""stim_listA/kiss1.gif""style=""height:400px;""></stim_listA>",,html-keyboard-response,182,727462,0.0-15.0-1.8,6133,List2A,white,woman,,,,null,,,,,,,,,
null,is kissing,,html-keyboard-response,183,729467,0.0-15.0-2.8,6133,List2A,white,woman,,,,null,,,,,,,,,
7311.4,,,survey-text,184,736781,0.0-15.0-3.8,6133,List2A,white,woman,,,,,"{""Q0"":""luke is kissing ruth""}","<img src=""stim_listA/kiss1.gif""style=""height:400px;""></stim_listA>",is kissing,,,,,,
null,"<div style=""font-size:60px;"">+</div>",,html-keyboard-response,185,737283,0.0-15.0-0.9,6133,List2A,white,woman,,,,null,,,,,,,,,
null,"<img src=""stim_listA/touch6.gif""style=""height:400px;""></stim_listA>",,html-keyboard-response,186,739290,0.0-15.0-1.9,6133,List2A,white,woman,,,,null,,,,,,,,,
null,is being touched by,,html-keyboard-response,187,741296,0.0-15.0-2.9,6133,List2A,white,woman,,,,null,,,,,,,,,
8085.4,,,survey-text,188,749384,0.0-15.0-3.9,6133,List2A,white,woman,,,,,"{""Q0"":""luke is being touched by fred""}","<img src=""stim_listA/touch6.gif""style=""height:400px;""></stim_listA>",is being touched by,,,,,,
null,"<div style=""font-size:60px;"">+</div>",,html-keyboard-response,189,749888,0.0-15.0-0.10,6133,List2A,white,woman,,,,null,,,,,,,,,
null,"<img src=""stim_listA/seduce1.gif""style=""height:400px;""></stim_listA>",,html-keyboard-response,190,751893,0.0-15.0-1.10,6133,List2A,white,woman,,,,null,,,,,,,,,
null,is seducing,,html-keyboard-response,191,753894,0.0-15.0-2.10,6133,List2A,white,woman,,,,null,,,,,,,,,
8317.4,,,survey-text,192,762215,0.0-15.0-3.10,6133,List2A,white,woman,,,,,"{""Q0"":""luke is seducing jane""}","<img src=""stim_listA/seduce1.gif""style=""height:400px;""></stim_listA>",is seducing,,,,,,
null,"<div style=""font-size:60px;"">+</div>",,html-keyboard-response,193,762719,0.0-15.0-0.11,6133,List2A,white,woman,,,,null,,,,,,,,,
null,"<img src=""stim_listA/copy8.gif""style=""height:400px;""></stim_listA>",,html-keyboard-response,194,764723,0.0-15.0-1.11,6133,List2A,white,woman,,,,null,,,,,,,,,
null,is being copied by,,html-keyboard-response,195,766727,0.0-15.0-2.11,6133,List2A,white,woman,,,,null,,,,,,,,,
5837.2,,,survey-text,196,772567,0.0-15.0-3.11,6133,List2A,white,woman,,,,,"{""Q0"":""ruth is being copied by kate""}","<img src=""stim_listA/copy8.gif""style=""height:400px;""></stim_listA>",is being copied by,,,,,,
null,"<div style=""font-size:60px;"">+</div>",,html-keyboard-response,197,773072,0.0-15.0-0.12,6133,List2A,white,woman,,,,null,,,,,,,,,
null,"<img src=""stim_listA/greet6.gif""style=""height:400px;""></stim_listA>",,html-keyboard-response,198,775079,0.0-15.0-1.12,6133,List2A,white,woman,,,,null,,,,,,,,,
null,is being greeted by,,html-keyboard-response,199,777085,0.0-15.0-2.12,6133,List2A,white,woman,,,,null,,,,,,,,,
16949.8,,,survey-text,200,794037,0.0-15.0-3.12,6133,List2A,white,woman,,,,,"{""Q0"":""luke is being greeted by mike""}","<img src=""stim_listA/greet6.gif""style=""height:400px;""></stim_listA>",is being greeted by,,,,,,
null,"<div style=""font-size:60px;"">+</div>",,html-keyboard-response,201,794542,0.0-15.0-0.13,6133,List2A,white,woman,,,,null,,,,,,,,,
null,"<img src=""stim_listA/look3.gif""style=""height:400px;""></stim_listA>",,html-keyboard-response,202,796548,0.0-15.0-1.13,6133,List2A,white,woman,,,,null,,,,,,,,,
null,is looking at,,html-keyboard-response,203,798553,0.0-15.0-2.13,6133,List2A,white,woman,,,,null,,,,,,,,,
6943.5,,,survey-text,204,805500,0.0-15.0-3.13,6133,List2A,white,woman,,,,,"{""Q0"":""beth is looking at fred""}","<img src=""stim_listA/look3.gif""style=""height:400px;""></stim_listA>",is looking at,,,,,,
null,"<div style=""font-size:60px;"">+</div>",,html-keyboard-response,205,806002,0.0-15.0-0.14,6133,List2A,white,woman,,,,null,,,,,,,,,
null,"<img src=""stim_listA/shout2.gif""style=""height:400px;""></stim_listA>",,html-keyboard-response,206,808009,0.0-15.0-1.14,6133,List2A,white,woman,,,,null,,,,,,,,,
null,is being shouted at by,,html-keyboard-response,207,810013,0.0-15.0-2.14,6133,List2A,white,woman,,,,null,,,,,,,,,
6290.6,,,survey-text,208,816306,0.0-15.0-3.14,6133,List2A,white,woman,,,,,"{""Q0"":""jane is being shouted at by dave""}","<img src=""stim_listA/shout2.gif""style=""height:400px;""></stim_listA>",is being shouted at by,,,,,,
null,"<div style=""font-size:60px;"">+</div>",,html-keyboard-response,209,816808,0.0-15.0-0.15,6133,List2A,white,woman,,,,null,,,,,,,,,
null,"<img src=""stim_listA/shout4.gif""style=""height:400px;""></stim_listA>",,html-keyboard-response,210,818814,0.0-15.0-1.15,6133,List2A,white,woman,,,,null,,,,,,,,,
null,is being shouted at by,,html-keyboard-response,211,820820,0.0-15.0-2.15,6133,List2A,white,woman,,,,null,,,,,,,,,
7058.1,,,survey-text,212,827880,0.0-15.0-3.15,6133,List2A,white,woman,,,,,"{""Q0"":""mike is being shouted at by kate""}","<img src=""stim_listA/shout4.gif""style=""height:400px;""></stim_listA>",is being shouted at by,,,,,,
null,"<div style=""font-size:60px;"">+</div>",,html-keyboard-response,213,828383,0.0-15.0-0.16,6133,List2A,white,woman,,,,null,,,,,,,,,
null,"<img src=""stim_listA/touch8.gif""style=""height:400px;""></stim_listA>",,html-keyboard-response,214,830390,0.0-15.0-1.16,6133,List2A,white,woman,,,,null,,,,,,,,,
null,is being touched by,,html-keyboard-response,215,832397,0.0-15.0-2.16,6133,List2A,white,woman,,,,null,,,,,,,,,
16979.4,,,survey-text,216,849379,0.0-15.0-3.16,6133,List2A,white,woman,,,,,"{""Q0"":""ruth is being touched by beth""}","<img src=""stim_listA/touch8.gif""style=""height:400px;""></stim_listA>",is being touched by,,,,,,
null,"<div style=""font-size:60px;"">+</div>",,html-keyboard-response,217,849883,0.0-15.0-0.17,6133,List2A,white,woman,,,,null,,,,,,,,,
null,"<img src=""stim_listA/copy2.gif""style=""height:400px;""></stim_listA>",,html-keyboard-response,218,851890,0.0-15.0-1.17,6133,List2A,white,woman,,,,null,,,,,,,,,
null,is being copied by,,html-keyboard-response,219,853895,0.0-15.0-2.17,6133,List2A,white,woman,,,,null,,,,,,,,,
6614.5,,,survey-text,220,860512,0.0-15.0-3.17,6133,List2A,white,woman,,,,,"{""Q0"":""luke is being copied by jane""}","<img src=""stim_listA/copy2.gif""style=""height:400px;""></stim_listA>",is being copied by,,,,,,
null,"<div style=""font-size:60px;"">+</div>",,html-keyboard-response,221,861017,0.0-15.0-0.18,6133,List2A,white,woman,,,,null,,,,,,,,,
null,"<img src=""stim_listA/hug6.gif""style=""height:400px;""></stim_listA>",,html-keyboard-response,222,863024,0.0-15.0-1.18,6133,List2A,white,woman,,,,null,,,,,,,,,
null,is being hugged by,,html-keyboard-response,223,865030,0.0-15.0-2.18,6133,List2A,white,woman,,,,null,,,,,,,,,
6228.8,,,survey-text,224,871262,0.0-15.0-3.18,6133,List2A,white,woman,,,,,"{""Q0"":""mike is being hugged by dave""}","<img src=""stim_listA/hug6.gif""style=""height:400px;""></stim_listA>",is being hugged by,,,,,,
null,"<div style=""font-size:60px;"">+</div>",,html-keyboard-response,225,871764,0.0-15.0-0.19,6133,List2A,white,woman,,,,null,,,,,,,,,
null,"<img src=""stim_listA/challenge8.gif""style=""height:400px;""></stim_listA>",,html-keyboard-response,226,873767,0.0-15.0-1.19,6133,List2A,white,woman,,,,null,,,,,,,,,
null,is being challenged by,,html-keyboard-response,227,875773,0.0-15.0-2.19,6133,List2A,white,woman,,,,null,,,,,,,,,
7264.2,,,survey-text,228,883040,0.0-15.0-3.19,6133,List2A,white,woman,,,,,"{""Q0"":""kate is being challenged by ruth""}","<img src=""stim_listA/challenge8.gif""style=""height:400px;""></stim_listA>",is being challenged by,,,,,,
7740.5,"<img src='img/portrait_matrix_list2.jpg' style='width:900px;height:500px;''></img><p>If you have memorised all the portraits and names and are ready to start, press Continue.</p><p><strong>Please note: Your memory of these faces will be tested 4 times during this experiment.</strong></p>",0,html-button-response,229,890783,0.0-16.0-0.0,6133,List2A,white,woman,,,,,,,,,,,,,
5057.3,"<img src=""portrait/WM2.jpg""style=""height:400px;""></img>",7,html-button-response,230,896845,0.0-16.0-1.0,6133,List2A,white,woman,,TRUE,7,,,,,,,,,,
null,CORRECT,,html-keyboard-response,231,898352,0.0-16.0-2.0-0.0,6133,List2A,white,woman,,,,null,,,,,,,,,
2635.3,"<img src=""portrait/WW1.jpg""style=""height:400px;""></img>",1,html-button-response,232,900990,0.0-16.0-4.0,6133,List2A,white,woman,,TRUE,1,,,,,,,,,,
null,CORRECT,,html-keyboard-response,233,902502,0.0-16.0-5.0-0.0,6133,List2A,white,woman,,,,null,,,,,,,,,
2137.3,"<img src=""portrait/BM1.jpg""style=""height:400px;""></img>",4,html-button-response,234,904643,0.0-16.0-7.0,6133,List2A,white,woman,,TRUE,4,,,,,,,,,,
null,CORRECT,,html-keyboard-response,235,906150,0.0-16.0-8.0-0.0,6133,List2A,white,woman,,,,null,,,,,,,,,
2378.2,"<img src=""portrait/WW2.jpg""style=""height:400px;""></img>",3,html-button-response,236,908531,0.0-16.0-10.0,6133,List2A,white,woman,,TRUE,3,,,,,,,,,,
null,CORRECT,,html-keyboard-response,237,910039,0.0-16.0-11.0-0.0,6133,List2A,white,woman,,,,null,,,,,,,,,
2965.7,"<img src=""portrait/BW2.jpg""style=""height:400px;""></img>",2,html-button-response,238,913008,0.0-16.0-13.0,6133,List2A,white,woman,,TRUE,2,,,,,,,,,,
null,CORRECT,,html-keyboard-response,239,914518,0.0-16.0-14.0-0.0,6133,List2A,white,woman,,,,null,,,,,,,,,
3830.7,"<img src=""portrait/WM1.jpg""style=""height:400px;""></img>",6,html-button-response,240,918351,0.0-16.0-16.0,6133,List2A,white,woman,,TRUE,6,,,,,,,,,,
null,CORRECT,,html-keyboard-response,241,919859,0.0-16.0-17.0-0.0,6133,List2A,white,woman,,,,null,,,,,,,,,
3440.4,"<img src=""portrait/BW1.jpg""style=""height:400px;""></img>",0,html-button-response,242,923302,0.0-16.0-19.0,6133,List2A,white,woman,,TRUE,0,,,,,,,,,,
null,CORRECT,,html-keyboard-response,243,924812,0.0-16.0-20.0-0.0,6133,List2A,white,woman,,,,null,,,,,,,,,
3146.9,"<img src=""portrait/BM2.jpg""style=""height:400px;""></img>",5,html-button-response,244,927962,0.0-16.0-22.0,6133,List2A,white,woman,,TRUE,5,,,,,,,,,,
null,CORRECT,,html-keyboard-response,245,929474,0.0-16.0-23.0-0.0,6133,List2A,white,woman,,,,null,,,,,,,,,
1433.8,<p>You got 8 out of 8 right first time. Press Continue.</p>,0,html-button-response,246,930910,0.0-16.0-25.0,6133,List2A,white,woman,,,,,,,,,,,,,
null,"<div style=""font-size:60px;"">+</div>",,html-keyboard-response,247,932420,0.0-17.0-0.0,6133,List2A,white,woman,,,,null,,,,,,,,,
null,"<img src=""stim_listA/greet8.gif""style=""height:400px;""></stim_listA>",,html-keyboard-response,248,934428,0.0-17.0-1.0,6133,List2A,white,woman,,,,null,,,,,,,,,
null,is being greeted by,,html-keyboard-response,249,936434,0.0-17.0-2.0,6133,List2A,white,woman,,,,null,,,,,,,,,
7126.1,,,survey-text,250,943563,0.0-17.0-3.0,6133,List2A,white,woman,,,,,"{""Q0"":""ruth is being greeted by kate""}","<img src=""stim_listA/greet8.gif""style=""height:400px;""></stim_listA>",is being greeted by,,,,,,
null,"<div style=""font-size:60px;"">+</div>",,html-keyboard-response,251,944067,0.0-17.0-0.1,6133,List2A,white,woman,,,,null,,,,,,,,,
null,"<img src=""stim_listA/shout6.gif""style=""height:400px;""></stim_listA>",,html-keyboard-response,252,946070,0.0-17.0-1.1,6133,List2A,white,woman,,,,null,,,,,,,,,
null,is being shouted at by,,html-keyboard-response,253,948075,0.0-17.0-2.1,6133,List2A,white,woman,,,,null,,,,,,,,,
12163.6,,,survey-text,254,960242,0.0-17.0-3.1,6133,List2A,white,woman,,,,,"{""Q0"":""mike is being shouted at by dave""}","<img src=""stim_listA/shout6.gif""style=""height:400px;""></stim_listA>",is being shouted at by,,,,,,
null,"<div style=""font-size:60px;"">+</div>",,html-keyboard-response,255,960746,0.0-17.0-0.2,6133,List2A,white,woman,,,,null,,,,,,,,,
null,"<img src=""stim_listA/copy4.gif""style=""height:400px;""></stim_listA>",,html-keyboard-response,256,962750,0.0-17.0-1.2,6133,List2A,white,woman,,,,null,,,,,,,,,
null,is being copied by,,html-keyboard-response,257,964755,0.0-17.0-2.2,6133,List2A,white,woman,,,,null,,,,,,,,,
5827.1,,,survey-text,258,970585,0.0-17.0-3.2,6133,List2A,white,woman,,,,,"{""Q0"":""kate is being copied by fred""}","<img src=""stim_listA/copy4.gif""style=""height:400px;""></stim_listA>",is being copied by,,,,,,
null,"<div style=""font-size:60px;"">+</div>",,html-keyboard-response,259,971086,0.0-17.0-0.3,6133,List2A,white,woman,,,,null,,,,,,,,,
null,"<img src=""stim_listA/touch1.gif""style=""height:400px;""></stim_listA>",,html-keyboard-response,260,973093,0.0-17.0-1.3,6133,List2A,white,woman,,,,null,,,,,,,,,
null,is touching,,html-keyboard-response,261,975094,0.0-17.0-2.3,6133,List2A,white,woman,,,,null,,,,,,,,,
6351.6,,,survey-text,262,981449,0.0-17.0-3.3,6133,List2A,white,woman,,,,,"{""Q0"":""jane is touching dave""}","<img src=""stim_listA/touch1.gif""style=""height:400px;""></stim_listA>",is touching,,,,,,
null,"<div style=""font-size:60px;"">+</div>",,html-keyboard-response,263,981953,0.0-17.0-0.4,6133,List2A,white,woman,,,,null,,,,,,,,,
null,"<img src=""stim_listA/hug5.gif""style=""height:400px;""></stim_listA>",,html-keyboard-response,264,983960,0.0-17.0-1.4,6133,List2A,white,woman,,,,null,,,,,,,,,
null,is hugging,,html-keyboard-response,265,985966,0.0-17.0-2.4,6133,List2A,white,woman,,,,null,,,,,,,,,
6541.9,,,survey-text,266,992511,0.0-17.0-3.4,6133,List2A,white,woman,,,,,"{""Q0"":""fred is hugging luke""}","<img src=""stim_listA/hug5.gif""style=""height:400px;""></stim_listA>",is hugging,,,,,,
null,"<div style=""font-size:60px;"">+</div>",,html-keyboard-response,267,993015,0.0-17.0-0.5,6133,List2A,white,woman,,,,null,,,,,,,,,
null,"<img src=""stim_listA/shout5.gif""style=""height:400px;""></stim_listA>",,html-keyboard-response,268,995020,0.0-17.0-1.5,6133,List2A,white,woman,,,,null,,,,,,,,,
null,is shouting at,,html-keyboard-response,269,997022,0.0-17.0-2.5,6133,List2A,white,woman,,,,null,,,,,,,,,
6259.5,,,survey-text,270,1003284,0.0-17.0-3.5,6133,List2A,white,woman,,,,,"{""Q0"":""luke is shouting at fred""}","<img src=""stim_listA/shout5.gif""style=""height:400px;""></stim_listA>",is shouting at,,,,,,
null,"<div style=""font-size:60px;"">+</div>",,html-keyboard-response,271,1003789,0.0-17.0-0.6,6133,List2A,white,woman,,,,null,,,,,,,,,
null,"<img src=""stim_listA/greet2.gif""style=""height:400px;""></stim_listA>",,html-keyboard-response,272,1005796,0.0-17.0-1.6,6133,List2A,white,woman,,,,null,,,,,,,,,
null,is being greeted by,,html-keyboard-response,273,1007800,0.0-17.0-2.6,6133,List2A,white,woman,,,,null,,,,,,,,,
6788.2,,,survey-text,274,1014591,0.0-17.0-3.6,6133,List2A,white,woman,,,,,"{""Q0"":""luke is being greeted by jane""}","<img src=""stim_listA/greet2.gif""style=""height:400px;""></stim_listA>",is being greeted by,,,,,,
null,"<div style=""font-size:60px;"">+</div>",,html-keyboard-response,275,1015092,0.0-17.0-0.7,6133,List2A,white,woman,,,,null,,,,,,,,,
null,"<img src=""stim_listA/hug4.gif""style=""height:400px;""></stim_listA>",,html-keyboard-response,276,1017095,0.0-17.0-1.7,6133,List2A,white,woman,,,,null,,,,,,,,,
null,is being hugged by,,html-keyboard-response,277,1019100,0.0-17.0-2.7,6133,List2A,white,woman,,,,null,,,,,,,,,
5926.2,,,survey-text,278,1025029,0.0-17.0-3.7,6133,List2A,white,woman,,,,,"{""Q0"":""kate is being hugged by mike""}","<img src=""stim_listA/hug4.gif""style=""height:400px;""></stim_listA>",is being hugged by,,,,,,
null,"<div style=""font-size:60px;"">+</div>",,html-keyboard-response,279,1025531,0.0-17.0-0.8,6133,List2A,white,woman,,,,null,,,,,,,,,
null,"<img src=""stim_listA/challenge3.gif""style=""height:400px;""></stim_listA>",,html-keyboard-response,280,1027538,0.0-17.0-1.8,6133,List2A,white,woman,,,,null,,,,,,,,,
null,is challenging,,html-keyboard-response,281,1029544,0.0-17.0-2.8,6133,List2A,white,woman,,,,null,,,,,,,,,
6260.1,,,survey-text,282,1035807,0.0-17.0-3.8,6133,List2A,white,woman,,,,,"{""Q0"":""mike is challenging beth""}","<img src=""stim_listA/challenge3.gif""style=""height:400px;""></stim_listA>",is challenging,,,,,,
null,"<div style=""font-size:60px;"">+</div>",,html-keyboard-response,283,1036312,0.0-17.0-0.9,6133,List2A,white,woman,,,,null,,,,,,,,,
null,"<img src=""stim_listA/hug8.gif""style=""height:400px;""></stim_listA>",,html-keyboard-response,284,1038319,0.0-17.0-1.9,6133,List2A,white,woman,,,,null,,,,,,,,,
null,is being hugged by,,html-keyboard-response,285,1040322,0.0-17.0-2.9,6133,List2A,white,woman,,,,null,,,,,,,,,
7782.3,,,survey-text,286,1048107,0.0-17.0-3.9,6133,List2A,white,woman,,,,,"{""Q0"":""jane is being hugged by kate""}","<img src=""stim_listA/hug8.gif""style=""height:400px;""></stim_listA>",is being hugged by,,,,,,
null,"<div style=""font-size:60px;"">+</div>",,html-keyboard-response,287,1048609,0.0-17.0-0.10,6133,List2A,white,woman,,,,null,,,,,,,,,
null,"<img src=""stim_listA/greet3.gif""style=""height:400px;""></stim_listA>",,html-keyboard-response,288,1050615,0.0-17.0-1.10,6133,List2A,white,woman,,,,null,,,,,,,,,
null,is greeting,,html-keyboard-response,289,1052619,0.0-17.0-2.10,6133,List2A,white,woman,,,,null,,,,,,,,,
5274.4,,,survey-text,290,1057896,0.0-17.0-3.10,6133,List2A,white,woman,,,,,"{""Q0"":""mike is greeting beth""}","<img src=""stim_listA/greet3.gif""style=""height:400px;""></stim_listA>",is greeting,,,,,,
null,"<div style=""font-size:60px;"">+</div>",,html-keyboard-response,291,1058398,0.0-17.0-0.11,6133,List2A,white,woman,,,,null,,,,,,,,,
null,"<img src=""stim_listA/kiss8.gif""style=""height:400px;""></stim_listA>",,html-keyboard-response,292,1060405,0.0-17.0-1.11,6133,List2A,white,woman,,,,null,,,,,,,,,
null,is being kissed by,,html-keyboard-response,293,1062407,0.0-17.0-2.11,6133,List2A,white,woman,,,,null,,,,,,,,,
6972.1,,,survey-text,294,1069382,0.0-17.0-3.11,6133,List2A,white,woman,,,,,"{""Q0"":""jane is being kissed by kate""}","<img src=""stim_listA/kiss8.gif""style=""height:400px;""></stim_listA>",is being kissed by,,,,,,
null,"<div style=""font-size:60px;"">+</div>",,html-keyboard-response,295,1069887,0.0-17.0-0.12,6133,List2A,white,woman,,,,null,,,,,,,,,
null,"<img src=""stim_listA/touch2.gif""style=""height:400px;""></stim_listA>",,html-keyboard-response,296,1071892,0.0-17.0-1.12,6133,List2A,white,woman,,,,null,,,,,,,,,
null,is being touched by,,html-keyboard-response,297,1073894,0.0-17.0-2.12,6133,List2A,white,woman,,,,null,,,,,,,,,
10187,,,survey-text,298,1084084,0.0-17.0-3.12,6133,List2A,white,woman,,,,,"{""Q0"":""n/a""}","<img src=""stim_listA/touch2.gif""style=""height:400px;""></stim_listA>",is being touched by,,,,,,
null,"<div style=""font-size:60px;"">+</div>",,html-keyboard-response,299,1084589,0.0-17.0-0.13,6133,List2A,white,woman,,,,null,,,,,,,,,
null,"<img src=""stim_listA/greet4.gif""style=""height:400px;""></stim_listA>",,html-keyboard-response,300,1086595,0.0-17.0-1.13,6133,List2A,white,woman,,,,null,,,,,,,,,
null,is being greeted by,,html-keyboard-response,301,1088600,0.0-17.0-2.13,6133,List2A,white,woman,,,,null,,,,,,,,,
7803.6,,,survey-text,302,1096407,0.0-17.0-3.13,6133,List2A,white,woman,,,,,"{""Q0"":""kate is being greeted by fred""}","<img src=""stim_listA/greet4.gif""style=""height:400px;""></stim_listA>",is being greeted by,,,,,,
null,"<div style=""font-size:60px;"">+</div>",,html-keyboard-response,303,1096912,0.0-17.0-0.14,6133,List2A,white,woman,,,,null,,,,,,,,,
null,"<img src=""stim_listA/look7.gif""style=""height:400px;""></stim_listA>",,html-keyboard-response,304,1098918,0.0-17.0-1.14,6133,List2A,white,woman,,,,null,,,,,,,,,
null,is looking at,,html-keyboard-response,305,1100920,0.0-17.0-2.14,6133,List2A,white,woman,,,,null,,,,,,,,,
6862.2,,,survey-text,306,1107785,0.0-17.0-3.14,6133,List2A,white,woman,,,,,"{""Q0"":""ruth is looking at beth""}","<img src=""stim_listA/look7.gif""style=""height:400px;""></stim_listA>",is looking at,,,,,,
null,"<div style=""font-size:60px;"">+</div>",,html-keyboard-response,307,1108290,0.0-17.0-0.15,6133,List2A,white,woman,,,,null,,,,,,,,,
null,"<img src=""stim_listA/shout3.gif""style=""height:400px;""></stim_listA>",,html-keyboard-response,308,1110297,0.0-17.0-1.15,6133,List2A,white,woman,,,,null,,,,,,,,,
null,is shouting at,,html-keyboard-response,309,1112303,0.0-17.0-2.15,6133,List2A,white,woman,,,,null,,,,,,,,,
6895,,,survey-text,310,1119201,0.0-17.0-3.15,6133,List2A,white,woman,,,,,"{""Q0"":""beth is shouting at fred""}","<img src=""stim_listA/shout3.gif""style=""height:400px;""></stim_listA>",is shouting at,,,,,,
null,"<div style=""font-size:60px;"">+</div>",,html-keyboard-response,311,1119706,0.0-17.0-0.16,6133,List2A,white,woman,,,,null,,,,,,,,,
null,"<img src=""stim_listA/challenge7.gif""style=""height:400px;""></stim_listA>",,html-keyboard-response,312,1121709,0.0-17.0-1.16,6133,List2A,white,woman,,,,null,,,,,,,,,
null,is challenging,,html-keyboard-response,313,1123712,0.0-17.0-2.16,6133,List2A,white,woman,,,,null,,,,,,,,,
4579.9,,,survey-text,314,1128295,0.0-17.0-3.16,6133,List2A,white,woman,,,,,"{""Q0"":""beth is challenging jane""}","<img src=""stim_listA/challenge7.gif""style=""height:400px;""></stim_listA>",is challenging,,,,,,
null,"<div style=""font-size:60px;"">+</div>",,html-keyboard-response,315,1128799,0.0-17.0-0.17,6133,List2A,white,woman,,,,null,,,,,,,,,
null,"<img src=""stim_listA/oppose5.gif""style=""height:400px;""></stim_listA>",,html-keyboard-response,316,1130806,0.0-17.0-1.17,6133,List2A,white,woman,,,,null,,,,,,,,,
null,is opposing,,html-keyboard-response,317,1132811,0.0-17.0-2.17,6133,List2A,white,woman,,,,null,,,,,,,,,
3324.1,,,survey-text,318,1136138,0.0-17.0-3.17,6133,List2A,white,woman,,,,,"{""Q0"":""dave is opposing mike""}","<img src=""stim_listA/oppose5.gif""style=""height:400px;""></stim_listA>",is opposing,,,,,,
null,"<div style=""font-size:60px;"">+</div>",,html-keyboard-response,319,1136640,0.0-17.0-0.18,6133,List2A,white,woman,,,,null,,,,,,,,,
null,"<img src=""stim_listA/challenge5.gif""style=""height:400px;""></stim_listA>",,html-keyboard-response,320,1138647,0.0-17.0-1.18,6133,List2A,white,woman,,,,null,,,,,,,,,
null,is challenging,,html-keyboard-response,321,1140653,0.0-17.0-2.18,6133,List2A,white,woman,,,,null,,,,,,,,,
6257.7,,,survey-text,322,1146914,0.0-17.0-3.18,6133,List2A,white,woman,,,,,"{""Q0"":""mike is challenging fred""}","<img src=""stim_listA/challenge5.gif""style=""height:400px;""></stim_listA>",is challenging,,,,,,
null,"<div style=""font-size:60px;"">+</div>",,html-keyboard-response,323,1147418,0.0-17.0-0.19,6133,List2A,white,woman,,,,null,,,,,,,,,
null,"<img src=""stim_listA/look4.gif""style=""height:400px;""></stim_listA>",,html-keyboard-response,324,1149421,0.0-17.0-1.19,6133,List2A,white,woman,,,,null,,,,,,,,,
null,is being looked at by,,html-keyboard-response,325,1151427,0.0-17.0-2.19,6133,List2A,white,woman,,,,null,,,,,,,,,
6983.6,,,survey-text,326,1158414,0.0-17.0-3.19,6133,List2A,white,woman,,,,,"{""Q0"":""mike is being looked at by kate""}","<img src=""stim_listA/look4.gif""style=""height:400px;""></stim_listA>",is being looked at by,,,,,,
2688.8,"<img src='img/portrait_matrix_list2.jpg' style='width:900px;height:500px;''></img><p>If you have memorised all the portraits and names and are ready to start, press Continue.</p><p><strong>Please note: Your memory of these faces will be tested 4 times during this experiment.</strong></p>",0,html-button-response,327,1161105,0.0-18.0-0.0,6133,List2A,white,woman,,,,,,,,,,,,,
3033.1,"<img src=""portrait/BW2.jpg""style=""height:400px;""></img>",2,html-button-response,328,1165142,0.0-18.0-1.0,6133,List2A,white,woman,,TRUE,2,,,,,,,,,,
null,CORRECT,,html-keyboard-response,329,1166647,0.0-18.0-2.0-0.0,6133,List2A,white,woman,,,,null,,,,,,,,,
2926.9,"<img src=""portrait/BW1.jpg""style=""height:400px;""></img>",0,html-button-response,330,1169576,0.0-18.0-4.0,6133,List2A,white,woman,,TRUE,0,,,,,,,,,,
null,CORRECT,,html-keyboard-response,331,1171080,0.0-18.0-5.0-0.0,6133,List2A,white,woman,,,,null,,,,,,,,,
3081.5,"<img src=""portrait/WM2.jpg""style=""height:400px;""></img>",7,html-button-response,332,1174163,0.0-18.0-7.0,6133,List2A,white,woman,,TRUE,7,,,,,,,,,,
null,CORRECT,,html-keyboard-response,333,1175675,0.0-18.0-8.0-0.0,6133,List2A,white,woman,,,,null,,,,,,,,,
3097.1,"<img src=""portrait/WM1.jpg""style=""height:400px;""></img>",6,html-button-response,334,1178774,0.0-18.0-10.0,6133,List2A,white,woman,,TRUE,6,,,,,,,,,,
null,CORRECT,,html-keyboard-response,335,1180282,0.0-18.0-11.0-0.0,6133,List2A,white,woman,,,,null,,,,,,,,,
2746.5,"<img src=""portrait/WW1.jpg""style=""height:400px;""></img>",1,html-button-response,336,1183031,0.0-18.0-13.0,6133,List2A,white,woman,,TRUE,1,,,,,,,,,,
null,CORRECT,,html-keyboard-response,337,1184541,0.0-18.0-14.0-0.0,6133,List2A,white,woman,,,,null,,,,,,,,,
2451.4,"<img src=""portrait/BM1.jpg""style=""height:400px;""></img>",4,html-button-response,338,1186994,0.0-18.0-16.0,6133,List2A,white,woman,,TRUE,4,,,,,,,,,,
null,CORRECT,,html-keyboard-response,339,1188505,0.0-18.0-17.0-0.0,6133,List2A,white,woman,,,,null,,,,,,,,,
2775.7,"<img src=""portrait/WW2.jpg""style=""height:400px;""></img>",3,html-button-response,340,1191283,0.0-18.0-19.0,6133,List2A,white,woman,,TRUE,3,,,,,,,,,,
null,CORRECT,,html-keyboard-response,341,1192793,0.0-18.0-20.0-0.0,6133,List2A,white,woman,,,,null,,,,,,,,,
2933.2,"<img src=""portrait/BM2.jpg""style=""height:400px;""></img>",5,html-button-response,342,1195728,0.0-18.0-22.0,6133,List2A,white,woman,,TRUE,5,,,,,,,,,,
null,CORRECT,,html-keyboard-response,343,1197240,0.0-18.0-23.0-0.0,6133,List2A,white,woman,,,,null,,,,,,,,,
1306.3,<p>You got 8 out of 8 right first time. Press Continue.</p>,0,html-button-response,344,1198548,0.0-18.0-25.0,6133,List2A,white,woman,,,,,,,,,,,,,
null,"<div style=""font-size:60px;"">+</div>",,html-keyboard-response,345,1200056,0.0-19.0-0.0,6133,List2A,white,woman,,,,null,,,,,,,,,
null,"<img src=""stim_listA/hug7.gif""style=""height:400px;""></stim_listA>",,html-keyboard-response,346,1202063,0.0-19.0-1.0,6133,List2A,white,woman,,,,null,,,,,,,,,
null,is hugging,,html-keyboard-response,347,1204069,0.0-19.0-2.0,6133,List2A,white,woman,,,,null,,,,,,,,,
6292.2,,,survey-text,348,1210364,0.0-19.0-3.0,6133,List2A,white,woman,,,,,"{""Q0"":""ruth is hugging beth""}","<img src=""stim_listA/hug7.gif""style=""height:400px;""></stim_listA>",is hugging,,,,,,
null,"<div style=""font-size:60px;"">+</div>",,html-keyboard-response,349,1210869,0.0-19.0-0.1,6133,List2A,white,woman,,,,null,,,,,,,,,
null,"<img src=""stim_listA/oppose6.gif""style=""height:400px;""></stim_listA>",,html-keyboard-response,350,1212873,0.0-19.0-1.1,6133,List2A,white,woman,,,,null,,,,,,,,,
null,is being opposed by,,html-keyboard-response,351,1214879,0.0-19.0-2.1,6133,List2A,white,woman,,,,null,,,,,,,,,
6831.8,,,survey-text,352,1221714,0.0-19.0-3.1,6133,List2A,white,woman,,,,,"{""Q0"":""luke is being opposed by fred""}","<img src=""stim_listA/oppose6.gif""style=""height:400px;""></stim_listA>",is being opposed by,,,,,,
null,"<div style=""font-size:60px;"">+</div>",,html-keyboard-response,353,1222218,0.0-19.0-0.2,6133,List2A,white,woman,,,,null,,,,,,,,,
null,"<img src=""stim_listA/oppose7.gif""style=""height:400px;""></stim_listA>",,html-keyboard-response,354,1224224,0.0-19.0-1.2,6133,List2A,white,woman,,,,null,,,,,,,,,
null,is opposing,,html-keyboard-response,355,1226229,0.0-19.0-2.2,6133,List2A,white,woman,,,,null,,,,,,,,,
4060.1,,,survey-text,356,1230292,0.0-19.0-3.2,6133,List2A,white,woman,,,,,"{""Q0"":""jane is opposing kate""}","<img src=""stim_listA/oppose7.gif""style=""height:400px;""></stim_listA>",is opposing,,,,,,
null,"<div style=""font-size:60px;"">+</div>",,html-keyboard-response,357,1230796,0.0-19.0-0.3,6133,List2A,white,woman,,,,null,,,,,,,,,
null,"<img src=""stim_listA/kiss5.gif""style=""height:400px;""></stim_listA>",,html-keyboard-response,358,1232801,0.0-19.0-1.3,6133,List2A,white,woman,,,,null,,,,,,,,,
null,is kissing,,html-keyboard-response,359,1234802,0.0-19.0-2.3,6133,List2A,white,woman,,,,null,,,,,,,,,
4544.5,,,survey-text,360,1239350,0.0-19.0-3.3,6133,List2A,white,woman,,,,,"{""Q0"":""fred is kissing luke""}","<img src=""stim_listA/kiss5.gif""style=""height:400px;""></stim_listA>",is kissing,,,,,,
null,"<div style=""font-size:60px;"">+</div>",,html-keyboard-response,361,1239854,0.0-19.0-0.4,6133,List2A,white,woman,,,,null,,,,,,,,,
null,"<img src=""stim_listA/kiss3.gif""style=""height:400px;""></stim_listA>",,html-keyboard-response,362,1241861,0.0-19.0-1.4,6133,List2A,white,woman,,,,null,,,,,,,,,
null,is kissing,,html-keyboard-response,363,1243868,0.0-19.0-2.4,6133,List2A,white,woman,,,,null,,,,,,,,,
5974.9,,,survey-text,364,1249846,0.0-19.0-3.4,6133,List2A,white,woman,,,,,"{""Q0"":""beth is kissing fred""}","<img src=""stim_listA/kiss3.gif""style=""height:400px;""></stim_listA>",is kissing,,,,,,
null,"<div style=""font-size:60px;"">+</div>",,html-keyboard-response,365,1250350,0.0-19.0-0.5,6133,List2A,white,woman,,,,null,,,,,,,,,
null,"<img src=""stim_listA/touch3.gif""style=""height:400px;""></stim_listA>",,html-keyboard-response,366,1252356,0.0-19.0-1.5,6133,List2A,white,woman,,,,null,,,,,,,,,
null,is touching,,html-keyboard-response,367,1254362,0.0-19.0-2.5,6133,List2A,white,woman,,,,null,,,,,,,,,
5350.3,,,survey-text,368,1259715,0.0-19.0-3.5,6133,List2A,white,woman,,,,,"{""Q0"":""kate is touching mike""}","<img src=""stim_listA/touch3.gif""style=""height:400px;""></stim_listA>",is touching,,,,,,
null,"<div style=""font-size:60px;"">+</div>",,html-keyboard-response,369,1260219,0.0-19.0-0.6,6133,List2A,white,woman,,,,null,,,,,,,,,
null,"<img src=""stim_listA/oppose4.gif""style=""height:400px;""></stim_listA>",,html-keyboard-response,370,1262223,0.0-19.0-1.6,6133,List2A,white,woman,,,,null,,,,,,,,,
null,is being opposed by,,html-keyboard-response,371,1264229,0.0-19.0-2.6,6133,List2A,white,woman,,,,null,,,,,,,,,
4700.8,,,survey-text,372,1268933,0.0-19.0-3.6,6133,List2A,white,woman,,,,,"{""Q0"":""beth is being opposed by fred""}","<img src=""stim_listA/oppose4.gif""style=""height:400px;""></stim_listA>",is being opposed by,,,,,,
null,"<div style=""font-size:60px;"">+</div>",,html-keyboard-response,373,1269438,0.0-19.0-0.7,6133,List2A,white,woman,,,,null,,,,,,,,,
null,"<img src=""stim_listA/hug2.gif""style=""height:400px;""></stim_listA>",,html-keyboard-response,374,1271444,0.0-19.0-1.7,6133,List2A,white,woman,,,,null,,,,,,,,,
null,is being hugged by,,html-keyboard-response,375,1273450,0.0-19.0-2.7,6133,List2A,white,woman,,,,null,,,,,,,,,
5014.5,,,survey-text,376,1278467,0.0-19.0-3.7,6133,List2A,white,woman,,,,,"{""Q0"":""jane is being hugged by dave""}","<img src=""stim_listA/hug2.gif""style=""height:400px;""></stim_listA>",is being hugged by,,,,,,
null,"<div style=""font-size:60px;"">+</div>",,html-keyboard-response,377,1278972,0.0-19.0-0.8,6133,List2A,white,woman,,,,null,,,,,,,,,
null,"<img src=""stim_listA/look1.gif""style=""height:400px;""></stim_listA>",,html-keyboard-response,378,1280979,0.0-19.0-1.8,6133,List2A,white,woman,,,,null,,,,,,,,,
null,is looking at,,html-keyboard-response,379,1282985,0.0-19.0-2.8,6133,List2A,white,woman,,,,null,,,,,,,,,
3478.2,,,survey-text,380,1286467,0.0-19.0-3.8,6133,List2A,white,woman,,,,,"{""Q0"":""luke is looking at ruth""}","<img src=""stim_listA/look1.gif""style=""height:400px;""></stim_listA>",is looking at,,,,,,
null,"<div style=""font-size:60px;"">+</div>",,html-keyboard-response,381,1286971,0.0-19.0-0.9,6133,List2A,white,woman,,,,null,,,,,,,,,
null,"<img src=""stim_listA/look2.gif""style=""height:400px;""></stim_listA>",,html-keyboard-response,382,1288976,0.0-19.0-1.9,6133,List2A,white,woman,,,,null,,,,,,,,,
null,is being looked at by,,html-keyboard-response,383,1290982,0.0-19.0-2.9,6133,List2A,white,woman,,,,null,,,,,,,,,
5708.7,,,survey-text,384,1296694,0.0-19.0-3.9,6133,List2A,white,woman,,,,,"{""Q0"":""jane is being looked at by dave""}","<img src=""stim_listA/look2.gif""style=""height:400px;""></stim_listA>",is being looked at by,,,,,,
null,"<div style=""font-size:60px;"">+</div>",,html-keyboard-response,385,1297198,0.0-19.0-0.10,6133,List2A,white,woman,,,,null,,,,,,,,,
null,"<img src=""stim_listA/shout1.gif""style=""height:400px;""></stim_listA>",,html-keyboard-response,386,1299203,0.0-19.0-1.10,6133,List2A,white,woman,,,,null,,,,,,,,,
null,is shouting at,,html-keyboard-response,387,1301211,0.0-19.0-2.10,6133,List2A,white,woman,,,,null,,,,,,,,,
5821.3,,,survey-text,388,1307036,0.0-19.0-3.10,6133,List2A,white,woman,,,,,"{""Q0"":""ruth is shouting at luke""}","<img src=""stim_listA/shout1.gif""style=""height:400px;""></stim_listA>",is shouting at,,,,,,
null,"<div style=""font-size:60px;"">+</div>",,html-keyboard-response,389,1307540,0.0-19.0-0.11,6133,List2A,white,woman,,,,null,,,,,,,,,
null,"<img src=""stim_listA/kiss6.gif""style=""height:400px;""></stim_listA>",,html-keyboard-response,390,1309547,0.0-19.0-1.11,6133,List2A,white,woman,,,,null,,,,,,,,,
null,is being kissed by,,html-keyboard-response,391,1311553,0.0-19.0-2.11,6133,List2A,white,woman,,,,null,,,,,,,,,
4157.1,,,survey-text,392,1315713,0.0-19.0-3.11,6133,List2A,white,woman,,,,,"{""Q0"":""mike is being kissed by dave""}","<img src=""stim_listA/kiss6.gif""style=""height:400px;""></stim_listA>",is being kissed by,,,,,,
null,"<div style=""font-size:60px;"">+</div>",,html-keyboard-response,393,1316218,0.0-19.0-0.12,6133,List2A,white,woman,,,,null,,,,,,,,,
null,"<img src=""stim_listA/seduce4.gif""style=""height:400px;""></stim_listA>",,html-keyboard-response,394,1318223,0.0-19.0-1.12,6133,List2A,white,woman,,,,null,,,,,,,,,
null,is being seduced by,,html-keyboard-response,395,1320230,0.0-19.0-2.12,6133,List2A,white,woman,,,,null,,,,,,,,,
8039.1,,,survey-text,396,1328272,0.0-19.0-3.12,6133,List2A,white,woman,,,,,"{""Q0"":""mike is being seduced by beth""}","<img src=""stim_listA/seduce4.gif""style=""height:400px;""></stim_listA>",is being seduced by,,,,,,
null,"<div style=""font-size:60px;"">+</div>",,html-keyboard-response,397,1328776,0.0-19.0-0.13,6133,List2A,white,woman,,,,null,,,,,,,,,
null,"<img src=""stim_listA/look6.gif""style=""height:400px;""></stim_listA>",,html-keyboard-response,398,1330783,0.0-19.0-1.13,6133,List2A,white,woman,,,,null,,,,,,,,,
null,is being looked at by,,html-keyboard-response,399,1332788,0.0-19.0-2.13,6133,List2A,white,woman,,,,null,,,,,,,,,
6312,,,survey-text,400,1339103,0.0-19.0-3.13,6133,List2A,white,woman,,,,,"{""Q0"":""dave is being looked at by mike""}","<img src=""stim_listA/look6.gif""style=""height:400px;""></stim_listA>",is being looked at by,,,,,,
null,"<div style=""font-size:60px;"">+</div>",,html-keyboard-response,401,1339608,0.0-19.0-0.14,6133,List2A,white,woman,,,,null,,,,,,,,,
null,"<img src=""stim_listA/seduce2.gif""style=""height:400px;""></stim_listA>",,html-keyboard-response,402,1341615,0.0-19.0-1.14,6133,List2A,white,woman,,,,null,,,,,,,,,
null,is being seduced by,,html-keyboard-response,403,1343617,0.0-19.0-2.14,6133,List2A,white,woman,,,,null,,,,,,,,,
5735.7,,,survey-text,404,1349356,0.0-19.0-3.14,6133,List2A,white,woman,,,,,"{""Q0"":""ruth is being seduced by dave""}","<img src=""stim_listA/seduce2.gif""style=""height:400px;""></stim_listA>",is being seduced by,,,,,,
null,"<div style=""font-size:60px;"">+</div>",,html-keyboard-response,405,1349860,0.0-19.0-0.15,6133,List2A,white,woman,,,,null,,,,,,,,,
null,"<img src=""stim_listA/copy5.gif""style=""height:400px;""></stim_listA>",,html-keyboard-response,406,1351868,0.0-19.0-1.15,6133,List2A,white,woman,,,,null,,,,,,,,,
null,is copying,,html-keyboard-response,407,1353874,0.0-19.0-2.15,6133,List2A,white,woman,,,,null,,,,,,,,,
4381.3,,,survey-text,408,1358258,0.0-19.0-3.15,6133,List2A,white,woman,,,,,"{""Q0"":""dave is copying fred""}","<img src=""stim_listA/copy5.gif""style=""height:400px;""></stim_listA>",is copying,,,,,,
null,"<div style=""font-size:60px;"">+</div>",,html-keyboard-response,409,1358763,0.0-19.0-0.16,6133,List2A,white,woman,,,,null,,,,,,,,,
null,"<img src=""stim_listA/greet7.gif""style=""height:400px;""></stim_listA>",,html-keyboard-response,410,1360770,0.0-19.0-1.16,6133,List2A,white,woman,,,,null,,,,,,,,,
null,is greeting,,html-keyboard-response,411,1362777,0.0-19.0-2.16,6133,List2A,white,woman,,,,null,,,,,,,,,
4808.4,,,survey-text,412,1367588,0.0-19.0-3.16,6133,List2A,white,woman,,,,,"{""Q0"":""beth is greeting jane""}","<img src=""stim_listA/greet7.gif""style=""height:400px;""></stim_listA>",is greeting,,,,,,
null,"<div style=""font-size:60px;"">+</div>",,html-keyboard-response,413,1368092,0.0-19.0-0.17,6133,List2A,white,woman,,,,null,,,,,,,,,
null,"<img src=""stim_listA/oppose8.gif""style=""height:400px;""></stim_listA>",,html-keyboard-response,414,1370097,0.0-19.0-1.17,6133,List2A,white,woman,,,,null,,,,,,,,,
null,is being opposed by,,html-keyboard-response,415,1372103,0.0-19.0-2.17,6133,List2A,white,woman,,,,null,,,,,,,,,
6162.7,,,survey-text,416,1378268,0.0-19.0-3.17,6133,List2A,white,woman,,,,,"{""Q0"":""ruth is being opposed by beth""}","<img src=""stim_listA/oppose8.gif""style=""height:400px;""></stim_listA>",is being opposed by,,,,,,
null,"<div style=""font-size:60px;"">+</div>",,html-keyboard-response,417,1378772,0.0-19.0-0.18,6133,List2A,white,woman,,,,null,,,,,,,,,
null,"<img src=""stim_listA/challenge1.gif""style=""height:400px;""></stim_listA>",,html-keyboard-response,418,1380779,0.0-19.0-1.18,6133,List2A,white,woman,,,,null,,,,,,,,,
null,is challenging,,html-keyboard-response,419,1382785,0.0-19.0-2.18,6133,List2A,white,woman,,,,null,,,,,,,,,
4308.8,,,survey-text,420,1387097,0.0-19.0-3.18,6133,List2A,white,woman,,,,,"{""Q0"":""ruth is challenging dave""}","<img src=""stim_listA/challenge1.gif""style=""height:400px;""></stim_listA>",is challenging,,,,,,
null,"<div style=""font-size:60px;"">+</div>",,html-keyboard-response,421,1387599,0.0-19.0-0.19,6133,List2A,white,woman,,,,null,,,,,,,,,
null,"<img src=""stim_listA/greet5.gif""style=""height:400px;""></stim_listA>",,html-keyboard-response,422,1389606,0.0-19.0-1.19,6133,List2A,white,woman,,,,null,,,,,,,,,
null,is greeting,,html-keyboard-response,423,1391612,0.0-19.0-2.19,6133,List2A,white,woman,,,,null,,,,,,,,,
3581.8,,,survey-text,424,1395197,0.0-19.0-3.19,6133,List2A,white,woman,,,,,"{""Q0"":""dave is greeting fred""}","<img src=""stim_listA/greet5.gif""style=""height:400px;""></stim_listA>",is greeting,,,,,,
3683,<p>Thank you for completing that task.</p><p>The final part of this session is a questionnaire that will take about 4 minutes.</p><p>Press Continue.</p>,0,html-button-response,425,1398881,0.0-20.0,6133,List2A,white,woman,,,,,,,,,,,,,
24001,,,survey-text,426,1423893,0.0-21.0,6133,List2A,white,woman,,,,,"{""Q0"":""20"",""Q1"":""English"",""Q2"":""English"",""Q3"":""United States"",""Q4"":""American"",""Q5"":""White"",""Q6"":""Female""}",,,demographics,,,,,
2761.7,<p>Have you lived in the USA for the last 5 years or more?</p>,0,html-button-response,427,1426657,0.0-22.0,6133,List2A,white,woman,,,,,,,,fiveyears,,,,,
2542.1,<p>Move the slider to show the extent to which you agree with the following statements.</p>,0,html-button-response,428,1430204,0.0-23.0,6133,List2A,white,woman,,,,,,,,,,,,,
4706.4,,,html-slider-response,429,1435916,0.0-24.0-0.0-0.0,6133,List2A,white,woman,,,,,,,,survey_gender,16,,,Routine is not important to me.,filler
2916.1,,,html-slider-response,430,1438834,0.0-24.0-0.0-0.1,6133,List2A,white,woman,,,,,,,,survey_gender,75,,,My friends have a lot in common with each other.,filler
2825.4,,,html-slider-response,431,1441662,0.0-24.0-0.0-0.2,6133,List2A,white,woman,,,,,,,,survey_gender,100,,,I consider myself a highly empathetic person.,filler
2137.4,,,html-slider-response,432,1443801,0.0-24.0-0.0-0.3,6133,List2A,white,woman,,,,,,,,survey_gender,55,,,I feel a bond with my friends.,filler
3398.6,,,html-slider-response,433,1447202,0.0-24.0-0.0-0.4,6133,List2A,white,woman,,,,,,,,survey_gender,99,,,I feel committed to my gender.,committed
2283.4,,,html-slider-response,434,1449489,0.0-24.0-0.0-0.5,6133,List2A,white,woman,,,,,,,,survey_gender,100,,,It is pleasant to be my gender.,pleasant
3897.5,,,html-slider-response,435,1453388,0.0-24.0-0.0-0.6,6133,List2A,white,woman,,,,,,,,survey_gender,100,,,I think that my gender has a lot to be proud of.,proud
4663.1,,,html-slider-response,436,1458054,0.0-24.0-0.0-0.7,6133,List2A,white,woman,,,,,,,,survey_gender,81,,,The fact that I am my gender is an important part of my identity.,identity
2471.9,,,html-slider-response,437,1460528,0.0-24.0-0.0-0.8,6133,List2A,white,woman,,,,,,,,survey_gender,100,,,I feel solidarity with my gender.,solidarity
4477.4,,,html-slider-response,438,1465008,0.0-24.0-0.0-0.9,6133,List2A,white,woman,,,,,,,,survey_gender,73,,,I often think about my actions.,filler
3362.7,,,html-slider-response,439,1468373,0.0-24.0-0.0-0.10,6133,List2A,white,woman,,,,,,,,survey_gender,100,,,I am similar to the average person of my gender.,similar
2425.9,,,html-slider-response,440,1470801,0.0-24.0-0.0-0.11,6133,List2A,white,woman,,,,,,,,survey_gender,82,,,Being my gender gives me a good feeling.,feeling
3233.9,,,html-slider-response,441,1474037,0.0-24.0-0.0-0.12,6133,List2A,white,woman,,,,,,,,survey_gender,63,,,I feel solidarity with my friends.,filler
3821.6,,,html-slider-response,442,1477861,0.0-24.0-0.0-0.13,6133,List2A,white,woman,,,,,,,,survey_gender,74,,,People of my gender are very similar to each other.,verysimilar
4564.4,,,html-slider-response,443,1482428,0.0-24.0-0.0-0.14,6133,List2A,white,woman,,,,,,,,survey_gender,24,,,I often think about the fact that I am my gender.,often
3740,,,html-slider-response,444,1486171,0.0-24.0-0.0-0.15,6133,List2A,white,woman,,,,,,,,survey_gender,83,,,Being around my friends gives me a good feeling.,filler
2497.7,,,html-slider-response,445,1488671,0.0-24.0-0.0-0.16,6133,List2A,white,woman,,,,,,,,survey_gender,91,,,I am glad to have the friends that I have.,filler
1868.6,,,html-slider-response,446,1490542,0.0-24.0-0.0-0.17,6133,List2A,white,woman,,,,,,,,survey_gender,84,,,My friends understand me.,filler
1913.4,,,html-slider-response,447,1492457,0.0-24.0-0.0-0.18,6133,List2A,white,woman,,,,,,,,survey_gender,83,,,I am glad to be my gender.,glad
4867.9,,,html-slider-response,448,1497327,0.0-24.0-0.0-0.19,6133,List2A,white,woman,,,,,,,,survey_gender,44,,,It is not always easy for people to know what I am thinking.,filler
2367.6,,,html-slider-response,449,1499697,0.0-24.0-0.0-0.20,6133,List2A,white,woman,,,,,,,,survey_gender,78,,,I have a lot in common with my friends.,filler
3628.4,,,html-slider-response,450,1503327,0.0-24.0-0.0-0.21,6133,List2A,white,woman,,,,,,,,survey_gender,100,,,I would say I am an animal person.,filler
3054.5,,,html-slider-response,451,1506384,0.0-24.0-0.0-0.22,6133,List2A,white,woman,,,,,,,,survey_gender,99,,,I feel a bond with my gender.,bond
3436.4,,,html-slider-response,452,1509823,0.0-24.0-0.0-0.23,6133,List2A,white,woman,,,,,,,,survey_gender,98,,,I have a lot in common with the average person of my gender.,average
5131.1,,,html-slider-response,453,1514956,0.0-24.0-0.0-0.24,6133,List2A,white,woman,,,,,,,,survey_gender,16,,,Family is not more important to me than friendship.,filler
4712.9,,,html-slider-response,454,1519672,0.0-24.0-0.0-0.25,6133,List2A,white,woman,,,,,,,,survey_gender,73,,,Most of the friends in my life are very similar to me.,filler
2434.2,,,html-slider-response,455,1522108,0.0-24.0-0.0-0.26,6133,List2A,white,woman,,,,,,,,survey_gender,85,,,People of my gender have a lot in common with each other.,common
5210.1,,,html-slider-response,456,1527321,0.0-24.0-0.0-0.27,6133,List2A,white,woman,,,,,,,,survey_gender,86,,,Being my gender is an important part of how I see myself.,important
2448.9,,,html-slider-response,457,1529773,0.0-24.0-1.0-0.0,6133,List2A,white,woman,,,,,,,,survey_race,85,,,Being my race gives me a good feeling.,feeling
5123.4,,,html-slider-response,458,1534898,0.0-24.0-1.0-0.1,6133,List2A,white,woman,,,,,,,,survey_race,60,,,I am glad to be my race.,glad
2439.4,,,html-slider-response,459,1537340,0.0-24.0-1.0-0.2,6133,List2A,white,woman,,,,,,,,survey_race,73,,,It is pleasant to be my race.,pleasant
3455.4,,,html-slider-response,460,1540797,0.0-24.0-1.0-0.3,6133,List2A,white,woman,,,,,,,,survey_race,100,,,I consider myself an introvert.,filler
5686.8,,,html-slider-response,461,1546487,0.0-24.0-1.0-0.4,6133,List2A,white,woman,,,,,,,,survey_race,77,,,My age is not an important part of who I am.,filler
3764.6,,,html-slider-response,462,1550254,0.0-24.0-1.0-0.5,6133,List2A,white,woman,,,,,,,,survey_race,17,,,Getting older does not worry me.,filler
4688,,,html-slider-response,463,1554945,0.0-24.0-1.0-0.6,6133,List2A,white,woman,,,,,,,,survey_race,77,,,I am glad to be the age I am.,filler
2432.6,,,html-slider-response,464,1557381,0.0-24.0-1.0-0.7,6133,List2A,white,woman,,,,,,,,survey_race,89,,,I am glad to be my age.,filler
3626.1,,,html-slider-response,465,1561009,0.0-24.0-1.0-0.8,6133,List2A,white,woman,,,,,,,,survey_race,13,,,I enjoy being in large groups.,filler
2946.9,,,html-slider-response,466,1563959,0.0-24.0-1.0-0.9,6133,List2A,white,woman,,,,,,,,survey_race,79,,,I feel solidarity with people the same age as me.,filler
4207,,,html-slider-response,467,1568168,0.0-24.0-1.0-0.10,6133,List2A,white,woman,,,,,,,,survey_race,46,,,The fact that I am my race is an important part of my identity.,identity
3354.4,,,html-slider-response,468,1571525,0.0-24.0-1.0-0.11,6133,List2A,white,woman,,,,,,,,survey_race,82,,,Being my age gives me a good feeling.,filler
3342.1,,,html-slider-response,469,1574868,0.0-24.0-1.0-0.12,6133,List2A,white,woman,,,,,,,,survey_race,43,,,Being my race is an important part of how I see myself.,important
2130.3,,,html-slider-response,470,1577001,0.0-24.0-1.0-0.13,6133,List2A,white,woman,,,,,,,,survey_race,45,,,I feel committed to my race.,committed
3953.1,,,html-slider-response,471,1580956,0.0-24.0-1.0-0.14,6133,List2A,white,woman,,,,,,,,survey_race,76,,,I feel a bond with people the same age as me.,filler
3151.6,,,html-slider-response,472,1584110,0.0-24.0-1.0-0.15,6133,List2A,white,woman,,,,,,,,survey_race,81,,,People my age have a lot in common with each other.,filler
2385.3,,,html-slider-response,473,1586497,0.0-24.0-1.0-0.16,6133,List2A,white,woman,,,,,,,,survey_race,46,,,I feel solidarity with my race.,solidarity
2301.3,,,html-slider-response,474,1588801,0.0-24.0-1.0-0.17,6133,List2A,white,woman,,,,,,,,survey_race,47,,,I think that my race has a lot to be proud of.,proud
3561.1,,,html-slider-response,475,1592364,0.0-24.0-1.0-0.18,6133,List2A,white,woman,,,,,,,,survey_race,88,,,I have a lot in common with people of a similar age to me.,filler
4116.2,,,html-slider-response,476,1596482,0.0-24.0-1.0-0.19,6133,List2A,white,woman,,,,,,,,survey_race,0,,,I consider myself an extrovert.,filler
4491.2,,,html-slider-response,477,1600976,0.0-24.0-1.0-0.20,6133,List2A,white,woman,,,,,,,,survey_race,72,,,I have a lot in common with the average person of my race.,average
2883.5,,,html-slider-response,478,1603863,0.0-24.0-1.0-0.21,6133,List2A,white,woman,,,,,,,,survey_race,47,,,I feel a bond with my race.,bond
3748.5,,,html-slider-response,479,1607613,0.0-24.0-1.0-0.22,6133,List2A,white,woman,,,,,,,,survey_race,66,,,People of my race have a lot in common with each other.,common
2604.1,,,html-slider-response,480,1610220,0.0-24.0-1.0-0.23,6133,List2A,white,woman,,,,,,,,survey_race,44,,,I often think about the fact that I am my race.,often
4041.9,,,html-slider-response,481,1614264,0.0-24.0-1.0-0.24,6133,List2A,white,woman,,,,,,,,survey_race,67,,,People of my race are very similar to each other.,verysimilar
6199.4,,,html-slider-response,482,1620466,0.0-24.0-1.0-0.25,6133,List2A,white,woman,,,,,,,,survey_race,32,,,I often think about the fact that I am my age.,filler
3239.4,,,html-slider-response,483,1623708,0.0-24.0-1.0-0.26,6133,List2A,white,woman,,,,,,,,survey_race,82,,,"The older I get, the wiser I feel.",filler
5528,,,html-slider-response,484,1629238,0.0-24.0-1.0-0.27,6133,List2A,white,woman,,,,,,,,survey_race,66,,,I am similar to the average person of my race.,similar
4363.1,,,survey-text,485,1633603,0.0-25.0,6133,List2A,white,woman,,,,,"{""Q0"":""ccc""}",,,worker_id,,,,,
2332.5,,,external-html,486,1636179,0.0-26.0,6133,List2A,white,woman,debrief.html,,,,,,,,,,,,
