"rt","stimulus","button_pressed","trial_type","trial_index","time_elapsed","internal_node_id","subject","list","ppt_race","ppt_gender","url","first_guess","correct","key_press","responses","image_type","phrase_type","test_part","response","stimulus1","stimulus2","question_type","survey_item"
"3445.5999999999767","Welcome to the experiment. Press Continue to begin.","0","html-button-response","0","3449","0.0-0.0","61840","List1A","white","man","","","","","","","","","","","","",""
"18426.899999999907","","","external-html","1","24155","0.0-1.0","61840","List1A","white","man","consent.html","","","","","","","","","","","",""
"38289.39999999991","<p>On the next page, you will see portraits of 8 people and their names.</p><p>Your first task is to take a few minutes to memorise the names of these people.</p><p>You will have to recall their names during the rest of the experiment, so it is</p><p>essential that you try to memorise these people and their names as best as you can.</p><br><p><strong>You will then be tested on your memory of these names and portraits.</strong></p><br><p>The experiment will start after you have completed this memory test.</p><br><p>Ready?</p>","0","html-button-response","2","62445","0.0-2.0","61840","List1A","white","man","","","","","","","","","","","","",""
"187998.59999999986","<img src='img/portrait_matrix_list1.jpg' style='width:900px;height:500px;''></img><p>If you have memorised all the portraits and names and are ready to start, press Continue.</p><p><strong>Please note: Your memory of these faces will be tested 4 times during this experiment.</strong></p>","0","html-button-response","3","251447","0.0-3.0-0.0","61840","List1A","white","man","","","","","","","","","","","","",""
"12622","<img src=""portrait/WM2.jpg""style=""height:400px;""></img>","7","html-button-response","4","265072","0.0-3.0-1.0","61840","List1A","white","man","","true","7","","","","","","","","","",""
"null","CORRECT","","html-keyboard-response","5","266579","0.0-3.0-2.0-0.0","61840","List1A","white","man","","","","null","","","","","","","","",""
"9516.300000000047","<img src=""portrait/BM2.jpg""style=""height:400px;""></img>","6","html-button-response","6","276097","0.0-3.0-4.0","61840","List1A","white","man","","true","5","","","","","","","","","",""
"11542.300000000047","<img src=""portrait/BM2.jpg""style=""height:400px;""></img>","5","html-button-response","7","288643","0.0-3.0-6.0-0.0","61840","List1A","white","man","","false","5","","","","","","","","","",""
"null","CORRECT","","html-keyboard-response","8","290148","0.0-3.0-6.0-1.0-0.0","61840","List1A","white","man","","","","null","","","","","","","","",""
"9480.5","<img src=""portrait/BM1.jpg""style=""height:400px;""></img>","4","html-button-response","9","299631","0.0-3.0-7.0","61840","List1A","white","man","","true","4","","","","","","","","","",""
"null","CORRECT","","html-keyboard-response","10","301136","0.0-3.0-8.0-0.0","61840","List1A","white","man","","","","null","","","","","","","","",""
"8488.5","<img src=""portrait/WM1.jpg""style=""height:400px;""></img>","6","html-button-response","11","309627","0.0-3.0-10.0","61840","List1A","white","man","","true","6","","","","","","","","","",""
"null","CORRECT","","html-keyboard-response","12","311130","0.0-3.0-11.0-0.0","61840","List1A","white","man","","","","null","","","","","","","","",""
"8925.90000000014","<img src=""portrait/WW2.jpg""style=""height:400px;""></img>","3","html-button-response","13","320057","0.0-3.0-13.0","61840","List1A","white","man","","true","3","","","","","","","","","",""
"null","CORRECT","","html-keyboard-response","14","321561","0.0-3.0-14.0-0.0","61840","List1A","white","man","","","","null","","","","","","","","",""
"11549.09999999986","<img src=""portrait/BW1.jpg""style=""height:400px;""></img>","0","html-button-response","15","333111","0.0-3.0-16.0","61840","List1A","white","man","","true","0","","","","","","","","","",""
"null","CORRECT","","html-keyboard-response","16","334614","0.0-3.0-17.0-0.0","61840","List1A","white","man","","","","null","","","","","","","","",""
"5314.199999999953","<img src=""portrait/BW2.jpg""style=""height:400px;""></img>","2","html-button-response","17","339930","0.0-3.0-19.0","61840","List1A","white","man","","true","2","","","","","","","","","",""
"null","CORRECT","","html-keyboard-response","18","341434","0.0-3.0-20.0-0.0","61840","List1A","white","man","","","","null","","","","","","","","",""
"4929.800000000047","<img src=""portrait/WW1.jpg""style=""height:400px;""></img>","1","html-button-response","19","346365","0.0-3.0-22.0","61840","List1A","white","man","","true","1","","","","","","","","","",""
"null","CORRECT","","html-keyboard-response","20","347869","0.0-3.0-23.0-0.0","61840","List1A","white","man","","","","null","","","","","","","","",""
"31798","<p>You got 7 out of 8 right first time. Press Continue.</p>","0","html-button-response","21","379670","0.0-3.0-25.0","61840","List1A","white","man","","","","","","","","","","","","",""
"5024.700000000186","As you did not score 100%, the memory game will repeat. Press Continue.","0","html-button-response","22","385698","0.0-3.0-26.0-0.0","61840","List1A","white","man","","","","","","","","","","","","",""
"10293.100000000093","<img src='img/portrait_matrix_list1.jpg' style='width:900px;height:500px;''></img><p>If you have memorised all the portraits and names and are ready to start, press Continue.</p><p><strong>Please note: Your memory of these faces will be tested 4 times during this experiment.</strong></p>","0","html-button-response","23","396994","0.0-3.1-0.1","61840","List1A","white","man","","","","","","","","","","","","",""
"7139.199999999953","<img src=""portrait/WM2.jpg""style=""height:400px;""></img>","7","html-button-response","24","405138","0.0-3.1-1.1","61840","List1A","white","man","","true","7","","","","","","","","","",""
"null","CORRECT","","html-keyboard-response","25","406641","0.0-3.1-2.1-0.1","61840","List1A","white","man","","","","null","","","","","","","","",""
"4015","<img src=""portrait/BM2.jpg""style=""height:400px;""></img>","5","html-button-response","26","410658","0.0-3.1-4.1","61840","List1A","white","man","","true","5","","","","","","","","","",""
"null","CORRECT","","html-keyboard-response","27","412161","0.0-3.1-5.1-0.1","61840","List1A","white","man","","","","null","","","","","","","","",""
"4397.800000000047","<img src=""portrait/BM1.jpg""style=""height:400px;""></img>","4","html-button-response","28","416561","0.0-3.1-7.1","61840","List1A","white","man","","true","4","","","","","","","","","",""
"null","CORRECT","","html-keyboard-response","29","418065","0.0-3.1-8.1-0.1","61840","List1A","white","man","","","","null","","","","","","","","",""
"3791.1999999999534","<img src=""portrait/WM1.jpg""style=""height:400px;""></img>","6","html-button-response","30","421858","0.0-3.1-10.1","61840","List1A","white","man","","true","6","","","","","","","","","",""
"null","CORRECT","","html-keyboard-response","31","423362","0.0-3.1-11.1-0.1","61840","List1A","white","man","","","","null","","","","","","","","",""
"6897.199999999953","<img src=""portrait/WW2.jpg""style=""height:400px;""></img>","3","html-button-response","32","430262","0.0-3.1-13.1","61840","List1A","white","man","","true","3","","","","","","","","","",""
"null","CORRECT","","html-keyboard-response","33","431764","0.0-3.1-14.1-0.1","61840","List1A","white","man","","","","null","","","","","","","","",""
"9610.5","<img src=""portrait/BW1.jpg""style=""height:400px;""></img>","0","html-button-response","34","441376","0.0-3.1-16.1","61840","List1A","white","man","","true","0","","","","","","","","","",""
"null","CORRECT","","html-keyboard-response","35","442880","0.0-3.1-17.1-0.1","61840","List1A","white","man","","","","null","","","","","","","","",""
"5784.800000000047","<img src=""portrait/BW2.jpg""style=""height:400px;""></img>","2","html-button-response","36","448666","0.0-3.1-19.1","61840","List1A","white","man","","true","2","","","","","","","","","",""
"null","CORRECT","","html-keyboard-response","37","450169","0.0-3.1-20.1-0.1","61840","List1A","white","man","","","","null","","","","","","","","",""
"1725.5999999998603","<img src=""portrait/WW1.jpg""style=""height:400px;""></img>","1","html-button-response","38","451896","0.0-3.1-22.1","61840","List1A","white","man","","true","1","","","","","","","","","",""
"null","CORRECT","","html-keyboard-response","39","453399","0.0-3.1-23.1-0.1","61840","List1A","white","man","","","","null","","","","","","","","",""
"2010.1000000000931","<p>You got 8 out of 8 right first time. Press Continue.</p>","0","html-button-response","40","455410","0.0-3.1-25.1","61840","List1A","white","man","","","","","","","","","","","","",""
"42944.30000000005","<p>In this experiment, you will view photographs of the people from the memory game interacting.</p><p>By using the <strong>exact</strong> phrase given <i>after</i> the photograph appears and recalling the correct names of the people in the photographs, form a sentence describing the interaction. You do not need to capitalise names.</p><p>Type your answer in the space provided. Please complete every sentence before moving onto the next trial.</p><p>You will only have a few seconds to memorise each given photograph and phrase before you can respond, so try your best to focus.</p><p>An example is given below. Press 'Continue' when you are ready.</p><img src='img/speaking_example.jpg' style='width:800px;height:460px;''></img>","0","html-button-response","41","499357","0.0-4.0","61840","List1A","white","man","","","","","","","","","","","","",""
"3006.6999999999534","<p>Before the experiment starts, you will watch two example trials. Press 'Continue'.</p>","0","html-button-response","42","503366","0.0-5.0","61840","List1A","white","man","","","","","","","","","","","","",""
"null","<img src='img/play_eg.gif' style='height:400px;''></img>","","html-keyboard-response","43","506370","0.0-6.0","61840","List1A","white","man","","","","null","","","","","","","","",""
"null","<p>is playing with</p>","","html-keyboard-response","44","508372","0.0-7.0","61840","List1A","white","man","","","","null","","","","","","","","",""
"8111.100000000093","<p><b>Answer:</b> kate is playing with beth</p>","0","html-button-response","45","516484","0.0-8.0","61840","List1A","white","man","","","","","","","","","","","","",""
"null","<img src='img/dance_eg.gif' style='height:400px;''></img>","","html-keyboard-response","46","519486","0.0-9.0","61840","List1A","white","man","","","","null","","","","","","","","",""
"null","<p>is being entertained by</p>","","html-keyboard-response","47","521489","0.0-10.0","61840","List1A","white","man","","","","null","","","","","","","","",""
"9536.5","<p><b>Answer:</b> luke is being entertained by dave</p>","0","html-button-response","48","531026","0.0-11.0","61840","List1A","white","man","","","","","","","","","","","","",""
"17489.5","<p>Ready to start the experiment?</p><br><p><strong>Remember to describe the picture using a full sentence,</strong></p><p><strong>that combines the names of the people with the <i>exact</i> phrase given.</strong></p><p><strong>To receive full payment you must do this correctly.</strong></p><p><strong> You do not need to capitalise names or use punctuation.</strong></p><br><p>Press 'Continue' to begin.</p>","0","html-button-response","49","549518","0.0-12.0","61840","List1A","white","man","","","","","","","","","","","","",""
"null","<div style=""font-size:60px;"">+</div>","","html-keyboard-response","50","551022","0.0-13.0-0.0","61840","List1A","white","man","","","","null","","","","","","","","",""
"null","<img src=""stim_listA/oppose8.gif""style=""height:400px;""></stim_listA>","","html-keyboard-response","51","553024","0.0-13.0-1.0","61840","List1A","white","man","","","","null","","","","","","","","",""
"null","is being opposed by","","html-keyboard-response","52","555024","0.0-13.0-2.0","61840","List1A","white","man","","","","null","","","","","","","","",""
"25678.699999999953","","","survey-text","53","580707","0.0-13.0-3.0","61840","List1A","white","man","","","","","{""Q0"":""ruth is playing with beth""}","<img src=""stim_listA/oppose8.gif""style=""height:400px;""></stim_listA>","is being opposed by","","","","","",""
"null","<div style=""font-size:60px;"">+</div>","","html-keyboard-response","54","581209","0.0-13.0-0.1","61840","List1A","white","man","","","","null","","","","","","","","",""
"null","<img src=""stim_listA/challenge3.gif""style=""height:400px;""></stim_listA>","","html-keyboard-response","55","583211","0.0-13.0-1.1","61840","List1A","white","man","","","","null","","","","","","","","",""
"null","is challenging","","html-keyboard-response","56","585214","0.0-13.0-2.1","61840","List1A","white","man","","","","null","","","","","","","","",""
"36452.10000000009","","","survey-text","57","621671","0.0-13.0-3.1","61840","List1A","white","man","","","","","{""Q0"":""Kate is challenging Dave""}","<img src=""stim_listA/challenge3.gif""style=""height:400px;""></stim_listA>","is challenging","","","","","",""
"null","<div style=""font-size:60px;"">+</div>","","html-keyboard-response","58","622173","0.0-13.0-0.2","61840","List1A","white","man","","","","null","","","","","","","","",""
"null","<img src=""stim_listA/copy5.gif""style=""height:400px;""></stim_listA>","","html-keyboard-response","59","624176","0.0-13.0-1.2","61840","List1A","white","man","","","","null","","","","","","","","",""
"null","is copying","","html-keyboard-response","60","626177","0.0-13.0-2.2","61840","List1A","white","man","","","","null","","","","","","","","",""
"35259.69999999995","","","survey-text","61","661441","0.0-13.0-3.2","61840","List1A","white","man","","","","","{""Q0"":""mike is immitating luke""}","<img src=""stim_listA/copy5.gif""style=""height:400px;""></stim_listA>","is copying","","","","","",""
"null","<div style=""font-size:60px;"">+</div>","","html-keyboard-response","62","661942","0.0-13.0-0.3","61840","List1A","white","man","","","","null","","","","","","","","",""
"null","<img src=""stim_listA/look5.gif""style=""height:400px;""></stim_listA>","","html-keyboard-response","63","663946","0.0-13.0-1.3","61840","List1A","white","man","","","","null","","","","","","","","",""
"null","is looking at","","html-keyboard-response","64","665948","0.0-13.0-2.3","61840","List1A","white","man","","","","null","","","","","","","","",""
"22315.300000000047","","","survey-text","65","688267","0.0-13.0-3.3","61840","List1A","white","man","","","","","{""Q0"":""Fred is looking at Luke""}","<img src=""stim_listA/look5.gif""style=""height:400px;""></stim_listA>","is looking at","","","","","",""
"null","<div style=""font-size:60px;"">+</div>","","html-keyboard-response","66","688770","0.0-13.0-0.4","61840","List1A","white","man","","","","null","","","","","","","","",""
"null","<img src=""stim_listA/hug8.gif""style=""height:400px;""></stim_listA>","","html-keyboard-response","67","690772","0.0-13.0-1.4","61840","List1A","white","man","","","","null","","","","","","","","",""
"null","is being hugged by","","html-keyboard-response","68","692774","0.0-13.0-2.4","61840","List1A","white","man","","","","null","","","","","","","","",""
"25066.100000000093","","","survey-text","69","717842","0.0-13.0-3.4","61840","List1A","white","man","","","","","{""Q0"":""Jane is being hugged by Kate""}","<img src=""stim_listA/hug8.gif""style=""height:400px;""></stim_listA>","is being hugged by","","","","","",""
"null","<div style=""font-size:60px;"">+</div>","","html-keyboard-response","70","718344","0.0-13.0-0.5","61840","List1A","white","man","","","","null","","","","","","","","",""
"null","<img src=""stim_listA/hug6.gif""style=""height:400px;""></stim_listA>","","html-keyboard-response","71","720347","0.0-13.0-1.5","61840","List1A","white","man","","","","null","","","","","","","","",""
"null","is being hugged by","","html-keyboard-response","72","722350","0.0-13.0-2.5","61840","List1A","white","man","","","","null","","","","","","","","",""
"28703.899999999907","","","survey-text","73","751058","0.0-13.0-3.5","61840","List1A","white","man","","","","","{""Q0"":""Mike is being hugged by Dave""}","<img src=""stim_listA/hug6.gif""style=""height:400px;""></stim_listA>","is being hugged by","","","","","",""
"null","<div style=""font-size:60px;"">+</div>","","html-keyboard-response","74","751561","0.0-13.0-0.6","61840","List1A","white","man","","","","null","","","","","","","","",""
"null","<img src=""stim_listA/touch3.gif""style=""height:400px;""></stim_listA>","","html-keyboard-response","75","753563","0.0-13.0-1.6","61840","List1A","white","man","","","","null","","","","","","","","",""
"null","is touching","","html-keyboard-response","76","755564","0.0-13.0-2.6","61840","List1A","white","man","","","","null","","","","","","","","",""
"20634.899999999907","","","survey-text","77","776203","0.0-13.0-3.6","61840","List1A","white","man","","","","","{""Q0"":""jane is touching Dave""}","<img src=""stim_listA/touch3.gif""style=""height:400px;""></stim_listA>","is touching","","","","","",""
"null","<div style=""font-size:60px;"">+</div>","","html-keyboard-response","78","776704","0.0-13.0-0.7","61840","List1A","white","man","","","","null","","","","","","","","",""
"null","<img src=""stim_listA/greet3.gif""style=""height:400px;""></stim_listA>","","html-keyboard-response","79","778710","0.0-13.0-1.7","61840","List1A","white","man","","","","null","","","","","","","","",""
"null","is greeting","","html-keyboard-response","80","780712","0.0-13.0-2.7","61840","List1A","white","man","","","","null","","","","","","","","",""
"17572.09999999986","","","survey-text","81","798288","0.0-13.0-3.7","61840","List1A","white","man","","","","","{""Q0"":""Ruth is greeting Dave""}","<img src=""stim_listA/greet3.gif""style=""height:400px;""></stim_listA>","is greeting","","","","","",""
"null","<div style=""font-size:60px;"">+</div>","","html-keyboard-response","82","798791","0.0-13.0-0.8","61840","List1A","white","man","","","","null","","","","","","","","",""
"null","<img src=""stim_listA/oppose4.gif""style=""height:400px;""></stim_listA>","","html-keyboard-response","83","800793","0.0-13.0-1.8","61840","List1A","white","man","","","","null","","","","","","","","",""
"null","is being opposed by","","html-keyboard-response","84","802795","0.0-13.0-2.8","61840","List1A","white","man","","","","null","","","","","","","","",""
"43868.40000000014","","","survey-text","85","846665","0.0-13.0-3.8","61840","List1A","white","man","","","","","{""Q0"":""Luke is being opposed by Ruth""}","<img src=""stim_listA/oppose4.gif""style=""height:400px;""></stim_listA>","is being opposed by","","","","","",""
"null","<div style=""font-size:60px;"">+</div>","","html-keyboard-response","86","847168","0.0-13.0-0.9","61840","List1A","white","man","","","","null","","","","","","","","",""
"null","<img src=""stim_listA/challenge6.gif""style=""height:400px;""></stim_listA>","","html-keyboard-response","87","849173","0.0-13.0-1.9","61840","List1A","white","man","","","","null","","","","","","","","",""
"null","is being challenged by","","html-keyboard-response","88","851176","0.0-13.0-2.9","61840","List1A","white","man","","","","null","","","","","","","","",""
"19474.899999999907","","","survey-text","89","870653","0.0-13.0-3.9","61840","List1A","white","man","","","","","{""Q0"":""Fred is being challenged by Dave""}","<img src=""stim_listA/challenge6.gif""style=""height:400px;""></stim_listA>","is being challenged by","","","","","",""
"null","<div style=""font-size:60px;"">+</div>","","html-keyboard-response","90","871155","0.0-13.0-0.10","61840","List1A","white","man","","","","null","","","","","","","","",""
"null","<img src=""stim_listA/seduce2.gif""style=""height:400px;""></stim_listA>","","html-keyboard-response","91","873158","0.0-13.0-1.10","61840","List1A","white","man","","","","null","","","","","","","","",""
"null","is being seduced by","","html-keyboard-response","92","875160","0.0-13.0-2.10","61840","List1A","white","man","","","","null","","","","","","","","",""
"25231.59999999986","","","survey-text","93","900395","0.0-13.0-3.10","61840","List1A","white","man","","","","","{""Q0"":""fred is being seduced by kate""}","<img src=""stim_listA/seduce2.gif""style=""height:400px;""></stim_listA>","is being seduced by","","","","","",""
"null","<div style=""font-size:60px;"">+</div>","","html-keyboard-response","94","900897","0.0-13.0-0.11","61840","List1A","white","man","","","","null","","","","","","","","",""
"null","<img src=""stim_listA/challenge8.gif""style=""height:400px;""></stim_listA>","","html-keyboard-response","95","902899","0.0-13.0-1.11","61840","List1A","white","man","","","","null","","","","","","","","",""
"null","is being challenged by","","html-keyboard-response","96","904901","0.0-13.0-2.11","61840","List1A","white","man","","","","null","","","","","","","","",""
"30345.09999999986","","","survey-text","97","935248","0.0-13.0-3.11","61840","List1A","white","man","","","","","{""Q0"":""Beth is being challenged by Jane""}","<img src=""stim_listA/challenge8.gif""style=""height:400px;""></stim_listA>","is being challenged by","","","","","",""
"null","<div style=""font-size:60px;"">+</div>","","html-keyboard-response","98","935751","0.0-13.0-0.12","61840","List1A","white","man","","","","null","","","","","","","","",""
"null","<img src=""stim_listA/touch1.gif""style=""height:400px;""></stim_listA>","","html-keyboard-response","99","937753","0.0-13.0-1.12","61840","List1A","white","man","","","","null","","","","","","","","",""
"null","is touching","","html-keyboard-response","100","939756","0.0-13.0-2.12","61840","List1A","white","man","","","","null","","","","","","","","",""
"21401.399999999907","","","survey-text","101","961159","0.0-13.0-3.12","61840","List1A","white","man","","","","","{""Q0"":""Mike is touching Kate""}","<img src=""stim_listA/touch1.gif""style=""height:400px;""></stim_listA>","is touching","","","","","",""
"null","<div style=""font-size:60px;"">+</div>","","html-keyboard-response","102","961662","0.0-13.0-0.13","61840","List1A","white","man","","","","null","","","","","","","","",""
"null","<img src=""stim_listA/look2.gif""style=""height:400px;""></stim_listA>","","html-keyboard-response","103","963664","0.0-13.0-1.13","61840","List1A","white","man","","","","null","","","","","","","","",""
"null","is being looked at by","","html-keyboard-response","104","965666","0.0-13.0-2.13","61840","List1A","white","man","","","","null","","","","","","","","",""
"21959.699999999953","","","survey-text","105","987628","0.0-13.0-3.13","61840","List1A","white","man","","","","","{""Q0"":""Mike is being looked at by Kate""}","<img src=""stim_listA/look2.gif""style=""height:400px;""></stim_listA>","is being looked at by","","","","","",""
"null","<div style=""font-size:60px;"">+</div>","","html-keyboard-response","106","988131","0.0-13.0-0.14","61840","List1A","white","man","","","","null","","","","","","","","",""
"null","<img src=""stim_listA/shout5.gif""style=""height:400px;""></stim_listA>","","html-keyboard-response","107","990134","0.0-13.0-1.14","61840","List1A","white","man","","","","null","","","","","","","","",""
"null","is shouting at","","html-keyboard-response","108","992136","0.0-13.0-2.14","61840","List1A","white","man","","","","null","","","","","","","","",""
"26175.600000000093","","","survey-text","109","1018314","0.0-13.0-3.14","61840","List1A","white","man","","","","","{""Q0"":""Luke is shouting at Fred""}","<img src=""stim_listA/shout5.gif""style=""height:400px;""></stim_listA>","is shouting at","","","","","",""
"null","<div style=""font-size:60px;"">+</div>","","html-keyboard-response","110","1018817","0.0-13.0-0.15","61840","List1A","white","man","","","","null","","","","","","","","",""
"null","<img src=""stim_listA/shout3.gif""style=""height:400px;""></stim_listA>","","html-keyboard-response","111","1020819","0.0-13.0-1.15","61840","List1A","white","man","","","","null","","","","","","","","",""
"null","is shouting at","","html-keyboard-response","112","1022822","0.0-13.0-2.15","61840","List1A","white","man","","","","null","","","","","","","","",""
"38849.59999999986","","","survey-text","113","1061674","0.0-13.0-3.15","61840","List1A","white","man","","","","","{""Q0"":""Ruth is shouting at Luke""}","<img src=""stim_listA/shout3.gif""style=""height:400px;""></stim_listA>","is shouting at","","","","","",""
"null","<div style=""font-size:60px;"">+</div>","","html-keyboard-response","114","1062176","0.0-13.0-0.16","61840","List1A","white","man","","","","null","","","","","","","","",""
"null","<img src=""stim_listA/copy7.gif""style=""height:400px;""></stim_listA>","","html-keyboard-response","115","1064179","0.0-13.0-1.16","61840","List1A","white","man","","","","null","","","","","","","","",""
"null","is copying","","html-keyboard-response","116","1066180","0.0-13.0-2.16","61840","List1A","white","man","","","","null","","","","","","","","",""
"59525.59999999963","","","survey-text","117","1125708","0.0-13.0-3.16","61840","List1A","white","man","","","","","{""Q0"":""Ruth is copying Kate""}","<img src=""stim_listA/copy7.gif""style=""height:400px;""></stim_listA>","is copying","","","","","",""
"null","<div style=""font-size:60px;"">+</div>","","html-keyboard-response","118","1126211","0.0-13.0-0.17","61840","List1A","white","man","","","","null","","","","","","","","",""
"null","<img src=""stim_listA/kiss4.gif""style=""height:400px;""></stim_listA>","","html-keyboard-response","119","1128213","0.0-13.0-1.17","61840","List1A","white","man","","","","null","","","","","","","","",""
"null","is being kissed by","","html-keyboard-response","120","1130215","0.0-13.0-2.17","61840","List1A","white","man","","","","null","","","","","","","","",""
"33059.299999999814","","","survey-text","121","1163277","0.0-13.0-3.17","61840","List1A","white","man","","","","","{""Q0"":""Kate is being kissed by Dave""}","<img src=""stim_listA/kiss4.gif""style=""height:400px;""></stim_listA>","is being kissed by","","","","","",""
"null","<div style=""font-size:60px;"">+</div>","","html-keyboard-response","122","1163779","0.0-13.0-0.18","61840","List1A","white","man","","","","null","","","","","","","","",""
"null","<img src=""stim_listA/challenge7.gif""style=""height:400px;""></stim_listA>","","html-keyboard-response","123","1165782","0.0-13.0-1.18","61840","List1A","white","man","","","","null","","","","","","","","",""
"null","is challenging","","html-keyboard-response","124","1167785","0.0-13.0-2.18","61840","List1A","white","man","","","","null","","","","","","","","",""
"19666","","","survey-text","125","1187452","0.0-13.0-3.18","61840","List1A","white","man","","","","","{""Q0"":""Ruth is challenging Kate""}","<img src=""stim_listA/challenge7.gif""style=""height:400px;""></stim_listA>","is challenging","","","","","",""
"null","<div style=""font-size:60px;"">+</div>","","html-keyboard-response","126","1187955","0.0-13.0-0.19","61840","List1A","white","man","","","","null","","","","","","","","",""
"null","<img src=""stim_listA/touch4.gif""style=""height:400px;""></stim_listA>","","html-keyboard-response","127","1189958","0.0-13.0-1.19","61840","List1A","white","man","","","","null","","","","","","","","",""
"null","is being touched by","","html-keyboard-response","128","1191959","0.0-13.0-2.19","61840","List1A","white","man","","","","null","","","","","","","","",""
"43426.80000000028","","","survey-text","129","1235388","0.0-13.0-3.19","61840","List1A","white","man","","","","","{""Q0"":""Luke is being touched by Jane""}","<img src=""stim_listA/touch4.gif""style=""height:400px;""></stim_listA>","is being touched by","","","","","",""
"36574","<img src='img/portrait_matrix_list1.jpg' style='width:900px;height:500px;''></img><p>If you have memorised all the portraits and names and are ready to start, press Continue.</p><p><strong>Please note: Your memory of these faces will be tested 4 times during this experiment.</strong></p>","0","html-button-response","130","1271963","0.0-14.0-0.0","61840","List1A","white","man","","","","","","","","","","","","",""
"5208","<img src=""portrait/BM2.jpg""style=""height:400px;""></img>","5","html-button-response","131","1278175","0.0-14.0-1.0","61840","List1A","white","man","","true","5","","","","","","","","","",""
"null","CORRECT","","html-keyboard-response","132","1279678","0.0-14.0-2.0-0.0","61840","List1A","white","man","","","","null","","","","","","","","",""
"13627.700000000186","<img src=""portrait/BW1.jpg""style=""height:400px;""></img>","0","html-button-response","133","1293308","0.0-14.0-4.0","61840","List1A","white","man","","true","0","","","","","","","","","",""
"null","CORRECT","","html-keyboard-response","134","1294810","0.0-14.0-5.0-0.0","61840","List1A","white","man","","","","null","","","","","","","","",""
"4409.799999999814","<img src=""portrait/WM1.jpg""style=""height:400px;""></img>","6","html-button-response","135","1299222","0.0-14.0-7.0","61840","List1A","white","man","","true","6","","","","","","","","","",""
"null","CORRECT","","html-keyboard-response","136","1300725","0.0-14.0-8.0-0.0","61840","List1A","white","man","","","","null","","","","","","","","",""
"5782.899999999907","<img src=""portrait/WM2.jpg""style=""height:400px;""></img>","7","html-button-response","137","1306510","0.0-14.0-10.0","61840","List1A","white","man","","true","7","","","","","","","","","",""
"null","CORRECT","","html-keyboard-response","138","1308014","0.0-14.0-11.0-0.0","61840","List1A","white","man","","","","null","","","","","","","","",""
"4283.800000000279","<img src=""portrait/WW1.jpg""style=""height:400px;""></img>","1","html-button-response","139","1312300","0.0-14.0-13.0","61840","List1A","white","man","","true","1","","","","","","","","","",""
"null","CORRECT","","html-keyboard-response","140","1313803","0.0-14.0-14.0-0.0","61840","List1A","white","man","","","","null","","","","","","","","",""
"4210.700000000186","<img src=""portrait/BM1.jpg""style=""height:400px;""></img>","4","html-button-response","141","1318016","0.0-14.0-16.0","61840","List1A","white","man","","true","4","","","","","","","","","",""
"null","CORRECT","","html-keyboard-response","142","1319521","0.0-14.0-17.0-0.0","61840","List1A","white","man","","","","null","","","","","","","","",""
"3540","<img src=""portrait/WW2.jpg""style=""height:400px;""></img>","3","html-button-response","143","1323063","0.0-14.0-19.0","61840","List1A","white","man","","true","3","","","","","","","","","",""
"null","CORRECT","","html-keyboard-response","144","1324567","0.0-14.0-20.0-0.0","61840","List1A","white","man","","","","null","","","","","","","","",""
"4260.100000000093","<img src=""portrait/BW2.jpg""style=""height:400px;""></img>","2","html-button-response","145","1328829","0.0-14.0-22.0","61840","List1A","white","man","","true","2","","","","","","","","","",""
"null","CORRECT","","html-keyboard-response","146","1330332","0.0-14.0-23.0-0.0","61840","List1A","white","man","","","","null","","","","","","","","",""
"2281","<p>You got 8 out of 8 right first time. Press Continue.</p>","0","html-button-response","147","1332614","0.0-14.0-25.0","61840","List1A","white","man","","","","","","","","","","","","",""
"null","<div style=""font-size:60px;"">+</div>","","html-keyboard-response","148","1334118","0.0-15.0-0.0","61840","List1A","white","man","","","","null","","","","","","","","",""
"null","<img src=""stim_listA/greet5.gif""style=""height:400px;""></stim_listA>","","html-keyboard-response","149","1336120","0.0-15.0-1.0","61840","List1A","white","man","","","","null","","","","","","","","",""
"null","is greeting","","html-keyboard-response","150","1338122","0.0-15.0-2.0","61840","List1A","white","man","","","","null","","","","","","","","",""
"19025.899999999907","","","survey-text","151","1357151","0.0-15.0-3.0","61840","List1A","white","man","","","","","{""Q0"":""MIKE IS GREETING LUKE""}","<img src=""stim_listA/greet5.gif""style=""height:400px;""></stim_listA>","is greeting","","","","","",""
"null","<div style=""font-size:60px;"">+</div>","","html-keyboard-response","152","1357653","0.0-15.0-0.1","61840","List1A","white","man","","","","null","","","","","","","","",""
"null","<img src=""stim_listA/copy2.gif""style=""height:400px;""></stim_listA>","","html-keyboard-response","153","1359657","0.0-15.0-1.1","61840","List1A","white","man","","","","null","","","","","","","","",""
"null","is being copied by","","html-keyboard-response","154","1361660","0.0-15.0-2.1","61840","List1A","white","man","","","","null","","","","","","","","",""
"21164.69999999972","","","survey-text","155","1382829","0.0-15.0-3.1","61840","List1A","white","man","","","","","{""Q0"":""fred is being copied by kate""}","<img src=""stim_listA/copy2.gif""style=""height:400px;""></stim_listA>","is being copied by","","","","","",""
"null","<div style=""font-size:60px;"">+</div>","","html-keyboard-response","156","1383331","0.0-15.0-0.2","61840","List1A","white","man","","","","null","","","","","","","","",""
"null","<img src=""stim_listA/oppose7.gif""style=""height:400px;""></stim_listA>","","html-keyboard-response","157","1385335","0.0-15.0-1.2","61840","List1A","white","man","","","","null","","","","","","","","",""
"null","is opposing","","html-keyboard-response","158","1387337","0.0-15.0-2.2","61840","List1A","white","man","","","","null","","","","","","","","",""
"15646.100000000093","","","survey-text","159","1402988","0.0-15.0-3.2","61840","List1A","white","man","","","","","{""Q0"":""jane is opposing kate""}","<img src=""stim_listA/oppose7.gif""style=""height:400px;""></stim_listA>","is opposing","","","","","",""
"null","<div style=""font-size:60px;"">+</div>","","html-keyboard-response","160","1403490","0.0-15.0-0.3","61840","List1A","white","man","","","","null","","","","","","","","",""
"null","<img src=""stim_listA/copy3.gif""style=""height:400px;""></stim_listA>","","html-keyboard-response","161","1405493","0.0-15.0-1.3","61840","List1A","white","man","","","","null","","","","","","","","",""
"null","is copying","","html-keyboard-response","162","1407495","0.0-15.0-2.3","61840","List1A","white","man","","","","null","","","","","","","","",""
"19481.30000000028","","","survey-text","163","1426978","0.0-15.0-3.3","61840","List1A","white","man","","","","","{""Q0"":""Dave is copying Ruth""}","<img src=""stim_listA/copy3.gif""style=""height:400px;""></stim_listA>","is copying","","","","","",""
"null","<div style=""font-size:60px;"">+</div>","","html-keyboard-response","164","1427480","0.0-15.0-0.4","61840","List1A","white","man","","","","null","","","","","","","","",""
"null","<img src=""stim_listA/hug3.gif""style=""height:400px;""></stim_listA>","","html-keyboard-response","165","1429484","0.0-15.0-1.4","61840","List1A","white","man","","","","null","","","","","","","","",""
"null","is hugging","","html-keyboard-response","166","1431486","0.0-15.0-2.4","61840","List1A","white","man","","","","null","","","","","","","","",""
"11166.19999999972","","","survey-text","167","1442656","0.0-15.0-3.4","61840","List1A","white","man","","","","","{""Q0"":""Luke is hugging Ruth""}","<img src=""stim_listA/hug3.gif""style=""height:400px;""></stim_listA>","is hugging","","","","","",""
"null","<div style=""font-size:60px;"">+</div>","","html-keyboard-response","168","1443158","0.0-15.0-0.5","61840","List1A","white","man","","","","null","","","","","","","","",""
"null","<img src=""stim_listA/hug1.gif""style=""height:400px;""></stim_listA>","","html-keyboard-response","169","1445162","0.0-15.0-1.5","61840","List1A","white","man","","","","null","","","","","","","","",""
"null","is hugging","","html-keyboard-response","170","1447163","0.0-15.0-2.5","61840","List1A","white","man","","","","null","","","","","","","","",""
"21031.5","","","survey-text","171","1468198","0.0-15.0-3.5","61840","List1A","white","man","","","","","{""Q0"":""Fred is hugging Beth""}","<img src=""stim_listA/hug1.gif""style=""height:400px;""></stim_listA>","is hugging","","","","","",""
"null","<div style=""font-size:60px;"">+</div>","","html-keyboard-response","172","1468700","0.0-15.0-0.6","61840","List1A","white","man","","","","null","","","","","","","","",""
"null","<img src=""stim_listA/shout2.gif""style=""height:400px;""></stim_listA>","","html-keyboard-response","173","1470703","0.0-15.0-1.6","61840","List1A","white","man","","","","null","","","","","","","","",""
"null","is being shouted at by","","html-keyboard-response","174","1472706","0.0-15.0-2.6","61840","List1A","white","man","","","","null","","","","","","","","",""
"20957.30000000028","","","survey-text","175","1493666","0.0-15.0-3.6","61840","List1A","white","man","","","","","{""Q0"":""Mike is being shouted at bykate""}","<img src=""stim_listA/shout2.gif""style=""height:400px;""></stim_listA>","is being shouted at by","","","","","",""
"null","<div style=""font-size:60px;"">+</div>","","html-keyboard-response","176","1494169","0.0-15.0-0.7","61840","List1A","white","man","","","","null","","","","","","","","",""
"null","<img src=""stim_listA/greet2.gif""style=""height:400px;""></stim_listA>","","html-keyboard-response","177","1496175","0.0-15.0-1.7","61840","List1A","white","man","","","","null","","","","","","","","",""
"null","is being greeted by","","html-keyboard-response","178","1498177","0.0-15.0-2.7","61840","List1A","white","man","","","","null","","","","","","","","",""
"87217.29999999981","","","survey-text","179","1585399","0.0-15.0-3.7","61840","List1A","white","man","","","","","{""Q0"":""Fred is being greeted by Kate""}","<img src=""stim_listA/greet2.gif""style=""height:400px;""></stim_listA>","is being greeted by","","","","","",""
"null","<div style=""font-size:60px;"">+</div>","","html-keyboard-response","180","1585902","0.0-15.0-0.8","61840","List1A","white","man","","","","null","","","","","","","","",""
"null","<img src=""stim_listA/look8.gif""style=""height:400px;""></stim_listA>","","html-keyboard-response","181","1587904","0.0-15.0-1.8","61840","List1A","white","man","","","","null","","","","","","","","",""
"null","is being looked at by","","html-keyboard-response","182","1589906","0.0-15.0-2.8","61840","List1A","white","man","","","","null","","","","","","","","",""
"29903.399999999907","","","survey-text","183","1619812","0.0-15.0-3.8","61840","List1A","white","man","","","","","{""Q0"":""kate is being looked at by Jane""}","<img src=""stim_listA/look8.gif""style=""height:400px;""></stim_listA>","is being looked at by","","","","","",""
"null","<div style=""font-size:60px;"">+</div>","","html-keyboard-response","184","1620314","0.0-15.0-0.9","61840","List1A","white","man","","","","null","","","","","","","","",""
"null","<img src=""stim_listA/oppose1.gif""style=""height:400px;""></stim_listA>","","html-keyboard-response","185","1622319","0.0-15.0-1.9","61840","List1A","white","man","","","","null","","","","","","","","",""
"null","is opposing","","html-keyboard-response","186","1624321","0.0-15.0-2.9","61840","List1A","white","man","","","","null","","","","","","","","",""
"27830.5","","","survey-text","187","1652156","0.0-15.0-3.9","61840","List1A","white","man","","","","","{""Q0"":""Fred is opposing Kate""}","<img src=""stim_listA/oppose1.gif""style=""height:400px;""></stim_listA>","is opposing","","","","","",""
"null","<div style=""font-size:60px;"">+</div>","","html-keyboard-response","188","1652657","0.0-15.0-0.10","61840","List1A","white","man","","","","null","","","","","","","","",""
"null","<img src=""stim_listA/kiss2.gif""style=""height:400px;""></stim_listA>","","html-keyboard-response","189","1654659","0.0-15.0-1.10","61840","List1A","white","man","","","","null","","","","","","","","",""
"null","is being kissed by","","html-keyboard-response","190","1656661","0.0-15.0-2.10","61840","List1A","white","man","","","","null","","","","","","","","",""
"23741.80000000028","","","survey-text","191","1680406","0.0-15.0-3.10","61840","List1A","white","man","","","","","{""Q0"":""mike is being kissed by Jane""}","<img src=""stim_listA/kiss2.gif""style=""height:400px;""></stim_listA>","is being kissed by","","","","","",""
"null","<div style=""font-size:60px;"">+</div>","","html-keyboard-response","192","1680908","0.0-15.0-0.11","61840","List1A","white","man","","","","null","","","","","","","","",""
"null","<img src=""stim_listA/challenge1.gif""style=""height:400px;""></stim_listA>","","html-keyboard-response","193","1682911","0.0-15.0-1.11","61840","List1A","white","man","","","","null","","","","","","","","",""
"null","is challenging","","html-keyboard-response","194","1684914","0.0-15.0-2.11","61840","List1A","white","man","","","","null","","","","","","","","",""
"14644.80000000028","","","survey-text","195","1699563","0.0-15.0-3.11","61840","List1A","white","man","","","","","{""Q0"":""Beth is challenging Mike""}","<img src=""stim_listA/challenge1.gif""style=""height:400px;""></stim_listA>","is challenging","","","","","",""
"null","<div style=""font-size:60px;"">+</div>","","html-keyboard-response","196","1700064","0.0-15.0-0.12","61840","List1A","white","man","","","","null","","","","","","","","",""
"null","<img src=""stim_listA/touch8.gif""style=""height:400px;""></stim_listA>","","html-keyboard-response","197","1702065","0.0-15.0-1.12","61840","List1A","white","man","","","","null","","","","","","","","",""
"null","is being touched by","","html-keyboard-response","198","1704066","0.0-15.0-2.12","61840","List1A","white","man","","","","null","","","","","","","","",""
"73590.29999999981","","","survey-text","199","1777658","0.0-15.0-3.12","61840","List1A","white","man","","","","","{""Q0"":""Ruth is being touched by Beth""}","<img src=""stim_listA/touch8.gif""style=""height:400px;""></stim_listA>","is being touched by","","","","","",""
"null","<div style=""font-size:60px;"">+</div>","","html-keyboard-response","200","1778160","0.0-15.0-0.13","61840","List1A","white","man","","","","null","","","","","","","","",""
"null","<img src=""stim_listA/shout4.gif""style=""height:400px;""></stim_listA>","","html-keyboard-response","201","1780164","0.0-15.0-1.13","61840","List1A","white","man","","","","null","","","","","","","","",""
"null","is being shouted at by","","html-keyboard-response","202","1782166","0.0-15.0-2.13","61840","List1A","white","man","","","","null","","","","","","","","",""
"24689.400000000373","","","survey-text","203","1806860","0.0-15.0-3.13","61840","List1A","white","man","","","","","{""Q0"":""Dave is being shouted at by Jane""}","<img src=""stim_listA/shout4.gif""style=""height:400px;""></stim_listA>","is being shouted at by","","","","","",""
"null","<div style=""font-size:60px;"">+</div>","","html-keyboard-response","204","1807361","0.0-15.0-0.14","61840","List1A","white","man","","","","null","","","","","","","","",""
"null","<img src=""stim_listA/hug4.gif""style=""height:400px;""></stim_listA>","","html-keyboard-response","205","1809365","0.0-15.0-1.14","61840","List1A","white","man","","","","null","","","","","","","","",""
"null","is being hugged by","","html-keyboard-response","206","1811366","0.0-15.0-2.14","61840","List1A","white","man","","","","null","","","","","","","","",""
"21132.600000000093","","","survey-text","207","1832500","0.0-15.0-3.14","61840","List1A","white","man","","","","","{""Q0"":""Dave is being hugged by Jane""}","<img src=""stim_listA/hug4.gif""style=""height:400px;""></stim_listA>","is being hugged by","","","","","",""
"null","<div style=""font-size:60px;"">+</div>","","html-keyboard-response","208","1833003","0.0-15.0-0.15","61840","List1A","white","man","","","","null","","","","","","","","",""
"null","<img src=""stim_listA/oppose2.gif""style=""height:400px;""></stim_listA>","","html-keyboard-response","209","1835005","0.0-15.0-1.15","61840","List1A","white","man","","","","null","","","","","","","","",""
"null","is being opposed by","","html-keyboard-response","210","1837007","0.0-15.0-2.15","61840","List1A","white","man","","","","null","","","","","","","","",""
"17084.100000000093","","","survey-text","211","1854093","0.0-15.0-3.15","61840","List1A","white","man","","","","","{""Q0"":""Fred is being opposed by Berth""}","<img src=""stim_listA/oppose2.gif""style=""height:400px;""></stim_listA>","is being opposed by","","","","","",""
"null","<div style=""font-size:60px;"">+</div>","","html-keyboard-response","212","1854595","0.0-15.0-0.16","61840","List1A","white","man","","","","null","","","","","","","","",""
"null","<img src=""stim_listA/seduce3.gif""style=""height:400px;""></stim_listA>","","html-keyboard-response","213","1856597","0.0-15.0-1.16","61840","List1A","white","man","","","","null","","","","","","","","",""
"null","is seducing","","html-keyboard-response","214","1858599","0.0-15.0-2.16","61840","List1A","white","man","","","","null","","","","","","","","",""
"18111.599999999627","","","survey-text","215","1876715","0.0-15.0-3.16","61840","List1A","white","man","","","","","{""Q0"":""Jane is seducing Luke""}","<img src=""stim_listA/seduce3.gif""style=""height:400px;""></stim_listA>","is seducing","","","","","",""
"null","<div style=""font-size:60px;"">+</div>","","html-keyboard-response","216","1877218","0.0-15.0-0.17","61840","List1A","white","man","","","","null","","","","","","","","",""
"null","<img src=""stim_listA/challenge2.gif""style=""height:400px;""></stim_listA>","","html-keyboard-response","217","1879221","0.0-15.0-1.17","61840","List1A","white","man","","","","null","","","","","","","","",""
"null","is being challenged by","","html-keyboard-response","218","1881223","0.0-15.0-2.17","61840","List1A","white","man","","","","null","","","","","","","","",""
"13632.5","","","survey-text","219","1894858","0.0-15.0-3.17","61840","List1A","white","man","","","","","{""Q0"":""Fred is being challenged by Kate""}","<img src=""stim_listA/challenge2.gif""style=""height:400px;""></stim_listA>","is being challenged by","","","","","",""
"null","<div style=""font-size:60px;"">+</div>","","html-keyboard-response","220","1895360","0.0-15.0-0.18","61840","List1A","white","man","","","","null","","","","","","","","",""
"null","<img src=""stim_listA/seduce7.gif""style=""height:400px;""></stim_listA>","","html-keyboard-response","221","1897365","0.0-15.0-1.18","61840","List1A","white","man","","","","null","","","","","","","","",""
"null","is seducing","","html-keyboard-response","222","1899367","0.0-15.0-2.18","61840","List1A","white","man","","","","null","","","","","","","","",""
"22131.399999999907","","","survey-text","223","1921503","0.0-15.0-3.18","61840","List1A","white","man","","","","","{""Q0"":""Beth is seducing Jane""}","<img src=""stim_listA/seduce7.gif""style=""height:400px;""></stim_listA>","is seducing","","","","","",""
"null","<div style=""font-size:60px;"">+</div>","","html-keyboard-response","224","1922004","0.0-15.0-0.19","61840","List1A","white","man","","","","null","","","","","","","","",""
"null","<img src=""stim_listA/touch2.gif""style=""height:400px;""></stim_listA>","","html-keyboard-response","225","1924008","0.0-15.0-1.19","61840","List1A","white","man","","","","null","","","","","","","","",""
"null","is being touched by","","html-keyboard-response","226","1926011","0.0-15.0-2.19","61840","List1A","white","man","","","","null","","","","","","","","",""
"13505.799999999814","","","survey-text","227","1939521","0.0-15.0-3.19","61840","List1A","white","man","","","","","{""Q0"":""Fred is being touched by Beth""}","<img src=""stim_listA/touch2.gif""style=""height:400px;""></stim_listA>","is being touched by","","","","","",""
"7248.9000000003725","<img src='img/portrait_matrix_list1.jpg' style='width:900px;height:500px;''></img><p>If you have memorised all the portraits and names and are ready to start, press Continue.</p><p><strong>Please note: Your memory of these faces will be tested 4 times during this experiment.</strong></p>","0","html-button-response","228","1946772","0.0-16.0-0.0","61840","List1A","white","man","","","","","","","","","","","","",""
"2067","<img src=""portrait/WM1.jpg""style=""height:400px;""></img>","6","html-button-response","229","1949842","0.0-16.0-1.0","61840","List1A","white","man","","true","6","","","","","","","","","",""
"null","CORRECT","","html-keyboard-response","230","1951345","0.0-16.0-2.0-0.0","61840","List1A","white","man","","","","null","","","","","","","","",""
"6687.100000000093","<img src=""portrait/BW2.jpg""style=""height:400px;""></img>","2","html-button-response","231","1958034","0.0-16.0-4.0","61840","List1A","white","man","","true","2","","","","","","","","","",""
"null","CORRECT","","html-keyboard-response","232","1959539","0.0-16.0-5.0-0.0","61840","List1A","white","man","","","","null","","","","","","","","",""
"3850.2000000001863","<img src=""portrait/BM2.jpg""style=""height:400px;""></img>","5","html-button-response","233","1963392","0.0-16.0-7.0","61840","List1A","white","man","","true","5","","","","","","","","","",""
"null","CORRECT","","html-keyboard-response","234","1964895","0.0-16.0-8.0-0.0","61840","List1A","white","man","","","","null","","","","","","","","",""
"8503.299999999814","<img src=""portrait/WM2.jpg""style=""height:400px;""></img>","7","html-button-response","235","1973401","0.0-16.0-10.0","61840","List1A","white","man","","true","7","","","","","","","","","",""
"null","CORRECT","","html-keyboard-response","236","1974905","0.0-16.0-11.0-0.0","61840","List1A","white","man","","","","null","","","","","","","","",""
"5226","<img src=""portrait/BM1.jpg""style=""height:400px;""></img>","4","html-button-response","237","1980134","0.0-16.0-13.0","61840","List1A","white","man","","true","4","","","","","","","","","",""
"null","CORRECT","","html-keyboard-response","238","1981637","0.0-16.0-14.0-0.0","61840","List1A","white","man","","","","null","","","","","","","","",""
"4917.399999999907","<img src=""portrait/BW1.jpg""style=""height:400px;""></img>","0","html-button-response","239","1986556","0.0-16.0-16.0","61840","List1A","white","man","","true","0","","","","","","","","","",""
"null","CORRECT","","html-keyboard-response","240","1988059","0.0-16.0-17.0-0.0","61840","List1A","white","man","","","","null","","","","","","","","",""
"2342.600000000093","<img src=""portrait/WW1.jpg""style=""height:400px;""></img>","1","html-button-response","241","1990403","0.0-16.0-19.0","61840","List1A","white","man","","true","1","","","","","","","","","",""
"null","CORRECT","","html-keyboard-response","242","1991907","0.0-16.0-20.0-0.0","61840","List1A","white","man","","","","null","","","","","","","","",""
"3209.5","<img src=""portrait/WW2.jpg""style=""height:400px;""></img>","3","html-button-response","243","1995117","0.0-16.0-22.0","61840","List1A","white","man","","true","3","","","","","","","","","",""
"null","CORRECT","","html-keyboard-response","244","1996621","0.0-16.0-23.0-0.0","61840","List1A","white","man","","","","null","","","","","","","","",""
"2009.7999999998137","<p>You got 8 out of 8 right first time. Press Continue.</p>","0","html-button-response","245","1998632","0.0-16.0-25.0","61840","List1A","white","man","","","","","","","","","","","","",""
"null","<div style=""font-size:60px;"">+</div>","","html-keyboard-response","246","2000136","0.0-17.0-0.0","61840","List1A","white","man","","","","null","","","","","","","","",""
"null","<img src=""stim_listA/kiss7.gif""style=""height:400px;""></stim_listA>","","html-keyboard-response","247","2002138","0.0-17.0-1.0","61840","List1A","white","man","","","","null","","","","","","","","",""
"null","is kissing","","html-keyboard-response","248","2004140","0.0-17.0-2.0","61840","List1A","white","man","","","","null","","","","","","","","",""
"17407.700000000186","","","survey-text","249","2021550","0.0-17.0-3.0","61840","List1A","white","man","","","","","{""Q0"":""Ruth is kissing kate""}","<img src=""stim_listA/kiss7.gif""style=""height:400px;""></stim_listA>","is kissing","","","","","",""
"null","<div style=""font-size:60px;"">+</div>","","html-keyboard-response","250","2022052","0.0-17.0-0.1","61840","List1A","white","man","","","","null","","","","","","","","",""
"null","<img src=""stim_listA/greet7.gif""style=""height:400px;""></stim_listA>","","html-keyboard-response","251","2024056","0.0-17.0-1.1","61840","List1A","white","man","","","","null","","","","","","","","",""
"null","is greeting","","html-keyboard-response","252","2026058","0.0-17.0-2.1","61840","List1A","white","man","","","","null","","","","","","","","",""
"11253.600000000093","","","survey-text","253","2037315","0.0-17.0-3.1","61840","List1A","white","man","","","","","{""Q0"":""ruth is greeting kate""}","<img src=""stim_listA/greet7.gif""style=""height:400px;""></stim_listA>","is greeting","","","","","",""
"null","<div style=""font-size:60px;"">+</div>","","html-keyboard-response","254","2037817","0.0-17.0-0.2","61840","List1A","white","man","","","","null","","","","","","","","",""
"null","<img src=""stim_listA/greet8.gif""style=""height:400px;""></stim_listA>","","html-keyboard-response","255","2039821","0.0-17.0-1.2","61840","List1A","white","man","","","","null","","","","","","","","",""
"null","is being greeted by","","html-keyboard-response","256","2041823","0.0-17.0-2.2","61840","List1A","white","man","","","","null","","","","","","","","",""
"58539.399999999674","","","survey-text","257","2100366","0.0-17.0-3.2","61840","List1A","white","man","","","","","{""Q0"":""Beth is being greeted by Jane""}","<img src=""stim_listA/greet8.gif""style=""height:400px;""></stim_listA>","is being greeted by","","","","","",""
"null","<div style=""font-size:60px;"">+</div>","","html-keyboard-response","258","2100867","0.0-17.0-0.3","61840","List1A","white","man","","","","null","","","","","","","","",""
"null","<img src=""stim_listA/seduce6.gif""style=""height:400px;""></stim_listA>","","html-keyboard-response","259","2102871","0.0-17.0-1.3","61840","List1A","white","man","","","","null","","","","","","","","",""
"null","is being seduced by","","html-keyboard-response","260","2104873","0.0-17.0-2.3","61840","List1A","white","man","","","","null","","","","","","","","",""
"20411.400000000373","","","survey-text","261","2125288","0.0-17.0-3.3","61840","List1A","white","man","","","","","{""Q0"":""Luke is being seduced by Mike""}","<img src=""stim_listA/seduce6.gif""style=""height:400px;""></stim_listA>","is being seduced by","","","","","",""
"null","<div style=""font-size:60px;"">+</div>","","html-keyboard-response","262","2125789","0.0-17.0-0.4","61840","List1A","white","man","","","","null","","","","","","","","",""
"null","<img src=""stim_listA/look6.gif""style=""height:400px;""></stim_listA>","","html-keyboard-response","263","2127792","0.0-17.0-1.4","61840","List1A","white","man","","","","null","","","","","","","","",""
"null","is being looked at by","","html-keyboard-response","264","2129794","0.0-17.0-2.4","61840","List1A","white","man","","","","null","","","","","","","","",""
"16937","","","survey-text","265","2146733","0.0-17.0-3.4","61840","List1A","white","man","","","","","{""Q0"":""Dave is being looked at by Mike""}","<img src=""stim_listA/look6.gif""style=""height:400px;""></stim_listA>","is being looked at by","","","","","",""
"null","<div style=""font-size:60px;"">+</div>","","html-keyboard-response","266","2147234","0.0-17.0-0.5","61840","List1A","white","man","","","","null","","","","","","","","",""
"null","<img src=""stim_listA/greet1.gif""style=""height:400px;""></stim_listA>","","html-keyboard-response","267","2149239","0.0-17.0-1.5","61840","List1A","white","man","","","","null","","","","","","","","",""
"null","is greeting","","html-keyboard-response","268","2151241","0.0-17.0-2.5","61840","List1A","white","man","","","","null","","","","","","","","",""
"16979.200000000186","","","survey-text","269","2168224","0.0-17.0-3.5","61840","List1A","white","man","","","","","{""Q0"":""Beth is greeting Mike""}","<img src=""stim_listA/greet1.gif""style=""height:400px;""></stim_listA>","is greeting","","","","","",""
"null","<div style=""font-size:60px;"">+</div>","","html-keyboard-response","270","2168727","0.0-17.0-0.6","61840","List1A","white","man","","","","null","","","","","","","","",""
"null","<img src=""stim_listA/copy1.gif""style=""height:400px;""></stim_listA>","","html-keyboard-response","271","2170731","0.0-17.0-1.6","61840","List1A","white","man","","","","null","","","","","","","","",""
"null","is copying","","html-keyboard-response","272","2172732","0.0-17.0-2.6","61840","List1A","white","man","","","","null","","","","","","","","",""
"15301.599999999627","","","survey-text","273","2188036","0.0-17.0-3.6","61840","List1A","white","man","","","","","{""Q0"":""BETH IS COPYING MIKE""}","<img src=""stim_listA/copy1.gif""style=""height:400px;""></stim_listA>","is copying","","","","","",""
"null","<div style=""font-size:60px;"">+</div>","","html-keyboard-response","274","2188539","0.0-17.0-0.7","61840","List1A","white","man","","","","null","","","","","","","","",""
"null","<img src=""stim_listA/look4.gif""style=""height:400px;""></stim_listA>","","html-keyboard-response","275","2190543","0.0-17.0-1.7","61840","List1A","white","man","","","","null","","","","","","","","",""
"null","is being looked at by","","html-keyboard-response","276","2192544","0.0-17.0-2.7","61840","List1A","white","man","","","","null","","","","","","","","",""
"37169.200000000186","","","survey-text","277","2229718","0.0-17.0-3.7","61840","List1A","white","man","","","","","{""Q0"":""dave is being looked at by jane""}","<img src=""stim_listA/look4.gif""style=""height:400px;""></stim_listA>","is being looked at by","","","","","",""
"null","<div style=""font-size:60px;"">+</div>","","html-keyboard-response","278","2230219","0.0-17.0-0.8","61840","List1A","white","man","","","","null","","","","","","","","",""
"null","<img src=""stim_listA/kiss6.gif""style=""height:400px;""></stim_listA>","","html-keyboard-response","279","2232221","0.0-17.0-1.8","61840","List1A","white","man","","","","null","","","","","","","","",""
"null","is being kissed by","","html-keyboard-response","280","2234223","0.0-17.0-2.8","61840","List1A","white","man","","","","null","","","","","","","","",""
"10701.400000000373","","","survey-text","281","2244926","0.0-17.0-3.8","61840","List1A","white","man","","","","","{""Q0"":""Mike is being kissed by Dave""}","<img src=""stim_listA/kiss6.gif""style=""height:400px;""></stim_listA>","is being kissed by","","","","","",""
"null","<div style=""font-size:60px;"">+</div>","","html-keyboard-response","282","2245429","0.0-17.0-0.9","61840","List1A","white","man","","","","null","","","","","","","","",""
"null","<img src=""stim_listA/seduce5.gif""style=""height:400px;""></stim_listA>","","html-keyboard-response","283","2247430","0.0-17.0-1.9","61840","List1A","white","man","","","","null","","","","","","","","",""
"null","is seducing","","html-keyboard-response","284","2249432","0.0-17.0-2.9","61840","List1A","white","man","","","","null","","","","","","","","",""
"10539.400000000373","","","survey-text","285","2259974","0.0-17.0-3.9","61840","List1A","white","man","","","","","{""Q0"":""Dave is seducing Fred""}","<img src=""stim_listA/seduce5.gif""style=""height:400px;""></stim_listA>","is seducing","","","","","",""
"null","<div style=""font-size:60px;"">+</div>","","html-keyboard-response","286","2260475","0.0-17.0-0.10","61840","List1A","white","man","","","","null","","","","","","","","",""
"null","<img src=""stim_listA/kiss8.gif""style=""height:400px;""></stim_listA>","","html-keyboard-response","287","2262479","0.0-17.0-1.10","61840","List1A","white","man","","","","null","","","","","","","","",""
"null","is being kissed by","","html-keyboard-response","288","2264481","0.0-17.0-2.10","61840","List1A","white","man","","","","null","","","","","","","","",""
"25720.900000000373","","","survey-text","289","2290206","0.0-17.0-3.10","61840","List1A","white","man","","","","","{""Q0"":""kate is being kissed by jane""}","<img src=""stim_listA/kiss8.gif""style=""height:400px;""></stim_listA>","is being kissed by","","","","","",""
"null","<div style=""font-size:60px;"">+</div>","","html-keyboard-response","290","2290709","0.0-17.0-0.11","61840","List1A","white","man","","","","null","","","","","","","","",""
"null","<img src=""stim_listA/hug2.gif""style=""height:400px;""></stim_listA>","","html-keyboard-response","291","2292711","0.0-17.0-1.11","61840","List1A","white","man","","","","null","","","","","","","","",""
"null","is being hugged by","","html-keyboard-response","292","2294713","0.0-17.0-2.11","61840","List1A","white","man","","","","null","","","","","","","","",""
"19213.5","","","survey-text","293","2313929","0.0-17.0-3.11","61840","List1A","white","man","","","","","{""Q0"":""Mike is being hugged byKate""}","<img src=""stim_listA/hug2.gif""style=""height:400px;""></stim_listA>","is being hugged by","","","","","",""
"null","<div style=""font-size:60px;"">+</div>","","html-keyboard-response","294","2314432","0.0-17.0-0.12","61840","List1A","white","man","","","","null","","","","","","","","",""
"null","<img src=""stim_listA/kiss3.gif""style=""height:400px;""></stim_listA>","","html-keyboard-response","295","2316436","0.0-17.0-1.12","61840","List1A","white","man","","","","null","","","","","","","","",""
"null","is kissing","","html-keyboard-response","296","2318438","0.0-17.0-2.12","61840","List1A","white","man","","","","null","","","","","","","","",""
"13603.799999999814","","","survey-text","297","2332046","0.0-17.0-3.12","61840","List1A","white","man","","","","","{""Q0"":""Luke is kissing Ruth""}","<img src=""stim_listA/kiss3.gif""style=""height:400px;""></stim_listA>","is kissing","","","","","",""
"null","<div style=""font-size:60px;"">+</div>","","html-keyboard-response","298","2332548","0.0-17.0-0.13","61840","List1A","white","man","","","","null","","","","","","","","",""
"null","<img src=""stim_listA/look3.gif""style=""height:400px;""></stim_listA>","","html-keyboard-response","299","2334553","0.0-17.0-1.13","61840","List1A","white","man","","","","null","","","","","","","","",""
"null","is looking at","","html-keyboard-response","300","2336555","0.0-17.0-2.13","61840","List1A","white","man","","","","null","","","","","","","","",""
"17673.699999999255","","","survey-text","301","2354233","0.0-17.0-3.13","61840","List1A","white","man","","","","","{""Q0"":""Ruth is looking at Luke""}","<img src=""stim_listA/look3.gif""style=""height:400px;""></stim_listA>","is looking at","","","","","",""
"null","<div style=""font-size:60px;"">+</div>","","html-keyboard-response","302","2354735","0.0-17.0-0.14","61840","List1A","white","man","","","","null","","","","","","","","",""
"null","<img src=""stim_listA/touch7.gif""style=""height:400px;""></stim_listA>","","html-keyboard-response","303","2356738","0.0-17.0-1.14","61840","List1A","white","man","","","","null","","","","","","","","",""
"null","is touching","","html-keyboard-response","304","2358741","0.0-17.0-2.14","61840","List1A","white","man","","","","null","","","","","","","","",""
"15533.600000000559","","","survey-text","305","2374277","0.0-17.0-3.14","61840","List1A","white","man","","","","","{""Q0"":""jane is touching kate""}","<img src=""stim_listA/touch7.gif""style=""height:400px;""></stim_listA>","is touching","","","","","",""
"null","<div style=""font-size:60px;"">+</div>","","html-keyboard-response","306","2374779","0.0-17.0-0.15","61840","List1A","white","man","","","","null","","","","","","","","",""
"null","<img src=""stim_listA/hug7.gif""style=""height:400px;""></stim_listA>","","html-keyboard-response","307","2376784","0.0-17.0-1.15","61840","List1A","white","man","","","","null","","","","","","","","",""
"null","is hugging","","html-keyboard-response","308","2378786","0.0-17.0-2.15","61840","List1A","white","man","","","","null","","","","","","","","",""
"11881.5","","","survey-text","309","2390672","0.0-17.0-3.15","61840","List1A","white","man","","","","","{""Q0"":""beth is hugging ruth""}","<img src=""stim_listA/hug7.gif""style=""height:400px;""></stim_listA>","is hugging","","","","","",""
"null","<div style=""font-size:60px;"">+</div>","","html-keyboard-response","310","2391174","0.0-17.0-0.16","61840","List1A","white","man","","","","null","","","","","","","","",""
"null","<img src=""stim_listA/kiss5.gif""style=""height:400px;""></stim_listA>","","html-keyboard-response","311","2393178","0.0-17.0-1.16","61840","List1A","white","man","","","","null","","","","","","","","",""
"null","is kissing","","html-keyboard-response","312","2395181","0.0-17.0-2.16","61840","List1A","white","man","","","","null","","","","","","","","",""
"11857.299999999814","","","survey-text","313","2407043","0.0-17.0-3.16","61840","List1A","white","man","","","","","{""Q0"":""Fred is Kissing Luke""}","<img src=""stim_listA/kiss5.gif""style=""height:400px;""></stim_listA>","is kissing","","","","","",""
"null","<div style=""font-size:60px;"">+</div>","","html-keyboard-response","314","2407545","0.0-17.0-0.17","61840","List1A","white","man","","","","null","","","","","","","","",""
"null","<img src=""stim_listA/seduce1.gif""style=""height:400px;""></stim_listA>","","html-keyboard-response","315","2409549","0.0-17.0-1.17","61840","List1A","white","man","","","","null","","","","","","","","",""
"null","is seducing","","html-keyboard-response","316","2411550","0.0-17.0-2.17","61840","List1A","white","man","","","","null","","","","","","","","",""
"15348.599999999627","","","survey-text","317","2426902","0.0-17.0-3.17","61840","List1A","white","man","","","","","{""Q0"":""kate is seducing fred""}","<img src=""stim_listA/seduce1.gif""style=""height:400px;""></stim_listA>","is seducing","","","","","",""
"null","<div style=""font-size:60px;"">+</div>","","html-keyboard-response","318","2427405","0.0-17.0-0.18","61840","List1A","white","man","","","","null","","","","","","","","",""
"null","<img src=""stim_listA/oppose3.gif""style=""height:400px;""></stim_listA>","","html-keyboard-response","319","2429407","0.0-17.0-1.18","61840","List1A","white","man","","","","null","","","","","","","","",""
"null","is opposing","","html-keyboard-response","320","2431409","0.0-17.0-2.18","61840","List1A","white","man","","","","null","","","","","","","","",""
"11352.299999999814","","","survey-text","321","2442765","0.0-17.0-3.18","61840","List1A","white","man","","","","","{""Q0"":""jane is opposing dave""}","<img src=""stim_listA/oppose3.gif""style=""height:400px;""></stim_listA>","is opposing","","","","","",""
"null","<div style=""font-size:60px;"">+</div>","","html-keyboard-response","322","2443266","0.0-17.0-0.19","61840","List1A","white","man","","","","null","","","","","","","","",""
"null","<img src=""stim_listA/shout1.gif""style=""height:400px;""></stim_listA>","","html-keyboard-response","323","2445270","0.0-17.0-1.19","61840","List1A","white","man","","","","null","","","","","","","","",""
"null","is shouting at","","html-keyboard-response","324","2447272","0.0-17.0-2.19","61840","List1A","white","man","","","","null","","","","","","","","",""
"9506.399999999441","","","survey-text","325","2456782","0.0-17.0-3.19","61840","List1A","white","man","","","","","{""Q0"":""beth is shouting at fred""}","<img src=""stim_listA/shout1.gif""style=""height:400px;""></stim_listA>","is shouting at","","","","","",""
"6357.899999999441","<img src='img/portrait_matrix_list1.jpg' style='width:900px;height:500px;''></img><p>If you have memorised all the portraits and names and are ready to start, press Continue.</p><p><strong>Please note: Your memory of these faces will be tested 4 times during this experiment.</strong></p>","0","html-button-response","326","2463141","0.0-18.0-0.0","61840","List1A","white","man","","","","","","","","","","","","",""
"2449.4000000003725","<img src=""portrait/BM1.jpg""style=""height:400px;""></img>","4","html-button-response","327","2466593","0.0-18.0-1.0","61840","List1A","white","man","","true","4","","","","","","","","","",""
"null","CORRECT","","html-keyboard-response","328","2468096","0.0-18.0-2.0-0.0","61840","List1A","white","man","","","","null","","","","","","","","",""
"2553.2999999998137","<img src=""portrait/WW1.jpg""style=""height:400px;""></img>","1","html-button-response","329","2470651","0.0-18.0-4.0","61840","List1A","white","man","","true","1","","","","","","","","","",""
"null","CORRECT","","html-keyboard-response","330","2472155","0.0-18.0-5.0-0.0","61840","List1A","white","man","","","","null","","","","","","","","",""
"7289.9000000003725","<img src=""portrait/WW2.jpg""style=""height:400px;""></img>","3","html-button-response","331","2479446","0.0-18.0-7.0","61840","List1A","white","man","","true","3","","","","","","","","","",""
"null","CORRECT","","html-keyboard-response","332","2480950","0.0-18.0-8.0-0.0","61840","List1A","white","man","","","","null","","","","","","","","",""
"4012.9000000003725","<img src=""portrait/WM1.jpg""style=""height:400px;""></img>","6","html-button-response","333","2484965","0.0-18.0-10.0","61840","List1A","white","man","","true","6","","","","","","","","","",""
"null","CORRECT","","html-keyboard-response","334","2486468","0.0-18.0-11.0-0.0","61840","List1A","white","man","","","","null","","","","","","","","",""
"4137.200000000186","<img src=""portrait/BW1.jpg""style=""height:400px;""></img>","0","html-button-response","335","2490607","0.0-18.0-13.0","61840","List1A","white","man","","true","0","","","","","","","","","",""
"null","CORRECT","","html-keyboard-response","336","2492110","0.0-18.0-14.0-0.0","61840","List1A","white","man","","","","null","","","","","","","","",""
"2973.2000000001863","<img src=""portrait/WM2.jpg""style=""height:400px;""></img>","7","html-button-response","337","2495085","0.0-18.0-16.0","61840","List1A","white","man","","true","7","","","","","","","","","",""
"null","CORRECT","","html-keyboard-response","338","2496588","0.0-18.0-17.0-0.0","61840","List1A","white","man","","","","null","","","","","","","","",""
"7650.200000000186","<img src=""portrait/BW2.jpg""style=""height:400px;""></img>","2","html-button-response","339","2504241","0.0-18.0-19.0","61840","List1A","white","man","","true","2","","","","","","","","","",""
"null","CORRECT","","html-keyboard-response","340","2505744","0.0-18.0-20.0-0.0","61840","List1A","white","man","","","","null","","","","","","","","",""
"2813","<img src=""portrait/BM2.jpg""style=""height:400px;""></img>","5","html-button-response","341","2508560","0.0-18.0-22.0","61840","List1A","white","man","","true","5","","","","","","","","","",""
"null","CORRECT","","html-keyboard-response","342","2510063","0.0-18.0-23.0-0.0","61840","List1A","white","man","","","","null","","","","","","","","",""
"2069.7000000001863","<p>You got 8 out of 8 right first time. Press Continue.</p>","0","html-button-response","343","2512135","0.0-18.0-25.0","61840","List1A","white","man","","","","","","","","","","","","",""
"null","<div style=""font-size:60px;"">+</div>","","html-keyboard-response","344","2513640","0.0-19.0-0.0","61840","List1A","white","man","","","","null","","","","","","","","",""
"null","<img src=""stim_listA/copy6.gif""style=""height:400px;""></stim_listA>","","html-keyboard-response","345","2515645","0.0-19.0-1.0","61840","List1A","white","man","","","","null","","","","","","","","",""
"null","is being copied by","","html-keyboard-response","346","2517647","0.0-19.0-2.0","61840","List1A","white","man","","","","null","","","","","","","","",""
"11397.400000000373","","","survey-text","347","2529049","0.0-19.0-3.0","61840","List1A","white","man","","","","","{""Q0"":""fred is being copied by dave""}","<img src=""stim_listA/copy6.gif""style=""height:400px;""></stim_listA>","is being copied by","","","","","",""
"null","<div style=""font-size:60px;"">+</div>","","html-keyboard-response","348","2529552","0.0-19.0-0.1","61840","List1A","white","man","","","","null","","","","","","","","",""
"null","<img src=""stim_listA/shout6.gif""style=""height:400px;""></stim_listA>","","html-keyboard-response","349","2531554","0.0-19.0-1.1","61840","List1A","white","man","","","","null","","","","","","","","",""
"null","is being shouted at by","","html-keyboard-response","350","2533556","0.0-19.0-2.1","61840","List1A","white","man","","","","null","","","","","","","","",""
"13872.299999999814","","","survey-text","351","2547431","0.0-19.0-3.1","61840","List1A","white","man","","","","","{""Q0"":""Fred is shouting at Dave""}","<img src=""stim_listA/shout6.gif""style=""height:400px;""></stim_listA>","is being shouted at by","","","","","",""
"null","<div style=""font-size:60px;"">+</div>","","html-keyboard-response","352","2547933","0.0-19.0-0.2","61840","List1A","white","man","","","","null","","","","","","","","",""
"null","<img src=""stim_listA/seduce8.gif""style=""height:400px;""></stim_listA>","","html-keyboard-response","353","2549936","0.0-19.0-1.2","61840","List1A","white","man","","","","null","","","","","","","","",""
"null","is being seduced by","","html-keyboard-response","354","2551939","0.0-19.0-2.2","61840","List1A","white","man","","","","null","","","","","","","","",""
"14493.5","","","survey-text","355","2566434","0.0-19.0-3.2","61840","List1A","white","man","","","","","{""Q0"":""kate is being seduced by ruth""}","<img src=""stim_listA/seduce8.gif""style=""height:400px;""></stim_listA>","is being seduced by","","","","","",""
"null","<div style=""font-size:60px;"">+</div>","","html-keyboard-response","356","2566936","0.0-19.0-0.3","61840","List1A","white","man","","","","null","","","","","","","","",""
"null","<img src=""stim_listA/shout8.gif""style=""height:400px;""></stim_listA>","","html-keyboard-response","357","2568941","0.0-19.0-1.3","61840","List1A","white","man","","","","null","","","","","","","","",""
"null","is being shouted at by","","html-keyboard-response","358","2570943","0.0-19.0-2.3","61840","List1A","white","man","","","","null","","","","","","","","",""
"17535.799999999814","","","survey-text","359","2588483","0.0-19.0-3.3","61840","List1A","white","man","","","","","{""Q0"":""jane is being shouted at by kate""}","<img src=""stim_listA/shout8.gif""style=""height:400px;""></stim_listA>","is being shouted at by","","","","","",""
"null","<div style=""font-size:60px;"">+</div>","","html-keyboard-response","360","2588985","0.0-19.0-0.4","61840","List1A","white","man","","","","null","","","","","","","","",""
"null","<img src=""stim_listA/look7.gif""style=""height:400px;""></stim_listA>","","html-keyboard-response","361","2590990","0.0-19.0-1.4","61840","List1A","white","man","","","","null","","","","","","","","",""
"null","is looking at","","html-keyboard-response","362","2592992","0.0-19.0-2.4","61840","List1A","white","man","","","","null","","","","","","","","",""
"10397.700000000186","","","survey-text","363","2603392","0.0-19.0-3.4","61840","List1A","white","man","","","","","{""Q0"":""Beth is looking at Ruth""}","<img src=""stim_listA/look7.gif""style=""height:400px;""></stim_listA>","is looking at","","","","","",""
"null","<div style=""font-size:60px;"">+</div>","","html-keyboard-response","364","2603895","0.0-19.0-0.5","61840","List1A","white","man","","","","null","","","","","","","","",""
"null","<img src=""stim_listA/greet4.gif""style=""height:400px;""></stim_listA>","","html-keyboard-response","365","2605898","0.0-19.0-1.5","61840","List1A","white","man","","","","null","","","","","","","","",""
"null","is being greeted by","","html-keyboard-response","366","2607899","0.0-19.0-2.5","61840","List1A","white","man","","","","null","","","","","","","","",""
"11660.800000000745","","","survey-text","367","2619562","0.0-19.0-3.5","61840","List1A","white","man","","","","","{""Q0"":""luke is being greeted by jane""}","<img src=""stim_listA/greet4.gif""style=""height:400px;""></stim_listA>","is being greeted by","","","","","",""
"null","<div style=""font-size:60px;"">+</div>","","html-keyboard-response","368","2620064","0.0-19.0-0.6","61840","List1A","white","man","","","","null","","","","","","","","",""
"null","<img src=""stim_listA/shout7.gif""style=""height:400px;""></stim_listA>","","html-keyboard-response","369","2622069","0.0-19.0-1.6","61840","List1A","white","man","","","","null","","","","","","","","",""
"null","is shouting at","","html-keyboard-response","370","2624071","0.0-19.0-2.6","61840","List1A","white","man","","","","null","","","","","","","","",""
"19910.5","","","survey-text","371","2643986","0.0-19.0-3.6","61840","List1A","white","man","","","","","{""Q0"":""beth is shouting at ruth""}","<img src=""stim_listA/shout7.gif""style=""height:400px;""></stim_listA>","is shouting at","","","","","",""
"null","<div style=""font-size:60px;"">+</div>","","html-keyboard-response","372","2644489","0.0-19.0-0.7","61840","List1A","white","man","","","","null","","","","","","","","",""
"null","<img src=""stim_listA/seduce4.gif""style=""height:400px;""></stim_listA>","","html-keyboard-response","373","2646493","0.0-19.0-1.7","61840","List1A","white","man","","","","null","","","","","","","","",""
"null","is being seduced by","","html-keyboard-response","374","2648496","0.0-19.0-2.7","61840","List1A","white","man","","","","null","","","","","","","","",""
"17175.400000000373","","","survey-text","375","2665675","0.0-19.0-3.7","61840","List1A","white","man","","","","","{""Q0"":""dave is being seduced by ruth""}","<img src=""stim_listA/seduce4.gif""style=""height:400px;""></stim_listA>","is being seduced by","","","","","",""
"null","<div style=""font-size:60px;"">+</div>","","html-keyboard-response","376","2666178","0.0-19.0-0.8","61840","List1A","white","man","","","","null","","","","","","","","",""
"null","<img src=""stim_listA/look1.gif""style=""height:400px;""></stim_listA>","","html-keyboard-response","377","2668181","0.0-19.0-1.8","61840","List1A","white","man","","","","null","","","","","","","","",""
"null","is looking at","","html-keyboard-response","378","2670184","0.0-19.0-2.8","61840","List1A","white","man","","","","null","","","","","","","","",""
"9112.300000000745","","","survey-text","379","2679298","0.0-19.0-3.8","61840","List1A","white","man","","","","","{""Q0"":""Fred is looking at Beth""}","<img src=""stim_listA/look1.gif""style=""height:400px;""></stim_listA>","is looking at","","","","","",""
"null","<div style=""font-size:60px;"">+</div>","","html-keyboard-response","380","2679800","0.0-19.0-0.9","61840","List1A","white","man","","","","null","","","","","","","","",""
"null","<img src=""stim_listA/copy8.gif""style=""height:400px;""></stim_listA>","","html-keyboard-response","381","2681804","0.0-19.0-1.9","61840","List1A","white","man","","","","null","","","","","","","","",""
"null","is being copied by","","html-keyboard-response","382","2683806","0.0-19.0-2.9","61840","List1A","white","man","","","","null","","","","","","","","",""
"26565.599999999627","","","survey-text","383","2710377","0.0-19.0-3.9","61840","List1A","white","man","","","","","{""Q0"":""Beth is being copied by Jane""}","<img src=""stim_listA/copy8.gif""style=""height:400px;""></stim_listA>","is being copied by","","","","","",""
"null","<div style=""font-size:60px;"">+</div>","","html-keyboard-response","384","2710880","0.0-19.0-0.10","61840","List1A","white","man","","","","null","","","","","","","","",""
"null","<img src=""stim_listA/hug5.gif""style=""height:400px;""></stim_listA>","","html-keyboard-response","385","2712882","0.0-19.0-1.10","61840","List1A","white","man","","","","null","","","","","","","","",""
"null","is hugging","","html-keyboard-response","386","2714884","0.0-19.0-2.10","61840","List1A","white","man","","","","null","","","","","","","","",""
"14815.799999999814","","","survey-text","387","2729705","0.0-19.0-3.10","61840","List1A","white","man","","","","","{""Q0"":""fred is hugging luke""}","<img src=""stim_listA/hug5.gif""style=""height:400px;""></stim_listA>","is hugging","","","","","",""
"null","<div style=""font-size:60px;"">+</div>","","html-keyboard-response","388","2730208","0.0-19.0-0.11","61840","List1A","white","man","","","","null","","","","","","","","",""
"null","<img src=""stim_listA/greet6.gif""style=""height:400px;""></stim_listA>","","html-keyboard-response","389","2732209","0.0-19.0-1.11","61840","List1A","white","man","","","","null","","","","","","","","",""
"null","is being greeted by","","html-keyboard-response","390","2734211","0.0-19.0-2.11","61840","List1A","white","man","","","","null","","","","","","","","",""
"13087.5","","","survey-text","391","2747301","0.0-19.0-3.11","61840","List1A","white","man","","","","","{""Q0"":""Fred is being greeted by Dave""}","<img src=""stim_listA/greet6.gif""style=""height:400px;""></stim_listA>","is being greeted by","","","","","",""
"null","<div style=""font-size:60px;"">+</div>","","html-keyboard-response","392","2747802","0.0-19.0-0.12","61840","List1A","white","man","","","","null","","","","","","","","",""
"null","<img src=""stim_listA/copy4.gif""style=""height:400px;""></stim_listA>","","html-keyboard-response","393","2749806","0.0-19.0-1.12","61840","List1A","white","man","","","","null","","","","","","","","",""
"null","is being copied by","","html-keyboard-response","394","2751808","0.0-19.0-2.12","61840","List1A","white","man","","","","null","","","","","","","","",""
"15222.099999999627","","","survey-text","395","2767034","0.0-19.0-3.12","61840","List1A","white","man","","","","","{""Q0"":""Luke is being copied by Jane""}","<img src=""stim_listA/copy4.gif""style=""height:400px;""></stim_listA>","is being copied by","","","","","",""
"null","<div style=""font-size:60px;"">+</div>","","html-keyboard-response","396","2767535","0.0-19.0-0.13","61840","List1A","white","man","","","","null","","","","","","","","",""
"null","<img src=""stim_listA/challenge5.gif""style=""height:400px;""></stim_listA>","","html-keyboard-response","397","2769538","0.0-19.0-1.13","61840","List1A","white","man","","","","null","","","","","","","","",""
"null","is challenging","","html-keyboard-response","398","2771540","0.0-19.0-2.13","61840","List1A","white","man","","","","null","","","","","","","","",""
"10694.5","","","survey-text","399","2782236","0.0-19.0-3.13","61840","List1A","white","man","","","","","{""Q0"":""Mike is challenging luke""}","<img src=""stim_listA/challenge5.gif""style=""height:400px;""></stim_listA>","is challenging","","","","","",""
"null","<div style=""font-size:60px;"">+</div>","","html-keyboard-response","400","2782739","0.0-19.0-0.14","61840","List1A","white","man","","","","null","","","","","","","","",""
"null","<img src=""stim_listA/oppose6.gif""style=""height:400px;""></stim_listA>","","html-keyboard-response","401","2784741","0.0-19.0-1.14","61840","List1A","white","man","","","","null","","","","","","","","",""
"null","is being opposed by","","html-keyboard-response","402","2786743","0.0-19.0-2.14","61840","List1A","white","man","","","","null","","","","","","","","",""
"14520.200000000186","","","survey-text","403","2801265","0.0-19.0-3.14","61840","List1A","white","man","","","","","{""Q0"":""Fred is being opposed by Luke""}","<img src=""stim_listA/oppose6.gif""style=""height:400px;""></stim_listA>","is being opposed by","","","","","",""
"null","<div style=""font-size:60px;"">+</div>","","html-keyboard-response","404","2801767","0.0-19.0-0.15","61840","List1A","white","man","","","","null","","","","","","","","",""
"null","<img src=""stim_listA/challenge4.gif""style=""height:400px;""></stim_listA>","","html-keyboard-response","405","2803771","0.0-19.0-1.15","61840","List1A","white","man","","","","null","","","","","","","","",""
"null","is being challenged by","","html-keyboard-response","406","2805773","0.0-19.0-2.15","61840","List1A","white","man","","","","null","","","","","","","","",""
"16214.700000000186","","","survey-text","407","2821992","0.0-19.0-3.15","61840","List1A","white","man","","","","","{""Q0"":""Luke is being challenged by jane""}","<img src=""stim_listA/challenge4.gif""style=""height:400px;""></stim_listA>","is being challenged by","","","","","",""
"null","<div style=""font-size:60px;"">+</div>","","html-keyboard-response","408","2822494","0.0-19.0-0.16","61840","List1A","white","man","","","","null","","","","","","","","",""
"null","<img src=""stim_listA/kiss1.gif""style=""height:400px;""></stim_listA>","","html-keyboard-response","409","2824497","0.0-19.0-1.16","61840","List1A","white","man","","","","null","","","","","","","","",""
"null","is kissing","","html-keyboard-response","410","2826499","0.0-19.0-2.16","61840","List1A","white","man","","","","null","","","","","","","","",""
"12476.700000000186","","","survey-text","411","2838979","0.0-19.0-3.16","61840","List1A","white","man","","","","","{""Q0"":""Beth is kissing Fred""}","<img src=""stim_listA/kiss1.gif""style=""height:400px;""></stim_listA>","is kissing","","","","","",""
"null","<div style=""font-size:60px;"">+</div>","","html-keyboard-response","412","2839483","0.0-19.0-0.17","61840","List1A","white","man","","","","null","","","","","","","","",""
"null","<img src=""stim_listA/touch6.gif""style=""height:400px;""></stim_listA>","","html-keyboard-response","413","2841485","0.0-19.0-1.17","61840","List1A","white","man","","","","null","","","","","","","","",""
"null","is being touched by","","html-keyboard-response","414","2843486","0.0-19.0-2.17","61840","List1A","white","man","","","","null","","","","","","","","",""
"52548.09999999963","","","survey-text","415","2896036","0.0-19.0-3.17","61840","List1A","white","man","","","","","{""Q0"":""Fred is being touched by Luke""}","<img src=""stim_listA/touch6.gif""style=""height:400px;""></stim_listA>","is being touched by","","","","","",""
"null","<div style=""font-size:60px;"">+</div>","","html-keyboard-response","416","2896539","0.0-19.0-0.18","61840","List1A","white","man","","","","null","","","","","","","","",""
"null","<img src=""stim_listA/oppose5.gif""style=""height:400px;""></stim_listA>","","html-keyboard-response","417","2898542","0.0-19.0-1.18","61840","List1A","white","man","","","","null","","","","","","","","",""
"null","is opposing","","html-keyboard-response","418","2900543","0.0-19.0-2.18","61840","List1A","white","man","","","","null","","","","","","","","",""
"16437.300000000745","","","survey-text","419","2916982","0.0-19.0-3.18","61840","List1A","white","man","","","","","{""Q0"":""Dave is opposing mike""}","<img src=""stim_listA/oppose5.gif""style=""height:400px;""></stim_listA>","is opposing","","","","","",""
"null","<div style=""font-size:60px;"">+</div>","","html-keyboard-response","420","2917483","0.0-19.0-0.19","61840","List1A","white","man","","","","null","","","","","","","","",""
"null","<img src=""stim_listA/touch5.gif""style=""height:400px;""></stim_listA>","","html-keyboard-response","421","2919488","0.0-19.0-1.19","61840","List1A","white","man","","","","null","","","","","","","","",""
"null","is touching","","html-keyboard-response","422","2921490","0.0-19.0-2.19","61840","List1A","white","man","","","","null","","","","","","","","",""
"12956.5","","","survey-text","423","2934451","0.0-19.0-3.19","61840","List1A","white","man","","","","","{""Q0"":""Dave is touching Mike""}","<img src=""stim_listA/touch5.gif""style=""height:400px;""></stim_listA>","is touching","","","","","",""
"3438.5999999996275","<p>Thank you for completing that task.</p><p>The final part of this session is a questionnaire that will take about 4 minutes.</p><p>Press Continue.</p>","0","html-button-response","424","2937891","0.0-20.0","61840","List1A","white","man","","","","","","","","","","","","",""
"37915.40000000037","","","survey-text","425","2976816","0.0-21.0","61840","List1A","white","man","","","","","{""Q0"":""22"",""Q1"":""English"",""Q2"":""English"",""Q3"":""United States"",""Q4"":""United States"",""Q5"":""white"",""Q6"":""male""}","","","demographics","","","","",""
"5206","<p>Have you lived in the USA for the last 5 years or more?</p>","0","html-button-response","426","2982025","0.0-22.0","61840","List1A","white","man","","","","","","","","fiveyears","","","","",""
"4181.200000000186","<p>Move the slider to show the extent to which you agree with the following statements.</p>","0","html-button-response","427","2987211","0.0-23.0","61840","List1A","white","man","","","","","","","","","","","","",""
"4425.600000000559","","","html-slider-response","428","2992643","0.0-24.0-0.0-0.0","61840","List1A","white","man","","","","","","","","survey_gender","98","","","Being my gender gives me a good feeling.","feeling"
"3883.100000000559","","","html-slider-response","429","2996528","0.0-24.0-0.0-0.1","61840","List1A","white","man","","","","","","","","survey_gender","91","","","My friends have a lot in common with each other.","filler"
"4378.5999999996275","","","html-slider-response","430","3000908","0.0-24.0-0.0-0.2","61840","List1A","white","man","","","","","","","","survey_gender","88","","","I have a lot in common with my friends.","filler"
"3178.5","","","html-slider-response","431","3004088","0.0-24.0-0.0-0.3","61840","List1A","white","man","","","","","","","","survey_gender","96","","","I feel solidarity with my friends.","filler"
"4044.2000000001863","","","html-slider-response","432","3008134","0.0-24.0-0.0-0.4","61840","List1A","white","man","","","","","","","","survey_gender","95","","","I think that my gender has a lot to be proud of.","proud"
"3760","","","html-slider-response","433","3011896","0.0-24.0-0.0-0.5","61840","List1A","white","man","","","","","","","","survey_gender","93","","","I am glad to have the friends that I have.","filler"
"7755.700000000186","","","html-slider-response","434","3019654","0.0-24.0-0.0-0.6","61840","List1A","white","man","","","","","","","","survey_gender","50","","","I would say I am an animal person.","filler"
"3399.7000000001863","","","html-slider-response","435","3023056","0.0-24.0-0.0-0.7","61840","List1A","white","man","","","","","","","","survey_gender","79","","","I feel a bond with my gender.","bond"
"9402.799999999814","","","html-slider-response","436","3032461","0.0-24.0-0.0-0.8","61840","List1A","white","man","","","","","","","","survey_gender","84","","","Being around my friends gives me a good feeling.","filler"
"5021.0999999996275","","","html-slider-response","437","3037484","0.0-24.0-0.0-0.9","61840","List1A","white","man","","","","","","","","survey_gender","86","","","I am similar to the average person of my gender.","similar"
"4576.299999999814","","","html-slider-response","438","3042062","0.0-24.0-0.0-0.10","61840","List1A","white","man","","","","","","","","survey_gender","88","","","People of my gender have a lot in common with each other.","common"
"5874.5999999996275","","","html-slider-response","439","3047939","0.0-24.0-0.0-0.11","61840","List1A","white","man","","","","","","","","survey_gender","7","","","Family is not more important to me than friendship.","filler"
"4625.0999999996275","","","html-slider-response","440","3052566","0.0-24.0-0.0-0.12","61840","List1A","white","man","","","","","","","","survey_gender","82","","","The fact that I am my gender is an important part of my identity.","identity"
"3735.2000000001863","","","html-slider-response","441","3056303","0.0-24.0-0.0-0.13","61840","List1A","white","man","","","","","","","","survey_gender","87","","","I often think about my actions.","filler"
"4452.5","","","html-slider-response","442","3060757","0.0-24.0-0.0-0.14","61840","List1A","white","man","","","","","","","","survey_gender","82","","","I am glad to be my gender.","glad"
"4404","","","html-slider-response","443","3065163","0.0-24.0-0.0-0.15","61840","List1A","white","man","","","","","","","","survey_gender","11","","","Routine is not important to me.","filler"
"5380.5","","","html-slider-response","444","3070545","0.0-24.0-0.0-0.16","61840","List1A","white","man","","","","","","","","survey_gender","60","","","I often think about the fact that I am my gender.","often"
"3573","","","html-slider-response","445","3074120","0.0-24.0-0.0-0.17","61840","List1A","white","man","","","","","","","","survey_gender","82","","","I feel solidarity with my gender.","solidarity"
"3500.2999999998137","","","html-slider-response","446","3077622","0.0-24.0-0.0-0.18","61840","List1A","white","man","","","","","","","","survey_gender","91","","","I feel a bond with my friends.","filler"
"5404.899999999441","","","html-slider-response","447","3083028","0.0-24.0-0.0-0.19","61840","List1A","white","man","","","","","","","","survey_gender","90","","","Being my gender is an important part of how I see myself.","important"
"3017.2999999998137","","","html-slider-response","448","3086048","0.0-24.0-0.0-0.20","61840","List1A","white","man","","","","","","","","survey_gender","76","","","I feel committed to my gender.","committed"
"5763.799999999814","","","html-slider-response","449","3091813","0.0-24.0-0.0-0.21","61840","List1A","white","man","","","","","","","","survey_gender","68","","","It is not always easy for people to know what I am thinking.","filler"
"3449.7000000001863","","","html-slider-response","450","3095265","0.0-24.0-0.0-0.22","61840","List1A","white","man","","","","","","","","survey_gender","90","","","My friends understand me.","filler"
"4972.100000000559","","","html-slider-response","451","3100239","0.0-24.0-0.0-0.23","61840","List1A","white","man","","","","","","","","survey_gender","84","","","I have a lot in common with the average person of my gender.","average"
"13435.5","","","html-slider-response","452","3113676","0.0-24.0-0.0-0.24","61840","List1A","white","man","","","","","","","","survey_gender","81","","","People of my gender are very similar to each other.","verysimilar"
"4588.5","","","html-slider-response","453","3118266","0.0-24.0-0.0-0.25","61840","List1A","white","man","","","","","","","","survey_gender","86","","","I consider myself a highly empathetic person.","filler"
"2943.4000000003725","","","html-slider-response","454","3121211","0.0-24.0-0.0-0.26","61840","List1A","white","man","","","","","","","","survey_gender","89","","","It is pleasant to be my gender.","pleasant"
"3625.0999999996275","","","html-slider-response","455","3124838","0.0-24.0-0.0-0.27","61840","List1A","white","man","","","","","","","","survey_gender","80","","","Most of the friends in my life are very similar to me.","filler"
"2881.2000000001863","","","html-slider-response","456","3127721","0.0-24.0-1.0-0.0","61840","List1A","white","man","","","","","","","","survey_race","80","","","I feel solidarity with my race.","solidarity"
"4068.7000000001863","","","html-slider-response","457","3131792","0.0-24.0-1.0-0.1","61840","List1A","white","man","","","","","","","","survey_race","72","","","My age is not an important part of who I am.","filler"
"8226.400000000373","","","html-slider-response","458","3140021","0.0-24.0-1.0-0.2","61840","List1A","white","man","","","","","","","","survey_race","8","","","I consider myself an introvert.","filler"
"4834.4000000003725","","","html-slider-response","459","3144858","0.0-24.0-1.0-0.3","61840","List1A","white","man","","","","","","","","survey_race","74","","","I enjoy being in large groups.","filler"
"4798.5","","","html-slider-response","460","3149658","0.0-24.0-1.0-0.4","61840","List1A","white","man","","","","","","","","survey_race","82","","","I feel solidarity with people the same age as me.","filler"
"3177.7999999998137","","","html-slider-response","461","3152838","0.0-24.0-1.0-0.5","61840","List1A","white","man","","","","","","","","survey_race","91","","","It is pleasant to be my race.","pleasant"
"3623.5999999996275","","","html-slider-response","462","3156464","0.0-24.0-1.0-0.6","61840","List1A","white","man","","","","","","","","survey_race","88","","","I think that my race has a lot to be proud of.","proud"
"4019.9000000003725","","","html-slider-response","463","3160485","0.0-24.0-1.0-0.7","61840","List1A","white","man","","","","","","","","survey_race","92","","","People my age have a lot in common with each other.","filler"
"4749","","","html-slider-response","464","3165236","0.0-24.0-1.0-0.8","61840","List1A","white","man","","","","","","","","survey_race","68","","","I consider myself an extrovert.","filler"
"5727.700000000186","","","html-slider-response","465","3170966","0.0-24.0-1.0-0.9","61840","List1A","white","man","","","","","","","","survey_race","93","","","The fact that I am my race is an important part of my identity.","identity"
"3696.7999999998137","","","html-slider-response","466","3174665","0.0-24.0-1.0-0.10","61840","List1A","white","man","","","","","","","","survey_race","89","","","Being my age gives me a good feeling.","filler"
"3673.2000000001863","","","html-slider-response","467","3178340","0.0-24.0-1.0-0.11","61840","List1A","white","man","","","","","","","","survey_race","96","","","Getting older does not worry me.","filler"
"7212.200000000186","","","html-slider-response","468","3185555","0.0-24.0-1.0-0.12","61840","List1A","white","man","","","","","","","","survey_race","85","","","I have a lot in common with people of a similar age to me.","filler"
"11171.199999999255","","","html-slider-response","469","3196728","0.0-24.0-1.0-0.13","61840","List1A","white","man","","","","","","","","survey_race","50","","","I often think about the fact that I am my age.","filler"
"3795.699999999255","","","html-slider-response","470","3200526","0.0-24.0-1.0-0.14","61840","List1A","white","man","","","","","","","","survey_race","90","","","Being my race gives me a good feeling.","feeling"
"3290.7000000001863","","","html-slider-response","471","3203818","0.0-24.0-1.0-0.15","61840","List1A","white","man","","","","","","","","survey_race","89","","","The older I get, the wiser I feel.","filler"
"3387.600000000559","","","html-slider-response","472","3207208","0.0-24.0-1.0-0.16","61840","List1A","white","man","","","","","","","","survey_race","86","","","People of my race are very similar to each other.","verysimilar"
"3586","","","html-slider-response","473","3210796","0.0-24.0-1.0-0.17","61840","List1A","white","man","","","","","","","","survey_race","87","","","I often think about the fact that I am my race.","often"
"3140.5","","","html-slider-response","474","3213939","0.0-24.0-1.0-0.18","61840","List1A","white","man","","","","","","","","survey_race","91","","","People of my race have a lot in common with each other.","common"
"2745.2000000001863","","","html-slider-response","475","3216686","0.0-24.0-1.0-0.19","61840","List1A","white","man","","","","","","","","survey_race","88","","","I have a lot in common with the average person of my race.","average"
"3130.7000000001863","","","html-slider-response","476","3219818","0.0-24.0-1.0-0.20","61840","List1A","white","man","","","","","","","","survey_race","82","","","I feel a bond with my race.","bond"
"4600.200000000186","","","html-slider-response","477","3224420","0.0-24.0-1.0-0.21","61840","List1A","white","man","","","","","","","","survey_race","84","","","I feel a bond with people the same age as me.","filler"
"4737.5","","","html-slider-response","478","3229159","0.0-24.0-1.0-0.22","61840","List1A","white","man","","","","","","","","survey_race","73","","","I am glad to be the age I am.","filler"
