"rt","stimulus","button_pressed","trial_type","trial_index","time_elapsed","internal_node_id","subject","list","ppt_race","ppt_gender","url","first_guess","correct","key_press","responses","image_type","phrase_type","test_part","response","stimulus1","stimulus2","question_type","survey_item"
"23348.79999999702","Welcome to the experiment. Press Continue to begin.","0","html-button-response","0","23357","0.0-0.0","62996","List2A","white","man","","","","","","","","","","","","",""
"52120.89999999851","","","external-html","1","76927","0.0-1.0","62996","List2A","white","man","consent.html","","","","","","","","","","","",""
"6166.89999999851","<p>On the next page, you will see portraits of 8 people and their names.</p><p>Your first task is to take a few minutes to memorise the names of these people.</p><p>You will have to recall their names during the rest of the experiment, so it is</p><p>essential that you try to memorise these people and their names as best as you can.</p><br><p><strong>You will then be tested on your memory of these names and portraits.</strong></p><br><p>The experiment will start after you have completed this memory test.</p><br><p>Ready?</p>","0","html-button-response","2","83096","0.0-2.0","62996","List2A","white","man","","","","","","","","","","","","",""
"20899.5","<img src='img/portrait_matrix_list2.jpg' style='width:900px;height:500px;''></img><p>If you have memorised all the portraits and names and are ready to start, press Continue.</p><p><strong>Please note: Your memory of these faces will be tested 4 times during this experiment.</strong></p>","0","html-button-response","3","105000","0.0-3.0-0.0","62996","List2A","white","man","","","","","","","","","","","","",""
"5762.89999999851","<img src=""portrait/BW2.jpg""style=""height:400px;""></img>","2","html-button-response","4","111769","0.0-3.0-1.0","62996","List2A","white","man","","true","2","","","","","","","","","",""
"null","CORRECT","","html-keyboard-response","5","113275","0.0-3.0-2.0-0.0","62996","List2A","white","man","","","","null","","","","","","","","",""
"3656.60000000149","<img src=""portrait/BM2.jpg""style=""height:400px;""></img>","5","html-button-response","6","116940","0.0-3.0-4.0","62996","List2A","white","man","","true","5","","","","","","","","","",""
"null","CORRECT","","html-keyboard-response","7","118442","0.0-3.0-5.0-0.0","62996","List2A","white","man","","","","null","","","","","","","","",""
"3328.89999999851","<img src=""portrait/BM1.jpg""style=""height:400px;""></img>","4","html-button-response","8","121774","0.0-3.0-7.0","62996","List2A","white","man","","true","4","","","","","","","","","",""
"null","CORRECT","","html-keyboard-response","9","123277","0.0-3.0-8.0-0.0","62996","List2A","white","man","","","","null","","","","","","","","",""
"3288.800000000745","<img src=""portrait/WW1.jpg""style=""height:400px;""></img>","1","html-button-response","10","126569","0.0-3.0-10.0","62996","List2A","white","man","","true","1","","","","","","","","","",""
"null","CORRECT","","html-keyboard-response","11","128072","0.0-3.0-11.0-0.0","62996","List2A","white","man","","","","null","","","","","","","","",""
"6099.300000000745","<img src=""portrait/WM1.jpg""style=""height:400px;""></img>","6","html-button-response","12","134175","0.0-3.0-13.0","62996","List2A","white","man","","true","6","","","","","","","","","",""
"null","CORRECT","","html-keyboard-response","13","135678","0.0-3.0-14.0-0.0","62996","List2A","white","man","","","","null","","","","","","","","",""
"4261.89999999851","<img src=""portrait/BW1.jpg""style=""height:400px;""></img>","0","html-button-response","14","139942","0.0-3.0-16.0","62996","List2A","white","man","","true","0","","","","","","","","","",""
"null","CORRECT","","html-keyboard-response","15","141445","0.0-3.0-17.0-0.0","62996","List2A","white","man","","","","null","","","","","","","","",""
"3753.60000000149","<img src=""portrait/WM2.jpg""style=""height:400px;""></img>","7","html-button-response","16","145201","0.0-3.0-19.0","62996","List2A","white","man","","true","7","","","","","","","","","",""
"null","CORRECT","","html-keyboard-response","17","146705","0.0-3.0-20.0-0.0","62996","List2A","white","man","","","","null","","","","","","","","",""
"2997.699999999255","<img src=""portrait/WW2.jpg""style=""height:400px;""></img>","3","html-button-response","18","149705","0.0-3.0-22.0","62996","List2A","white","man","","true","3","","","","","","","","","",""
"null","CORRECT","","html-keyboard-response","19","151209","0.0-3.0-23.0-0.0","62996","List2A","white","man","","","","null","","","","","","","","",""
"1595.7999999970198","<p>You got 8 out of 8 right first time. Press Continue.</p>","0","html-button-response","20","152808","0.0-3.0-25.0","62996","List2A","white","man","","","","","","","","","","","","",""
"25629.5","<p>In this experiment, you will view photographs of the people from the memory game interacting.</p><p>By using the <strong>exact</strong> phrase given <i>after</i> the photograph appears and recalling the correct names of the people in the photographs, form a sentence describing the interaction. You do not need to capitalise names.</p><p>Type your answer in the space provided. Please complete every sentence before moving onto the next trial.</p><p>You will only have a few seconds to memorise each given photograph and phrase before you can respond, so try your best to focus.</p><p>An example is given below. Press 'Continue' when you are ready.</p><img src='img/speaking_example.jpg' style='width:800px;height:460px;''></img>","0","html-button-response","21","179443","0.0-4.0","62996","List2A","white","man","","","","","","","","","","","","",""
"2895","<p>Before the experiment starts, you will watch two example trials. Press 'Continue'.</p>","0","html-button-response","22","183342","0.0-5.0","62996","List2A","white","man","","","","","","","","","","","","",""
"null","<img src='img/play_eg.gif' style='height:400px;''></img>","","html-keyboard-response","23","186344","0.0-6.0","62996","List2A","white","man","","","","null","","","","","","","","",""
"null","<p>is playing with</p>","","html-keyboard-response","24","188346","0.0-7.0","62996","List2A","white","man","","","","null","","","","","","","","",""
"3499.60000000149","<p><b>Answer:</b> jane is playing with ruth</p>","0","html-button-response","25","191847","0.0-8.0","62996","List2A","white","man","","","","","","","","","","","","",""
"null","<img src='img/dance_eg.gif' style='height:400px;''></img>","","html-keyboard-response","26","194851","0.0-9.0","62996","List2A","white","man","","","","null","","","","","","","","",""
"null","<p>is being entertained by</p>","","html-keyboard-response","27","196853","0.0-10.0","62996","List2A","white","man","","","","null","","","","","","","","",""
"2043","<p><b>Answer:</b> fred is being entertained by mike</p>","0","html-button-response","28","198898","0.0-11.0","62996","List2A","white","man","","","","","","","","","","","","",""
"12370.10000000149","<p>Ready to start the experiment?</p><br><p><strong>Remember to describe the picture using a full sentence,</strong></p><p><strong>that combines the names of the people with the <i>exact</i> phrase given.</strong></p><p><strong>To receive full payment you must do this correctly.</strong></p><p><strong> You do not need to capitalise names or use punctuation.</strong></p><br><p>Press 'Continue' to begin.</p>","0","html-button-response","29","212271","0.0-12.0","62996","List2A","white","man","","","","","","","","","","","","",""
"null","<div style=""font-size:60px;"">+</div>","","html-keyboard-response","30","213774","0.0-13.0-0.0","62996","List2A","white","man","","","","null","","","","","","","","",""
"null","<img src=""stim_listA/shout2.gif""style=""height:400px;""></stim_listA>","","html-keyboard-response","31","215778","0.0-13.0-1.0","62996","List2A","white","man","","","","null","","","","","","","","",""
"null","is being shouted at by","","html-keyboard-response","32","217779","0.0-13.0-2.0","62996","List2A","white","man","","","","null","","","","","","","","",""
"14742.70000000298","","","survey-text","33","232528","0.0-13.0-3.0","62996","List2A","white","man","","","","","{""Q0"":""dave is being shouted at by jane""}","<img src=""stim_listA/shout2.gif""style=""height:400px;""></stim_listA>","is being shouted at by","","","","","",""
"null","<div style=""font-size:60px;"">+</div>","","html-keyboard-response","34","233032","0.0-13.0-0.1","62996","List2A","white","man","","","","null","","","","","","","","",""
"null","<img src=""stim_listA/look8.gif""style=""height:400px;""></stim_listA>","","html-keyboard-response","35","235035","0.0-13.0-1.1","62996","List2A","white","man","","","","null","","","","","","","","",""
"null","is being looked at by","","html-keyboard-response","36","237037","0.0-13.0-2.1","62996","List2A","white","man","","","","null","","","","","","","","",""
"8671.300000000745","","","survey-text","37","245714","0.0-13.0-3.1","62996","List2A","white","man","","","","","{""Q0"":""jane is being looked at by kate""}","<img src=""stim_listA/look8.gif""style=""height:400px;""></stim_listA>","is being looked at by","","","","","",""
"null","<div style=""font-size:60px;"">+</div>","","html-keyboard-response","38","246217","0.0-13.0-0.2","62996","List2A","white","man","","","","null","","","","","","","","",""
"null","<img src=""stim_listA/touch8.gif""style=""height:400px;""></stim_listA>","","html-keyboard-response","39","248222","0.0-13.0-1.2","62996","List2A","white","man","","","","null","","","","","","","","",""
"null","is being touched by","","html-keyboard-response","40","250224","0.0-13.0-2.2","62996","List2A","white","man","","","","null","","","","","","","","",""
"15368.79999999702","","","survey-text","41","265598","0.0-13.0-3.2","62996","List2A","white","man","","","","","{""Q0"":""beth is high fiving mike""}","<img src=""stim_listA/touch8.gif""style=""height:400px;""></stim_listA>","is being touched by","","","","","",""
"null","<div style=""font-size:60px;"">+</div>","","html-keyboard-response","42","266101","0.0-13.0-0.3","62996","List2A","white","man","","","","null","","","","","","","","",""
"null","<img src=""stim_listA/greet8.gif""style=""height:400px;""></stim_listA>","","html-keyboard-response","43","268103","0.0-13.0-1.3","62996","List2A","white","man","","","","null","","","","","","","","",""
"null","is being greeted by","","html-keyboard-response","44","270106","0.0-13.0-2.3","62996","List2A","white","man","","","","null","","","","","","","","",""
"13763.800000000745","","","survey-text","45","283874","0.0-13.0-3.3","62996","List2A","white","man","","","","","{""Q0"":""ruth is being greeted by kate""}","<img src=""stim_listA/greet8.gif""style=""height:400px;""></stim_listA>","is being greeted by","","","","","",""
"null","<div style=""font-size:60px;"">+</div>","","html-keyboard-response","46","284377","0.0-13.0-0.4","62996","List2A","white","man","","","","null","","","","","","","","",""
"null","<img src=""stim_listA/challenge5.gif""style=""height:400px;""></stim_listA>","","html-keyboard-response","47","286381","0.0-13.0-1.4","62996","List2A","white","man","","","","null","","","","","","","","",""
"null","is challenging","","html-keyboard-response","48","288383","0.0-13.0-2.4","62996","List2A","white","man","","","","null","","","","","","","","",""
"11111.5","","","survey-text","49","299503","0.0-13.0-3.4","62996","List2A","white","man","","","","","{""Q0"":""fred is challenging dave""}","<img src=""stim_listA/challenge5.gif""style=""height:400px;""></stim_listA>","is challenging","","","","","",""
"null","<div style=""font-size:60px;"">+</div>","","html-keyboard-response","50","300006","0.0-13.0-0.5","62996","List2A","white","man","","","","null","","","","","","","","",""
"null","<img src=""stim_listA/copy3.gif""style=""height:400px;""></stim_listA>","","html-keyboard-response","51","302010","0.0-13.0-1.5","62996","List2A","white","man","","","","null","","","","","","","","",""
"null","is copying","","html-keyboard-response","52","304013","0.0-13.0-2.5","62996","List2A","white","man","","","","null","","","","","","","","",""
"10369.199999999255","","","survey-text","53","314387","0.0-13.0-3.5","62996","List2A","white","man","","","","","{""Q0"":""ruth is coping mike""}","<img src=""stim_listA/copy3.gif""style=""height:400px;""></stim_listA>","is copying","","","","","",""
"null","<div style=""font-size:60px;"">+</div>","","html-keyboard-response","54","314889","0.0-13.0-0.6","62996","List2A","white","man","","","","null","","","","","","","","",""
"null","<img src=""stim_listA/seduce2.gif""style=""height:400px;""></stim_listA>","","html-keyboard-response","55","316893","0.0-13.0-1.6","62996","List2A","white","man","","","","null","","","","","","","","",""
"null","is being seduced by","","html-keyboard-response","56","318895","0.0-13.0-2.6","62996","List2A","white","man","","","","null","","","","","","","","",""
"10173.89999999851","","","survey-text","57","329074","0.0-13.0-3.6","62996","List2A","white","man","","","","","{""Q0"":""ruth is being seduced by dave""}","<img src=""stim_listA/seduce2.gif""style=""height:400px;""></stim_listA>","is being seduced by","","","","","",""
"null","<div style=""font-size:60px;"">+</div>","","html-keyboard-response","58","329576","0.0-13.0-0.7","62996","List2A","white","man","","","","null","","","","","","","","",""
"null","<img src=""stim_listA/seduce6.gif""style=""height:400px;""></stim_listA>","","html-keyboard-response","59","331579","0.0-13.0-1.7","62996","List2A","white","man","","","","null","","","","","","","","",""
"null","is being seduced by","","html-keyboard-response","60","333581","0.0-13.0-2.7","62996","List2A","white","man","","","","null","","","","","","","","",""
"9942.300000000745","","","survey-text","61","343528","0.0-13.0-3.7","62996","List2A","white","man","","","","","{""Q0"":""fred is being seduced by dave""}","<img src=""stim_listA/seduce6.gif""style=""height:400px;""></stim_listA>","is being seduced by","","","","","",""
"null","<div style=""font-size:60px;"">+</div>","","html-keyboard-response","62","344031","0.0-13.0-0.8","62996","List2A","white","man","","","","null","","","","","","","","",""
"null","<img src=""stim_listA/seduce8.gif""style=""height:400px;""></stim_listA>","","html-keyboard-response","63","346034","0.0-13.0-1.8","62996","List2A","white","man","","","","null","","","","","","","","",""
"null","is being seduced by","","html-keyboard-response","64","348036","0.0-13.0-2.8","62996","List2A","white","man","","","","null","","","","","","","","",""
"8884.400000002235","","","survey-text","65","356926","0.0-13.0-3.8","62996","List2A","white","man","","","","","{""Q0"":""jane is being seduced by ruth""}","<img src=""stim_listA/seduce8.gif""style=""height:400px;""></stim_listA>","is being seduced by","","","","","",""
"null","<div style=""font-size:60px;"">+</div>","","html-keyboard-response","66","357428","0.0-13.0-0.9","62996","List2A","white","man","","","","null","","","","","","","","",""
"null","<img src=""stim_listA/hug6.gif""style=""height:400px;""></stim_listA>","","html-keyboard-response","67","359432","0.0-13.0-1.9","62996","List2A","white","man","","","","null","","","","","","","","",""
"null","is being hugged by","","html-keyboard-response","68","361437","0.0-13.0-2.9","62996","List2A","white","man","","","","null","","","","","","","","",""
"8041.699999999255","","","survey-text","69","369484","0.0-13.0-3.9","62996","List2A","white","man","","","","","{""Q0"":""dave is being hugged by mike""}","<img src=""stim_listA/hug6.gif""style=""height:400px;""></stim_listA>","is being hugged by","","","","","",""
"null","<div style=""font-size:60px;"">+</div>","","html-keyboard-response","70","369986","0.0-13.0-0.10","62996","List2A","white","man","","","","null","","","","","","","","",""
"null","<img src=""stim_listA/kiss6.gif""style=""height:400px;""></stim_listA>","","html-keyboard-response","71","371989","0.0-13.0-1.10","62996","List2A","white","man","","","","null","","","","","","","","",""
"null","is being kissed by","","html-keyboard-response","72","373991","0.0-13.0-2.10","62996","List2A","white","man","","","","null","","","","","","","","",""
"6841.60000000149","","","survey-text","73","380838","0.0-13.0-3.10","62996","List2A","white","man","","","","","{""Q0"":""mike is being kissed by dave""}","<img src=""stim_listA/kiss6.gif""style=""height:400px;""></stim_listA>","is being kissed by","","","","","",""
"null","<div style=""font-size:60px;"">+</div>","","html-keyboard-response","74","381344","0.0-13.0-0.11","62996","List2A","white","man","","","","null","","","","","","","","",""
"null","<img src=""stim_listA/greet1.gif""style=""height:400px;""></stim_listA>","","html-keyboard-response","75","383347","0.0-13.0-1.11","62996","List2A","white","man","","","","null","","","","","","","","",""
"null","is greeting","","html-keyboard-response","76","385348","0.0-13.0-2.11","62996","List2A","white","man","","","","null","","","","","","","","",""
"7145.599999997765","","","survey-text","77","392499","0.0-13.0-3.11","62996","List2A","white","man","","","","","{""Q0"":""ruth is greeting dave""}","<img src=""stim_listA/greet1.gif""style=""height:400px;""></stim_listA>","is greeting","","","","","",""
"null","<div style=""font-size:60px;"">+</div>","","html-keyboard-response","78","393002","0.0-13.0-0.12","62996","List2A","white","man","","","","null","","","","","","","","",""
"null","<img src=""stim_listA/greet5.gif""style=""height:400px;""></stim_listA>","","html-keyboard-response","79","395006","0.0-13.0-1.12","62996","List2A","white","man","","","","null","","","","","","","","",""
"null","is greeting","","html-keyboard-response","80","397008","0.0-13.0-2.12","62996","List2A","white","man","","","","null","","","","","","","","",""
"6198.5","","","survey-text","81","403211","0.0-13.0-3.12","62996","List2A","white","man","","","","","{""Q0"":""fred is greeting dave""}","<img src=""stim_listA/greet5.gif""style=""height:400px;""></stim_listA>","is greeting","","","","","",""
"null","<div style=""font-size:60px;"">+</div>","","html-keyboard-response","82","403713","0.0-13.0-0.13","62996","List2A","white","man","","","","null","","","","","","","","",""
"null","<img src=""stim_listA/hug4.gif""style=""height:400px;""></stim_listA>","","html-keyboard-response","83","405717","0.0-13.0-1.13","62996","List2A","white","man","","","","null","","","","","","","","",""
"null","is being hugged by","","html-keyboard-response","84","407719","0.0-13.0-2.13","62996","List2A","white","man","","","","null","","","","","","","","",""
"10297.29999999702","","","survey-text","85","418021","0.0-13.0-3.13","62996","List2A","white","man","","","","","{""Q0"":""mike is being hugged by kate""}","<img src=""stim_listA/hug4.gif""style=""height:400px;""></stim_listA>","is being hugged by","","","","","",""
"null","<div style=""font-size:60px;"">+</div>","","html-keyboard-response","86","418524","0.0-13.0-0.14","62996","List2A","white","man","","","","null","","","","","","","","",""
"null","<img src=""stim_listA/shout3.gif""style=""height:400px;""></stim_listA>","","html-keyboard-response","87","420527","0.0-13.0-1.14","62996","List2A","white","man","","","","null","","","","","","","","",""
"null","is shouting at","","html-keyboard-response","88","422529","0.0-13.0-2.14","62996","List2A","white","man","","","","null","","","","","","","","",""
"8813.099999997765","","","survey-text","89","431348","0.0-13.0-3.14","62996","List2A","white","man","","","","","{""Q0"":""fred is shouting at beth""}","<img src=""stim_listA/shout3.gif""style=""height:400px;""></stim_listA>","is shouting at","","","","","",""
"null","<div style=""font-size:60px;"">+</div>","","html-keyboard-response","90","431850","0.0-13.0-0.15","62996","List2A","white","man","","","","null","","","","","","","","",""
"null","<img src=""stim_listA/touch7.gif""style=""height:400px;""></stim_listA>","","html-keyboard-response","91","433853","0.0-13.0-1.15","62996","List2A","white","man","","","","null","","","","","","","","",""
"null","is touching","","html-keyboard-response","92","435855","0.0-13.0-2.15","62996","List2A","white","man","","","","null","","","","","","","","",""
"13949.5","","","survey-text","93","449810","0.0-13.0-3.15","62996","List2A","white","man","","","","","{""Q0"":""jane is touching kate""}","<img src=""stim_listA/touch7.gif""style=""height:400px;""></stim_listA>","is touching","","","","","",""
"null","<div style=""font-size:60px;"">+</div>","","html-keyboard-response","94","450313","0.0-13.0-0.16","62996","List2A","white","man","","","","null","","","","","","","","",""
"null","<img src=""stim_listA/hug3.gif""style=""height:400px;""></stim_listA>","","html-keyboard-response","95","452317","0.0-13.0-1.16","62996","List2A","white","man","","","","null","","","","","","","","",""
"null","is hugging","","html-keyboard-response","96","454318","0.0-13.0-2.16","62996","List2A","white","man","","","","null","","","","","","","","",""
"7077.900000002235","","","survey-text","97","461404","0.0-13.0-3.16","62996","List2A","white","man","","","","","{""Q0"":""ruth is hugging fred""}","<img src=""stim_listA/hug3.gif""style=""height:400px;""></stim_listA>","is hugging","","","","","",""
"null","<div style=""font-size:60px;"">+</div>","","html-keyboard-response","98","461906","0.0-13.0-0.17","62996","List2A","white","man","","","","null","","","","","","","","",""
"null","<img src=""stim_listA/challenge2.gif""style=""height:400px;""></stim_listA>","","html-keyboard-response","99","463910","0.0-13.0-1.17","62996","List2A","white","man","","","","null","","","","","","","","",""
"null","is being challenged by","","html-keyboard-response","100","465912","0.0-13.0-2.17","62996","List2A","white","man","","","","null","","","","","","","","",""
"11970.800000000745","","","survey-text","101","477889","0.0-13.0-3.17","62996","List2A","white","man","","","","","{""Q0"":""ruth is challenged by mike""}","<img src=""stim_listA/challenge2.gif""style=""height:400px;""></stim_listA>","is being challenged by","","","","","",""
"null","<div style=""font-size:60px;"">+</div>","","html-keyboard-response","102","478391","0.0-13.0-0.18","62996","List2A","white","man","","","","null","","","","","","","","",""
"null","<img src=""stim_listA/greet4.gif""style=""height:400px;""></stim_listA>","","html-keyboard-response","103","480394","0.0-13.0-1.18","62996","List2A","white","man","","","","null","","","","","","","","",""
"null","is being greeted by","","html-keyboard-response","104","482396","0.0-13.0-2.18","62996","List2A","white","man","","","","null","","","","","","","","",""
"7383.5","","","survey-text","105","489785","0.0-13.0-3.18","62996","List2A","white","man","","","","","{""Q0"":""fred is being greeted by kate""}","<img src=""stim_listA/greet4.gif""style=""height:400px;""></stim_listA>","is being greeted by","","","","","",""
"null","<div style=""font-size:60px;"">+</div>","","html-keyboard-response","106","490287","0.0-13.0-0.19","62996","List2A","white","man","","","","null","","","","","","","","",""
"null","<img src=""stim_listA/challenge7.gif""style=""height:400px;""></stim_listA>","","html-keyboard-response","107","492291","0.0-13.0-1.19","62996","List2A","white","man","","","","null","","","","","","","","",""
"null","is challenging","","html-keyboard-response","108","494292","0.0-13.0-2.19","62996","List2A","white","man","","","","null","","","","","","","","",""
"7256","","","survey-text","109","501553","0.0-13.0-3.19","62996","List2A","white","man","","","","","{""Q0"":""kate is challenging ruth""}","<img src=""stim_listA/challenge7.gif""style=""height:400px;""></stim_listA>","is challenging","","","","","",""
"10225.39999999851","<img src='img/portrait_matrix_list2.jpg' style='width:900px;height:500px;''></img><p>If you have memorised all the portraits and names and are ready to start, press Continue.</p><p><strong>Please note: Your memory of these faces will be tested 4 times during this experiment.</strong></p>","0","html-button-response","110","511783","0.0-14.0-0.0","62996","List2A","white","man","","","","","","","","","","","","",""
"5220.199999999255","<img src=""portrait/BM1.jpg""style=""height:400px;""></img>","4","html-button-response","111","518008","0.0-14.0-1.0","62996","List2A","white","man","","true","4","","","","","","","","","",""
"null","CORRECT","","html-keyboard-response","112","519512","0.0-14.0-2.0-0.0","62996","List2A","white","man","","","","null","","","","","","","","",""
"3644.800000000745","<img src=""portrait/BW2.jpg""style=""height:400px;""></img>","2","html-button-response","113","523160","0.0-14.0-4.0","62996","List2A","white","man","","true","2","","","","","","","","","",""
"null","CORRECT","","html-keyboard-response","114","524664","0.0-14.0-5.0-0.0","62996","List2A","white","man","","","","null","","","","","","","","",""
"1921.699999999255","<img src=""portrait/BW1.jpg""style=""height:400px;""></img>","1","html-button-response","115","526590","0.0-14.0-7.0","62996","List2A","white","man","","true","0","","","","","","","","","",""
"4560.400000002235","<img src=""portrait/BW1.jpg""style=""height:400px;""></img>","0","html-button-response","116","532156","0.0-14.0-9.0-0.0","62996","List2A","white","man","","false","0","","","","","","","","","",""
"null","CORRECT","","html-keyboard-response","117","533661","0.0-14.0-9.0-1.0-0.0","62996","List2A","white","man","","","","null","","","","","","","","",""
"3735.5","<img src=""portrait/BM2.jpg""style=""height:400px;""></img>","5","html-button-response","118","537403","0.0-14.0-10.0","62996","List2A","white","man","","true","5","","","","","","","","","",""
"null","CORRECT","","html-keyboard-response","119","538906","0.0-14.0-11.0-0.0","62996","List2A","white","man","","","","null","","","","","","","","",""
"3288.39999999851","<img src=""portrait/WM2.jpg""style=""height:400px;""></img>","7","html-button-response","120","542198","0.0-14.0-13.0","62996","List2A","white","man","","true","7","","","","","","","","","",""
"null","CORRECT","","html-keyboard-response","121","543701","0.0-14.0-14.0-0.0","62996","List2A","white","man","","","","null","","","","","","","","",""
"1397.3999999985099","<img src=""portrait/WM1.jpg""style=""height:400px;""></img>","6","html-button-response","122","545101","0.0-14.0-16.0","62996","List2A","white","man","","true","6","","","","","","","","","",""
"null","CORRECT","","html-keyboard-response","123","546604","0.0-14.0-17.0-0.0","62996","List2A","white","man","","","","null","","","","","","","","",""
"2677.5","<img src=""portrait/WW2.jpg""style=""height:400px;""></img>","3","html-button-response","124","549285","0.0-14.0-19.0","62996","List2A","white","man","","true","3","","","","","","","","","",""
"null","CORRECT","","html-keyboard-response","125","550787","0.0-14.0-20.0-0.0","62996","List2A","white","man","","","","null","","","","","","","","",""
"2027.0999999977648","<img src=""portrait/WW1.jpg""style=""height:400px;""></img>","2","html-button-response","126","552818","0.0-14.0-22.0","62996","List2A","white","man","","true","1","","","","","","","","","",""
"1786.5","<img src=""portrait/WW1.jpg""style=""height:400px;""></img>","1","html-button-response","127","555609","0.0-14.0-24.0-0.0","62996","List2A","white","man","","false","1","","","","","","","","","",""
"null","CORRECT","","html-keyboard-response","128","557112","0.0-14.0-24.0-1.0-0.0","62996","List2A","white","man","","","","null","","","","","","","","",""
"1749.199999999255","<p>You got 6 out of 8 right first time. Press Continue.</p>","0","html-button-response","129","558864","0.0-14.0-25.0","62996","List2A","white","man","","","","","","","","","","","","",""
"2293.300000000745","As you did not score 100%, the memory game will repeat. Press Continue.","0","html-button-response","130","562161","0.0-14.0-26.0-0.0","62996","List2A","white","man","","","","","","","","","","","","",""
"4873.70000000298","<img src='img/portrait_matrix_list2.jpg' style='width:900px;height:500px;''></img><p>If you have memorised all the portraits and names and are ready to start, press Continue.</p><p><strong>Please note: Your memory of these faces will be tested 4 times during this experiment.</strong></p>","0","html-button-response","131","568040","0.0-14.1-0.1","62996","List2A","white","man","","","","","","","","","","","","",""
"7376.39999999851","<img src=""portrait/BM1.jpg""style=""height:400px;""></img>","4","html-button-response","132","576421","0.0-14.1-1.1","62996","List2A","white","man","","true","4","","","","","","","","","",""
"null","CORRECT","","html-keyboard-response","133","577924","0.0-14.1-2.1-0.1","62996","List2A","white","man","","","","null","","","","","","","","",""
"2521.199999999255","<img src=""portrait/BW2.jpg""style=""height:400px;""></img>","2","html-button-response","134","580448","0.0-14.1-4.1","62996","List2A","white","man","","true","2","","","","","","","","","",""
"null","CORRECT","","html-keyboard-response","135","581951","0.0-14.1-5.1-0.1","62996","List2A","white","man","","","","null","","","","","","","","",""
"2623.900000002235","<img src=""portrait/BW1.jpg""style=""height:400px;""></img>","0","html-button-response","136","584578","0.0-14.1-7.1","62996","List2A","white","man","","true","0","","","","","","","","","",""
"null","CORRECT","","html-keyboard-response","137","586081","0.0-14.1-8.1-0.1","62996","List2A","white","man","","","","null","","","","","","","","",""
"3064.800000000745","<img src=""portrait/BM2.jpg""style=""height:400px;""></img>","5","html-button-response","138","589150","0.0-14.1-10.1","62996","List2A","white","man","","true","5","","","","","","","","","",""
"null","CORRECT","","html-keyboard-response","139","590652","0.0-14.1-11.1-0.1","62996","List2A","white","man","","","","null","","","","","","","","",""
"3293.2999999970198","<img src=""portrait/WM2.jpg""style=""height:400px;""></img>","7","html-button-response","140","593949","0.0-14.1-13.1","62996","List2A","white","man","","true","7","","","","","","","","","",""
"null","CORRECT","","html-keyboard-response","141","595451","0.0-14.1-14.1-0.1","62996","List2A","white","man","","","","null","","","","","","","","",""
"877.5999999977648","<img src=""portrait/WM1.jpg""style=""height:400px;""></img>","6","html-button-response","142","596332","0.0-14.1-16.1","62996","List2A","white","man","","true","6","","","","","","","","","",""
"null","CORRECT","","html-keyboard-response","143","597835","0.0-14.1-17.1-0.1","62996","List2A","white","man","","","","null","","","","","","","","",""
"2375.39999999851","<img src=""portrait/WW2.jpg""style=""height:400px;""></img>","3","html-button-response","144","600214","0.0-14.1-19.1","62996","List2A","white","man","","true","3","","","","","","","","","",""
"null","CORRECT","","html-keyboard-response","145","601717","0.0-14.1-20.1-0.1","62996","List2A","white","man","","","","null","","","","","","","","",""
"2645.900000002235","<img src=""portrait/WW1.jpg""style=""height:400px;""></img>","1","html-button-response","146","604367","0.0-14.1-22.1","62996","List2A","white","man","","true","1","","","","","","","","","",""
"null","CORRECT","","html-keyboard-response","147","605870","0.0-14.1-23.1-0.1","62996","List2A","white","man","","","","null","","","","","","","","",""
"1609.2999999970198","<p>You got 8 out of 8 right first time. Press Continue.</p>","0","html-button-response","148","607482","0.0-14.1-25.1","62996","List2A","white","man","","","","","","","","","","","","",""
"null","<div style=""font-size:60px;"">+</div>","","html-keyboard-response","149","608986","0.0-15.0-0.0","62996","List2A","white","man","","","","null","","","","","","","","",""
"null","<img src=""stim_listA/look1.gif""style=""height:400px;""></stim_listA>","","html-keyboard-response","150","610989","0.0-15.0-1.0","62996","List2A","white","man","","","","null","","","","","","","","",""
"null","is looking at","","html-keyboard-response","151","612991","0.0-15.0-2.0","62996","List2A","white","man","","","","null","","","","","","","","",""
"11189.89999999851","","","survey-text","152","624186","0.0-15.0-3.0","62996","List2A","white","man","","","","","{""Q0"":""luke is looking at ruth""}","<img src=""stim_listA/look1.gif""style=""height:400px;""></stim_listA>","is looking at","","","","","",""
"null","<div style=""font-size:60px;"">+</div>","","html-keyboard-response","153","624689","0.0-15.0-0.1","62996","List2A","white","man","","","","null","","","","","","","","",""
"null","<img src=""stim_listA/copy2.gif""style=""height:400px;""></stim_listA>","","html-keyboard-response","154","626693","0.0-15.0-1.1","62996","List2A","white","man","","","","null","","","","","","","","",""
"null","is being copied by","","html-keyboard-response","155","628695","0.0-15.0-2.1","62996","List2A","white","man","","","","null","","","","","","","","",""
"8352.199999999255","","","survey-text","156","637052","0.0-15.0-3.1","62996","List2A","white","man","","","","","{""Q0"":""jane is being copied by luke""}","<img src=""stim_listA/copy2.gif""style=""height:400px;""></stim_listA>","is being copied by","","","","","",""
"null","<div style=""font-size:60px;"">+</div>","","html-keyboard-response","157","637555","0.0-15.0-0.2","62996","List2A","white","man","","","","null","","","","","","","","",""
"null","<img src=""stim_listA/shout7.gif""style=""height:400px;""></stim_listA>","","html-keyboard-response","158","639560","0.0-15.0-1.2","62996","List2A","white","man","","","","null","","","","","","","","",""
"null","is shouting at","","html-keyboard-response","159","641562","0.0-15.0-2.2","62996","List2A","white","man","","","","null","","","","","","","","",""
"6614.10000000149","","","survey-text","160","648182","0.0-15.0-3.2","62996","List2A","white","man","","","","","{""Q0"":""beth is shouting at ruth""}","<img src=""stim_listA/shout7.gif""style=""height:400px;""></stim_listA>","is shouting at","","","","","",""
"null","<div style=""font-size:60px;"">+</div>","","html-keyboard-response","161","648685","0.0-15.0-0.3","62996","List2A","white","man","","","","null","","","","","","","","",""
"null","<img src=""stim_listA/shout4.gif""style=""height:400px;""></stim_listA>","","html-keyboard-response","162","650689","0.0-15.0-1.3","62996","List2A","white","man","","","","null","","","","","","","","",""
"null","is being shouted at by","","html-keyboard-response","163","652691","0.0-15.0-2.3","62996","List2A","white","man","","","","null","","","","","","","","",""
"16518.39999999851","","","survey-text","164","669215","0.0-15.0-3.3","62996","List2A","white","man","","","","","{""Q0"":""fred is being shouted at by kate""}","<img src=""stim_listA/shout4.gif""style=""height:400px;""></stim_listA>","is being shouted at by","","","","","",""
"null","<div style=""font-size:60px;"">+</div>","","html-keyboard-response","165","669718","0.0-15.0-0.4","62996","List2A","white","man","","","","null","","","","","","","","",""
"null","<img src=""stim_listA/greet6.gif""style=""height:400px;""></stim_listA>","","html-keyboard-response","166","671722","0.0-15.0-1.4","62996","List2A","white","man","","","","null","","","","","","","","",""
"null","is being greeted by","","html-keyboard-response","167","673724","0.0-15.0-2.4","62996","List2A","white","man","","","","null","","","","","","","","",""
"10038.199999999255","","","survey-text","168","683768","0.0-15.0-3.4","62996","List2A","white","man","","","","","{""Q0"":""mike is being greeted by luke""}","<img src=""stim_listA/greet6.gif""style=""height:400px;""></stim_listA>","is being greeted by","","","","","",""
"null","<div style=""font-size:60px;"">+</div>","","html-keyboard-response","169","684271","0.0-15.0-0.5","62996","List2A","white","man","","","","null","","","","","","","","",""
"null","<img src=""stim_listA/seduce5.gif""style=""height:400px;""></stim_listA>","","html-keyboard-response","170","686274","0.0-15.0-1.5","62996","List2A","white","man","","","","null","","","","","","","","",""
"null","is seducing","","html-keyboard-response","171","688277","0.0-15.0-2.5","62996","List2A","white","man","","","","null","","","","","","","","",""
"6507.199999999255","","","survey-text","172","694789","0.0-15.0-3.5","62996","List2A","white","man","","","","","{""Q0"":""mike is seducing luke""}","<img src=""stim_listA/seduce5.gif""style=""height:400px;""></stim_listA>","is seducing","","","","","",""
"null","<div style=""font-size:60px;"">+</div>","","html-keyboard-response","173","695292","0.0-15.0-0.6","62996","List2A","white","man","","","","null","","","","","","","","",""
"null","<img src=""stim_listA/greet3.gif""style=""height:400px;""></stim_listA>","","html-keyboard-response","174","697297","0.0-15.0-1.6","62996","List2A","white","man","","","","null","","","","","","","","",""
"null","is greeting","","html-keyboard-response","175","699299","0.0-15.0-2.6","62996","List2A","white","man","","","","null","","","","","","","","",""
"6122.60000000149","","","survey-text","176","705427","0.0-15.0-3.6","62996","List2A","white","man","","","","","{""Q0"":""mike is greeting beth""}","<img src=""stim_listA/greet3.gif""style=""height:400px;""></stim_listA>","is greeting","","","","","",""
"null","<div style=""font-size:60px;"">+</div>","","html-keyboard-response","177","705930","0.0-15.0-0.7","62996","List2A","white","man","","","","null","","","","","","","","",""
"null","<img src=""stim_listA/touch1.gif""style=""height:400px;""></stim_listA>","","html-keyboard-response","178","707934","0.0-15.0-1.7","62996","List2A","white","man","","","","null","","","","","","","","",""
"null","is touching","","html-keyboard-response","179","709937","0.0-15.0-2.7","62996","List2A","white","man","","","","null","","","","","","","","",""
"5885.300000000745","","","survey-text","180","715827","0.0-15.0-3.7","62996","List2A","white","man","","","","","{""Q0"":""jane is touching dave""}","<img src=""stim_listA/touch1.gif""style=""height:400px;""></stim_listA>","is touching","","","","","",""
"null","<div style=""font-size:60px;"">+</div>","","html-keyboard-response","181","716330","0.0-15.0-0.8","62996","List2A","white","man","","","","null","","","","","","","","",""
"null","<img src=""stim_listA/copy1.gif""style=""height:400px;""></stim_listA>","","html-keyboard-response","182","718334","0.0-15.0-1.8","62996","List2A","white","man","","","","null","","","","","","","","",""
"null","is copying","","html-keyboard-response","183","720336","0.0-15.0-2.8","62996","List2A","white","man","","","","null","","","","","","","","",""
"3875","","","survey-text","184","724220","0.0-15.0-3.8","62996","List2A","white","man","","","","","{""Q0"":""dave is copying ruth""}","<img src=""stim_listA/copy1.gif""style=""height:400px;""></stim_listA>","is copying","","","","","",""
"null","<div style=""font-size:60px;"">+</div>","","html-keyboard-response","185","724722","0.0-15.0-0.9","62996","List2A","white","man","","","","null","","","","","","","","",""
"null","<img src=""stim_listA/kiss3.gif""style=""height:400px;""></stim_listA>","","html-keyboard-response","186","726727","0.0-15.0-1.9","62996","List2A","white","man","","","","null","","","","","","","","",""
"null","is kissing","","html-keyboard-response","187","728729","0.0-15.0-2.9","62996","List2A","white","man","","","","null","","","","","","","","",""
"6231.199999999255","","","survey-text","188","734968","0.0-15.0-3.9","62996","List2A","white","man","","","","","{""Q0"":""fred is kissing beth""}","<img src=""stim_listA/kiss3.gif""style=""height:400px;""></stim_listA>","is kissing","","","","","",""
"null","<div style=""font-size:60px;"">+</div>","","html-keyboard-response","189","735469","0.0-15.0-0.10","62996","List2A","white","man","","","","null","","","","","","","","",""
"null","<img src=""stim_listA/oppose7.gif""style=""height:400px;""></stim_listA>","","html-keyboard-response","190","737473","0.0-15.0-1.10","62996","List2A","white","man","","","","null","","","","","","","","",""
"null","is opposing","","html-keyboard-response","191","739474","0.0-15.0-2.10","62996","List2A","white","man","","","","null","","","","","","","","",""
"6884.89999999851","","","survey-text","192","746364","0.0-15.0-3.10","62996","List2A","white","man","","","","","{""Q0"":""jane is opposing kate""}","<img src=""stim_listA/oppose7.gif""style=""height:400px;""></stim_listA>","is opposing","","","","","",""
"null","<div style=""font-size:60px;"">+</div>","","html-keyboard-response","193","746867","0.0-15.0-0.11","62996","List2A","white","man","","","","null","","","","","","","","",""
"null","<img src=""stim_listA/seduce3.gif""style=""height:400px;""></stim_listA>","","html-keyboard-response","194","748870","0.0-15.0-1.11","62996","List2A","white","man","","","","null","","","","","","","","",""
"null","is seducing","","html-keyboard-response","195","750871","0.0-15.0-2.11","62996","List2A","white","man","","","","null","","","","","","","","",""
"4776","","","survey-text","196","755652","0.0-15.0-3.11","62996","List2A","white","man","","","","","{""Q0"":""fred is seducing kate""}","<img src=""stim_listA/seduce3.gif""style=""height:400px;""></stim_listA>","is seducing","","","","","",""
"null","<div style=""font-size:60px;"">+</div>","","html-keyboard-response","197","756155","0.0-15.0-0.12","62996","List2A","white","man","","","","null","","","","","","","","",""
"null","<img src=""stim_listA/kiss8.gif""style=""height:400px;""></stim_listA>","","html-keyboard-response","198","758157","0.0-15.0-1.12","62996","List2A","white","man","","","","null","","","","","","","","",""
"null","is being kissed by","","html-keyboard-response","199","760159","0.0-15.0-2.12","62996","List2A","white","man","","","","null","","","","","","","","",""
"6350.10000000149","","","survey-text","200","766515","0.0-15.0-3.12","62996","List2A","white","man","","","","","{""Q0"":""jane is being kissed by kate""}","<img src=""stim_listA/kiss8.gif""style=""height:400px;""></stim_listA>","is being kissed by","","","","","",""
"null","<div style=""font-size:60px;"">+</div>","","html-keyboard-response","201","767017","0.0-15.0-0.13","62996","List2A","white","man","","","","null","","","","","","","","",""
"null","<img src=""stim_listA/copy8.gif""style=""height:400px;""></stim_listA>","","html-keyboard-response","202","769021","0.0-15.0-1.13","62996","List2A","white","man","","","","null","","","","","","","","",""
"null","is being copied by","","html-keyboard-response","203","771023","0.0-15.0-2.13","62996","List2A","white","man","","","","null","","","","","","","","",""
"8341.29999999702","","","survey-text","204","779369","0.0-15.0-3.13","62996","List2A","white","man","","","","","{""Q0"":""kate is being copied by ruth""}","<img src=""stim_listA/copy8.gif""style=""height:400px;""></stim_listA>","is being copied by","","","","","",""
"null","<div style=""font-size:60px;"">+</div>","","html-keyboard-response","205","779872","0.0-15.0-0.14","62996","List2A","white","man","","","","null","","","","","","","","",""
"null","<img src=""stim_listA/hug8.gif""style=""height:400px;""></stim_listA>","","html-keyboard-response","206","781875","0.0-15.0-1.14","62996","List2A","white","man","","","","null","","","","","","","","",""
"null","is being hugged by","","html-keyboard-response","207","783877","0.0-15.0-2.14","62996","List2A","white","man","","","","null","","","","","","","","",""
"5961.20000000298","","","survey-text","208","789843","0.0-15.0-3.14","62996","List2A","white","man","","","","","{""Q0"":""jane is being hugged by kate""}","<img src=""stim_listA/hug8.gif""style=""height:400px;""></stim_listA>","is being hugged by","","","","","",""
"null","<div style=""font-size:60px;"">+</div>","","html-keyboard-response","209","790345","0.0-15.0-0.15","62996","List2A","white","man","","","","null","","","","","","","","",""
"null","<img src=""stim_listA/copy4.gif""style=""height:400px;""></stim_listA>","","html-keyboard-response","210","792348","0.0-15.0-1.15","62996","List2A","white","man","","","","null","","","","","","","","",""
"null","is being copied by","","html-keyboard-response","211","794350","0.0-15.0-2.15","62996","List2A","white","man","","","","null","","","","","","","","",""
"7353.39999999851","","","survey-text","212","801709","0.0-15.0-3.15","62996","List2A","white","man","","","","","{""Q0"":""fred is being copied by kate""}","<img src=""stim_listA/copy4.gif""style=""height:400px;""></stim_listA>","is being copied by","","","","","",""
"null","<div style=""font-size:60px;"">+</div>","","html-keyboard-response","213","802211","0.0-15.0-0.16","62996","List2A","white","man","","","","null","","","","","","","","",""
"null","<img src=""stim_listA/oppose2.gif""style=""height:400px;""></stim_listA>","","html-keyboard-response","214","804215","0.0-15.0-1.16","62996","List2A","white","man","","","","null","","","","","","","","",""
"null","is being opposed by","","html-keyboard-response","215","806217","0.0-15.0-2.16","62996","List2A","white","man","","","","null","","","","","","","","",""
"11179.20000000298","","","survey-text","216","817401","0.0-15.0-3.16","62996","List2A","white","man","","","","","{""Q0"":""luke is being opposed by ruth""}","<img src=""stim_listA/oppose2.gif""style=""height:400px;""></stim_listA>","is being opposed by","","","","","",""
"null","<div style=""font-size:60px;"">+</div>","","html-keyboard-response","217","817904","0.0-15.0-0.17","62996","List2A","white","man","","","","null","","","","","","","","",""
"null","<img src=""stim_listA/kiss7.gif""style=""height:400px;""></stim_listA>","","html-keyboard-response","218","819907","0.0-15.0-1.17","62996","List2A","white","man","","","","null","","","","","","","","",""
"null","is kissing","","html-keyboard-response","219","821909","0.0-15.0-2.17","62996","List2A","white","man","","","","null","","","","","","","","",""
"5167.5","","","survey-text","220","827082","0.0-15.0-3.17","62996","List2A","white","man","","","","","{""Q0"":""beth is kissing ruth""}","<img src=""stim_listA/kiss7.gif""style=""height:400px;""></stim_listA>","is kissing","","","","","",""
"null","<div style=""font-size:60px;"">+</div>","","html-keyboard-response","221","827584","0.0-15.0-0.18","62996","List2A","white","man","","","","null","","","","","","","","",""
"null","<img src=""stim_listA/look4.gif""style=""height:400px;""></stim_listA>","","html-keyboard-response","222","829588","0.0-15.0-1.18","62996","List2A","white","man","","","","null","","","","","","","","",""
"null","is being looked at by","","html-keyboard-response","223","831590","0.0-15.0-2.18","62996","List2A","white","man","","","","null","","","","","","","","",""
"12230.79999999702","","","survey-text","224","843826","0.0-15.0-3.18","62996","List2A","white","man","","","","","{""Q0"":""mike is being looked at by kate""}","<img src=""stim_listA/look4.gif""style=""height:400px;""></stim_listA>","is being looked at by","","","","","",""
"null","<div style=""font-size:60px;"">+</div>","","html-keyboard-response","225","844329","0.0-15.0-0.19","62996","List2A","white","man","","","","null","","","","","","","","",""
"null","<img src=""stim_listA/oppose8.gif""style=""height:400px;""></stim_listA>","","html-keyboard-response","226","846332","0.0-15.0-1.19","62996","List2A","white","man","","","","null","","","","","","","","",""
"null","is being opposed by","","html-keyboard-response","227","848333","0.0-15.0-2.19","62996","List2A","white","man","","","","null","","","","","","","","",""
"14947.5","","","survey-text","228","863286","0.0-15.0-3.19","62996","List2A","white","man","","","","","{""Q0"":""beth is being opposed by ruth""}","<img src=""stim_listA/oppose8.gif""style=""height:400px;""></stim_listA>","is being opposed by","","","","","",""
"6034.39999999851","<img src='img/portrait_matrix_list2.jpg' style='width:900px;height:500px;''></img><p>If you have memorised all the portraits and names and are ready to start, press Continue.</p><p><strong>Please note: Your memory of these faces will be tested 4 times during this experiment.</strong></p>","0","html-button-response","229","869327","0.0-16.0-0.0","62996","List2A","white","man","","","","","","","","","","","","",""
"3188.7000000029802","<img src=""portrait/WW1.jpg""style=""height:400px;""></img>","1","html-button-response","230","873519","0.0-16.0-1.0","62996","List2A","white","man","","true","1","","","","","","","","","",""
"null","CORRECT","","html-keyboard-response","231","875023","0.0-16.0-2.0-0.0","62996","List2A","white","man","","","","null","","","","","","","","",""
"2784","<img src=""portrait/BM2.jpg""style=""height:400px;""></img>","5","html-button-response","232","877810","0.0-16.0-4.0","62996","List2A","white","man","","true","5","","","","","","","","","",""
"null","CORRECT","","html-keyboard-response","233","879313","0.0-16.0-5.0-0.0","62996","List2A","white","man","","","","null","","","","","","","","",""
"2743.5","<img src=""portrait/WM1.jpg""style=""height:400px;""></img>","6","html-button-response","234","882060","0.0-16.0-7.0","62996","List2A","white","man","","true","6","","","","","","","","","",""
"null","CORRECT","","html-keyboard-response","235","883563","0.0-16.0-8.0-0.0","62996","List2A","white","man","","","","null","","","","","","","","",""
"2583.199999999255","<img src=""portrait/BW1.jpg""style=""height:400px;""></img>","0","html-button-response","236","886149","0.0-16.0-10.0","62996","List2A","white","man","","true","0","","","","","","","","","",""
"null","CORRECT","","html-keyboard-response","237","887653","0.0-16.0-11.0-0.0","62996","List2A","white","man","","","","null","","","","","","","","",""
"1945.6000000014901","<img src=""portrait/WW2.jpg""style=""height:400px;""></img>","3","html-button-response","238","889602","0.0-16.0-13.0","62996","List2A","white","man","","true","3","","","","","","","","","",""
"null","CORRECT","","html-keyboard-response","239","891105","0.0-16.0-14.0-0.0","62996","List2A","white","man","","","","null","","","","","","","","",""
"4210.70000000298","<img src=""portrait/BW2.jpg""style=""height:400px;""></img>","2","html-button-response","240","895319","0.0-16.0-16.0","62996","List2A","white","man","","true","2","","","","","","","","","",""
"null","CORRECT","","html-keyboard-response","241","896823","0.0-16.0-17.0-0.0","62996","List2A","white","man","","","","null","","","","","","","","",""
"2551.7999999970198","<img src=""portrait/WM2.jpg""style=""height:400px;""></img>","7","html-button-response","242","899379","0.0-16.0-19.0","62996","List2A","white","man","","true","7","","","","","","","","","",""
"null","CORRECT","","html-keyboard-response","243","900882","0.0-16.0-20.0-0.0","62996","List2A","white","man","","","","null","","","","","","","","",""
"2523.7000000029802","<img src=""portrait/BM1.jpg""style=""height:400px;""></img>","4","html-button-response","244","903409","0.0-16.0-22.0","62996","List2A","white","man","","true","4","","","","","","","","","",""
"null","CORRECT","","html-keyboard-response","245","904912","0.0-16.0-23.0-0.0","62996","List2A","white","man","","","","null","","","","","","","","",""
"1620.4000000022352","<p>You got 8 out of 8 right first time. Press Continue.</p>","0","html-button-response","246","906536","0.0-16.0-25.0","62996","List2A","white","man","","","","","","","","","","","","",""
"null","<div style=""font-size:60px;"">+</div>","","html-keyboard-response","247","908040","0.0-17.0-0.0","62996","List2A","white","man","","","","null","","","","","","","","",""
"null","<img src=""stim_listA/touch2.gif""style=""height:400px;""></stim_listA>","","html-keyboard-response","248","910043","0.0-17.0-1.0","62996","List2A","white","man","","","","null","","","","","","","","",""
"null","is being touched by","","html-keyboard-response","249","912046","0.0-17.0-2.0","62996","List2A","white","man","","","","null","","","","","","","","",""
"5397.5","","","survey-text","250","917449","0.0-17.0-3.0","62996","List2A","white","man","","","","","{""Q0"":""luke is being touched by ruth""}","<img src=""stim_listA/touch2.gif""style=""height:400px;""></stim_listA>","is being touched by","","","","","",""
"null","<div style=""font-size:60px;"">+</div>","","html-keyboard-response","251","917953","0.0-17.0-0.1","62996","List2A","white","man","","","","null","","","","","","","","",""
"null","<img src=""stim_listA/seduce1.gif""style=""height:400px;""></stim_listA>","","html-keyboard-response","252","919957","0.0-17.0-1.1","62996","List2A","white","man","","","","null","","","","","","","","",""
"null","is seducing","","html-keyboard-response","253","921959","0.0-17.0-2.1","62996","List2A","white","man","","","","null","","","","","","","","",""
"7776.10000000149","","","survey-text","254","929740","0.0-17.0-3.1","62996","List2A","white","man","","","","","{""Q0"":""luke is seducing jane""}","<img src=""stim_listA/seduce1.gif""style=""height:400px;""></stim_listA>","is seducing","","","","","",""
"null","<div style=""font-size:60px;"">+</div>","","html-keyboard-response","255","930243","0.0-17.0-0.2","62996","List2A","white","man","","","","null","","","","","","","","",""
"null","<img src=""stim_listA/greet2.gif""style=""height:400px;""></stim_listA>","","html-keyboard-response","256","932247","0.0-17.0-1.2","62996","List2A","white","man","","","","null","","","","","","","","",""
"null","is being greeted by","","html-keyboard-response","257","934250","0.0-17.0-2.2","62996","List2A","white","man","","","","null","","","","","","","","",""
"7768.10000000149","","","survey-text","258","942024","0.0-17.0-3.2","62996","List2A","white","man","","","","","{""Q0"":""luke is being greeted by jane""}","<img src=""stim_listA/greet2.gif""style=""height:400px;""></stim_listA>","is being greeted by","","","","","",""
"null","<div style=""font-size:60px;"">+</div>","","html-keyboard-response","259","942530","0.0-17.0-0.3","62996","List2A","white","man","","","","null","","","","","","","","",""
"null","<img src=""stim_listA/touch3.gif""style=""height:400px;""></stim_listA>","","html-keyboard-response","260","944533","0.0-17.0-1.3","62996","List2A","white","man","","","","null","","","","","","","","",""
"null","is touching","","html-keyboard-response","261","946535","0.0-17.0-2.3","62996","List2A","white","man","","","","null","","","","","","","","",""
"4339.89999999851","","","survey-text","262","950880","0.0-17.0-3.3","62996","List2A","white","man","","","","","{""Q0"":""fred is touching kate""}","<img src=""stim_listA/touch3.gif""style=""height:400px;""></stim_listA>","is touching","","","","","",""
"null","<div style=""font-size:60px;"">+</div>","","html-keyboard-response","263","951382","0.0-17.0-0.4","62996","List2A","white","man","","","","null","","","","","","","","",""
"null","<img src=""stim_listA/touch4.gif""style=""height:400px;""></stim_listA>","","html-keyboard-response","264","953385","0.0-17.0-1.4","62996","List2A","white","man","","","","null","","","","","","","","",""
"null","is being touched by","","html-keyboard-response","265","955386","0.0-17.0-2.4","62996","List2A","white","man","","","","null","","","","","","","","",""
"12331.300000000745","","","survey-text","266","967722","0.0-17.0-3.4","62996","List2A","white","man","","","","","{""Q0"":""fred is being touched by beth""}","<img src=""stim_listA/touch4.gif""style=""height:400px;""></stim_listA>","is being touched by","","","","","",""
"null","<div style=""font-size:60px;"">+</div>","","html-keyboard-response","267","968224","0.0-17.0-0.5","62996","List2A","white","man","","","","null","","","","","","","","",""
"null","<img src=""stim_listA/copy7.gif""style=""height:400px;""></stim_listA>","","html-keyboard-response","268","970227","0.0-17.0-1.5","62996","List2A","white","man","","","","null","","","","","","","","",""
"null","is copying","","html-keyboard-response","269","972229","0.0-17.0-2.5","62996","List2A","white","man","","","","null","","","","","","","","",""
"4045.89999999851","","","survey-text","270","976279","0.0-17.0-3.5","62996","List2A","white","man","","","","","{""Q0"":""jane is copying beth""}","<img src=""stim_listA/copy7.gif""style=""height:400px;""></stim_listA>","is copying","","","","","",""
"null","<div style=""font-size:60px;"">+</div>","","html-keyboard-response","271","976782","0.0-17.0-0.6","62996","List2A","white","man","","","","null","","","","","","","","",""
"null","<img src=""stim_listA/look6.gif""style=""height:400px;""></stim_listA>","","html-keyboard-response","272","978785","0.0-17.0-1.6","62996","List2A","white","man","","","","null","","","","","","","","",""
"null","is being looked at by","","html-keyboard-response","273","980787","0.0-17.0-2.6","62996","List2A","white","man","","","","null","","","","","","","","",""
"10146","","","survey-text","274","990937","0.0-17.0-3.6","62996","List2A","white","man","","","","","{""Q0"":""mike is being looked at by dave""}","<img src=""stim_listA/look6.gif""style=""height:400px;""></stim_listA>","is being looked at by","","","","","",""
"null","<div style=""font-size:60px;"">+</div>","","html-keyboard-response","275","991440","0.0-17.0-0.7","62996","List2A","white","man","","","","null","","","","","","","","",""
"null","<img src=""stim_listA/oppose1.gif""style=""height:400px;""></stim_listA>","","html-keyboard-response","276","993443","0.0-17.0-1.7","62996","List2A","white","man","","","","null","","","","","","","","",""
"null","is opposing","","html-keyboard-response","277","995445","0.0-17.0-2.7","62996","List2A","white","man","","","","null","","","","","","","","",""
"6178.699999999255","","","survey-text","278","1001630","0.0-17.0-3.7","62996","List2A","white","man","","","","","{""Q0"":""jane is opposing dave""}","<img src=""stim_listA/oppose1.gif""style=""height:400px;""></stim_listA>","is opposing","","","","","",""
"null","<div style=""font-size:60px;"">+</div>","","html-keyboard-response","279","1002132","0.0-17.0-0.8","62996","List2A","white","man","","","","null","","","","","","","","",""
"null","<img src=""stim_listA/seduce7.gif""style=""height:400px;""></stim_listA>","","html-keyboard-response","280","1004135","0.0-17.0-1.8","62996","List2A","white","man","","","","null","","","","","","","","",""
"null","is seducing","","html-keyboard-response","281","1006137","0.0-17.0-2.8","62996","List2A","white","man","","","","null","","","","","","","","",""
"8081.300000000745","","","survey-text","282","1014222","0.0-17.0-3.8","62996","List2A","white","man","","","","","{""Q0"":""kate is seducing ruth""}","<img src=""stim_listA/seduce7.gif""style=""height:400px;""></stim_listA>","is seducing","","","","","",""
"null","<div style=""font-size:60px;"">+</div>","","html-keyboard-response","283","1014725","0.0-17.0-0.9","62996","List2A","white","man","","","","null","","","","","","","","",""
"null","<img src=""stim_listA/look7.gif""style=""height:400px;""></stim_listA>","","html-keyboard-response","284","1016728","0.0-17.0-1.9","62996","List2A","white","man","","","","null","","","","","","","","",""
"null","is looking at","","html-keyboard-response","285","1018730","0.0-17.0-2.9","62996","List2A","white","man","","","","null","","","","","","","","",""
"7204.199999999255","","","survey-text","286","1025940","0.0-17.0-3.9","62996","List2A","white","man","","","","","{""Q0"":""beth is looking at ruth""}","<img src=""stim_listA/look7.gif""style=""height:400px;""></stim_listA>","is looking at","","","","","",""
"null","<div style=""font-size:60px;"">+</div>","","html-keyboard-response","287","1026443","0.0-17.0-0.10","62996","List2A","white","man","","","","null","","","","","","","","",""
"null","<img src=""stim_listA/kiss5.gif""style=""height:400px;""></stim_listA>","","html-keyboard-response","288","1028446","0.0-17.0-1.10","62996","List2A","white","man","","","","null","","","","","","","","",""
"null","is kissing","","html-keyboard-response","289","1030447","0.0-17.0-2.10","62996","List2A","white","man","","","","null","","","","","","","","",""
"5898.800000000745","","","survey-text","290","1036351","0.0-17.0-3.10","62996","List2A","white","man","","","","","{""Q0"":""luke is kissing fred""}","<img src=""stim_listA/kiss5.gif""style=""height:400px;""></stim_listA>","is kissing","","","","","",""
"null","<div style=""font-size:60px;"">+</div>","","html-keyboard-response","291","1036853","0.0-17.0-0.11","62996","List2A","white","man","","","","null","","","","","","","","",""
"null","<img src=""stim_listA/hug1.gif""style=""height:400px;""></stim_listA>","","html-keyboard-response","292","1038858","0.0-17.0-1.11","62996","List2A","white","man","","","","null","","","","","","","","",""
"null","is hugging","","html-keyboard-response","293","1040860","0.0-17.0-2.11","62996","List2A","white","man","","","","null","","","","","","","","",""
"5594.400000002235","","","survey-text","294","1046460","0.0-17.0-3.11","62996","List2A","white","man","","","","","{""Q0"":""luke is hugging beth""}","<img src=""stim_listA/hug1.gif""style=""height:400px;""></stim_listA>","is hugging","","","","","",""
"null","<div style=""font-size:60px;"">+</div>","","html-keyboard-response","295","1046963","0.0-17.0-0.12","62996","List2A","white","man","","","","null","","","","","","","","",""
"null","<img src=""stim_listA/hug5.gif""style=""height:400px;""></stim_listA>","","html-keyboard-response","296","1048967","0.0-17.0-1.12","62996","List2A","white","man","","","","null","","","","","","","","",""
"null","is hugging","","html-keyboard-response","297","1050969","0.0-17.0-2.12","62996","List2A","white","man","","","","null","","","","","","","","",""
"4223","","","survey-text","298","1055198","0.0-17.0-3.12","62996","List2A","white","man","","","","","{""Q0"":""luke is hugging fred""}","<img src=""stim_listA/hug5.gif""style=""height:400px;""></stim_listA>","is hugging","","","","","",""
"null","<div style=""font-size:60px;"">+</div>","","html-keyboard-response","299","1055700","0.0-17.0-0.13","62996","List2A","white","man","","","","null","","","","","","","","",""
"null","<img src=""stim_listA/challenge1.gif""style=""height:400px;""></stim_listA>","","html-keyboard-response","300","1057703","0.0-17.0-1.13","62996","List2A","white","man","","","","null","","","","","","","","",""
"null","is challenging","","html-keyboard-response","301","1059705","0.0-17.0-2.13","62996","List2A","white","man","","","","null","","","","","","","","",""
"8083.599999997765","","","survey-text","302","1067798","0.0-17.0-3.13","62996","List2A","white","man","","","","","{""Q0"":""dave is challenging ruth""}","<img src=""stim_listA/challenge1.gif""style=""height:400px;""></stim_listA>","is challenging","","","","","",""
"null","<div style=""font-size:60px;"">+</div>","","html-keyboard-response","303","1068301","0.0-17.0-0.14","62996","List2A","white","man","","","","null","","","","","","","","",""
"null","<img src=""stim_listA/oppose4.gif""style=""height:400px;""></stim_listA>","","html-keyboard-response","304","1070305","0.0-17.0-1.14","62996","List2A","white","man","","","","null","","","","","","","","",""
"null","is being opposed by","","html-keyboard-response","305","1072307","0.0-17.0-2.14","62996","List2A","white","man","","","","null","","","","","","","","",""
"9284.199999999255","","","survey-text","306","1081596","0.0-17.0-3.14","62996","List2A","white","man","","","","","{""Q0"":""beth is being opposed by fred""}","<img src=""stim_listA/oppose4.gif""style=""height:400px;""></stim_listA>","is being opposed by","","","","","",""
"null","<div style=""font-size:60px;"">+</div>","","html-keyboard-response","307","1082098","0.0-17.0-0.15","62996","List2A","white","man","","","","null","","","","","","","","",""
"null","<img src=""stim_listA/kiss1.gif""style=""height:400px;""></stim_listA>","","html-keyboard-response","308","1084102","0.0-17.0-1.15","62996","List2A","white","man","","","","null","","","","","","","","",""
"null","is kissing","","html-keyboard-response","309","1086103","0.0-17.0-2.15","62996","List2A","white","man","","","","null","","","","","","","","",""
"6082.199999999255","","","survey-text","310","1092192","0.0-17.0-3.15","62996","List2A","white","man","","","","","{""Q0"":""luke is kissing ruth""}","<img src=""stim_listA/kiss1.gif""style=""height:400px;""></stim_listA>","is kissing","","","","","",""
"null","<div style=""font-size:60px;"">+</div>","","html-keyboard-response","311","1092696","0.0-17.0-0.16","62996","List2A","white","man","","","","null","","","","","","","","",""
"null","<img src=""stim_listA/shout1.gif""style=""height:400px;""></stim_listA>","","html-keyboard-response","312","1094700","0.0-17.0-1.16","62996","List2A","white","man","","","","null","","","","","","","","",""
"null","is shouting at","","html-keyboard-response","313","1096702","0.0-17.0-2.16","62996","List2A","white","man","","","","null","","","","","","","","",""
"5224","","","survey-text","314","1101933","0.0-17.0-3.16","62996","List2A","white","man","","","","","{""Q0"":""luke is shouting at ruth""}","<img src=""stim_listA/shout1.gif""style=""height:400px;""></stim_listA>","is shouting at","","","","","",""
"null","<div style=""font-size:60px;"">+</div>","","html-keyboard-response","315","1102437","0.0-17.0-0.17","62996","List2A","white","man","","","","null","","","","","","","","",""
"null","<img src=""stim_listA/copy6.gif""style=""height:400px;""></stim_listA>","","html-keyboard-response","316","1104442","0.0-17.0-1.17","62996","List2A","white","man","","","","null","","","","","","","","",""
"null","is being copied by","","html-keyboard-response","317","1106444","0.0-17.0-2.17","62996","List2A","white","man","","","","null","","","","","","","","",""
"9493.900000002235","","","survey-text","318","1115942","0.0-17.0-3.17","62996","List2A","white","man","","","","","{""Q0"":""mike is being copied by luke""}","<img src=""stim_listA/copy6.gif""style=""height:400px;""></stim_listA>","is being copied by","","","","","",""
"null","<div style=""font-size:60px;"">+</div>","","html-keyboard-response","319","1116445","0.0-17.0-0.18","62996","List2A","white","man","","","","null","","","","","","","","",""
"null","<img src=""stim_listA/challenge6.gif""style=""height:400px;""></stim_listA>","","html-keyboard-response","320","1118451","0.0-17.0-1.18","62996","List2A","white","man","","","","null","","","","","","","","",""
"null","is being challenged by","","html-keyboard-response","321","1120453","0.0-17.0-2.18","62996","List2A","white","man","","","","null","","","","","","","","",""
"10780.39999999851","","","survey-text","322","1131242","0.0-17.0-3.18","62996","List2A","white","man","","","","","{""Q0"":""mike is being challenged by luke""}","<img src=""stim_listA/challenge6.gif""style=""height:400px;""></stim_listA>","is being challenged by","","","","","",""
"null","<div style=""font-size:60px;"">+</div>","","html-keyboard-response","323","1131745","0.0-17.0-0.19","62996","List2A","white","man","","","","null","","","","","","","","",""
"null","<img src=""stim_listA/kiss2.gif""style=""height:400px;""></stim_listA>","","html-keyboard-response","324","1133749","0.0-17.0-1.19","62996","List2A","white","man","","","","null","","","","","","","","",""
"null","is being kissed by","","html-keyboard-response","325","1135751","0.0-17.0-2.19","62996","List2A","white","man","","","","null","","","","","","","","",""
"6947","","","survey-text","326","1142703","0.0-17.0-3.19","62996","List2A","white","man","","","","","{""Q0"":""jane is being kissed by dave""}","<img src=""stim_listA/kiss2.gif""style=""height:400px;""></stim_listA>","is being kissed by","","","","","",""
"2024.6000000014901","<img src='img/portrait_matrix_list2.jpg' style='width:900px;height:500px;''></img><p>If you have memorised all the portraits and names and are ready to start, press Continue.</p><p><strong>Please note: Your memory of these faces will be tested 4 times during this experiment.</strong></p>","0","html-button-response","327","1144732","0.0-18.0-0.0","62996","List2A","white","man","","","","","","","","","","","","",""
"5327.300000000745","<img src=""portrait/BW1.jpg""style=""height:400px;""></img>","0","html-button-response","328","1151065","0.0-18.0-1.0","62996","List2A","white","man","","true","0","","","","","","","","","",""
"null","CORRECT","","html-keyboard-response","329","1152568","0.0-18.0-2.0-0.0","62996","List2A","white","man","","","","null","","","","","","","","",""
"2031.800000000745","<img src=""portrait/WW1.jpg""style=""height:400px;""></img>","1","html-button-response","330","1154603","0.0-18.0-4.0","62996","List2A","white","man","","true","1","","","","","","","","","",""
"null","CORRECT","","html-keyboard-response","331","1156107","0.0-18.0-5.0-0.0","62996","List2A","white","man","","","","null","","","","","","","","",""
"2645.800000000745","<img src=""portrait/BW2.jpg""style=""height:400px;""></img>","2","html-button-response","332","1158756","0.0-18.0-7.0","62996","List2A","white","man","","true","2","","","","","","","","","",""
"null","CORRECT","","html-keyboard-response","333","1160259","0.0-18.0-8.0-0.0","62996","List2A","white","man","","","","null","","","","","","","","",""
"1825.199999999255","<img src=""portrait/WW2.jpg""style=""height:400px;""></img>","3","html-button-response","334","1162088","0.0-18.0-10.0","62996","List2A","white","man","","true","3","","","","","","","","","",""
"null","CORRECT","","html-keyboard-response","335","1163591","0.0-18.0-11.0-0.0","62996","List2A","white","man","","","","null","","","","","","","","",""
"2565.099999997765","<img src=""portrait/BM2.jpg""style=""height:400px;""></img>","5","html-button-response","336","1166160","0.0-18.0-13.0","62996","List2A","white","man","","true","5","","","","","","","","","",""
"null","CORRECT","","html-keyboard-response","337","1167663","0.0-18.0-14.0-0.0","62996","List2A","white","man","","","","null","","","","","","","","",""
"2776.300000000745","<img src=""portrait/WM1.jpg""style=""height:400px;""></img>","6","html-button-response","338","1170444","0.0-18.0-16.0","62996","List2A","white","man","","true","6","","","","","","","","","",""
"null","CORRECT","","html-keyboard-response","339","1171948","0.0-18.0-17.0-0.0","62996","List2A","white","man","","","","null","","","","","","","","",""
"3167.89999999851","<img src=""portrait/WM2.jpg""style=""height:400px;""></img>","7","html-button-response","340","1175120","0.0-18.0-19.0","62996","List2A","white","man","","true","7","","","","","","","","","",""
"null","CORRECT","","html-keyboard-response","341","1176623","0.0-18.0-20.0-0.0","62996","List2A","white","man","","","","null","","","","","","","","",""
"1784.3999999985099","<img src=""portrait/BM1.jpg""style=""height:400px;""></img>","4","html-button-response","342","1178411","0.0-18.0-22.0","62996","List2A","white","man","","true","4","","","","","","","","","",""
"null","CORRECT","","html-keyboard-response","343","1179914","0.0-18.0-23.0-0.0","62996","List2A","white","man","","","","null","","","","","","","","",""
"1086.2000000029802","<p>You got 8 out of 8 right first time. Press Continue.</p>","0","html-button-response","344","1181004","0.0-18.0-25.0","62996","List2A","white","man","","","","","","","","","","","","",""
"null","<div style=""font-size:60px;"">+</div>","","html-keyboard-response","345","1182508","0.0-19.0-0.0","62996","List2A","white","man","","","","null","","","","","","","","",""
"null","<img src=""stim_listA/oppose5.gif""style=""height:400px;""></stim_listA>","","html-keyboard-response","346","1184512","0.0-19.0-1.0","62996","List2A","white","man","","","","null","","","","","","","","",""
"null","is opposing","","html-keyboard-response","347","1186513","0.0-19.0-2.0","62996","List2A","white","man","","","","null","","","","","","","","",""
"6250.900000002235","","","survey-text","348","1192771","0.0-19.0-3.0","62996","List2A","white","man","","","","","{""Q0"":""dave is opposing mike""}","<img src=""stim_listA/oppose5.gif""style=""height:400px;""></stim_listA>","is opposing","","","","","",""
"null","<div style=""font-size:60px;"">+</div>","","html-keyboard-response","349","1193275","0.0-19.0-0.1","62996","List2A","white","man","","","","null","","","","","","","","",""
"null","<img src=""stim_listA/shout6.gif""style=""height:400px;""></stim_listA>","","html-keyboard-response","350","1195279","0.0-19.0-1.1","62996","List2A","white","man","","","","null","","","","","","","","",""
"null","is being shouted at by","","html-keyboard-response","351","1197281","0.0-19.0-2.1","62996","List2A","white","man","","","","null","","","","","","","","",""
"7049.10000000149","","","survey-text","352","1204335","0.0-19.0-3.1","62996","List2A","white","man","","","","","{""Q0"":""dave is being shouted at by mike""}","<img src=""stim_listA/shout6.gif""style=""height:400px;""></stim_listA>","is being shouted at by","","","","","",""
"null","<div style=""font-size:60px;"">+</div>","","html-keyboard-response","353","1204838","0.0-19.0-0.2","62996","List2A","white","man","","","","null","","","","","","","","",""
"null","<img src=""stim_listA/kiss4.gif""style=""height:400px;""></stim_listA>","","html-keyboard-response","354","1206842","0.0-19.0-1.2","62996","List2A","white","man","","","","null","","","","","","","","",""
"null","is being kissed by","","html-keyboard-response","355","1208845","0.0-19.0-2.2","62996","List2A","white","man","","","","null","","","","","","","","",""
"4117.800000000745","","","survey-text","356","1212969","0.0-19.0-3.2","62996","List2A","white","man","","","","","{""Q0"":""mike is being kissed by kate""}","<img src=""stim_listA/kiss4.gif""style=""height:400px;""></stim_listA>","is being kissed by","","","","","",""
"null","<div style=""font-size:60px;"">+</div>","","html-keyboard-response","357","1213472","0.0-19.0-0.3","62996","List2A","white","man","","","","null","","","","","","","","",""
"null","<img src=""stim_listA/look2.gif""style=""height:400px;""></stim_listA>","","html-keyboard-response","358","1215476","0.0-19.0-1.3","62996","List2A","white","man","","","","null","","","","","","","","",""
"null","is being looked at by","","html-keyboard-response","359","1217478","0.0-19.0-2.3","62996","List2A","white","man","","","","null","","","","","","","","",""
"7832","","","survey-text","360","1225315","0.0-19.0-3.3","62996","List2A","white","man","","","","","{""Q0"":""dave is being looked at by jane""}","<img src=""stim_listA/look2.gif""style=""height:400px;""></stim_listA>","is being looked at by","","","","","",""
"null","<div style=""font-size:60px;"">+</div>","","html-keyboard-response","361","1225817","0.0-19.0-0.4","62996","List2A","white","man","","","","null","","","","","","","","",""
"null","<img src=""stim_listA/challenge3.gif""style=""height:400px;""></stim_listA>","","html-keyboard-response","362","1227821","0.0-19.0-1.4","62996","List2A","white","man","","","","null","","","","","","","","",""
"null","is challenging","","html-keyboard-response","363","1229823","0.0-19.0-2.4","62996","List2A","white","man","","","","null","","","","","","","","",""
"8348.60000000149","","","survey-text","364","1238177","0.0-19.0-3.4","62996","List2A","white","man","","","","","{""Q0"":""fred is challenging ruth""}","<img src=""stim_listA/challenge3.gif""style=""height:400px;""></stim_listA>","is challenging","","","","","",""
"null","<div style=""font-size:60px;"">+</div>","","html-keyboard-response","365","1238679","0.0-19.0-0.5","62996","List2A","white","man","","","","null","","","","","","","","",""
"null","<img src=""stim_listA/hug2.gif""style=""height:400px;""></stim_listA>","","html-keyboard-response","366","1240682","0.0-19.0-1.5","62996","List2A","white","man","","","","null","","","","","","","","",""
"null","is being hugged by","","html-keyboard-response","367","1242684","0.0-19.0-2.5","62996","List2A","white","man","","","","null","","","","","","","","",""
"7474.199999999255","","","survey-text","368","1250162","0.0-19.0-3.5","62996","List2A","white","man","","","","","{""Q0"":""dave is being hugged by jane""}","<img src=""stim_listA/hug2.gif""style=""height:400px;""></stim_listA>","is being hugged by","","","","","",""
"null","<div style=""font-size:60px;"">+</div>","","html-keyboard-response","369","1250665","0.0-19.0-0.6","62996","List2A","white","man","","","","null","","","","","","","","",""
"null","<img src=""stim_listA/touch5.gif""style=""height:400px;""></stim_listA>","","html-keyboard-response","370","1252668","0.0-19.0-1.6","62996","List2A","white","man","","","","null","","","","","","","","",""
"null","is touching","","html-keyboard-response","371","1254670","0.0-19.0-2.6","62996","List2A","white","man","","","","null","","","","","","","","",""
"5583.89999999851","","","survey-text","372","1260259","0.0-19.0-3.6","62996","List2A","white","man","","","","","{""Q0"":""mike is touching dave""}","<img src=""stim_listA/touch5.gif""style=""height:400px;""></stim_listA>","is touching","","","","","",""
"null","<div style=""font-size:60px;"">+</div>","","html-keyboard-response","373","1260762","0.0-19.0-0.7","62996","List2A","white","man","","","","null","","","","","","","","",""
"null","<img src=""stim_listA/oppose3.gif""style=""height:400px;""></stim_listA>","","html-keyboard-response","374","1262765","0.0-19.0-1.7","62996","List2A","white","man","","","","null","","","","","","","","",""
"null","is opposing","","html-keyboard-response","375","1264766","0.0-19.0-2.7","62996","List2A","white","man","","","","null","","","","","","","","",""
"3959.400000002235","","","survey-text","376","1268731","0.0-19.0-3.7","62996","List2A","white","man","","","","","{""Q0"":""mike is opposing kate""}","<img src=""stim_listA/oppose3.gif""style=""height:400px;""></stim_listA>","is opposing","","","","","",""
"null","<div style=""font-size:60px;"">+</div>","","html-keyboard-response","377","1269234","0.0-19.0-0.8","62996","List2A","white","man","","","","null","","","","","","","","",""
"null","<img src=""stim_listA/look3.gif""style=""height:400px;""></stim_listA>","","html-keyboard-response","378","1271237","0.0-19.0-1.8","62996","List2A","white","man","","","","null","","","","","","","","",""
"null","is looking at","","html-keyboard-response","379","1273239","0.0-19.0-2.8","62996","List2A","white","man","","","","null","","","","","","","","",""
"6150.89999999851","","","survey-text","380","1279395","0.0-19.0-3.8","62996","List2A","white","man","","","","","{""Q0"":""beth is looking at fred""}","<img src=""stim_listA/look3.gif""style=""height:400px;""></stim_listA>","is looking at","","","","","",""
"null","<div style=""font-size:60px;"">+</div>","","html-keyboard-response","381","1279899","0.0-19.0-0.9","62996","List2A","white","man","","","","null","","","","","","","","",""
"null","<img src=""stim_listA/greet7.gif""style=""height:400px;""></stim_listA>","","html-keyboard-response","382","1281902","0.0-19.0-1.9","62996","List2A","white","man","","","","null","","","","","","","","",""
"null","is greeting","","html-keyboard-response","383","1283904","0.0-19.0-2.9","62996","List2A","white","man","","","","null","","","","","","","","",""
"4265.199999999255","","","survey-text","384","1288176","0.0-19.0-3.9","62996","List2A","white","man","","","","","{""Q0"":""jane is greeting beth""}","<img src=""stim_listA/greet7.gif""style=""height:400px;""></stim_listA>","is greeting","","","","","",""
"null","<div style=""font-size:60px;"">+</div>","","html-keyboard-response","385","1288679","0.0-19.0-0.10","62996","List2A","white","man","","","","null","","","","","","","","",""
"null","<img src=""stim_listA/touch6.gif""style=""height:400px;""></stim_listA>","","html-keyboard-response","386","1290681","0.0-19.0-1.10","62996","List2A","white","man","","","","null","","","","","","","","",""
"null","is being touched by","","html-keyboard-response","387","1292692","0.0-19.0-2.10","62996","List2A","white","man","","","","null","","","","","","","","",""
"4112.39999999851","","","survey-text","388","1296810","0.0-19.0-3.10","62996","List2A","white","man","","","","","{""Q0"":""luke is being touched by fred""}","<img src=""stim_listA/touch6.gif""style=""height:400px;""></stim_listA>","is being touched by","","","","","",""
"null","<div style=""font-size:60px;"">+</div>","","html-keyboard-response","389","1297313","0.0-19.0-0.11","62996","List2A","white","man","","","","null","","","","","","","","",""
"null","<img src=""stim_listA/seduce4.gif""style=""height:400px;""></stim_listA>","","html-keyboard-response","390","1299316","0.0-19.0-1.11","62996","List2A","white","man","","","","null","","","","","","","","",""
"null","is being seduced by","","html-keyboard-response","391","1301319","0.0-19.0-2.11","62996","List2A","white","man","","","","null","","","","","","","","",""
"5133.5","","","survey-text","392","1306458","0.0-19.0-3.11","62996","List2A","white","man","","","","","{""Q0"":""mike is being seduced by beth""}","<img src=""stim_listA/seduce4.gif""style=""height:400px;""></stim_listA>","is being seduced by","","","","","",""
"null","<div style=""font-size:60px;"">+</div>","","html-keyboard-response","393","1306961","0.0-19.0-0.12","62996","List2A","white","man","","","","null","","","","","","","","",""
"null","<img src=""stim_listA/hug7.gif""style=""height:400px;""></stim_listA>","","html-keyboard-response","394","1308964","0.0-19.0-1.12","62996","List2A","white","man","","","","null","","","","","","","","",""
"null","is hugging","","html-keyboard-response","395","1310966","0.0-19.0-2.12","62996","List2A","white","man","","","","null","","","","","","","","",""
"2975.2000000029802","","","survey-text","396","1313948","0.0-19.0-3.12","62996","List2A","white","man","","","","","{""Q0"":""ruth is hugging beth""}","<img src=""stim_listA/hug7.gif""style=""height:400px;""></stim_listA>","is hugging","","","","","",""
"null","<div style=""font-size:60px;"">+</div>","","html-keyboard-response","397","1314452","0.0-19.0-0.13","62996","List2A","white","man","","","","null","","","","","","","","",""
"null","<img src=""stim_listA/look5.gif""style=""height:400px;""></stim_listA>","","html-keyboard-response","398","1316454","0.0-19.0-1.13","62996","List2A","white","man","","","","null","","","","","","","","",""
"null","is looking at","","html-keyboard-response","399","1318456","0.0-19.0-2.13","62996","List2A","white","man","","","","null","","","","","","","","",""
"3593.5","","","survey-text","400","1322056","0.0-19.0-3.13","62996","List2A","white","man","","","","","{""Q0"":""luke is looking at fred""}","<img src=""stim_listA/look5.gif""style=""height:400px;""></stim_listA>","is looking at","","","","","",""
"null","<div style=""font-size:60px;"">+</div>","","html-keyboard-response","401","1322561","0.0-19.0-0.14","62996","List2A","white","man","","","","null","","","","","","","","",""
"null","<img src=""stim_listA/oppose6.gif""style=""height:400px;""></stim_listA>","","html-keyboard-response","402","1324564","0.0-19.0-1.14","62996","List2A","white","man","","","","null","","","","","","","","",""
"null","is being opposed by","","html-keyboard-response","403","1326566","0.0-19.0-2.14","62996","List2A","white","man","","","","null","","","","","","","","",""
"5356","","","survey-text","404","1331928","0.0-19.0-3.14","62996","List2A","white","man","","","","","{""Q0"":""luke is being opposed by fred""}","<img src=""stim_listA/oppose6.gif""style=""height:400px;""></stim_listA>","is being opposed by","","","","","",""
"null","<div style=""font-size:60px;"">+</div>","","html-keyboard-response","405","1332431","0.0-19.0-0.15","62996","List2A","white","man","","","","null","","","","","","","","",""
"null","<img src=""stim_listA/shout5.gif""style=""height:400px;""></stim_listA>","","html-keyboard-response","406","1334434","0.0-19.0-1.15","62996","List2A","white","man","","","","null","","","","","","","","",""
"null","is shouting at","","html-keyboard-response","407","1336436","0.0-19.0-2.15","62996","List2A","white","man","","","","null","","","","","","","","",""
"4522.900000002235","","","survey-text","408","1340964","0.0-19.0-3.15","62996","List2A","white","man","","","","","{""Q0"":""luke is shouting at fred""}","<img src=""stim_listA/shout5.gif""style=""height:400px;""></stim_listA>","is shouting at","","","","","",""
"null","<div style=""font-size:60px;"">+</div>","","html-keyboard-response","409","1341469","0.0-19.0-0.16","62996","List2A","white","man","","","","null","","","","","","","","",""
"null","<img src=""stim_listA/challenge4.gif""style=""height:400px;""></stim_listA>","","html-keyboard-response","410","1343472","0.0-19.0-1.16","62996","List2A","white","man","","","","null","","","","","","","","",""
"null","is being challenged by","","html-keyboard-response","411","1345474","0.0-19.0-2.16","62996","List2A","white","man","","","","null","","","","","","","","",""
"6026","","","survey-text","412","1351506","0.0-19.0-3.16","62996","List2A","white","man","","","","","{""Q0"":""kate is being challenged by fred""}","<img src=""stim_listA/challenge4.gif""style=""height:400px;""></stim_listA>","is being challenged by","","","","","",""
"null","<div style=""font-size:60px;"">+</div>","","html-keyboard-response","413","1352009","0.0-19.0-0.17","62996","List2A","white","man","","","","null","","","","","","","","",""
"null","<img src=""stim_listA/challenge8.gif""style=""height:400px;""></stim_listA>","","html-keyboard-response","414","1354013","0.0-19.0-1.17","62996","List2A","white","man","","","","null","","","","","","","","",""
"null","is being challenged by","","html-keyboard-response","415","1356015","0.0-19.0-2.17","62996","List2A","white","man","","","","null","","","","","","","","",""
"5416.39999999851","","","survey-text","416","1361438","0.0-19.0-3.17","62996","List2A","white","man","","","","","{""Q0"":""kate is being challenged by ruth""}","<img src=""stim_listA/challenge8.gif""style=""height:400px;""></stim_listA>","is being challenged by","","","","","",""
"null","<div style=""font-size:60px;"">+</div>","","html-keyboard-response","417","1361941","0.0-19.0-0.18","62996","List2A","white","man","","","","null","","","","","","","","",""
"null","<img src=""stim_listA/shout8.gif""style=""height:400px;""></stim_listA>","","html-keyboard-response","418","1363944","0.0-19.0-1.18","62996","List2A","white","man","","","","null","","","","","","","","",""
"null","is being shouted at by","","html-keyboard-response","419","1365946","0.0-19.0-2.18","62996","List2A","white","man","","","","null","","","","","","","","",""
"4617.79999999702","","","survey-text","420","1370570","0.0-19.0-3.18","62996","List2A","white","man","","","","","{""Q0"":""jane is being shouted at by kate""}","<img src=""stim_listA/shout8.gif""style=""height:400px;""></stim_listA>","is being shouted at by","","","","","",""
"null","<div style=""font-size:60px;"">+</div>","","html-keyboard-response","421","1371073","0.0-19.0-0.19","62996","List2A","white","man","","","","null","","","","","","","","",""
"null","<img src=""stim_listA/copy5.gif""style=""height:400px;""></stim_listA>","","html-keyboard-response","422","1373076","0.0-19.0-1.19","62996","List2A","white","man","","","","null","","","","","","","","",""
"null","is copying","","html-keyboard-response","423","1375078","0.0-19.0-2.19","62996","List2A","white","man","","","","null","","","","","","","","",""
"4684","","","survey-text","424","1379767","0.0-19.0-3.19","62996","List2A","white","man","","","","","{""Q0"":""dave is copying fred""}","<img src=""stim_listA/copy5.gif""style=""height:400px;""></stim_listA>","is copying","","","","","",""
"1773.199999999255","<p>Thank you for completing that task.</p><p>The final part of this session is a questionnaire that will take about 4 minutes.</p><p>Press Continue.</p>","0","html-button-response","425","1381543","0.0-20.0","62996","List2A","white","man","","","","","","","","","","","","",""
"26538.099999997765","","","survey-text","426","1409099","0.0-21.0","62996","List2A","white","man","","","","","{""Q0"":""23"",""Q1"":""english"",""Q2"":""english"",""Q3"":""United States"",""Q4"":""american"",""Q5"":""white"",""Q6"":""male""}","","","demographics","","","","",""
"2154.300000000745","<p>Have you lived in the USA for the last 5 years or more?</p>","0","html-button-response","427","1411263","0.0-22.0","62996","List2A","white","man","","","","","","","","fiveyears","","","","",""
"2710.5","<p>Move the slider to show the extent to which you agree with the following statements.</p>","0","html-button-response","428","1414977","0.0-23.0","62996","List2A","white","man","","","","","","","","","","","","",""
"33767.199999999255","","","html-slider-response","429","1449751","0.0-24.0-0.0-0.0","62996","List2A","white","man","","","","","","","","survey_race","49","","","People my age have a lot in common with each other.","filler"
"15050.10000000149","","","html-slider-response","430","1464808","0.0-24.0-0.0-0.1","62996","List2A","white","man","","","","","","","","survey_race","67","","","People of my race have a lot in common with each other.","common"
"14351.199999999255","","","html-slider-response","431","1479165","0.0-24.0-0.0-0.2","62996","List2A","white","man","","","","","","","","survey_race","32","","","I feel solidarity with my race.","solidarity"
"7544.39999999851","","","html-slider-response","432","1486714","0.0-24.0-0.0-0.3","62996","List2A","white","man","","","","","","","","survey_race","42","","","I am glad to be my race.","glad"
"3807.699999999255","","","html-slider-response","433","1490526","0.0-24.0-0.0-0.4","62996","List2A","white","man","","","","","","","","survey_race","10","","","I think that my race has a lot to be proud of.","proud"
"4205","","","html-slider-response","434","1494736","0.0-24.0-0.0-0.5","62996","List2A","white","man","","","","","","","","survey_race","24","","","Being my race is an important part of how I see myself.","important"
"3504","","","html-slider-response","435","1498246","0.0-24.0-0.0-0.6","62996","List2A","white","man","","","","","","","","survey_race","31","","","Being my race gives me a good feeling.","feeling"
"2901.800000000745","","","html-slider-response","436","1501154","0.0-24.0-0.0-0.7","62996","List2A","white","man","","","","","","","","survey_race","77","","","The older I get, the wiser I feel.","filler"
"4339.29999999702","","","html-slider-response","437","1505497","0.0-24.0-0.0-0.8","62996","List2A","white","man","","","","","","","","survey_race","34","","","My age is not an important part of who I am.","filler"
"3999.10000000149","","","html-slider-response","438","1509502","0.0-24.0-0.0-0.9","62996","List2A","white","man","","","","","","","","survey_race","69","","","Being my age gives me a good feeling.","filler"
"3363","","","html-slider-response","439","1512871","0.0-24.0-0.0-0.10","62996","List2A","white","man","","","","","","","","survey_race","67","","","I have a lot in common with people of a similar age to me.","filler"
"4290.199999999255","","","html-slider-response","440","1517166","0.0-24.0-0.0-0.11","62996","List2A","white","man","","","","","","","","survey_race","27","","","I feel a bond with people the same age as me.","filler"
"3264.89999999851","","","html-slider-response","441","1520437","0.0-24.0-0.0-0.12","62996","List2A","white","man","","","","","","","","survey_race","0","","","I feel a bond with my race.","bond"
"3249.89999999851","","","html-slider-response","442","1523693","0.0-24.0-0.0-0.13","62996","List2A","white","man","","","","","","","","survey_race","0","","","I feel committed to my race.","committed"
"3396.199999999255","","","html-slider-response","443","1527095","0.0-24.0-0.0-0.14","62996","List2A","white","man","","","","","","","","survey_race","78","","","I am glad to be my age.","filler"
"3711","","","html-slider-response","444","1530811","0.0-24.0-0.0-0.15","62996","List2A","white","man","","","","","","","","survey_race","17","","","People of my race are very similar to each other.","verysimilar"
"2942.699999999255","","","html-slider-response","445","1533758","0.0-24.0-0.0-0.16","62996","List2A","white","man","","","","","","","","survey_race","85","","","I am glad to be the age I am.","filler"
"2709.800000000745","","","html-slider-response","446","1536473","0.0-24.0-0.0-0.17","62996","List2A","white","man","","","","","","","","survey_race","0","","","It is pleasant to be my race.","pleasant"
"6046.39999999851","","","html-slider-response","447","1542523","0.0-24.0-0.0-0.18","62996","List2A","white","man","","","","","","","","survey_race","10","","","I have a lot in common with the average person of my race.","average"
"3233.900000002235","","","html-slider-response","448","1545761","0.0-24.0-0.0-0.19","62996","List2A","white","man","","","","","","","","survey_race","9","","","I often think about the fact that I am my race.","often"
"2908.599999997765","","","html-slider-response","449","1548674","0.0-24.0-0.0-0.20","62996","List2A","white","man","","","","","","","","survey_race","19","","","Getting older does not worry me.","filler"
"3017.800000000745","","","html-slider-response","450","1551694","0.0-24.0-0.0-0.21","62996","List2A","white","man","","","","","","","","survey_race","10","","","I am similar to the average person of my race.","similar"
"2910.2000000029802","","","html-slider-response","451","1554609","0.0-24.0-0.0-0.22","62996","List2A","white","man","","","","","","","","survey_race","75","","","I feel solidarity with people the same age as me.","filler"
"3494.10000000149","","","html-slider-response","452","1558107","0.0-24.0-0.0-0.23","62996","List2A","white","man","","","","","","","","survey_race","0","","","I enjoy being in large groups.","filler"
"3028.400000002235","","","html-slider-response","453","1561139","0.0-24.0-0.0-0.24","62996","List2A","white","man","","","","","","","","survey_race","0","","","I often think about the fact that I am my age.","filler"
"2964.2000000029802","","","html-slider-response","454","1564106","0.0-24.0-0.0-0.25","62996","List2A","white","man","","","","","","","","survey_race","100","","","I consider myself an introvert.","filler"
"2834","","","html-slider-response","455","1566944","0.0-24.0-0.0-0.26","62996","List2A","white","man","","","","","","","","survey_race","0","","","The fact that I am my race is an important part of my identity.","identity"
"2573.5","","","html-slider-response","456","1569520","0.0-24.0-0.0-0.27","62996","List2A","white","man","","","","","","","","survey_race","0","","","I consider myself an extrovert.","filler"
"3970.900000002235","","","html-slider-response","457","1573495","0.0-24.0-1.0-0.0","62996","List2A","white","man","","","","","","","","survey_gender","83","","","My friends have a lot in common with each other.","filler"
"2572.599999997765","","","html-slider-response","458","1576072","0.0-24.0-1.0-0.1","62996","List2A","white","man","","","","","","","","survey_gender","81","","","Most of the friends in my life are very similar to me.","filler"
"3246","","","html-slider-response","459","1579322","0.0-24.0-1.0-0.2","62996","List2A","white","man","","","","","","","","survey_gender","48","","","I am glad to be my gender.","glad"
"3112.599999997765","","","html-slider-response","460","1582440","0.0-24.0-1.0-0.3","62996","List2A","white","man","","","","","","","","survey_gender","0","","","The fact that I am my gender is an important part of my identity.","identity"
"2392.5","","","html-slider-response","461","1584836","0.0-24.0-1.0-0.4","62996","List2A","white","man","","","","","","","","survey_gender","86","","","I have a lot in common with my friends.","filler"
"4952.79999999702","","","html-slider-response","462","1589793","0.0-24.0-1.0-0.5","62996","List2A","white","man","","","","","","","","survey_gender","0","","","I feel a bond with my gender.","bond"
"4089.60000000149","","","html-slider-response","463","1593887","0.0-24.0-1.0-0.6","62996","List2A","white","man","","","","","","","","survey_gender","25","","","I am similar to the average person of my gender.","similar"
"4153.10000000149","","","html-slider-response","464","1598045","0.0-24.0-1.0-0.7","62996","List2A","white","man","","","","","","","","survey_gender","80","","","Being around my friends gives me a good feeling.","filler"
"3751.800000000745","","","html-slider-response","465","1601801","0.0-24.0-1.0-0.8","62996","List2A","white","man","","","","","","","","survey_gender","92","","","I consider myself a highly empathetic person.","filler"
"2823.7000000029802","","","html-slider-response","466","1604628","0.0-24.0-1.0-0.9","62996","List2A","white","man","","","","","","","","survey_gender","82","","","It is not always easy for people to know what I am thinking.","filler"
"3972.099999997765","","","html-slider-response","467","1608603","0.0-24.0-1.0-0.10","62996","List2A","white","man","","","","","","","","survey_gender","83","","","Family is not more important to me than friendship.","filler"
"3147","","","html-slider-response","468","1611754","0.0-24.0-1.0-0.11","62996","List2A","white","man","","","","","","","","survey_gender","0","","","People of my gender are very similar to each other.","verysimilar"
"1654","","","html-slider-response","469","1613412","0.0-24.0-1.0-0.12","62996","List2A","white","man","","","","","","","","survey_gender","0","","","I feel committed to my gender.","committed"
"2162.099999997765","","","html-slider-response","470","1615577","0.0-24.0-1.0-0.13","62996","List2A","white","man","","","","","","","","survey_gender","0","","","Being my gender gives me a good feeling.","feeling"
"5597.29999999702","","","html-slider-response","471","1621176","0.0-24.0-1.0-0.14","62996","List2A","white","man","","","","","","","","survey_gender","0","","","Being my gender is an important part of how I see myself.","important"
"2043.800000000745","","","html-slider-response","472","1623224","0.0-24.0-1.0-0.15","62996","List2A","white","man","","","","","","","","survey_gender","81","","","I feel solidarity with my friends.","filler"
"3101.60000000149","","","html-slider-response","473","1626331","0.0-24.0-1.0-0.16","62996","List2A","white","man","","","","","","","","survey_gender","0","","","Routine is not important to me.","filler"
"2076.300000000745","","","html-slider-response","474","1628410","0.0-24.0-1.0-0.17","62996","List2A","white","man","","","","","","","","survey_gender","74","","","I often think about my actions.","filler"
"1642","","","html-slider-response","475","1630055","0.0-24.0-1.0-0.18","62996","List2A","white","man","","","","","","","","survey_gender","86","","","I am glad to have the friends that I have.","filler"
"3063.900000002235","","","html-slider-response","476","1633122","0.0-24.0-1.0-0.19","62996","List2A","white","man","","","","","","","","survey_gender","10","","","I have a lot in common with the average person of my gender.","average"
"3655.5","","","html-slider-response","477","1636782","0.0-24.0-1.0-0.20","62996","List2A","white","man","","","","","","","","survey_gender","100","","","I often think about the fact that I am my gender.","often"
"4476.800000000745","","","html-slider-response","478","1641264","0.0-24.0-1.0-0.21","62996","List2A","white","man","","","","","","","","survey_gender","7","","","People of my gender have a lot in common with each other.","common"
"3427.699999999255","","","html-slider-response","479","1644695","0.0-24.0-1.0-0.22","62996","List2A","white","man","","","","","","","","survey_gender","70","","","It is pleasant to be my gender.","pleasant"
"1958.699999999255","","","html-slider-response","480","1646658","0.0-24.0-1.0-0.23","62996","List2A","white","man","","","","","","","","survey_gender","78","","","My friends understand me.","filler"
