"rt","stimulus","button_pressed","trial_type","trial_index","time_elapsed","internal_node_id","subject","list","ppt_race","ppt_gender","url","first_guess","correct","key_press","responses","image_type","phrase_type","test_part","response","stimulus1","stimulus2","question_type","survey_item"
"1988.5","Welcome to the experiment. Press Continue to begin.","0","html-button-response","0","1990","0.0-0.0","63050","List2B","white","man","","","","","","","","","","","","",""
"11938.300000011921","","","external-html","1","15076","0.0-1.0","63050","List2B","white","man","consent.html","","","","","","","","","","","",""
"48965.90000000596","<p>On the next page, you will see portraits of 8 people and their names.</p><p>Your first task is to take a few minutes to memorise the names of these people.</p><p>You will have to recall their names during the rest of the experiment, so it is</p><p>essential that you try to memorise these people and their names as best as you can.</p><br><p><strong>You will then be tested on your memory of these names and portraits.</strong></p><br><p>The experiment will start after you have completed this memory test.</p><br><p>Ready?</p>","0","html-button-response","2","64042","0.0-2.0","63050","List2B","white","man","","","","","","","","","","","","",""
"178074.29999999702","<img src='img/portrait_matrix_list2.jpg' style='width:900px;height:500px;''></img><p>If you have memorised all the portraits and names and are ready to start, press Continue.</p><p><strong>Please note: Your memory of these faces will be tested 4 times during this experiment.</strong></p>","0","html-button-response","3","243127","0.0-3.0-0.0","63050","List2B","white","man","","","","","","","","","","","","",""
"13266.90000000596","<img src=""portrait/WW1.jpg""style=""height:400px;""></img>","1","html-button-response","4","257396","0.0-3.0-1.0","63050","List2B","white","man","","true","1","","","","","","","","","",""
"null","CORRECT","","html-keyboard-response","5","258900","0.0-3.0-2.0-0.0","63050","List2B","white","man","","","","null","","","","","","","","",""
"3168.0999999940395","<img src=""portrait/WW2.jpg""style=""height:400px;""></img>","3","html-button-response","6","262068","0.0-3.0-4.0","63050","List2B","white","man","","true","3","","","","","","","","","",""
"null","CORRECT","","html-keyboard-response","7","263584","0.0-3.0-5.0-0.0","63050","List2B","white","man","","","","null","","","","","","","","",""
"4453.20000000298","<img src=""portrait/WM2.jpg""style=""height:400px;""></img>","7","html-button-response","8","268038","0.0-3.0-7.0","63050","List2B","white","man","","true","7","","","","","","","","","",""
"null","CORRECT","","html-keyboard-response","9","269552","0.0-3.0-8.0-0.0","63050","List2B","white","man","","","","null","","","","","","","","",""
"5210.0999999940395","<img src=""portrait/BW1.jpg""style=""height:400px;""></img>","0","html-button-response","10","274763","0.0-3.0-10.0","63050","List2B","white","man","","true","0","","","","","","","","","",""
"null","CORRECT","","html-keyboard-response","11","276271","0.0-3.0-11.0-0.0","63050","List2B","white","man","","","","null","","","","","","","","",""
"6303.4000000059605","<img src=""portrait/BW2.jpg""style=""height:400px;""></img>","2","html-button-response","12","282575","0.0-3.0-13.0","63050","List2B","white","man","","true","2","","","","","","","","","",""
"null","CORRECT","","html-keyboard-response","13","284077","0.0-3.0-14.0-0.0","63050","List2B","white","man","","","","null","","","","","","","","",""
"3530.7999999970198","<img src=""portrait/BM1.jpg""style=""height:400px;""></img>","4","html-button-response","14","287608","0.0-3.0-16.0","63050","List2B","white","man","","true","4","","","","","","","","","",""
"null","CORRECT","","html-keyboard-response","15","289121","0.0-3.0-17.0-0.0","63050","List2B","white","man","","","","null","","","","","","","","",""
"5535.0999999940395","<img src=""portrait/WM1.jpg""style=""height:400px;""></img>","6","html-button-response","16","294656","0.0-3.0-19.0","63050","List2B","white","man","","true","6","","","","","","","","","",""
"null","CORRECT","","html-keyboard-response","17","296167","0.0-3.0-20.0-0.0","63050","List2B","white","man","","","","null","","","","","","","","",""
"4082.9000000059605","<img src=""portrait/BM2.jpg""style=""height:400px;""></img>","5","html-button-response","18","300250","0.0-3.0-22.0","63050","List2B","white","man","","true","5","","","","","","","","","",""
"null","CORRECT","","html-keyboard-response","19","301754","0.0-3.0-23.0-0.0","63050","List2B","white","man","","","","null","","","","","","","","",""
"1372.2999999970198","<p>You got 8 out of 8 right first time. Press Continue.</p>","0","html-button-response","20","303127","0.0-3.0-25.0","63050","List2B","white","man","","","","","","","","","","","","",""
"11242.70000000298","<p>In this experiment, you will view photographs of the people from the memory game interacting.</p><p>By using the <strong>exact</strong> phrase given <i>after</i> the photograph appears and recalling the correct names of the people in the photographs, form a sentence describing the interaction. You do not need to capitalise names.</p><p>Type your answer in the space provided. Please complete every sentence before moving onto the next trial.</p><p>You will only have a few seconds to memorise each given photograph and phrase before you can respond, so try your best to focus.</p><p>An example is given below. Press 'Continue' when you are ready.</p><img src='img/speaking_example.jpg' style='width:800px;height:460px;''></img>","0","html-button-response","21","315382","0.0-4.0","63050","List2B","white","man","","","","","","","","","","","","",""
"2359.7000000029802","<p>Before the experiment starts, you will watch two example trials. Press 'Continue'.</p>","0","html-button-response","22","318743","0.0-5.0","63050","List2B","white","man","","","","","","","","","","","","",""
"null","<img src='img/play_eg.gif' style='height:400px;''></img>","","html-keyboard-response","23","321766","0.0-6.0","63050","List2B","white","man","","","","null","","","","","","","","",""
"null","<p>is playing with</p>","","html-keyboard-response","24","323767","0.0-7.0","63050","List2B","white","man","","","","null","","","","","","","","",""
"2288.1000000089407","<p><b>Answer:</b> jane is playing with ruth</p>","0","html-button-response","25","326055","0.0-8.0","63050","List2B","white","man","","","","","","","","","","","","",""
"null","<img src='img/dance_eg.gif' style='height:400px;''></img>","","html-keyboard-response","26","329080","0.0-9.0","63050","List2B","white","man","","","","null","","","","","","","","",""
"null","<p>is being entertained by</p>","","html-keyboard-response","27","331088","0.0-10.0","63050","List2B","white","man","","","","null","","","","","","","","",""
"1474.800000011921","<p><b>Answer:</b> fred is being entertained by mike</p>","0","html-button-response","28","332563","0.0-11.0","63050","List2B","white","man","","","","","","","","","","","","",""
"1674.9000000059605","<p>Ready to start the experiment?</p><br><p><strong>Remember to describe the picture using a full sentence,</strong></p><p><strong>that combines the names of the people with the <i>exact</i> phrase given.</strong></p><p><strong>To receive full payment you must do this correctly.</strong></p><p><strong> You do not need to capitalise names or use punctuation.</strong></p><br><p>Press 'Continue' to begin.</p>","0","html-button-response","29","335239","0.0-12.0","63050","List2B","white","man","","","","","","","","","","","","",""
"null","<div style=""font-size:60px;"">+</div>","","html-keyboard-response","30","336740","0.0-13.0-0.0","63050","List2B","white","man","","","","null","","","","","","","","",""
"null","<img src=""stim_listB/oppose3.gif""style=""height:400px;""></stim_listB>","","html-keyboard-response","31","338753","0.0-13.0-1.0","63050","List2B","white","man","","","","null","","","","","","","","",""
"null","is opposing","","html-keyboard-response","32","340767","0.0-13.0-2.0","63050","List2B","white","man","","","","null","","","","","","","","",""
"6012.0999999940395","","","survey-text","33","346780","0.0-13.0-3.0","63050","List2B","white","man","","","","","{""Q0"":""mike""}","<img src=""stim_listB/oppose3.gif""style=""height:400px;""></stim_listB>","is opposing","","","","","",""
"null","<div style=""font-size:60px;"">+</div>","","html-keyboard-response","34","347281","0.0-13.0-0.1","63050","List2B","white","man","","","","null","","","","","","","","",""
"null","<img src=""stim_listB/shout7.gif""style=""height:400px;""></stim_listB>","","html-keyboard-response","35","349297","0.0-13.0-1.1","63050","List2B","white","man","","","","null","","","","","","","","",""
"null","is shouting at","","html-keyboard-response","36","351309","0.0-13.0-2.1","63050","List2B","white","man","","","","null","","","","","","","","",""
"14578.29999999702","","","survey-text","37","365888","0.0-13.0-3.1","63050","List2B","white","man","","","","","{""Q0"":""Ruth, Kate""}","<img src=""stim_listB/shout7.gif""style=""height:400px;""></stim_listB>","is shouting at","","","","","",""
"null","<div style=""font-size:60px;"">+</div>","","html-keyboard-response","38","366389","0.0-13.0-0.2","63050","List2B","white","man","","","","null","","","","","","","","",""
"null","<img src=""stim_listB/hug3.gif""style=""height:400px;""></stim_listB>","","html-keyboard-response","39","368390","0.0-13.0-1.2","63050","List2B","white","man","","","","null","","","","","","","","",""
"null","is hugging","","html-keyboard-response","40","370390","0.0-13.0-2.2","63050","List2B","white","man","","","","null","","","","","","","","",""
"9366.40000000596","","","survey-text","41","379758","0.0-13.0-3.2","63050","List2B","white","man","","","","","{""Q0"":""Fred, Beth""}","<img src=""stim_listB/hug3.gif""style=""height:400px;""></stim_listB>","is hugging","","","","","",""
"null","<div style=""font-size:60px;"">+</div>","","html-keyboard-response","42","380269","0.0-13.0-0.3","63050","List2B","white","man","","","","null","","","","","","","","",""
"null","<img src=""stim_listB/shout1.gif""style=""height:400px;""></stim_listB>","","html-keyboard-response","43","382270","0.0-13.0-1.3","63050","List2B","white","man","","","","null","","","","","","","","",""
"null","is shouting at","","html-keyboard-response","44","384270","0.0-13.0-2.3","63050","List2B","white","man","","","","null","","","","","","","","",""
"7162","","","survey-text","45","391433","0.0-13.0-3.3","63050","List2B","white","man","","","","","{""Q0"":""Ruth, Luke""}","<img src=""stim_listB/shout1.gif""style=""height:400px;""></stim_listB>","is shouting at","","","","","",""
"null","<div style=""font-size:60px;"">+</div>","","html-keyboard-response","46","391933","0.0-13.0-0.4","63050","List2B","white","man","","","","null","","","","","","","","",""
"null","<img src=""stim_listB/seduce2.gif""style=""height:400px;""></stim_listB>","","html-keyboard-response","47","393934","0.0-13.0-1.4","63050","List2B","white","man","","","","null","","","","","","","","",""
"null","is being seduced by","","html-keyboard-response","48","395936","0.0-13.0-2.4","63050","List2B","white","man","","","","null","","","","","","","","",""
"6029.70000000298","","","survey-text","49","401967","0.0-13.0-3.4","63050","List2B","white","man","","","","","{""Q0"":""Dave, Ruth""}","<img src=""stim_listB/seduce2.gif""style=""height:400px;""></stim_listB>","is being seduced by","","","","","",""
"null","<div style=""font-size:60px;"">+</div>","","html-keyboard-response","50","402477","0.0-13.0-0.5","63050","List2B","white","man","","","","null","","","","","","","","",""
"null","<img src=""stim_listB/oppose6.gif""style=""height:400px;""></stim_listB>","","html-keyboard-response","51","404479","0.0-13.0-1.5","63050","List2B","white","man","","","","null","","","","","","","","",""
"null","is being opposed by","","html-keyboard-response","52","406480","0.0-13.0-2.5","63050","List2B","white","man","","","","null","","","","","","","","",""
"5937.20000000298","","","survey-text","53","412418","0.0-13.0-3.5","63050","List2B","white","man","","","","","{""Q0"":""Luke, Fred""}","<img src=""stim_listB/oppose6.gif""style=""height:400px;""></stim_listB>","is being opposed by","","","","","",""
"null","<div style=""font-size:60px;"">+</div>","","html-keyboard-response","54","412918","0.0-13.0-0.6","63050","List2B","white","man","","","","null","","","","","","","","",""
"null","<img src=""stim_listB/greet8.gif""style=""height:400px;""></stim_listB>","","html-keyboard-response","55","414920","0.0-13.0-1.6","63050","List2B","white","man","","","","null","","","","","","","","",""
"null","is being greeted by","","html-keyboard-response","56","416921","0.0-13.0-2.6","63050","List2B","white","man","","","","null","","","","","","","","",""
"9588.70000000298","","","survey-text","57","426511","0.0-13.0-3.6","63050","List2B","white","man","","","","","{""Q0"":""Ruth, Kate""}","<img src=""stim_listB/greet8.gif""style=""height:400px;""></stim_listB>","is being greeted by","","","","","",""
"null","<div style=""font-size:60px;"">+</div>","","html-keyboard-response","58","427020","0.0-13.0-0.7","63050","List2B","white","man","","","","null","","","","","","","","",""
"null","<img src=""stim_listB/look4.gif""style=""height:400px;""></stim_listB>","","html-keyboard-response","59","429021","0.0-13.0-1.7","63050","List2B","white","man","","","","null","","","","","","","","",""
"null","is being looked at by","","html-keyboard-response","60","431036","0.0-13.0-2.7","63050","List2B","white","man","","","","null","","","","","","","","",""
"5027","","","survey-text","61","436064","0.0-13.0-3.7","63050","List2B","white","man","","","","","{""Q0"":""Mike, Kate""}","<img src=""stim_listB/look4.gif""style=""height:400px;""></stim_listB>","is being looked at by","","","","","",""
"null","<div style=""font-size:60px;"">+</div>","","html-keyboard-response","62","436565","0.0-13.0-0.8","63050","List2B","white","man","","","","null","","","","","","","","",""
"null","<img src=""stim_listB/hug6.gif""style=""height:400px;""></stim_listB>","","html-keyboard-response","63","438566","0.0-13.0-1.8","63050","List2B","white","man","","","","null","","","","","","","","",""
"null","is being hugged by","","html-keyboard-response","64","440578","0.0-13.0-2.8","63050","List2B","white","man","","","","null","","","","","","","","",""
"8869.39999999106","","","survey-text","65","449448","0.0-13.0-3.8","63050","List2B","white","man","","","","","{""Q0"":""Mike, Dave""}","<img src=""stim_listB/hug6.gif""style=""height:400px;""></stim_listB>","is being hugged by","","","","","",""
"null","<div style=""font-size:60px;"">+</div>","","html-keyboard-response","66","449948","0.0-13.0-0.9","63050","List2B","white","man","","","","null","","","","","","","","",""
"null","<img src=""stim_listB/oppose4.gif""style=""height:400px;""></stim_listB>","","html-keyboard-response","67","451960","0.0-13.0-1.9","63050","List2B","white","man","","","","null","","","","","","","","",""
"null","is being opposed by","","html-keyboard-response","68","453974","0.0-13.0-2.9","63050","List2B","white","man","","","","null","","","","","","","","",""
"5926.70000000298","","","survey-text","69","459902","0.0-13.0-3.9","63050","List2B","white","man","","","","","{""Q0"":""Dave. Beth""}","<img src=""stim_listB/oppose4.gif""style=""height:400px;""></stim_listB>","is being opposed by","","","","","",""
"null","<div style=""font-size:60px;"">+</div>","","html-keyboard-response","70","460417","0.0-13.0-0.10","63050","List2B","white","man","","","","null","","","","","","","","",""
"null","<img src=""stim_listB/copy7.gif""style=""height:400px;""></stim_listB>","","html-keyboard-response","71","462418","0.0-13.0-1.10","63050","List2B","white","man","","","","null","","","","","","","","",""
"null","is copying","","html-keyboard-response","72","464431","0.0-13.0-2.10","63050","List2B","white","man","","","","null","","","","","","","","",""
"5306.29999999702","","","survey-text","73","469738","0.0-13.0-3.10","63050","List2B","white","man","","","","","{""Q0"":""Beth, Jane""}","<img src=""stim_listB/copy7.gif""style=""height:400px;""></stim_listB>","is copying","","","","","",""
"null","<div style=""font-size:60px;"">+</div>","","html-keyboard-response","74","470252","0.0-13.0-0.11","63050","List2B","white","man","","","","null","","","","","","","","",""
"null","<img src=""stim_listB/kiss1.gif""style=""height:400px;""></stim_listB>","","html-keyboard-response","75","472265","0.0-13.0-1.11","63050","List2B","white","man","","","","null","","","","","","","","",""
"null","is kissing","","html-keyboard-response","76","474274","0.0-13.0-2.11","63050","List2B","white","man","","","","null","","","","","","","","",""
"9265.39999999106","","","survey-text","77","483539","0.0-13.0-3.11","63050","List2B","white","man","","","","","{""Q0"":""Ruth, Luke""}","<img src=""stim_listB/kiss1.gif""style=""height:400px;""></stim_listB>","is kissing","","","","","",""
"null","<div style=""font-size:60px;"">+</div>","","html-keyboard-response","78","484042","0.0-13.0-0.12","63050","List2B","white","man","","","","null","","","","","","","","",""
"null","<img src=""stim_listB/copy5.gif""style=""height:400px;""></stim_listB>","","html-keyboard-response","79","486049","0.0-13.0-1.12","63050","List2B","white","man","","","","null","","","","","","","","",""
"null","is copying","","html-keyboard-response","80","488059","0.0-13.0-2.12","63050","List2B","white","man","","","","null","","","","","","","","",""
"4219","","","survey-text","81","492279","0.0-13.0-3.12","63050","List2B","white","man","","","","","{""Q0"":""Dave, Fred""}","<img src=""stim_listB/copy5.gif""style=""height:400px;""></stim_listB>","is copying","","","","","",""
"null","<div style=""font-size:60px;"">+</div>","","html-keyboard-response","82","492781","0.0-13.0-0.13","63050","List2B","white","man","","","","null","","","","","","","","",""
"null","<img src=""stim_listB/seduce7.gif""style=""height:400px;""></stim_listB>","","html-keyboard-response","83","494783","0.0-13.0-1.13","63050","List2B","white","man","","","","null","","","","","","","","",""
"null","is seducing","","html-keyboard-response","84","496796","0.0-13.0-2.13","63050","List2B","white","man","","","","null","","","","","","","","",""
"5601.70000000298","","","survey-text","85","502398","0.0-13.0-3.13","63050","List2B","white","man","","","","","{""Q0"":""Ruth, Kate""}","<img src=""stim_listB/seduce7.gif""style=""height:400px;""></stim_listB>","is seducing","","","","","",""
"null","<div style=""font-size:60px;"">+</div>","","html-keyboard-response","86","502901","0.0-13.0-0.14","63050","List2B","white","man","","","","null","","","","","","","","",""
"null","<img src=""stim_listB/challenge2.gif""style=""height:400px;""></stim_listB>","","html-keyboard-response","87","504915","0.0-13.0-1.14","63050","List2B","white","man","","","","null","","","","","","","","",""
"null","is being challenged by","","html-keyboard-response","88","506922","0.0-13.0-2.14","63050","List2B","white","man","","","","null","","","","","","","","",""
"5180.199999988079","","","survey-text","89","512103","0.0-13.0-3.14","63050","List2B","white","man","","","","","{""Q0"":""Luke, Jane""}","<img src=""stim_listB/challenge2.gif""style=""height:400px;""></stim_listB>","is being challenged by","","","","","",""
"null","<div style=""font-size:60px;"">+</div>","","html-keyboard-response","90","512609","0.0-13.0-0.15","63050","List2B","white","man","","","","null","","","","","","","","",""
"null","<img src=""stim_listB/oppose1.gif""style=""height:400px;""></stim_listB>","","html-keyboard-response","91","514621","0.0-13.0-1.15","63050","List2B","white","man","","","","null","","","","","","","","",""
"null","is opposing","","html-keyboard-response","92","516635","0.0-13.0-2.15","63050","List2B","white","man","","","","null","","","","","","","","",""
"63035.29999999702","","","survey-text","93","579671","0.0-13.0-3.15","63050","List2B","white","man","","","","","{""Q0"":""Mike, Beth""}","<img src=""stim_listB/oppose1.gif""style=""height:400px;""></stim_listB>","is opposing","","","","","",""
"null","<div style=""font-size:60px;"">+</div>","","html-keyboard-response","94","580177","0.0-13.0-0.16","63050","List2B","white","man","","","","null","","","","","","","","",""
"null","<img src=""stim_listB/copy4.gif""style=""height:400px;""></stim_listB>","","html-keyboard-response","95","582190","0.0-13.0-1.16","63050","List2B","white","man","","","","null","","","","","","","","",""
"null","is being copied by","","html-keyboard-response","96","584206","0.0-13.0-2.16","63050","List2B","white","man","","","","null","","","","","","","","",""
"12228.20000000298","","","survey-text","97","596435","0.0-13.0-3.16","63050","List2B","white","man","","","","","{""Q0"":""Fred, Beth""}","<img src=""stim_listB/copy4.gif""style=""height:400px;""></stim_listB>","is being copied by","","","","","",""
"null","<div style=""font-size:60px;"">+</div>","","html-keyboard-response","98","596950","0.0-13.0-0.17","63050","List2B","white","man","","","","null","","","","","","","","",""
"null","<img src=""stim_listB/look5.gif""style=""height:400px;""></stim_listB>","","html-keyboard-response","99","598962","0.0-13.0-1.17","63050","List2B","white","man","","","","null","","","","","","","","",""
"null","is looking at","","html-keyboard-response","100","600974","0.0-13.0-2.17","63050","List2B","white","man","","","","null","","","","","","","","",""
"5299.4000000059605","","","survey-text","101","606274","0.0-13.0-3.17","63050","List2B","white","man","","","","","{""Q0"":""Luke, Fred""}","<img src=""stim_listB/look5.gif""style=""height:400px;""></stim_listB>","is looking at","","","","","",""
"null","<div style=""font-size:60px;"">+</div>","","html-keyboard-response","102","606776","0.0-13.0-0.18","63050","List2B","white","man","","","","null","","","","","","","","",""
"null","<img src=""stim_listB/oppose7.gif""style=""height:400px;""></stim_listB>","","html-keyboard-response","103","608788","0.0-13.0-1.18","63050","List2B","white","man","","","","null","","","","","","","","",""
"null","is opposing","","html-keyboard-response","104","610800","0.0-13.0-2.18","63050","List2B","white","man","","","","null","","","","","","","","",""
"7449.9000000059605","","","survey-text","105","618250","0.0-13.0-3.18","63050","List2B","white","man","","","","","{""Q0"":""Jane,Kate""}","<img src=""stim_listB/oppose7.gif""style=""height:400px;""></stim_listB>","is opposing","","","","","",""
"null","<div style=""font-size:60px;"">+</div>","","html-keyboard-response","106","618766","0.0-13.0-0.19","63050","List2B","white","man","","","","null","","","","","","","","",""
"null","<img src=""stim_listB/touch1.gif""style=""height:400px;""></stim_listB>","","html-keyboard-response","107","620768","0.0-13.0-1.19","63050","List2B","white","man","","","","null","","","","","","","","",""
"null","is touching","","html-keyboard-response","108","622772","0.0-13.0-2.19","63050","List2B","white","man","","","","null","","","","","","","","",""
"6061.9000000059605","","","survey-text","109","628835","0.0-13.0-3.19","63050","List2B","white","man","","","","","{""Q0"":""Dave, Jane""}","<img src=""stim_listB/touch1.gif""style=""height:400px;""></stim_listB>","is touching","","","","","",""
"2339.2999999970198","<img src='img/portrait_matrix_list2.jpg' style='width:900px;height:500px;''></img><p>If you have memorised all the portraits and names and are ready to start, press Continue.</p><p><strong>Please note: Your memory of these faces will be tested 4 times during this experiment.</strong></p>","0","html-button-response","110","631175","0.0-14.0-0.0","63050","List2B","white","man","","","","","","","","","","","","",""
"2955.800000011921","<img src=""portrait/WM1.jpg""style=""height:400px;""></img>","6","html-button-response","111","635132","0.0-14.0-1.0","63050","List2B","white","man","","true","6","","","","","","","","","",""
"null","CORRECT","","html-keyboard-response","112","636650","0.0-14.0-2.0-0.0","63050","List2B","white","man","","","","null","","","","","","","","",""
"2230","<img src=""portrait/BM2.jpg""style=""height:400px;""></img>","5","html-button-response","113","638880","0.0-14.0-4.0","63050","List2B","white","man","","true","5","","","","","","","","","",""
"null","CORRECT","","html-keyboard-response","114","640397","0.0-14.0-5.0-0.0","63050","List2B","white","man","","","","null","","","","","","","","",""
"4319.5999999940395","<img src=""portrait/WM2.jpg""style=""height:400px;""></img>","7","html-button-response","115","644717","0.0-14.0-7.0","63050","List2B","white","man","","true","7","","","","","","","","","",""
"null","CORRECT","","html-keyboard-response","116","646229","0.0-14.0-8.0-0.0","63050","List2B","white","man","","","","null","","","","","","","","",""
"5330.399999991059","<img src=""portrait/BW1.jpg""style=""height:400px;""></img>","0","html-button-response","117","651560","0.0-14.0-10.0","63050","List2B","white","man","","true","0","","","","","","","","","",""
"null","CORRECT","","html-keyboard-response","118","653069","0.0-14.0-11.0-0.0","63050","List2B","white","man","","","","null","","","","","","","","",""
"4432.29999999702","<img src=""portrait/WW1.jpg""style=""height:400px;""></img>","1","html-button-response","119","657502","0.0-14.0-13.0","63050","List2B","white","man","","true","1","","","","","","","","","",""
"null","CORRECT","","html-keyboard-response","120","659009","0.0-14.0-14.0-0.0","63050","List2B","white","man","","","","null","","","","","","","","",""
"2198.0999999940395","<img src=""portrait/WW2.jpg""style=""height:400px;""></img>","3","html-button-response","121","661208","0.0-14.0-16.0","63050","List2B","white","man","","true","3","","","","","","","","","",""
"null","CORRECT","","html-keyboard-response","122","662711","0.0-14.0-17.0-0.0","63050","List2B","white","man","","","","null","","","","","","","","",""
"2963","<img src=""portrait/BW2.jpg""style=""height:400px;""></img>","2","html-button-response","123","665674","0.0-14.0-19.0","63050","List2B","white","man","","true","2","","","","","","","","","",""
"null","CORRECT","","html-keyboard-response","124","667189","0.0-14.0-20.0-0.0","63050","List2B","white","man","","","","null","","","","","","","","",""
"4198.79999999702","<img src=""portrait/BM1.jpg""style=""height:400px;""></img>","4","html-button-response","125","671388","0.0-14.0-22.0","63050","List2B","white","man","","true","4","","","","","","","","","",""
"null","CORRECT","","html-keyboard-response","126","672904","0.0-14.0-23.0-0.0","63050","List2B","white","man","","","","null","","","","","","","","",""
"979.7000000029802","<p>You got 8 out of 8 right first time. Press Continue.</p>","0","html-button-response","127","673884","0.0-14.0-25.0","63050","List2B","white","man","","","","","","","","","","","","",""
"null","<div style=""font-size:60px;"">+</div>","","html-keyboard-response","128","675398","0.0-15.0-0.0","63050","List2B","white","man","","","","null","","","","","","","","",""
"null","<img src=""stim_listB/seduce1.gif""style=""height:400px;""></stim_listB>","","html-keyboard-response","129","677398","0.0-15.0-1.0","63050","List2B","white","man","","","","null","","","","","","","","",""
"null","is seducing","","html-keyboard-response","130","679399","0.0-15.0-2.0","63050","List2B","white","man","","","","null","","","","","","","","",""
"7884.5","","","survey-text","131","687284","0.0-15.0-3.0","63050","List2B","white","man","","","","","{""Q0"":""Luke, Jane""}","<img src=""stim_listB/seduce1.gif""style=""height:400px;""></stim_listB>","is seducing","","","","","",""
"null","<div style=""font-size:60px;"">+</div>","","html-keyboard-response","132","687792","0.0-15.0-0.1","63050","List2B","white","man","","","","null","","","","","","","","",""
"null","<img src=""stim_listB/hug2.gif""style=""height:400px;""></stim_listB>","","html-keyboard-response","133","689801","0.0-15.0-1.1","63050","List2B","white","man","","","","null","","","","","","","","",""
"null","is being hugged by","","html-keyboard-response","134","691812","0.0-15.0-2.1","63050","List2B","white","man","","","","null","","","","","","","","",""
"8305.59999999404","","","survey-text","135","700118","0.0-15.0-3.1","63050","List2B","white","man","","","","","{""Q0"":""Jane, Dave""}","<img src=""stim_listB/hug2.gif""style=""height:400px;""></stim_listB>","is being hugged by","","","","","",""
"null","<div style=""font-size:60px;"">+</div>","","html-keyboard-response","136","700627","0.0-15.0-0.2","63050","List2B","white","man","","","","null","","","","","","","","",""
"null","<img src=""stim_listB/challenge1.gif""style=""height:400px;""></stim_listB>","","html-keyboard-response","137","702629","0.0-15.0-1.2","63050","List2B","white","man","","","","null","","","","","","","","",""
"null","is challenging","","html-keyboard-response","138","704630","0.0-15.0-2.2","63050","List2B","white","man","","","","null","","","","","","","","",""
"6454.9000000059605","","","survey-text","139","711085","0.0-15.0-3.2","63050","List2B","white","man","","","","","{""Q0"":""Ruth, Dave""}","<img src=""stim_listB/challenge1.gif""style=""height:400px;""></stim_listB>","is challenging","","","","","",""
"null","<div style=""font-size:60px;"">+</div>","","html-keyboard-response","140","711596","0.0-15.0-0.3","63050","List2B","white","man","","","","null","","","","","","","","",""
"null","<img src=""stim_listB/touch5.gif""style=""height:400px;""></stim_listB>","","html-keyboard-response","141","713598","0.0-15.0-1.3","63050","List2B","white","man","","","","null","","","","","","","","",""
"null","is touching","","html-keyboard-response","142","715598","0.0-15.0-2.3","63050","List2B","white","man","","","","null","","","","","","","","",""
"5611.100000008941","","","survey-text","143","721210","0.0-15.0-3.3","63050","List2B","white","man","","","","","{""Q0"":""Dave, Mike""}","<img src=""stim_listB/touch5.gif""style=""height:400px;""></stim_listB>","is touching","","","","","",""
"null","<div style=""font-size:60px;"">+</div>","","html-keyboard-response","144","721712","0.0-15.0-0.4","63050","List2B","white","man","","","","null","","","","","","","","",""
"null","<img src=""stim_listB/shout3.gif""style=""height:400px;""></stim_listB>","","html-keyboard-response","145","723713","0.0-15.0-1.4","63050","List2B","white","man","","","","null","","","","","","","","",""
"null","is shouting at","","html-keyboard-response","146","725723","0.0-15.0-2.4","63050","List2B","white","man","","","","null","","","","","","","","",""
"5479.699999988079","","","survey-text","147","731204","0.0-15.0-3.4","63050","List2B","white","man","","","","","{""Q0"":""Fred, Beth""}","<img src=""stim_listB/shout3.gif""style=""height:400px;""></stim_listB>","is shouting at","","","","","",""
"null","<div style=""font-size:60px;"">+</div>","","html-keyboard-response","148","731705","0.0-15.0-0.5","63050","List2B","white","man","","","","null","","","","","","","","",""
"null","<img src=""stim_listB/look1.gif""style=""height:400px;""></stim_listB>","","html-keyboard-response","149","733706","0.0-15.0-1.5","63050","List2B","white","man","","","","null","","","","","","","","",""
"null","is looking at","","html-keyboard-response","150","735707","0.0-15.0-2.5","63050","List2B","white","man","","","","null","","","","","","","","",""
"4975.20000000298","","","survey-text","151","740683","0.0-15.0-3.5","63050","List2B","white","man","","","","","{""Q0"":""Luke, Ruth""}","<img src=""stim_listB/look1.gif""style=""height:400px;""></stim_listB>","is looking at","","","","","",""
"null","<div style=""font-size:60px;"">+</div>","","html-keyboard-response","152","741188","0.0-15.0-0.6","63050","List2B","white","man","","","","null","","","","","","","","",""
"null","<img src=""stim_listB/copy3.gif""style=""height:400px;""></stim_listB>","","html-keyboard-response","153","743200","0.0-15.0-1.6","63050","List2B","white","man","","","","null","","","","","","","","",""
"null","is copying","","html-keyboard-response","154","745201","0.0-15.0-2.6","63050","List2B","white","man","","","","null","","","","","","","","",""
"10509.5","","","survey-text","155","755711","0.0-15.0-3.6","63050","List2B","white","man","","","","","{""Q0"":""Mike, Ruth""}","<img src=""stim_listB/copy3.gif""style=""height:400px;""></stim_listB>","is copying","","","","","",""
"null","<div style=""font-size:60px;"">+</div>","","html-keyboard-response","156","756212","0.0-15.0-0.7","63050","List2B","white","man","","","","null","","","","","","","","",""
"null","<img src=""stim_listB/copy2.gif""style=""height:400px;""></stim_listB>","","html-keyboard-response","157","758214","0.0-15.0-1.7","63050","List2B","white","man","","","","null","","","","","","","","",""
"null","is being copied by","","html-keyboard-response","158","760214","0.0-15.0-2.7","63050","List2B","white","man","","","","null","","","","","","","","",""
"5902.100000008941","","","survey-text","159","766117","0.0-15.0-3.7","63050","List2B","white","man","","","","","{""Q0"":""Luke, Jane""}","<img src=""stim_listB/copy2.gif""style=""height:400px;""></stim_listB>","is being copied by","","","","","",""
"null","<div style=""font-size:60px;"">+</div>","","html-keyboard-response","160","766622","0.0-15.0-0.8","63050","List2B","white","man","","","","null","","","","","","","","",""
"null","<img src=""stim_listB/shout5.gif""style=""height:400px;""></stim_listB>","","html-keyboard-response","161","768623","0.0-15.0-1.8","63050","List2B","white","man","","","","null","","","","","","","","",""
"null","is shouting at","","html-keyboard-response","162","770623","0.0-15.0-2.8","63050","List2B","white","man","","","","null","","","","","","","","",""
"6522.5999999940395","","","survey-text","163","777147","0.0-15.0-3.8","63050","List2B","white","man","","","","","{""Q0"":""Fred, Luke""}","<img src=""stim_listB/shout5.gif""style=""height:400px;""></stim_listB>","is shouting at","","","","","",""
"null","<div style=""font-size:60px;"">+</div>","","html-keyboard-response","164","777648","0.0-15.0-0.9","63050","List2B","white","man","","","","null","","","","","","","","",""
"null","<img src=""stim_listB/oppose5.gif""style=""height:400px;""></stim_listB>","","html-keyboard-response","165","779650","0.0-15.0-1.9","63050","List2B","white","man","","","","null","","","","","","","","",""
"null","is opposing","","html-keyboard-response","166","781651","0.0-15.0-2.9","63050","List2B","white","man","","","","null","","","","","","","","",""
"4661.29999999702","","","survey-text","167","786313","0.0-15.0-3.9","63050","List2B","white","man","","","","","{""Q0"":""Mike,  Dave""}","<img src=""stim_listB/oppose5.gif""style=""height:400px;""></stim_listB>","is opposing","","","","","",""
"null","<div style=""font-size:60px;"">+</div>","","html-keyboard-response","168","786828","0.0-15.0-0.10","63050","List2B","white","man","","","","null","","","","","","","","",""
"null","<img src=""stim_listB/look8.gif""style=""height:400px;""></stim_listB>","","html-keyboard-response","169","788840","0.0-15.0-1.10","63050","List2B","white","man","","","","null","","","","","","","","",""
"null","is being looked at by","","html-keyboard-response","170","790841","0.0-15.0-2.10","63050","List2B","white","man","","","","null","","","","","","","","",""
"6837.699999988079","","","survey-text","171","797679","0.0-15.0-3.10","63050","List2B","white","man","","","","","{""Q0"":""Jane, Kate""}","<img src=""stim_listB/look8.gif""style=""height:400px;""></stim_listB>","is being looked at by","","","","","",""
"null","<div style=""font-size:60px;"">+</div>","","html-keyboard-response","172","798180","0.0-15.0-0.11","63050","List2B","white","man","","","","null","","","","","","","","",""
"null","<img src=""stim_listB/greet2.gif""style=""height:400px;""></stim_listB>","","html-keyboard-response","173","800192","0.0-15.0-1.11","63050","List2B","white","man","","","","null","","","","","","","","",""
"null","is being greeted by","","html-keyboard-response","174","802193","0.0-15.0-2.11","63050","List2B","white","man","","","","null","","","","","","","","",""
"4620.5999999940395","","","survey-text","175","806814","0.0-15.0-3.11","63050","List2B","white","man","","","","","{""Q0"":""Luke, Jane""}","<img src=""stim_listB/greet2.gif""style=""height:400px;""></stim_listB>","is being greeted by","","","","","",""
"null","<div style=""font-size:60px;"">+</div>","","html-keyboard-response","176","807316","0.0-15.0-0.12","63050","List2B","white","man","","","","null","","","","","","","","",""
"null","<img src=""stim_listB/kiss5.gif""style=""height:400px;""></stim_listB>","","html-keyboard-response","177","809317","0.0-15.0-1.12","63050","List2B","white","man","","","","null","","","","","","","","",""
"null","is kissing","","html-keyboard-response","178","811318","0.0-15.0-2.12","63050","List2B","white","man","","","","null","","","","","","","","",""
"6296.9000000059605","","","survey-text","179","817616","0.0-15.0-3.12","63050","List2B","white","man","","","","","{""Q0"":""Mike, Fred""}","<img src=""stim_listB/kiss5.gif""style=""height:400px;""></stim_listB>","is kissing","","","","","",""
"null","<div style=""font-size:60px;"">+</div>","","html-keyboard-response","180","818117","0.0-15.0-0.13","63050","List2B","white","man","","","","null","","","","","","","","",""
"null","<img src=""stim_listB/kiss6.gif""style=""height:400px;""></stim_listB>","","html-keyboard-response","181","820132","0.0-15.0-1.13","63050","List2B","white","man","","","","null","","","","","","","","",""
"null","is being kissed by","","html-keyboard-response","182","822147","0.0-15.0-2.13","63050","List2B","white","man","","","","null","","","","","","","","",""
"6323.20000000298","","","survey-text","183","828471","0.0-15.0-3.13","63050","List2B","white","man","","","","","{""Q0"":""Mike, Dave""}","<img src=""stim_listB/kiss6.gif""style=""height:400px;""></stim_listB>","is being kissed by","","","","","",""
"null","<div style=""font-size:60px;"">+</div>","","html-keyboard-response","184","828983","0.0-15.0-0.14","63050","List2B","white","man","","","","null","","","","","","","","",""
"null","<img src=""stim_listB/hug8.gif""style=""height:400px;""></stim_listB>","","html-keyboard-response","185","830984","0.0-15.0-1.14","63050","List2B","white","man","","","","null","","","","","","","","",""
"null","is being hugged by","","html-keyboard-response","186","832984","0.0-15.0-2.14","63050","List2B","white","man","","","","null","","","","","","","","",""
"7292.79999999702","","","survey-text","187","840278","0.0-15.0-3.14","63050","List2B","white","man","","","","","{""Q0"":""Jane, Kate""}","<img src=""stim_listB/hug8.gif""style=""height:400px;""></stim_listB>","is being hugged by","","","","","",""
"null","<div style=""font-size:60px;"">+</div>","","html-keyboard-response","188","840779","0.0-15.0-0.15","63050","List2B","white","man","","","","null","","","","","","","","",""
"null","<img src=""stim_listB/hug7.gif""style=""height:400px;""></stim_listB>","","html-keyboard-response","189","842781","0.0-15.0-1.15","63050","List2B","white","man","","","","null","","","","","","","","",""
"null","is hugging","","html-keyboard-response","190","844787","0.0-15.0-2.15","63050","List2B","white","man","","","","null","","","","","","","","",""
"9088.90000000596","","","survey-text","191","853876","0.0-15.0-3.15","63050","List2B","white","man","","","","","{""Q0"":""Ruth,Beth""}","<img src=""stim_listB/hug7.gif""style=""height:400px;""></stim_listB>","is hugging","","","","","",""
"null","<div style=""font-size:60px;"">+</div>","","html-keyboard-response","192","854378","0.0-15.0-0.16","63050","List2B","white","man","","","","null","","","","","","","","",""
"null","<img src=""stim_listB/touch3.gif""style=""height:400px;""></stim_listB>","","html-keyboard-response","193","856379","0.0-15.0-1.16","63050","List2B","white","man","","","","null","","","","","","","","",""
"null","is touching","","html-keyboard-response","194","858389","0.0-15.0-2.16","63050","List2B","white","man","","","","null","","","","","","","","",""
"5302.9000000059605","","","survey-text","195","863693","0.0-15.0-3.16","63050","List2B","white","man","","","","","{""Q0"":""Mike, Kate""}","<img src=""stim_listB/touch3.gif""style=""height:400px;""></stim_listB>","is touching","","","","","",""
"null","<div style=""font-size:60px;"">+</div>","","html-keyboard-response","196","864197","0.0-15.0-0.17","63050","List2B","white","man","","","","null","","","","","","","","",""
"null","<img src=""stim_listB/shout6.gif""style=""height:400px;""></stim_listB>","","html-keyboard-response","197","866199","0.0-15.0-1.17","63050","List2B","white","man","","","","null","","","","","","","","",""
"null","is being shouted at by","","html-keyboard-response","198","868199","0.0-15.0-2.17","63050","List2B","white","man","","","","null","","","","","","","","",""
"4344.20000000298","","","survey-text","199","872544","0.0-15.0-3.17","63050","List2B","white","man","","","","","{""Q0"":""Mike, Dave""}","<img src=""stim_listB/shout6.gif""style=""height:400px;""></stim_listB>","is being shouted at by","","","","","",""
"null","<div style=""font-size:60px;"">+</div>","","html-keyboard-response","200","873054","0.0-15.0-0.18","63050","List2B","white","man","","","","null","","","","","","","","",""
"null","<img src=""stim_listB/seduce8.gif""style=""height:400px;""></stim_listB>","","html-keyboard-response","201","875065","0.0-15.0-1.18","63050","List2B","white","man","","","","null","","","","","","","","",""
"null","is being seduced by","","html-keyboard-response","202","877067","0.0-15.0-2.18","63050","List2B","white","man","","","","null","","","","","","","","",""
"8796.800000011921","","","survey-text","203","885864","0.0-15.0-3.18","63050","List2B","white","man","","","","","{""Q0"":""Jane, Beth""}","<img src=""stim_listB/seduce8.gif""style=""height:400px;""></stim_listB>","is being seduced by","","","","","",""
"null","<div style=""font-size:60px;"">+</div>","","html-keyboard-response","204","886374","0.0-15.0-0.19","63050","List2B","white","man","","","","null","","","","","","","","",""
"null","<img src=""stim_listB/shout2.gif""style=""height:400px;""></stim_listB>","","html-keyboard-response","205","888375","0.0-15.0-1.19","63050","List2B","white","man","","","","null","","","","","","","","",""
"null","is being shouted at by","","html-keyboard-response","206","890381","0.0-15.0-2.19","63050","List2B","white","man","","","","null","","","","","","","","",""
"5899.600000008941","","","survey-text","207","896281","0.0-15.0-3.19","63050","List2B","white","man","","","","","{""Q0"":""Jane, Dave""}","<img src=""stim_listB/shout2.gif""style=""height:400px;""></stim_listB>","is being shouted at by","","","","","",""
"1998.2999999970198","<img src='img/portrait_matrix_list2.jpg' style='width:900px;height:500px;''></img><p>If you have memorised all the portraits and names and are ready to start, press Continue.</p><p><strong>Please note: Your memory of these faces will be tested 4 times during this experiment.</strong></p>","0","html-button-response","208","898280","0.0-16.0-0.0","63050","List2B","white","man","","","","","","","","","","","","",""
"3644.9000000059605","<img src=""portrait/BM1.jpg""style=""height:400px;""></img>","4","html-button-response","209","902927","0.0-16.0-1.0","63050","List2B","white","man","","true","4","","","","","","","","","",""
"null","CORRECT","","html-keyboard-response","210","904428","0.0-16.0-2.0-0.0","63050","List2B","white","man","","","","null","","","","","","","","",""
"2057","<img src=""portrait/BM2.jpg""style=""height:400px;""></img>","5","html-button-response","211","906486","0.0-16.0-4.0","63050","List2B","white","man","","true","5","","","","","","","","","",""
"null","CORRECT","","html-keyboard-response","212","907988","0.0-16.0-5.0-0.0","63050","List2B","white","man","","","","null","","","","","","","","",""
"3401.7000000029802","<img src=""portrait/WM2.jpg""style=""height:400px;""></img>","7","html-button-response","213","911391","0.0-16.0-7.0","63050","List2B","white","man","","true","7","","","","","","","","","",""
"null","CORRECT","","html-keyboard-response","214","912893","0.0-16.0-8.0-0.0","63050","List2B","white","man","","","","null","","","","","","","","",""
"1254.1000000089407","<img src=""portrait/WW2.jpg""style=""height:400px;""></img>","3","html-button-response","215","914148","0.0-16.0-10.0","63050","List2B","white","man","","true","3","","","","","","","","","",""
"null","CORRECT","","html-keyboard-response","216","915661","0.0-16.0-11.0-0.0","63050","List2B","white","man","","","","null","","","","","","","","",""
"2588.2000000029802","<img src=""portrait/BW2.jpg""style=""height:400px;""></img>","2","html-button-response","217","918250","0.0-16.0-13.0","63050","List2B","white","man","","true","2","","","","","","","","","",""
"null","CORRECT","","html-keyboard-response","218","919766","0.0-16.0-14.0-0.0","63050","List2B","white","man","","","","null","","","","","","","","",""
"2090.2999999970198","<img src=""portrait/WM1.jpg""style=""height:400px;""></img>","6","html-button-response","219","921857","0.0-16.0-16.0","63050","List2B","white","man","","true","6","","","","","","","","","",""
"null","CORRECT","","html-keyboard-response","220","923358","0.0-16.0-17.0-0.0","63050","List2B","white","man","","","","null","","","","","","","","",""
"4327.29999999702","<img src=""portrait/BW1.jpg""style=""height:400px;""></img>","0","html-button-response","221","927686","0.0-16.0-19.0","63050","List2B","white","man","","true","0","","","","","","","","","",""
"null","CORRECT","","html-keyboard-response","222","929187","0.0-16.0-20.0-0.0","63050","List2B","white","man","","","","null","","","","","","","","",""
"1433.9000000059605","<img src=""portrait/WW1.jpg""style=""height:400px;""></img>","1","html-button-response","223","930622","0.0-16.0-22.0","63050","List2B","white","man","","true","1","","","","","","","","","",""
"null","CORRECT","","html-keyboard-response","224","932123","0.0-16.0-23.0-0.0","63050","List2B","white","man","","","","null","","","","","","","","",""
"1049.7999999970198","<p>You got 8 out of 8 right first time. Press Continue.</p>","0","html-button-response","225","933174","0.0-16.0-25.0","63050","List2B","white","man","","","","","","","","","","","","",""
"null","<div style=""font-size:60px;"">+</div>","","html-keyboard-response","226","934676","0.0-17.0-0.0","63050","List2B","white","man","","","","null","","","","","","","","",""
"null","<img src=""stim_listB/challenge3.gif""style=""height:400px;""></stim_listB>","","html-keyboard-response","227","936677","0.0-17.0-1.0","63050","List2B","white","man","","","","null","","","","","","","","",""
"null","is challenging","","html-keyboard-response","228","938687","0.0-17.0-2.0","63050","List2B","white","man","","","","null","","","","","","","","",""
"7081.600000008941","","","survey-text","229","945770","0.0-17.0-3.0","63050","List2B","white","man","","","","","{""Q0"":""Mike, Beth""}","<img src=""stim_listB/challenge3.gif""style=""height:400px;""></stim_listB>","is challenging","","","","","",""
"null","<div style=""font-size:60px;"">+</div>","","html-keyboard-response","230","946272","0.0-17.0-0.1","63050","List2B","white","man","","","","null","","","","","","","","",""
"null","<img src=""stim_listB/touch7.gif""style=""height:400px;""></stim_listB>","","html-keyboard-response","231","948278","0.0-17.0-1.1","63050","List2B","white","man","","","","null","","","","","","","","",""
"null","is touching","","html-keyboard-response","232","950287","0.0-17.0-2.1","63050","List2B","white","man","","","","null","","","","","","","","",""
"6308.79999999702","","","survey-text","233","956597","0.0-17.0-3.1","63050","List2B","white","man","","","","","{""Q0"":""Jane, Kate""}","<img src=""stim_listB/touch7.gif""style=""height:400px;""></stim_listB>","is touching","","","","","",""
"null","<div style=""font-size:60px;"">+</div>","","html-keyboard-response","234","957104","0.0-17.0-0.2","63050","List2B","white","man","","","","null","","","","","","","","",""
"null","<img src=""stim_listB/look7.gif""style=""height:400px;""></stim_listB>","","html-keyboard-response","235","959116","0.0-17.0-1.2","63050","List2B","white","man","","","","null","","","","","","","","",""
"null","is looking at","","html-keyboard-response","236","961131","0.0-17.0-2.2","63050","List2B","white","man","","","","null","","","","","","","","",""
"6180.899999991059","","","survey-text","237","967312","0.0-17.0-3.2","63050","List2B","white","man","","","","","{""Q0"":""Ruth, Beth""}","<img src=""stim_listB/look7.gif""style=""height:400px;""></stim_listB>","is looking at","","","","","",""
"null","<div style=""font-size:60px;"">+</div>","","html-keyboard-response","238","967814","0.0-17.0-0.3","63050","List2B","white","man","","","","null","","","","","","","","",""
"null","<img src=""stim_listB/greet6.gif""style=""height:400px;""></stim_listB>","","html-keyboard-response","239","969830","0.0-17.0-1.3","63050","List2B","white","man","","","","null","","","","","","","","",""
"null","is being greeted by","","html-keyboard-response","240","971831","0.0-17.0-2.3","63050","List2B","white","man","","","","null","","","","","","","","",""
"9407","","","survey-text","241","981238","0.0-17.0-3.3","63050","List2B","white","man","","","","","{""Q0"":""Mike, Luke""}","<img src=""stim_listB/greet6.gif""style=""height:400px;""></stim_listB>","is being greeted by","","","","","",""
"null","<div style=""font-size:60px;"">+</div>","","html-keyboard-response","242","981740","0.0-17.0-0.4","63050","List2B","white","man","","","","null","","","","","","","","",""
"null","<img src=""stim_listB/greet4.gif""style=""height:400px;""></stim_listB>","","html-keyboard-response","243","983741","0.0-17.0-1.4","63050","List2B","white","man","","","","null","","","","","","","","",""
"null","is being greeted by","","html-keyboard-response","244","985742","0.0-17.0-2.4","63050","List2B","white","man","","","","null","","","","","","","","",""
"10009.60000000894","","","survey-text","245","995752","0.0-17.0-3.4","63050","List2B","white","man","","","","","{""Q0"":""Fred, Kate""}","<img src=""stim_listB/greet4.gif""style=""height:400px;""></stim_listB>","is being greeted by","","","","","",""
"null","<div style=""font-size:60px;"">+</div>","","html-keyboard-response","246","996253","0.0-17.0-0.5","63050","List2B","white","man","","","","null","","","","","","","","",""
"null","<img src=""stim_listB/hug5.gif""style=""height:400px;""></stim_listB>","","html-keyboard-response","247","998269","0.0-17.0-1.5","63050","List2B","white","man","","","","null","","","","","","","","",""
"null","is hugging","","html-keyboard-response","248","1000270","0.0-17.0-2.5","63050","List2B","white","man","","","","null","","","","","","","","",""
"5087.79999999702","","","survey-text","249","1005358","0.0-17.0-3.5","63050","List2B","white","man","","","","","{""Q0"":""Fred, Mike""}","<img src=""stim_listB/hug5.gif""style=""height:400px;""></stim_listB>","is hugging","","","","","",""
"null","<div style=""font-size:60px;"">+</div>","","html-keyboard-response","250","1005859","0.0-17.0-0.6","63050","List2B","white","man","","","","null","","","","","","","","",""
"null","<img src=""stim_listB/touch6.gif""style=""height:400px;""></stim_listB>","","html-keyboard-response","251","1007862","0.0-17.0-1.6","63050","List2B","white","man","","","","null","","","","","","","","",""
"null","is being touched by","","html-keyboard-response","252","1009864","0.0-17.0-2.6","63050","List2B","white","man","","","","null","","","","","","","","",""
"5024.600000008941","","","survey-text","253","1014889","0.0-17.0-3.6","63050","List2B","white","man","","","","","{""Q0"":""Mike, Fred""}","<img src=""stim_listB/touch6.gif""style=""height:400px;""></stim_listB>","is being touched by","","","","","",""
"null","<div style=""font-size:60px;"">+</div>","","html-keyboard-response","254","1015392","0.0-17.0-0.7","63050","List2B","white","man","","","","null","","","","","","","","",""
"null","<img src=""stim_listB/touch2.gif""style=""height:400px;""></stim_listB>","","html-keyboard-response","255","1017392","0.0-17.0-1.7","63050","List2B","white","man","","","","null","","","","","","","","",""
"null","is being touched by","","html-keyboard-response","256","1019393","0.0-17.0-2.7","63050","List2B","white","man","","","","null","","","","","","","","",""
"6217.5999999940395","","","survey-text","257","1025612","0.0-17.0-3.7","63050","List2B","white","man","","","","","{""Q0"":""Luke, Ruth""}","<img src=""stim_listB/touch2.gif""style=""height:400px;""></stim_listB>","is being touched by","","","","","",""
"null","<div style=""font-size:60px;"">+</div>","","html-keyboard-response","258","1026113","0.0-17.0-0.8","63050","List2B","white","man","","","","null","","","","","","","","",""
"null","<img src=""stim_listB/challenge4.gif""style=""height:400px;""></stim_listB>","","html-keyboard-response","259","1028126","0.0-17.0-1.8","63050","List2B","white","man","","","","null","","","","","","","","",""
"null","is being challenged by","","html-keyboard-response","260","1030128","0.0-17.0-2.8","63050","List2B","white","man","","","","null","","","","","","","","",""
"10556.29999999702","","","survey-text","261","1040685","0.0-17.0-3.8","63050","List2B","white","man","","","","","{""Q0"":""Fred, Kate""}","<img src=""stim_listB/challenge4.gif""style=""height:400px;""></stim_listB>","is being challenged by","","","","","",""
"null","<div style=""font-size:60px;"">+</div>","","html-keyboard-response","262","1041187","0.0-17.0-0.9","63050","List2B","white","man","","","","null","","","","","","","","",""
"null","<img src=""stim_listB/greet1.gif""style=""height:400px;""></stim_listB>","","html-keyboard-response","263","1043202","0.0-17.0-1.9","63050","List2B","white","man","","","","null","","","","","","","","",""
"null","is greeting","","html-keyboard-response","264","1045202","0.0-17.0-2.9","63050","List2B","white","man","","","","null","","","","","","","","",""
"4337.699999988079","","","survey-text","265","1049541","0.0-17.0-3.9","63050","List2B","white","man","","","","","{""Q0"":""Ruth, Dave""}","<img src=""stim_listB/greet1.gif""style=""height:400px;""></stim_listB>","is greeting","","","","","",""
"null","<div style=""font-size:60px;"">+</div>","","html-keyboard-response","266","1050054","0.0-17.0-0.10","63050","List2B","white","man","","","","null","","","","","","","","",""
"null","<img src=""stim_listB/touch4.gif""style=""height:400px;""></stim_listB>","","html-keyboard-response","267","1052055","0.0-17.0-1.10","63050","List2B","white","man","","","","null","","","","","","","","",""
"null","is being touched by","","html-keyboard-response","268","1054062","0.0-17.0-2.10","63050","List2B","white","man","","","","null","","","","","","","","",""
"8263.10000000894","","","survey-text","269","1062326","0.0-17.0-3.10","63050","List2B","white","man","","","","","{""Q0"":""Fred, Beth""}","<img src=""stim_listB/touch4.gif""style=""height:400px;""></stim_listB>","is being touched by","","","","","",""
"null","<div style=""font-size:60px;"">+</div>","","html-keyboard-response","270","1062840","0.0-17.0-0.11","63050","List2B","white","man","","","","null","","","","","","","","",""
"null","<img src=""stim_listB/look2.gif""style=""height:400px;""></stim_listB>","","html-keyboard-response","271","1064842","0.0-17.0-1.11","63050","List2B","white","man","","","","null","","","","","","","","",""
"null","is being looked at by","","html-keyboard-response","272","1066850","0.0-17.0-2.11","63050","List2B","white","man","","","","null","","","","","","","","",""
"27566.79999999702","","","survey-text","273","1094417","0.0-17.0-3.11","63050","List2B","white","man","","","","","{""Q0"":""Jane, Dave""}","<img src=""stim_listB/look2.gif""style=""height:400px;""></stim_listB>","is being looked at by","","","","","",""
"null","<div style=""font-size:60px;"">+</div>","","html-keyboard-response","274","1094933","0.0-17.0-0.12","63050","List2B","white","man","","","","null","","","","","","","","",""
"null","<img src=""stim_listB/challenge8.gif""style=""height:400px;""></stim_listB>","","html-keyboard-response","275","1096934","0.0-17.0-1.12","63050","List2B","white","man","","","","null","","","","","","","","",""
"null","is being challenged by","","html-keyboard-response","276","1098935","0.0-17.0-2.12","63050","List2B","white","man","","","","null","","","","","","","","",""
"4531.4000000059605","","","survey-text","277","1103467","0.0-17.0-3.12","63050","List2B","white","man","","","","","{""Q0"":""Ruth, Kate""}","<img src=""stim_listB/challenge8.gif""style=""height:400px;""></stim_listB>","is being challenged by","","","","","",""
"null","<div style=""font-size:60px;"">+</div>","","html-keyboard-response","278","1103979","0.0-17.0-0.13","63050","List2B","white","man","","","","null","","","","","","","","",""
"null","<img src=""stim_listB/greet3.gif""style=""height:400px;""></stim_listB>","","html-keyboard-response","279","1105994","0.0-17.0-1.13","63050","List2B","white","man","","","","null","","","","","","","","",""
"null","is greeting","","html-keyboard-response","280","1107994","0.0-17.0-2.13","63050","List2B","white","man","","","","null","","","","","","","","",""
"8790.90000000596","","","survey-text","281","1116786","0.0-17.0-3.13","63050","List2B","white","man","","","","","{""Q0"":""Mike, Beth""}","<img src=""stim_listB/greet3.gif""style=""height:400px;""></stim_listB>","is greeting","","","","","",""
"null","<div style=""font-size:60px;"">+</div>","","html-keyboard-response","282","1117288","0.0-17.0-0.14","63050","List2B","white","man","","","","null","","","","","","","","",""
"null","<img src=""stim_listB/seduce3.gif""style=""height:400px;""></stim_listB>","","html-keyboard-response","283","1119297","0.0-17.0-1.14","63050","List2B","white","man","","","","null","","","","","","","","",""
"null","is seducing","","html-keyboard-response","284","1121308","0.0-17.0-2.14","63050","List2B","white","man","","","","null","","","","","","","","",""
"8136.899999991059","","","survey-text","285","1129446","0.0-17.0-3.14","63050","List2B","white","man","","","","","{""Q0"":""Kate, Fred""}","<img src=""stim_listB/seduce3.gif""style=""height:400px;""></stim_listB>","is seducing","","","","","",""
"null","<div style=""font-size:60px;"">+</div>","","html-keyboard-response","286","1129957","0.0-17.0-0.15","63050","List2B","white","man","","","","null","","","","","","","","",""
"null","<img src=""stim_listB/challenge6.gif""style=""height:400px;""></stim_listB>","","html-keyboard-response","287","1131958","0.0-17.0-1.15","63050","List2B","white","man","","","","null","","","","","","","","",""
"null","is being challenged by","","html-keyboard-response","288","1133960","0.0-17.0-2.15","63050","List2B","white","man","","","","null","","","","","","","","",""
"9141","","","survey-text","289","1143102","0.0-17.0-3.15","63050","List2B","white","man","","","","","{""Q0"":""Luke, Mike""}","<img src=""stim_listB/challenge6.gif""style=""height:400px;""></stim_listB>","is being challenged by","","","","","",""
"null","<div style=""font-size:60px;"">+</div>","","html-keyboard-response","290","1143603","0.0-17.0-0.16","63050","List2B","white","man","","","","null","","","","","","","","",""
"null","<img src=""stim_listB/kiss8.gif""style=""height:400px;""></stim_listB>","","html-keyboard-response","291","1145605","0.0-17.0-1.16","63050","List2B","white","man","","","","null","","","","","","","","",""
"null","is being kissed by","","html-keyboard-response","292","1147606","0.0-17.0-2.16","63050","List2B","white","man","","","","null","","","","","","","","",""
"5691.899999991059","","","survey-text","293","1153299","0.0-17.0-3.16","63050","List2B","white","man","","","","","{""Q0"":""Jane, Kate""}","<img src=""stim_listB/kiss8.gif""style=""height:400px;""></stim_listB>","is being kissed by","","","","","",""
"null","<div style=""font-size:60px;"">+</div>","","html-keyboard-response","294","1153800","0.0-17.0-0.17","63050","List2B","white","man","","","","null","","","","","","","","",""
"null","<img src=""stim_listB/copy6.gif""style=""height:400px;""></stim_listB>","","html-keyboard-response","295","1155806","0.0-17.0-1.17","63050","List2B","white","man","","","","null","","","","","","","","",""
"null","is being copied by","","html-keyboard-response","296","1157816","0.0-17.0-2.17","63050","List2B","white","man","","","","null","","","","","","","","",""
"7485","","","survey-text","297","1165301","0.0-17.0-3.17","63050","List2B","white","man","","","","","{""Q0"":""Luke, Mike""}","<img src=""stim_listB/copy6.gif""style=""height:400px;""></stim_listB>","is being copied by","","","","","",""
"null","<div style=""font-size:60px;"">+</div>","","html-keyboard-response","298","1165806","0.0-17.0-0.18","63050","List2B","white","man","","","","null","","","","","","","","",""
"null","<img src=""stim_listB/shout4.gif""style=""height:400px;""></stim_listB>","","html-keyboard-response","299","1167814","0.0-17.0-1.18","63050","List2B","white","man","","","","null","","","","","","","","",""
"null","is being shouted at by","","html-keyboard-response","300","1169829","0.0-17.0-2.18","63050","List2B","white","man","","","","null","","","","","","","","",""
"4455.20000000298","","","survey-text","301","1174285","0.0-17.0-3.18","63050","List2B","white","man","","","","","{""Q0"":""Mike, Kate""}","<img src=""stim_listB/shout4.gif""style=""height:400px;""></stim_listB>","is being shouted at by","","","","","",""
"null","<div style=""font-size:60px;"">+</div>","","html-keyboard-response","302","1174786","0.0-17.0-0.19","63050","List2B","white","man","","","","null","","","","","","","","",""
"null","<img src=""stim_listB/greet7.gif""style=""height:400px;""></stim_listB>","","html-keyboard-response","303","1176787","0.0-17.0-1.19","63050","List2B","white","man","","","","null","","","","","","","","",""
"null","is greeting","","html-keyboard-response","304","1178787","0.0-17.0-2.19","63050","List2B","white","man","","","","null","","","","","","","","",""
"5763.20000000298","","","survey-text","305","1184551","0.0-17.0-3.19","63050","List2B","white","man","","","","","{""Q0"":""Jane, Beth""}","<img src=""stim_listB/greet7.gif""style=""height:400px;""></stim_listB>","is greeting","","","","","",""
"2543.6000000089407","<img src='img/portrait_matrix_list2.jpg' style='width:900px;height:500px;''></img><p>If you have memorised all the portraits and names and are ready to start, press Continue.</p><p><strong>Please note: Your memory of these faces will be tested 4 times during this experiment.</strong></p>","0","html-button-response","306","1187095","0.0-18.0-0.0","63050","List2B","white","man","","","","","","","","","","","","",""
"6088.5","<img src=""portrait/WM2.jpg""style=""height:400px;""></img>","7","html-button-response","307","1194194","0.0-18.0-1.0","63050","List2B","white","man","","true","7","","","","","","","","","",""
"null","CORRECT","","html-keyboard-response","308","1195696","0.0-18.0-2.0-0.0","63050","List2B","white","man","","","","null","","","","","","","","",""
"2758.7999999970198","<img src=""portrait/BM2.jpg""style=""height:400px;""></img>","5","html-button-response","309","1198455","0.0-18.0-4.0","63050","List2B","white","man","","true","5","","","","","","","","","",""
"null","CORRECT","","html-keyboard-response","310","1199958","0.0-18.0-5.0-0.0","63050","List2B","white","man","","","","null","","","","","","","","",""
"1436.7999999970198","<img src=""portrait/WW1.jpg""style=""height:400px;""></img>","1","html-button-response","311","1201395","0.0-18.0-7.0","63050","List2B","white","man","","true","1","","","","","","","","","",""
"null","CORRECT","","html-keyboard-response","312","1202897","0.0-18.0-8.0-0.0","63050","List2B","white","man","","","","null","","","","","","","","",""
"4945.0999999940395","<img src=""portrait/BW2.jpg""style=""height:400px;""></img>","0","html-button-response","313","1207843","0.0-18.0-10.0","63050","List2B","white","man","","true","2","","","","","","","","","",""
"4681.5","<img src=""portrait/BW2.jpg""style=""height:400px;""></img>","2","html-button-response","314","1213539","0.0-18.0-12.0-0.0","63050","List2B","white","man","","false","2","","","","","","","","","",""
"null","CORRECT","","html-keyboard-response","315","1215050","0.0-18.0-12.0-1.0-0.0","63050","List2B","white","man","","","","null","","","","","","","","",""
"1383","<img src=""portrait/WW2.jpg""style=""height:400px;""></img>","3","html-button-response","316","1216434","0.0-18.0-13.0","63050","List2B","white","man","","true","3","","","","","","","","","",""
"null","CORRECT","","html-keyboard-response","317","1217937","0.0-18.0-14.0-0.0","63050","List2B","white","man","","","","null","","","","","","","","",""
"1374.4000000059605","<img src=""portrait/BW1.jpg""style=""height:400px;""></img>","1","html-button-response","318","1219312","0.0-18.0-16.0","63050","List2B","white","man","","true","0","","","","","","","","","",""
"2621.4000000059605","<img src=""portrait/BW1.jpg""style=""height:400px;""></img>","0","html-button-response","319","1222945","0.0-18.0-18.0-0.0","63050","List2B","white","man","","false","0","","","","","","","","","",""
"null","CORRECT","","html-keyboard-response","320","1224446","0.0-18.0-18.0-1.0-0.0","63050","List2B","white","man","","","","null","","","","","","","","",""
"2599.0999999940395","<img src=""portrait/WM1.jpg""style=""height:400px;""></img>","6","html-button-response","321","1227046","0.0-18.0-19.0","63050","List2B","white","man","","true","6","","","","","","","","","",""
"null","CORRECT","","html-keyboard-response","322","1228547","0.0-18.0-20.0-0.0","63050","List2B","white","man","","","","null","","","","","","","","",""
"5020.79999999702","<img src=""portrait/BM1.jpg""style=""height:400px;""></img>","7","html-button-response","323","1233569","0.0-18.0-22.0","63050","List2B","white","man","","true","4","","","","","","","","","",""
"2249.0999999940395","<img src=""portrait/BM1.jpg""style=""height:400px;""></img>","4","html-button-response","324","1236819","0.0-18.0-24.0-0.0","63050","List2B","white","man","","false","4","","","","","","","","","",""
"null","CORRECT","","html-keyboard-response","325","1238320","0.0-18.0-24.0-1.0-0.0","63050","List2B","white","man","","","","null","","","","","","","","",""
"2312","<p>You got 5 out of 8 right first time. Press Continue.</p>","0","html-button-response","326","1240633","0.0-18.0-25.0","63050","List2B","white","man","","","","","","","","","","","","",""
"4495.79999999702","As you did not score 100%, the memory game will repeat. Press Continue.","0","html-button-response","327","1246131","0.0-18.0-26.0-0.0","63050","List2B","white","man","","","","","","","","","","","","",""
"3388.5999999940395","<img src='img/portrait_matrix_list2.jpg' style='width:900px;height:500px;''></img><p>If you have memorised all the portraits and names and are ready to start, press Continue.</p><p><strong>Please note: Your memory of these faces will be tested 4 times during this experiment.</strong></p>","0","html-button-response","328","1250527","0.0-18.1-0.1","63050","List2B","white","man","","","","","","","","","","","","",""
"6339.9000000059605","<img src=""portrait/WM2.jpg""style=""height:400px;""></img>","7","html-button-response","329","1257868","0.0-18.1-1.1","63050","List2B","white","man","","true","7","","","","","","","","","",""
"null","CORRECT","","html-keyboard-response","330","1259369","0.0-18.1-2.1-0.1","63050","List2B","white","man","","","","null","","","","","","","","",""
"1424.0999999940395","<img src=""portrait/BM2.jpg""style=""height:400px;""></img>","5","html-button-response","331","1260794","0.0-18.1-4.1","63050","List2B","white","man","","true","5","","","","","","","","","",""
"null","CORRECT","","html-keyboard-response","332","1262296","0.0-18.1-5.1-0.1","63050","List2B","white","man","","","","null","","","","","","","","",""
"1451.7999999970198","<img src=""portrait/WW1.jpg""style=""height:400px;""></img>","1","html-button-response","333","1263749","0.0-18.1-7.1","63050","List2B","white","man","","true","1","","","","","","","","","",""
"null","CORRECT","","html-keyboard-response","334","1265252","0.0-18.1-8.1-0.1","63050","List2B","white","man","","","","null","","","","","","","","",""
"2921.7999999970198","<img src=""portrait/BW2.jpg""style=""height:400px;""></img>","2","html-button-response","335","1268174","0.0-18.1-10.1","63050","List2B","white","man","","true","2","","","","","","","","","",""
"null","CORRECT","","html-keyboard-response","336","1269687","0.0-18.1-11.1-0.1","63050","List2B","white","man","","","","null","","","","","","","","",""
"1138.7999999970198","<img src=""portrait/WW2.jpg""style=""height:400px;""></img>","3","html-button-response","337","1270826","0.0-18.1-13.1","63050","List2B","white","man","","true","3","","","","","","","","","",""
"null","CORRECT","","html-keyboard-response","338","1272348","0.0-18.1-14.1-0.1","63050","List2B","white","man","","","","null","","","","","","","","",""
"2534.7999999970198","<img src=""portrait/BW1.jpg""style=""height:400px;""></img>","0","html-button-response","339","1274883","0.0-18.1-16.1","63050","List2B","white","man","","true","0","","","","","","","","","",""
"null","CORRECT","","html-keyboard-response","340","1276384","0.0-18.1-17.1-0.1","63050","List2B","white","man","","","","null","","","","","","","","",""
"3095.3999999910593","<img src=""portrait/WM1.jpg""style=""height:400px;""></img>","6","html-button-response","341","1279480","0.0-18.1-19.1","63050","List2B","white","man","","true","6","","","","","","","","","",""
"null","CORRECT","","html-keyboard-response","342","1280982","0.0-18.1-20.1-0.1","63050","List2B","white","man","","","","null","","","","","","","","",""
"2836.7999999970198","<img src=""portrait/BM1.jpg""style=""height:400px;""></img>","4","html-button-response","343","1283819","0.0-18.1-22.1","63050","List2B","white","man","","true","4","","","","","","","","","",""
"null","CORRECT","","html-keyboard-response","344","1285328","0.0-18.1-23.1-0.1","63050","List2B","white","man","","","","null","","","","","","","","",""
"1077.7999999970198","<p>You got 8 out of 8 right first time. Press Continue.</p>","0","html-button-response","345","1286407","0.0-18.1-25.1","63050","List2B","white","man","","","","","","","","","","","","",""
"null","<div style=""font-size:60px;"">+</div>","","html-keyboard-response","346","1287918","0.0-19.0-0.0","63050","List2B","white","man","","","","null","","","","","","","","",""
"null","<img src=""stim_listB/challenge7.gif""style=""height:400px;""></stim_listB>","","html-keyboard-response","347","1289920","0.0-19.0-1.0","63050","List2B","white","man","","","","null","","","","","","","","",""
"null","is challenging","","html-keyboard-response","348","1291929","0.0-19.0-2.0","63050","List2B","white","man","","","","null","","","","","","","","",""
"5392.79999999702","","","survey-text","349","1297323","0.0-19.0-3.0","63050","List2B","white","man","","","","","{""Q0"":""Jane, Beth""}","<img src=""stim_listB/challenge7.gif""style=""height:400px;""></stim_listB>","is challenging","","","","","",""
"null","<div style=""font-size:60px;"">+</div>","","html-keyboard-response","350","1297824","0.0-19.0-0.1","63050","List2B","white","man","","","","null","","","","","","","","",""
"null","<img src=""stim_listB/kiss3.gif""style=""height:400px;""></stim_listB>","","html-keyboard-response","351","1299835","0.0-19.0-1.1","63050","List2B","white","man","","","","null","","","","","","","","",""
"null","is kissing","","html-keyboard-response","352","1301845","0.0-19.0-2.1","63050","List2B","white","man","","","","null","","","","","","","","",""
"5750.5","","","survey-text","353","1307597","0.0-19.0-3.1","63050","List2B","white","man","","","","","{""Q0"":""Fred, Beth""}","<img src=""stim_listB/kiss3.gif""style=""height:400px;""></stim_listB>","is kissing","","","","","",""
"null","<div style=""font-size:60px;"">+</div>","","html-keyboard-response","354","1308100","0.0-19.0-0.2","63050","List2B","white","man","","","","null","","","","","","","","",""
"null","<img src=""stim_listB/shout8.gif""style=""height:400px;""></stim_listB>","","html-keyboard-response","355","1310101","0.0-19.0-1.2","63050","List2B","white","man","","","","null","","","","","","","","",""
"null","is being shouted at by","","html-keyboard-response","356","1312108","0.0-19.0-2.2","63050","List2B","white","man","","","","null","","","","","","","","",""
"11304.70000000298","","","survey-text","357","1323414","0.0-19.0-3.2","63050","List2B","white","man","","","","","{""Q0"":""Jane, Beth""}","<img src=""stim_listB/shout8.gif""style=""height:400px;""></stim_listB>","is being shouted at by","","","","","",""
"null","<div style=""font-size:60px;"">+</div>","","html-keyboard-response","358","1323916","0.0-19.0-0.3","63050","List2B","white","man","","","","null","","","","","","","","",""
"null","<img src=""stim_listB/greet5.gif""style=""height:400px;""></stim_listB>","","html-keyboard-response","359","1325917","0.0-19.0-1.3","63050","List2B","white","man","","","","null","","","","","","","","",""
"null","is greeting","","html-keyboard-response","360","1327918","0.0-19.0-2.3","63050","List2B","white","man","","","","null","","","","","","","","",""
"3270.7000000029802","","","survey-text","361","1331190","0.0-19.0-3.3","63050","List2B","white","man","","","","","{""Q0"":""Dave, Fred""}","<img src=""stim_listB/greet5.gif""style=""height:400px;""></stim_listB>","is greeting","","","","","",""
"null","<div style=""font-size:60px;"">+</div>","","html-keyboard-response","362","1331691","0.0-19.0-0.4","63050","List2B","white","man","","","","null","","","","","","","","",""
"null","<img src=""stim_listB/copy1.gif""style=""height:400px;""></stim_listB>","","html-keyboard-response","363","1333691","0.0-19.0-1.4","63050","List2B","white","man","","","","null","","","","","","","","",""
"null","is copying","","html-keyboard-response","364","1335694","0.0-19.0-2.4","63050","List2B","white","man","","","","null","","","","","","","","",""
"4423.300000011921","","","survey-text","365","1340118","0.0-19.0-3.4","63050","List2B","white","man","","","","","{""Q0"":""Ruth, Dave""}","<img src=""stim_listB/copy1.gif""style=""height:400px;""></stim_listB>","is copying","","","","","",""
"null","<div style=""font-size:60px;"">+</div>","","html-keyboard-response","366","1340619","0.0-19.0-0.5","63050","List2B","white","man","","","","null","","","","","","","","",""
"null","<img src=""stim_listB/kiss7.gif""style=""height:400px;""></stim_listB>","","html-keyboard-response","367","1342620","0.0-19.0-1.5","63050","List2B","white","man","","","","null","","","","","","","","",""
"null","is kissing","","html-keyboard-response","368","1344631","0.0-19.0-2.5","63050","List2B","white","man","","","","null","","","","","","","","",""
"4425.20000000298","","","survey-text","369","1349057","0.0-19.0-3.5","63050","List2B","white","man","","","","","{""Q0"":""Ruth, Beth""}","<img src=""stim_listB/kiss7.gif""style=""height:400px;""></stim_listB>","is kissing","","","","","",""
"null","<div style=""font-size:60px;"">+</div>","","html-keyboard-response","370","1349558","0.0-19.0-0.6","63050","List2B","white","man","","","","null","","","","","","","","",""
"null","<img src=""stim_listB/hug4.gif""style=""height:400px;""></stim_listB>","","html-keyboard-response","371","1351567","0.0-19.0-1.6","63050","List2B","white","man","","","","null","","","","","","","","",""
"null","is being hugged by","","html-keyboard-response","372","1353578","0.0-19.0-2.6","63050","List2B","white","man","","","","null","","","","","","","","",""
"7251.70000000298","","","survey-text","373","1360831","0.0-19.0-3.6","63050","List2B","white","man","","","","","{""Q0"":""Mike, Kate""}","<img src=""stim_listB/hug4.gif""style=""height:400px;""></stim_listB>","is being hugged by","","","","","",""
"null","<div style=""font-size:60px;"">+</div>","","html-keyboard-response","374","1361332","0.0-19.0-0.7","63050","List2B","white","man","","","","null","","","","","","","","",""
"null","<img src=""stim_listB/oppose2.gif""style=""height:400px;""></stim_listB>","","html-keyboard-response","375","1363333","0.0-19.0-1.7","63050","List2B","white","man","","","","null","","","","","","","","",""
"null","is being opposed by","","html-keyboard-response","376","1365334","0.0-19.0-2.7","63050","List2B","white","man","","","","null","","","","","","","","",""
"4977.9000000059605","","","survey-text","377","1370313","0.0-19.0-3.7","63050","List2B","white","man","","","","","{""Q0"":""Luke, Ruth""}","<img src=""stim_listB/oppose2.gif""style=""height:400px;""></stim_listB>","is being opposed by","","","","","",""
"null","<div style=""font-size:60px;"">+</div>","","html-keyboard-response","378","1370813","0.0-19.0-0.8","63050","List2B","white","man","","","","null","","","","","","","","",""
"null","<img src=""stim_listB/seduce5.gif""style=""height:400px;""></stim_listB>","","html-keyboard-response","379","1372815","0.0-19.0-1.8","63050","List2B","white","man","","","","null","","","","","","","","",""
"null","is seducing","","html-keyboard-response","380","1374815","0.0-19.0-2.8","63050","List2B","white","man","","","","null","","","","","","","","",""
"5181.79999999702","","","survey-text","381","1379998","0.0-19.0-3.8","63050","List2B","white","man","","","","","{""Q0"":""Mike, Luke""}","<img src=""stim_listB/seduce5.gif""style=""height:400px;""></stim_listB>","is seducing","","","","","",""
"null","<div style=""font-size:60px;"">+</div>","","html-keyboard-response","382","1380499","0.0-19.0-0.9","63050","List2B","white","man","","","","null","","","","","","","","",""
"null","<img src=""stim_listB/kiss4.gif""style=""height:400px;""></stim_listB>","","html-keyboard-response","383","1382509","0.0-19.0-1.9","63050","List2B","white","man","","","","null","","","","","","","","",""
"null","is being kissed by","","html-keyboard-response","384","1384511","0.0-19.0-2.9","63050","List2B","white","man","","","","null","","","","","","","","",""
"6685.600000008941","","","survey-text","385","1391197","0.0-19.0-3.9","63050","List2B","white","man","","","","","{""Q0"":""Mike, Kate""}","<img src=""stim_listB/kiss4.gif""style=""height:400px;""></stim_listB>","is being kissed by","","","","","",""
"null","<div style=""font-size:60px;"">+</div>","","html-keyboard-response","386","1391704","0.0-19.0-0.10","63050","List2B","white","man","","","","null","","","","","","","","",""
"null","<img src=""stim_listB/touch8.gif""style=""height:400px;""></stim_listB>","","html-keyboard-response","387","1393705","0.0-19.0-1.10","63050","List2B","white","man","","","","null","","","","","","","","",""
"null","is being touched by","","html-keyboard-response","388","1395720","0.0-19.0-2.10","63050","List2B","white","man","","","","null","","","","","","","","",""
"4466.4000000059605","","","survey-text","389","1400187","0.0-19.0-3.10","63050","List2B","white","man","","","","","{""Q0"":""Beth, Ruth""}","<img src=""stim_listB/touch8.gif""style=""height:400px;""></stim_listB>","is being touched by","","","","","",""
"null","<div style=""font-size:60px;"">+</div>","","html-keyboard-response","390","1400688","0.0-19.0-0.11","63050","List2B","white","man","","","","null","","","","","","","","",""
"null","<img src=""stim_listB/oppose8.gif""style=""height:400px;""></stim_listB>","","html-keyboard-response","391","1402694","0.0-19.0-1.11","63050","List2B","white","man","","","","null","","","","","","","","",""
"null","is being opposed by","","html-keyboard-response","392","1404694","0.0-19.0-2.11","63050","List2B","white","man","","","","null","","","","","","","","",""
"12579.800000011921","","","survey-text","393","1417275","0.0-19.0-3.11","63050","List2B","white","man","","","","","{""Q0"":""Beth, Ruth""}","<img src=""stim_listB/oppose8.gif""style=""height:400px;""></stim_listB>","is being opposed by","","","","","",""
"null","<div style=""font-size:60px;"">+</div>","","html-keyboard-response","394","1417786","0.0-19.0-0.12","63050","List2B","white","man","","","","null","","","","","","","","",""
"null","<img src=""stim_listB/look3.gif""style=""height:400px;""></stim_listB>","","html-keyboard-response","395","1419796","0.0-19.0-1.12","63050","List2B","white","man","","","","null","","","","","","","","",""
"null","is looking at","","html-keyboard-response","396","1421797","0.0-19.0-2.12","63050","List2B","white","man","","","","null","","","","","","","","",""
"4740.4000000059605","","","survey-text","397","1426539","0.0-19.0-3.12","63050","List2B","white","man","","","","","{""Q0"":""Fred, Dave""}","<img src=""stim_listB/look3.gif""style=""height:400px;""></stim_listB>","is looking at","","","","","",""
"null","<div style=""font-size:60px;"">+</div>","","html-keyboard-response","398","1427041","0.0-19.0-0.13","63050","List2B","white","man","","","","null","","","","","","","","",""
"null","<img src=""stim_listB/hug1.gif""style=""height:400px;""></stim_listB>","","html-keyboard-response","399","1429051","0.0-19.0-1.13","63050","List2B","white","man","","","","null","","","","","","","","",""
"null","is hugging","","html-keyboard-response","400","1431056","0.0-19.0-2.13","63050","List2B","white","man","","","","null","","","","","","","","",""
"7056.0999999940395","","","survey-text","401","1438113","0.0-19.0-3.13","63050","List2B","white","man","","","","","{""Q0"":""Luke, Ruth""}","<img src=""stim_listB/hug1.gif""style=""height:400px;""></stim_listB>","is hugging","","","","","",""
"null","<div style=""font-size:60px;"">+</div>","","html-keyboard-response","402","1438614","0.0-19.0-0.14","63050","List2B","white","man","","","","null","","","","","","","","",""
"null","<img src=""stim_listB/challenge5.gif""style=""height:400px;""></stim_listB>","","html-keyboard-response","403","1440615","0.0-19.0-1.14","63050","List2B","white","man","","","","null","","","","","","","","",""
"null","is challenging","","html-keyboard-response","404","1442616","0.0-19.0-2.14","63050","List2B","white","man","","","","null","","","","","","","","",""
"4469.899999991059","","","survey-text","405","1447087","0.0-19.0-3.14","63050","List2B","white","man","","","","","{""Q0"":""Dave, Fred""}","<img src=""stim_listB/challenge5.gif""style=""height:400px;""></stim_listB>","is challenging","","","","","",""
"null","<div style=""font-size:60px;"">+</div>","","html-keyboard-response","406","1447591","0.0-19.0-0.15","63050","List2B","white","man","","","","null","","","","","","","","",""
"null","<img src=""stim_listB/look6.gif""style=""height:400px;""></stim_listB>","","html-keyboard-response","407","1449593","0.0-19.0-1.15","63050","List2B","white","man","","","","null","","","","","","","","",""
"null","is being looked at by","","html-keyboard-response","408","1451593","0.0-19.0-2.15","63050","List2B","white","man","","","","null","","","","","","","","",""
"4602.20000000298","","","survey-text","409","1456196","0.0-19.0-3.15","63050","List2B","white","man","","","","","{""Q0"":""Mike, Dave""}","<img src=""stim_listB/look6.gif""style=""height:400px;""></stim_listB>","is being looked at by","","","","","",""
"null","<div style=""font-size:60px;"">+</div>","","html-keyboard-response","410","1456697","0.0-19.0-0.16","63050","List2B","white","man","","","","null","","","","","","","","",""
"null","<img src=""stim_listB/seduce4.gif""style=""height:400px;""></stim_listB>","","html-keyboard-response","411","1458698","0.0-19.0-1.16","63050","List2B","white","man","","","","null","","","","","","","","",""
"null","is being seduced by","","html-keyboard-response","412","1460700","0.0-19.0-2.16","63050","List2B","white","man","","","","null","","","","","","","","",""
"4268.79999999702","","","survey-text","413","1464970","0.0-19.0-3.16","63050","List2B","white","man","","","","","{""Q0"":""Mike, Ruth""}","<img src=""stim_listB/seduce4.gif""style=""height:400px;""></stim_listB>","is being seduced by","","","","","",""
"null","<div style=""font-size:60px;"">+</div>","","html-keyboard-response","414","1465485","0.0-19.0-0.17","63050","List2B","white","man","","","","null","","","","","","","","",""
"null","<img src=""stim_listB/seduce6.gif""style=""height:400px;""></stim_listB>","","html-keyboard-response","415","1467487","0.0-19.0-1.17","63050","List2B","white","man","","","","null","","","","","","","","",""
"null","is being seduced by","","html-keyboard-response","416","1469488","0.0-19.0-2.17","63050","List2B","white","man","","","","null","","","","","","","","",""
"4417.899999991059","","","survey-text","417","1473907","0.0-19.0-3.17","63050","List2B","white","man","","","","","{""Q0"":""Fred, Dave""}","<img src=""stim_listB/seduce6.gif""style=""height:400px;""></stim_listB>","is being seduced by","","","","","",""
"null","<div style=""font-size:60px;"">+</div>","","html-keyboard-response","418","1474409","0.0-19.0-0.18","63050","List2B","white","man","","","","null","","","","","","","","",""
"null","<img src=""stim_listB/kiss2.gif""style=""height:400px;""></stim_listB>","","html-keyboard-response","419","1476410","0.0-19.0-1.18","63050","List2B","white","man","","","","null","","","","","","","","",""
"null","is being kissed by","","html-keyboard-response","420","1478411","0.0-19.0-2.18","63050","List2B","white","man","","","","null","","","","","","","","",""
"4517.70000000298","","","survey-text","421","1482930","0.0-19.0-3.18","63050","List2B","white","man","","","","","{""Q0"":""Jane, Dave""}","<img src=""stim_listB/kiss2.gif""style=""height:400px;""></stim_listB>","is being kissed by","","","","","",""
"null","<div style=""font-size:60px;"">+</div>","","html-keyboard-response","422","1483442","0.0-19.0-0.19","63050","List2B","white","man","","","","null","","","","","","","","",""
"null","<img src=""stim_listB/copy8.gif""style=""height:400px;""></stim_listB>","","html-keyboard-response","423","1485456","0.0-19.0-1.19","63050","List2B","white","man","","","","null","","","","","","","","",""
"null","is being copied by","","html-keyboard-response","424","1487456","0.0-19.0-2.19","63050","List2B","white","man","","","","null","","","","","","","","",""
"5072.79999999702","","","survey-text","425","1492530","0.0-19.0-3.19","63050","List2B","white","man","","","","","{""Q0"":""Ruth, Jane""}","<img src=""stim_listB/copy8.gif""style=""height:400px;""></stim_listB>","is being copied by","","","","","",""
"3082.5","<p>Thank you for completing that task.</p><p>The final part of this session is a questionnaire that will take about 4 minutes.</p><p>Press Continue.</p>","0","html-button-response","426","1495613","0.0-20.0","63050","List2B","white","man","","","","","","","","","","","","",""
"29200.40000000596","","","survey-text","427","1525815","0.0-21.0","63050","List2B","white","man","","","","","{""Q0"":""25"",""Q1"":""English"",""Q2"":""English"",""Q3"":""United States"",""Q4"":""American"",""Q5"":""White"",""Q6"":""Male""}","","","demographics","","","","",""
"1509.699999988079","<p>Have you lived in the USA for the last 5 years or more?</p>","0","html-button-response","428","1527325","0.0-22.0","63050","List2B","white","man","","","","","","","","fiveyears","","","","",""
"2854.5","<p>Move the slider to show the extent to which you agree with the following statements.</p>","0","html-button-response","429","1531190","0.0-23.0","63050","List2B","white","man","","","","","","","","","","","","",""
"2769.0999999940395","","","html-slider-response","430","1534962","0.0-24.0-0.0-0.0","63050","List2B","white","man","","","","","","","","survey_race","99","","","I am glad to be my race.","glad"
"3760.5999999940395","","","html-slider-response","431","1538723","0.0-24.0-0.0-0.1","63050","List2B","white","man","","","","","","","","survey_race","94","","","I often think about the fact that I am my race.","often"
"3191.1000000089407","","","html-slider-response","432","1541915","0.0-24.0-0.0-0.2","63050","List2B","white","man","","","","","","","","survey_race","53","","","I feel solidarity with my race.","solidarity"
"2661.2999999970198","","","html-slider-response","433","1544577","0.0-24.0-0.0-0.3","63050","List2B","white","man","","","","","","","","survey_race","79","","","I am glad to be my age.","filler"
"5019.4000000059605","","","html-slider-response","434","1549597","0.0-24.0-0.0-0.4","63050","List2B","white","man","","","","","","","","survey_race","53","","","I consider myself an introvert.","filler"
"2762.2000000029802","","","html-slider-response","435","1552360","0.0-24.0-0.0-0.5","63050","List2B","white","man","","","","","","","","survey_race","93","","","The fact that I am my race is an important part of my identity.","identity"
"2692.2000000029802","","","html-slider-response","436","1555053","0.0-24.0-0.0-0.6","63050","List2B","white","man","","","","","","","","survey_race","40","","","People of my race are very similar to each other.","verysimilar"
"2894.4000000059605","","","html-slider-response","437","1557948","0.0-24.0-0.0-0.7","63050","List2B","white","man","","","","","","","","survey_race","87","","","Being my race is an important part of how I see myself.","important"
"2082.1000000089407","","","html-slider-response","438","1560031","0.0-24.0-0.0-0.8","63050","List2B","white","man","","","","","","","","survey_race","99","","","The older I get, the wiser I feel.","filler"
"3017.5","","","html-slider-response","439","1563049","0.0-24.0-0.0-0.9","63050","List2B","white","man","","","","","","","","survey_race","69","","","Being my race gives me a good feeling.","feeling"
"3600.4000000059605","","","html-slider-response","440","1566651","0.0-24.0-0.0-0.10","63050","List2B","white","man","","","","","","","","survey_race","77","","","I feel a bond with people the same age as me.","filler"
"3419.2000000029802","","","html-slider-response","441","1570071","0.0-24.0-0.0-0.11","63050","List2B","white","man","","","","","","","","survey_race","64","","","People my age have a lot in common with each other.","filler"
"5908.20000000298","","","html-slider-response","442","1575980","0.0-24.0-0.0-0.12","63050","List2B","white","man","","","","","","","","survey_race","77","","","Being my age gives me a good feeling.","filler"
"2752.2000000029802","","","html-slider-response","443","1578733","0.0-24.0-0.0-0.13","63050","List2B","white","man","","","","","","","","survey_race","100","","","I think that my race has a lot to be proud of.","proud"
"2593.4000000059605","","","html-slider-response","444","1581327","0.0-24.0-0.0-0.14","63050","List2B","white","man","","","","","","","","survey_race","63","","","I am glad to be the age I am.","filler"
"3395.4000000059605","","","html-slider-response","445","1584723","0.0-24.0-0.0-0.15","63050","List2B","white","man","","","","","","","","survey_race","25","","","I enjoy being in large groups.","filler"
"3442.2000000029802","","","html-slider-response","446","1588166","0.0-24.0-0.0-0.16","63050","List2B","white","man","","","","","","","","survey_race","28","","","I have a lot in common with the average person of my race.","average"
"3830.4000000059605","","","html-slider-response","447","1591997","0.0-24.0-0.0-0.17","63050","List2B","white","man","","","","","","","","survey_race","35","","","Getting older does not worry me.","filler"
"2122.300000011921","","","html-slider-response","448","1594120","0.0-24.0-0.0-0.18","63050","List2B","white","man","","","","","","","","survey_race","73","","","I feel a bond with my race.","bond"
"2648.5","","","html-slider-response","449","1596769","0.0-24.0-0.0-0.19","63050","List2B","white","man","","","","","","","","survey_race","83","","","I often think about the fact that I am my age.","filler"
"2514.2999999970198","","","html-slider-response","450","1599284","0.0-24.0-0.0-0.20","63050","List2B","white","man","","","","","","","","survey_race","31","","","I have a lot in common with people of a similar age to me.","filler"
"2318.6000000089407","","","html-slider-response","451","1601603","0.0-24.0-0.0-0.21","63050","List2B","white","man","","","","","","","","survey_race","42","","","People of my race have a lot in common with each other.","common"
"3350.4000000059605","","","html-slider-response","452","1604954","0.0-24.0-0.0-0.22","63050","List2B","white","man","","","","","","","","survey_race","70","","","My age is not an important part of who I am.","filler"
"2057","","","html-slider-response","453","1607011","0.0-24.0-0.0-0.23","63050","List2B","white","man","","","","","","","","survey_race","69","","","I feel committed to my race.","committed"
"1898.6000000089407","","","html-slider-response","454","1608911","0.0-24.0-0.0-0.24","63050","List2B","white","man","","","","","","","","survey_race","77","","","It is pleasant to be my race.","pleasant"
"3701.7999999970198","","","html-slider-response","455","1612613","0.0-24.0-0.0-0.25","63050","List2B","white","man","","","","","","","","survey_race","40","","","I am similar to the average person of my race.","similar"
"2286.800000011921","","","html-slider-response","456","1614901","0.0-24.0-0.0-0.26","63050","List2B","white","man","","","","","","","","survey_race","43","","","I consider myself an extrovert.","filler"
"4412.5","","","html-slider-response","457","1619314","0.0-24.0-0.0-0.27","63050","List2B","white","man","","","","","","","","survey_race","58","","","I feel solidarity with people the same age as me.","filler"
"3108.2000000029802","","","html-slider-response","458","1622423","0.0-24.0-1.0-0.0","63050","List2B","white","man","","","","","","","","survey_gender","83","","","I have a lot in common with the average person of my gender.","average"
"2576.0999999940395","","","html-slider-response","459","1624999","0.0-24.0-1.0-0.1","63050","List2B","white","man","","","","","","","","survey_gender","95","","","I am glad to have the friends that I have.","filler"
"2111.5","","","html-slider-response","460","1627111","0.0-24.0-1.0-0.2","63050","List2B","white","man","","","","","","","","survey_gender","100","","","I feel a bond with my gender.","bond"
"1871.5","","","html-slider-response","461","1628983","0.0-24.0-1.0-0.3","63050","List2B","white","man","","","","","","","","survey_gender","100","","","It is pleasant to be my gender.","pleasant"
"2078.5","","","html-slider-response","462","1631062","0.0-24.0-1.0-0.4","63050","List2B","white","man","","","","","","","","survey_gender","92","","","Being around my friends gives me a good feeling.","filler"
"1856.3999999910593","","","html-slider-response","463","1632919","0.0-24.0-1.0-0.5","63050","List2B","white","man","","","","","","","","survey_gender","88","","","I feel solidarity with my gender.","solidarity"
"2547.5","","","html-slider-response","464","1635467","0.0-24.0-1.0-0.6","63050","List2B","white","man","","","","","","","","survey_gender","98","","","I am glad to be my gender.","glad"
"3678.3999999910593","","","html-slider-response","465","1639146","0.0-24.0-1.0-0.7","63050","List2B","white","man","","","","","","","","survey_gender","58","","","Routine is not important to me.","filler"
"1882.2999999970198","","","html-slider-response","466","1641029","0.0-24.0-1.0-0.8","63050","List2B","white","man","","","","","","","","survey_gender","78","","","I have a lot in common with my friends.","filler"
"1970.3999999910593","","","html-slider-response","467","1643000","0.0-24.0-1.0-0.9","63050","List2B","white","man","","","","","","","","survey_gender","88","","","My friends understand me.","filler"
"2777.5","","","html-slider-response","468","1645778","0.0-24.0-1.0-0.10","63050","List2B","white","man","","","","","","","","survey_gender","97","","","I consider myself a highly empathetic person.","filler"
"3673.5","","","html-slider-response","469","1649452","0.0-24.0-1.0-0.11","63050","List2B","white","man","","","","","","","","survey_gender","78","","","People of my gender have a lot in common with each other.","common"
"2234.1000000089407","","","html-slider-response","470","1651687","0.0-24.0-1.0-0.12","63050","List2B","white","man","","","","","","","","survey_gender","100","","","My friends have a lot in common with each other.","filler"
"4209.5","","","html-slider-response","471","1655897","0.0-24.0-1.0-0.13","63050","List2B","white","man","","","","","","","","survey_gender","84","","","The fact that I am my gender is an important part of my identity.","identity"
"2503.2000000029802","","","html-slider-response","472","1658401","0.0-24.0-1.0-0.14","63050","List2B","white","man","","","","","","","","survey_gender","90","","","I often think about the fact that I am my gender.","often"
"2265.8999999910593","","","html-slider-response","473","1660668","0.0-24.0-1.0-0.15","63050","List2B","white","man","","","","","","","","survey_gender","99","","","Being my gender gives me a good feeling.","feeling"
"2000.5999999940395","","","html-slider-response","474","1662669","0.0-24.0-1.0-0.16","63050","List2B","white","man","","","","","","","","survey_gender","98","","","I often think about my actions.","filler"
"1893.5","","","html-slider-response","475","1664563","0.0-24.0-1.0-0.17","63050","List2B","white","man","","","","","","","","survey_gender","78","","","I feel solidarity with my friends.","filler"
"2775.2999999970198","","","html-slider-response","476","1667339","0.0-24.0-1.0-0.18","63050","List2B","white","man","","","","","","","","survey_gender","96","","","I think that my gender has a lot to be proud of.","proud"
"2572.4000000059605","","","html-slider-response","477","1669912","0.0-24.0-1.0-0.19","63050","List2B","white","man","","","","","","","","survey_gender","100","","","I would say I am an animal person.","filler"
"2379.5","","","html-slider-response","478","1672292","0.0-24.0-1.0-0.20","63050","List2B","white","man","","","","","","","","survey_gender","100","","","I feel committed to my gender.","committed"
"3888.2000000029802","","","html-slider-response","479","1676181","0.0-24.0-1.0-0.21","63050","List2B","white","man","","","","","","","","survey_gender","95","","","Most of the friends in my life are very similar to me.","filler"
"3971.2999999970198","","","html-slider-response","480","1680153","0.0-24.0-1.0-0.22","63050","List2B","white","man","","","","","","","","survey_gender","28","","","People of my gender are very similar to each other.","verysimilar"
"5223.29999999702","","","html-slider-response","481","1685377","0.0-24.0-1.0-0.23","63050","List2B","white","man","","","","","","","","survey_gender","69","","","I am similar to the average person of my gender.","similar"
"2434.2000000029802","","","html-slider-response","482","1687812","0.0-24.0-1.0-0.24","63050","List2B","white","man","","","","","","","","survey_gender","98","","","I feel a bond with my friends.","filler"
"3537.5","","","html-slider-response","483","1691350","0.0-24.0-1.0-0.25","63050","List2B","white","man","","","","","","","","survey_gender","76","","","It is not always easy for people to know what I am thinking.","filler"
"1585.2000000029802","","","html-slider-response","484","1692936","0.0-24.0-1.0-0.26","63050","List2B","white","man","","","","","","","","survey_gender","83","","","Being my gender is an important part of how I see myself.","important"
