"rt","stimulus","button_pressed","trial_type","trial_index","time_elapsed","internal_node_id","subject","list","ppt_race","ppt_gender","url","first_guess","correct","key_press","responses","image_type","phrase_type","test_part","response","stimulus1","stimulus2","question_type","survey_item"
"2290.100000023842","Welcome to the experiment. Press Continue to begin.","0","html-button-response","0","2298","0.0-0.0","63888","List2B","white","woman","","","","","","","","","","","","",""
"12605.700000047684","","","external-html","1","16053","0.0-1.0","63888","List2B","white","woman","consent.html","","","","","","","","","","","",""
"11889.800000071526","<p>On the next page, you will see portraits of 8 people and their names.</p><p>Your first task is to take a few minutes to memorise the names of these people.</p><p>You will have to recall their names during the rest of the experiment, so it is</p><p>essential that you try to memorise these people and their names as best as you can.</p><br><p><strong>You will then be tested on your memory of these names and portraits.</strong></p><br><p>The experiment will start after you have completed this memory test.</p><br><p>Ready?</p>","0","html-button-response","2","27945","0.0-2.0","63888","List2B","white","woman","","","","","","","","","","","","",""
"343196","<img src='img/portrait_matrix_list2.jpg' style='width:900px;height:500px;''></img><p>If you have memorised all the portraits and names and are ready to start, press Continue.</p><p><strong>Please note: Your memory of these faces will be tested 4 times during this experiment.</strong></p>","0","html-button-response","3","372148","0.0-3.0-0.0","63888","List2B","white","woman","","","","","","","","","","","","",""
"2807.2999999523163","<img src=""portrait/WW2.jpg""style=""height:400px;""></img>","3","html-button-response","4","375961","0.0-3.0-1.0","63888","List2B","white","woman","","true","3","","","","","","","","","",""
"null","CORRECT","","html-keyboard-response","5","377490","0.0-3.0-2.0-0.0","63888","List2B","white","woman","","","","null","","","","","","","","",""
"2472.600000023842","<img src=""portrait/BW2.jpg""style=""height:400px;""></img>","2","html-button-response","6","379966","0.0-3.0-4.0","63888","List2B","white","woman","","true","2","","","","","","","","","",""
"null","CORRECT","","html-keyboard-response","7","381474","0.0-3.0-5.0-0.0","63888","List2B","white","woman","","","","null","","","","","","","","",""
"2924.2999999523163","<img src=""portrait/BM1.jpg""style=""height:400px;""></img>","4","html-button-response","8","384401","0.0-3.0-7.0","63888","List2B","white","woman","","true","4","","","","","","","","","",""
"null","CORRECT","","html-keyboard-response","9","385922","0.0-3.0-8.0-0.0","63888","List2B","white","woman","","","","null","","","","","","","","",""
"2513","<img src=""portrait/BM2.jpg""style=""height:400px;""></img>","5","html-button-response","10","388437","0.0-3.0-10.0","63888","List2B","white","woman","","true","5","","","","","","","","","",""
"null","CORRECT","","html-keyboard-response","11","389951","0.0-3.0-11.0-0.0","63888","List2B","white","woman","","","","null","","","","","","","","",""
"2917.5","<img src=""portrait/WM1.jpg""style=""height:400px;""></img>","6","html-button-response","12","392871","0.0-3.0-13.0","63888","List2B","white","woman","","true","6","","","","","","","","","",""
"null","CORRECT","","html-keyboard-response","13","394387","0.0-3.0-14.0-0.0","63888","List2B","white","woman","","","","null","","","","","","","","",""
"2681.3000000715256","<img src=""portrait/WM2.jpg""style=""height:400px;""></img>","7","html-button-response","14","397071","0.0-3.0-16.0","63888","List2B","white","woman","","true","7","","","","","","","","","",""
"null","CORRECT","","html-keyboard-response","15","398588","0.0-3.0-17.0-0.0","63888","List2B","white","woman","","","","null","","","","","","","","",""
"3341.5","<img src=""portrait/BW1.jpg""style=""height:400px;""></img>","2","html-button-response","16","401932","0.0-3.0-19.0","63888","List2B","white","woman","","true","0","","","","","","","","","",""
"9074.699999928474","<img src=""portrait/BW1.jpg""style=""height:400px;""></img>","0","html-button-response","17","412011","0.0-3.0-21.0-0.0","63888","List2B","white","woman","","false","0","","","","","","","","","",""
"null","CORRECT","","html-keyboard-response","18","413524","0.0-3.0-21.0-1.0-0.0","63888","List2B","white","woman","","","","null","","","","","","","","",""
"4750.799999952316","<img src=""portrait/WW1.jpg""style=""height:400px;""></img>","1","html-button-response","19","418277","0.0-3.0-22.0","63888","List2B","white","woman","","true","1","","","","","","","","","",""
"null","CORRECT","","html-keyboard-response","20","419793","0.0-3.0-23.0-0.0","63888","List2B","white","woman","","","","null","","","","","","","","",""
"2417.7000000476837","<p>You got 7 out of 8 right first time. Press Continue.</p>","0","html-button-response","21","422214","0.0-3.0-25.0","63888","List2B","white","woman","","","","","","","","","","","","",""
"3365.899999976158","As you did not score 100%, the memory game will repeat. Press Continue.","0","html-button-response","22","426594","0.0-3.0-26.0-0.0","63888","List2B","white","woman","","","","","","","","","","","","",""
"41666.199999928474","<img src='img/portrait_matrix_list2.jpg' style='width:900px;height:500px;''></img><p>If you have memorised all the portraits and names and are ready to start, press Continue.</p><p><strong>Please note: Your memory of these faces will be tested 4 times during this experiment.</strong></p>","0","html-button-response","23","469275","0.0-3.1-0.1","63888","List2B","white","woman","","","","","","","","","","","","",""
"3018.9000000953674","<img src=""portrait/WW2.jpg""style=""height:400px;""></img>","3","html-button-response","24","473301","0.0-3.1-1.1","63888","List2B","white","woman","","true","3","","","","","","","","","",""
"null","CORRECT","","html-keyboard-response","25","474821","0.0-3.1-2.1-0.1","63888","List2B","white","woman","","","","null","","","","","","","","",""
"2684.2999999523163","<img src=""portrait/BW2.jpg""style=""height:400px;""></img>","2","html-button-response","26","477509","0.0-3.1-4.1","63888","List2B","white","woman","","true","2","","","","","","","","","",""
"null","CORRECT","","html-keyboard-response","27","479018","0.0-3.1-5.1-0.1","63888","List2B","white","woman","","","","null","","","","","","","","",""
"2046.5","<img src=""portrait/BM1.jpg""style=""height:400px;""></img>","4","html-button-response","28","481068","0.0-3.1-7.1","63888","List2B","white","woman","","true","4","","","","","","","","","",""
"null","CORRECT","","html-keyboard-response","29","482586","0.0-3.1-8.1-0.1","63888","List2B","white","woman","","","","null","","","","","","","","",""
"1884.5","<img src=""portrait/BM2.jpg""style=""height:400px;""></img>","5","html-button-response","30","484473","0.0-3.1-10.1","63888","List2B","white","woman","","true","5","","","","","","","","","",""
"null","CORRECT","","html-keyboard-response","31","485997","0.0-3.1-11.1-0.1","63888","List2B","white","woman","","","","null","","","","","","","","",""
"2579.7999999523163","<img src=""portrait/WM1.jpg""style=""height:400px;""></img>","6","html-button-response","32","488579","0.0-3.1-13.1","63888","List2B","white","woman","","true","6","","","","","","","","","",""
"null","CORRECT","","html-keyboard-response","33","490089","0.0-3.1-14.1-0.1","63888","List2B","white","woman","","","","null","","","","","","","","",""
"1818.2999999523163","<img src=""portrait/WM2.jpg""style=""height:400px;""></img>","7","html-button-response","34","491909","0.0-3.1-16.1","63888","List2B","white","woman","","true","7","","","","","","","","","",""
"null","CORRECT","","html-keyboard-response","35","493434","0.0-3.1-17.1-0.1","63888","List2B","white","woman","","","","null","","","","","","","","",""
"2163.7000000476837","<img src=""portrait/BW1.jpg""style=""height:400px;""></img>","0","html-button-response","36","495600","0.0-3.1-19.1","63888","List2B","white","woman","","true","0","","","","","","","","","",""
"null","CORRECT","","html-keyboard-response","37","497110","0.0-3.1-20.1-0.1","63888","List2B","white","woman","","","","null","","","","","","","","",""
"2837.399999976158","<img src=""portrait/WW1.jpg""style=""height:400px;""></img>","1","html-button-response","38","499950","0.0-3.1-22.1","63888","List2B","white","woman","","true","1","","","","","","","","","",""
"null","CORRECT","","html-keyboard-response","39","501469","0.0-3.1-23.1-0.1","63888","List2B","white","woman","","","","null","","","","","","","","",""
"1547.3000000715256","<p>You got 8 out of 8 right first time. Press Continue.</p>","0","html-button-response","40","503019","0.0-3.1-25.1","63888","List2B","white","woman","","","","","","","","","","","","",""
"62616.300000071526","<p>In this experiment, you will view photographs of the people from the memory game interacting.</p><p>By using the <strong>exact</strong> phrase given <i>after</i> the photograph appears and recalling the correct names of the people in the photographs, form a sentence describing the interaction. You do not need to capitalise names.</p><p>Type your answer in the space provided. Please complete every sentence before moving onto the next trial.</p><p>You will only have a few seconds to memorise each given photograph and phrase before you can respond, so try your best to focus.</p><p>An example is given below. Press 'Continue' when you are ready.</p><img src='img/speaking_example.jpg' style='width:800px;height:460px;''></img>","0","html-button-response","41","566642","0.0-4.0","63888","List2B","white","woman","","","","","","","","","","","","",""
"2161","<p>Before the experiment starts, you will watch two example trials. Press 'Continue'.</p>","0","html-button-response","42","569812","0.0-5.0","63888","List2B","white","woman","","","","","","","","","","","","",""
"null","<img src='img/play_eg.gif' style='height:400px;''></img>","","html-keyboard-response","43","572816","0.0-6.0","63888","List2B","white","woman","","","","null","","","","","","","","",""
"null","<p>is playing with</p>","","html-keyboard-response","44","574831","0.0-7.0","63888","List2B","white","woman","","","","null","","","","","","","","",""
"3923.100000023842","<p><b>Answer:</b> jane is playing with ruth</p>","0","html-button-response","45","578756","0.0-8.0","63888","List2B","white","woman","","","","","","","","","","","","",""
"null","<img src='img/dance_eg.gif' style='height:400px;''></img>","","html-keyboard-response","46","581762","0.0-9.0","63888","List2B","white","woman","","","","null","","","","","","","","",""
"null","<p>is being entertained by</p>","","html-keyboard-response","47","583764","0.0-10.0","63888","List2B","white","woman","","","","null","","","","","","","","",""
"2528.7000000476837","<p><b>Answer:</b> fred is being entertained by mike</p>","0","html-button-response","48","586294","0.0-11.0","63888","List2B","white","woman","","","","","","","","","","","","",""
"10882.600000023842","<p>Ready to start the experiment?</p><br><p><strong>Remember to describe the picture using a full sentence,</strong></p><p><strong>that combines the names of the people with the <i>exact</i> phrase given.</strong></p><p><strong>To receive full payment you must do this correctly.</strong></p><p><strong> You do not need to capitalise names or use punctuation.</strong></p><br><p>Press 'Continue' to begin.</p>","0","html-button-response","49","598181","0.0-12.0","63888","List2B","white","woman","","","","","","","","","","","","",""
"null","<div style=""font-size:60px;"">+</div>","","html-keyboard-response","50","599693","0.0-13.0-0.0","63888","List2B","white","woman","","","","null","","","","","","","","",""
"null","<img src=""stim_listB/challenge7.gif""style=""height:400px;""></stim_listB>","","html-keyboard-response","51","601703","0.0-13.0-1.0","63888","List2B","white","woman","","","","null","","","","","","","","",""
"null","is challenging","","html-keyboard-response","52","603715","0.0-13.0-2.0","63888","List2B","white","woman","","","","null","","","","","","","","",""
"10361","","","survey-text","53","614087","0.0-13.0-3.0","63888","List2B","white","woman","","","","","{""Q0"":""jane is challenging beth""}","<img src=""stim_listB/challenge7.gif""style=""height:400px;""></stim_listB>","is challenging","","","","","",""
"null","<div style=""font-size:60px;"">+</div>","","html-keyboard-response","54","614598","0.0-13.0-0.1","63888","List2B","white","woman","","","","null","","","","","","","","",""
"null","<img src=""stim_listB/greet7.gif""style=""height:400px;""></stim_listB>","","html-keyboard-response","55","616608","0.0-13.0-1.1","63888","List2B","white","woman","","","","null","","","","","","","","",""
"null","is greeting","","html-keyboard-response","56","618623","0.0-13.0-2.1","63888","List2B","white","woman","","","","null","","","","","","","","",""
"9612.600000023842","","","survey-text","57","628243","0.0-13.0-3.1","63888","List2B","white","woman","","","","","{""Q0"":""beth is greeting jane""}","<img src=""stim_listB/greet7.gif""style=""height:400px;""></stim_listB>","is greeting","","","","","",""
"null","<div style=""font-size:60px;"">+</div>","","html-keyboard-response","58","628757","0.0-13.0-0.2","63888","List2B","white","woman","","","","null","","","","","","","","",""
"null","<img src=""stim_listB/copy3.gif""style=""height:400px;""></stim_listB>","","html-keyboard-response","59","630767","0.0-13.0-1.2","63888","List2B","white","woman","","","","null","","","","","","","","",""
"null","is copying","","html-keyboard-response","60","632778","0.0-13.0-2.2","63888","List2B","white","woman","","","","null","","","","","","","","",""
"5724.299999952316","","","survey-text","61","638542","0.0-13.0-3.2","63888","List2B","white","woman","","","","","{""Q0"":""mike is copying beth""}","<img src=""stim_listB/copy3.gif""style=""height:400px;""></stim_listB>","is copying","","","","","",""
"null","<div style=""font-size:60px;"">+</div>","","html-keyboard-response","62","639055","0.0-13.0-0.3","63888","List2B","white","woman","","","","null","","","","","","","","",""
"null","<img src=""stim_listB/copy6.gif""style=""height:400px;""></stim_listB>","","html-keyboard-response","63","641059","0.0-13.0-1.3","63888","List2B","white","woman","","","","null","","","","","","","","",""
"null","is being copied by","","html-keyboard-response","64","643074","0.0-13.0-2.3","63888","List2B","white","woman","","","","null","","","","","","","","",""
"16550.700000047684","","","survey-text","65","659632","0.0-13.0-3.3","63888","List2B","white","woman","","","","","{""Q0"":""luke is being copied""}","<img src=""stim_listB/copy6.gif""style=""height:400px;""></stim_listB>","is being copied by","","","","","",""
"null","<div style=""font-size:60px;"">+</div>","","html-keyboard-response","66","660138","0.0-13.0-0.4","63888","List2B","white","woman","","","","null","","","","","","","","",""
"null","<img src=""stim_listB/touch8.gif""style=""height:400px;""></stim_listB>","","html-keyboard-response","67","662151","0.0-13.0-1.4","63888","List2B","white","woman","","","","null","","","","","","","","",""
"null","is being touched by","","html-keyboard-response","68","664158","0.0-13.0-2.4","63888","List2B","white","woman","","","","null","","","","","","","","",""
"7644","","","survey-text","69","671809","0.0-13.0-3.4","63888","List2B","white","woman","","","","","{""Q0"":""ruth is being touched by beth""}","<img src=""stim_listB/touch8.gif""style=""height:400px;""></stim_listB>","is being touched by","","","","","",""
"null","<div style=""font-size:60px;"">+</div>","","html-keyboard-response","70","672326","0.0-13.0-0.5","63888","List2B","white","woman","","","","null","","","","","","","","",""
"null","<img src=""stim_listB/seduce4.gif""style=""height:400px;""></stim_listB>","","html-keyboard-response","71","674339","0.0-13.0-1.5","63888","List2B","white","woman","","","","null","","","","","","","","",""
"null","is being seduced by","","html-keyboard-response","72","676351","0.0-13.0-2.5","63888","List2B","white","woman","","","","null","","","","","","","","",""
"8533.700000047684","","","survey-text","73","684892","0.0-13.0-3.5","63888","List2B","white","woman","","","","","{""Q0"":""beth is being seduced by mike""}","<img src=""stim_listB/seduce4.gif""style=""height:400px;""></stim_listB>","is being seduced by","","","","","",""
"null","<div style=""font-size:60px;"">+</div>","","html-keyboard-response","74","685402","0.0-13.0-0.6","63888","List2B","white","woman","","","","null","","","","","","","","",""
"null","<img src=""stim_listB/challenge4.gif""style=""height:400px;""></stim_listB>","","html-keyboard-response","75","687419","0.0-13.0-1.6","63888","List2B","white","woman","","","","null","","","","","","","","",""
"null","is being challenged by","","html-keyboard-response","76","689422","0.0-13.0-2.6","63888","List2B","white","woman","","","","null","","","","","","","","",""
"9145.799999952316","","","survey-text","77","698575","0.0-13.0-3.6","63888","List2B","white","woman","","","","","{""Q0"":""fred is talking to kate""}","<img src=""stim_listB/challenge4.gif""style=""height:400px;""></stim_listB>","is being challenged by","","","","","",""
"null","<div style=""font-size:60px;"">+</div>","","html-keyboard-response","78","699081","0.0-13.0-0.7","63888","List2B","white","woman","","","","null","","","","","","","","",""
"null","<img src=""stim_listB/oppose4.gif""style=""height:400px;""></stim_listB>","","html-keyboard-response","79","701093","0.0-13.0-1.7","63888","List2B","white","woman","","","","null","","","","","","","","",""
"null","is being opposed by","","html-keyboard-response","80","703106","0.0-13.0-2.7","63888","List2B","white","woman","","","","null","","","","","","","","",""
"17742","","","survey-text","81","720855","0.0-13.0-3.7","63888","List2B","white","woman","","","","","{""Q0"":""beth is being opposed by fred""}","<img src=""stim_listB/oppose4.gif""style=""height:400px;""></stim_listB>","is being opposed by","","","","","",""
"null","<div style=""font-size:60px;"">+</div>","","html-keyboard-response","82","721365","0.0-13.0-0.8","63888","List2B","white","woman","","","","null","","","","","","","","",""
"null","<img src=""stim_listB/kiss3.gif""style=""height:400px;""></stim_listB>","","html-keyboard-response","83","723375","0.0-13.0-1.8","63888","List2B","white","woman","","","","null","","","","","","","","",""
"null","is kissing","","html-keyboard-response","84","725379","0.0-13.0-2.8","63888","List2B","white","woman","","","","null","","","","","","","","",""
"4753.299999952316","","","survey-text","85","730139","0.0-13.0-3.8","63888","List2B","white","woman","","","","","{""Q0"":""fred is kissing beth""}","<img src=""stim_listB/kiss3.gif""style=""height:400px;""></stim_listB>","is kissing","","","","","",""
"null","<div style=""font-size:60px;"">+</div>","","html-keyboard-response","86","730655","0.0-13.0-0.9","63888","List2B","white","woman","","","","null","","","","","","","","",""
"null","<img src=""stim_listB/look4.gif""style=""height:400px;""></stim_listB>","","html-keyboard-response","87","732672","0.0-13.0-1.9","63888","List2B","white","woman","","","","null","","","","","","","","",""
"null","is being looked at by","","html-keyboard-response","88","734679","0.0-13.0-2.9","63888","List2B","white","woman","","","","null","","","","","","","","",""
"10415","","","survey-text","89","745100","0.0-13.0-3.9","63888","List2B","white","woman","","","","","{""Q0"":""kate is being looked at by mike""}","<img src=""stim_listB/look4.gif""style=""height:400px;""></stim_listB>","is being looked at by","","","","","",""
"null","<div style=""font-size:60px;"">+</div>","","html-keyboard-response","90","745616","0.0-13.0-0.10","63888","List2B","white","woman","","","","null","","","","","","","","",""
"null","<img src=""stim_listB/challenge8.gif""style=""height:400px;""></stim_listB>","","html-keyboard-response","91","747632","0.0-13.0-1.10","63888","List2B","white","woman","","","","null","","","","","","","","",""
"null","is being challenged by","","html-keyboard-response","92","749648","0.0-13.0-2.10","63888","List2B","white","woman","","","","null","","","","","","","","",""
"13457","","","survey-text","93","763112","0.0-13.0-3.10","63888","List2B","white","woman","","","","","{""Q0"":""kate is being challenged by ruth""}","<img src=""stim_listB/challenge8.gif""style=""height:400px;""></stim_listB>","is being challenged by","","","","","",""
"null","<div style=""font-size:60px;"">+</div>","","html-keyboard-response","94","763619","0.0-13.0-0.11","63888","List2B","white","woman","","","","null","","","","","","","","",""
"null","<img src=""stim_listB/look1.gif""style=""height:400px;""></stim_listB>","","html-keyboard-response","95","765637","0.0-13.0-1.11","63888","List2B","white","woman","","","","null","","","","","","","","",""
"null","is looking at","","html-keyboard-response","96","767653","0.0-13.0-2.11","63888","List2B","white","woman","","","","null","","","","","","","","",""
"5739.299999952316","","","survey-text","97","773400","0.0-13.0-3.11","63888","List2B","white","woman","","","","","{""Q0"":""ruth is looking at luke""}","<img src=""stim_listB/look1.gif""style=""height:400px;""></stim_listB>","is looking at","","","","","",""
"null","<div style=""font-size:60px;"">+</div>","","html-keyboard-response","98","773909","0.0-13.0-0.12","63888","List2B","white","woman","","","","null","","","","","","","","",""
"null","<img src=""stim_listB/hug8.gif""style=""height:400px;""></stim_listB>","","html-keyboard-response","99","775921","0.0-13.0-1.12","63888","List2B","white","woman","","","","null","","","","","","","","",""
"null","is being hugged by","","html-keyboard-response","100","777933","0.0-13.0-2.12","63888","List2B","white","woman","","","","null","","","","","","","","",""
"9757.5","","","survey-text","101","787698","0.0-13.0-3.12","63888","List2B","white","woman","","","","","{""Q0"":""jane is being hugged by kate""}","<img src=""stim_listB/hug8.gif""style=""height:400px;""></stim_listB>","is being hugged by","","","","","",""
"null","<div style=""font-size:60px;"">+</div>","","html-keyboard-response","102","788213","0.0-13.0-0.13","63888","List2B","white","woman","","","","null","","","","","","","","",""
"null","<img src=""stim_listB/seduce7.gif""style=""height:400px;""></stim_listB>","","html-keyboard-response","103","790221","0.0-13.0-1.13","63888","List2B","white","woman","","","","null","","","","","","","","",""
"null","is seducing","","html-keyboard-response","104","792228","0.0-13.0-2.13","63888","List2B","white","woman","","","","null","","","","","","","","",""
"5370.800000071526","","","survey-text","105","797607","0.0-13.0-3.13","63888","List2B","white","woman","","","","","{""Q0"":""kate is seducing ruth""}","<img src=""stim_listB/seduce7.gif""style=""height:400px;""></stim_listB>","is seducing","","","","","",""
"null","<div style=""font-size:60px;"">+</div>","","html-keyboard-response","106","798121","0.0-13.0-0.14","63888","List2B","white","woman","","","","null","","","","","","","","",""
"null","<img src=""stim_listB/greet6.gif""style=""height:400px;""></stim_listB>","","html-keyboard-response","107","800131","0.0-13.0-1.14","63888","List2B","white","woman","","","","null","","","","","","","","",""
"null","is being greeted by","","html-keyboard-response","108","802132","0.0-13.0-2.14","63888","List2B","white","woman","","","","null","","","","","","","","",""
"12772.600000023842","","","survey-text","109","814913","0.0-13.0-3.14","63888","List2B","white","woman","","","","","{""Q0"":""luke is being greeted by mike""}","<img src=""stim_listB/greet6.gif""style=""height:400px;""></stim_listB>","is being greeted by","","","","","",""
"null","<div style=""font-size:60px;"">+</div>","","html-keyboard-response","110","815425","0.0-13.0-0.15","63888","List2B","white","woman","","","","null","","","","","","","","",""
"null","<img src=""stim_listB/copy5.gif""style=""height:400px;""></stim_listB>","","html-keyboard-response","111","817434","0.0-13.0-1.15","63888","List2B","white","woman","","","","null","","","","","","","","",""
"null","is copying","","html-keyboard-response","112","819440","0.0-13.0-2.15","63888","List2B","white","woman","","","","null","","","","","","","","",""
"5233.100000023842","","","survey-text","113","824680","0.0-13.0-3.15","63888","List2B","white","woman","","","","","{""Q0"":""fred is copying dave""}","<img src=""stim_listB/copy5.gif""style=""height:400px;""></stim_listB>","is copying","","","","","",""
"null","<div style=""font-size:60px;"">+</div>","","html-keyboard-response","114","825189","0.0-13.0-0.16","63888","List2B","white","woman","","","","null","","","","","","","","",""
"null","<img src=""stim_listB/copy8.gif""style=""height:400px;""></stim_listB>","","html-keyboard-response","115","827193","0.0-13.0-1.16","63888","List2B","white","woman","","","","null","","","","","","","","",""
"null","is being copied by","","html-keyboard-response","116","829195","0.0-13.0-2.16","63888","List2B","white","woman","","","","null","","","","","","","","",""
"11075.399999976158","","","survey-text","117","840275","0.0-13.0-3.16","63888","List2B","white","woman","","","","","{""Q0"":""ruth is being copied by kate""}","<img src=""stim_listB/copy8.gif""style=""height:400px;""></stim_listB>","is being copied by","","","","","",""
"null","<div style=""font-size:60px;"">+</div>","","html-keyboard-response","118","840789","0.0-13.0-0.17","63888","List2B","white","woman","","","","null","","","","","","","","",""
"null","<img src=""stim_listB/shout3.gif""style=""height:400px;""></stim_listB>","","html-keyboard-response","119","842799","0.0-13.0-1.17","63888","List2B","white","woman","","","","null","","","","","","","","",""
"null","is shouting at","","html-keyboard-response","120","844807","0.0-13.0-2.17","63888","List2B","white","woman","","","","null","","","","","","","","",""
"7142.899999976158","","","survey-text","121","851959","0.0-13.0-3.17","63888","List2B","white","woman","","","","","{""Q0"":""beth is shouting at fred""}","<img src=""stim_listB/shout3.gif""style=""height:400px;""></stim_listB>","is shouting at","","","","","",""
"null","<div style=""font-size:60px;"">+</div>","","html-keyboard-response","122","852465","0.0-13.0-0.18","63888","List2B","white","woman","","","","null","","","","","","","","",""
"null","<img src=""stim_listB/look6.gif""style=""height:400px;""></stim_listB>","","html-keyboard-response","123","854476","0.0-13.0-1.18","63888","List2B","white","woman","","","","null","","","","","","","","",""
"null","is being looked at by","","html-keyboard-response","124","856490","0.0-13.0-2.18","63888","List2B","white","woman","","","","null","","","","","","","","",""
"11197.899999976158","","","survey-text","125","867695","0.0-13.0-3.18","63888","List2B","white","woman","","","","","{""Q0"":""dave is being looked at by mike""}","<img src=""stim_listB/look6.gif""style=""height:400px;""></stim_listB>","is being looked at by","","","","","",""
"null","<div style=""font-size:60px;"">+</div>","","html-keyboard-response","126","868211","0.0-13.0-0.19","63888","List2B","white","woman","","","","null","","","","","","","","",""
"null","<img src=""stim_listB/touch7.gif""style=""height:400px;""></stim_listB>","","html-keyboard-response","127","870232","0.0-13.0-1.19","63888","List2B","white","woman","","","","null","","","","","","","","",""
"null","is touching","","html-keyboard-response","128","872239","0.0-13.0-2.19","63888","List2B","white","woman","","","","null","","","","","","","","",""
"7341.900000095367","","","survey-text","129","879588","0.0-13.0-3.19","63888","List2B","white","woman","","","","","{""Q0"":""jane is touching kate""}","<img src=""stim_listB/touch7.gif""style=""height:400px;""></stim_listB>","is touching","","","","","",""
"9583.600000023842","<img src='img/portrait_matrix_list2.jpg' style='width:900px;height:500px;''></img><p>If you have memorised all the portraits and names and are ready to start, press Continue.</p><p><strong>Please note: Your memory of these faces will be tested 4 times during this experiment.</strong></p>","0","html-button-response","130","889176","0.0-14.0-0.0","63888","List2B","white","woman","","","","","","","","","","","","",""
"4288.699999928474","<img src=""portrait/WM1.jpg""style=""height:400px;""></img>","6","html-button-response","131","894484","0.0-14.0-1.0","63888","List2B","white","woman","","true","6","","","","","","","","","",""
"null","CORRECT","","html-keyboard-response","132","895995","0.0-14.0-2.0-0.0","63888","List2B","white","woman","","","","null","","","","","","","","",""
"3274.5999999046326","<img src=""portrait/WW1.jpg""style=""height:400px;""></img>","1","html-button-response","133","899272","0.0-14.0-4.0","63888","List2B","white","woman","","true","1","","","","","","","","","",""
"null","CORRECT","","html-keyboard-response","134","900792","0.0-14.0-5.0-0.0","63888","List2B","white","woman","","","","null","","","","","","","","",""
"2566.5999999046326","<img src=""portrait/BM1.jpg""style=""height:400px;""></img>","4","html-button-response","135","903361","0.0-14.0-7.0","63888","List2B","white","woman","","true","4","","","","","","","","","",""
"null","CORRECT","","html-keyboard-response","136","904883","0.0-14.0-8.0-0.0","63888","List2B","white","woman","","","","null","","","","","","","","",""
"2211.7000000476837","<img src=""portrait/WW2.jpg""style=""height:400px;""></img>","3","html-button-response","137","907097","0.0-14.0-10.0","63888","List2B","white","woman","","true","3","","","","","","","","","",""
"null","CORRECT","","html-keyboard-response","138","908602","0.0-14.0-11.0-0.0","63888","List2B","white","woman","","","","null","","","","","","","","",""
"2398.600000023842","<img src=""portrait/BW1.jpg""style=""height:400px;""></img>","0","html-button-response","139","911002","0.0-14.0-13.0","63888","List2B","white","woman","","true","0","","","","","","","","","",""
"null","CORRECT","","html-keyboard-response","140","912524","0.0-14.0-14.0-0.0","63888","List2B","white","woman","","","","null","","","","","","","","",""
"2399.5999999046326","<img src=""portrait/BW2.jpg""style=""height:400px;""></img>","2","html-button-response","141","914926","0.0-14.0-16.0","63888","List2B","white","woman","","true","2","","","","","","","","","",""
"null","CORRECT","","html-keyboard-response","142","916433","0.0-14.0-17.0-0.0","63888","List2B","white","woman","","","","null","","","","","","","","",""
"3824","<img src=""portrait/WM2.jpg""style=""height:400px;""></img>","7","html-button-response","143","920260","0.0-14.0-19.0","63888","List2B","white","woman","","true","7","","","","","","","","","",""
"null","CORRECT","","html-keyboard-response","144","921779","0.0-14.0-20.0-0.0","63888","List2B","white","woman","","","","null","","","","","","","","",""
"2083.5","<img src=""portrait/BM2.jpg""style=""height:400px;""></img>","5","html-button-response","145","923865","0.0-14.0-22.0","63888","List2B","white","woman","","true","5","","","","","","","","","",""
"null","CORRECT","","html-keyboard-response","146","925382","0.0-14.0-23.0-0.0","63888","List2B","white","woman","","","","null","","","","","","","","",""
"1488","<p>You got 8 out of 8 right first time. Press Continue.</p>","0","html-button-response","147","926873","0.0-14.0-25.0","63888","List2B","white","woman","","","","","","","","","","","","",""
"null","<div style=""font-size:60px;"">+</div>","","html-keyboard-response","148","928396","0.0-15.0-0.0","63888","List2B","white","woman","","","","null","","","","","","","","",""
"null","<img src=""stim_listB/greet8.gif""style=""height:400px;""></stim_listB>","","html-keyboard-response","149","930403","0.0-15.0-1.0","63888","List2B","white","woman","","","","null","","","","","","","","",""
"null","is being greeted by","","html-keyboard-response","150","932407","0.0-15.0-2.0","63888","List2B","white","woman","","","","null","","","","","","","","",""
"10283.5","","","survey-text","151","942698","0.0-15.0-3.0","63888","List2B","white","woman","","","","","{""Q0"":""kate is being greeted by ruth""}","<img src=""stim_listB/greet8.gif""style=""height:400px;""></stim_listB>","is being greeted by","","","","","",""
"null","<div style=""font-size:60px;"">+</div>","","html-keyboard-response","152","943203","0.0-15.0-0.1","63888","List2B","white","woman","","","","null","","","","","","","","",""
"null","<img src=""stim_listB/oppose1.gif""style=""height:400px;""></stim_listB>","","html-keyboard-response","153","945221","0.0-15.0-1.1","63888","List2B","white","woman","","","","null","","","","","","","","",""
"null","is opposing","","html-keyboard-response","154","947236","0.0-15.0-2.1","63888","List2B","white","woman","","","","null","","","","","","","","",""
"5752","","","survey-text","155","952996","0.0-15.0-3.1","63888","List2B","white","woman","","","","","{""Q0"":""dave is opposing jane""}","<img src=""stim_listB/oppose1.gif""style=""height:400px;""></stim_listB>","is opposing","","","","","",""
"null","<div style=""font-size:60px;"">+</div>","","html-keyboard-response","156","953509","0.0-15.0-0.2","63888","List2B","white","woman","","","","null","","","","","","","","",""
"null","<img src=""stim_listB/look3.gif""style=""height:400px;""></stim_listB>","","html-keyboard-response","157","955520","0.0-15.0-1.2","63888","List2B","white","woman","","","","null","","","","","","","","",""
"null","is looking at","","html-keyboard-response","158","957537","0.0-15.0-2.2","63888","List2B","white","woman","","","","null","","","","","","","","",""
"5670.399999976158","","","survey-text","159","963215","0.0-15.0-3.2","63888","List2B","white","woman","","","","","{""Q0"":""beth is looking at fred""}","<img src=""stim_listB/look3.gif""style=""height:400px;""></stim_listB>","is looking at","","","","","",""
"null","<div style=""font-size:60px;"">+</div>","","html-keyboard-response","160","963728","0.0-15.0-0.3","63888","List2B","white","woman","","","","null","","","","","","","","",""
"null","<img src=""stim_listB/touch6.gif""style=""height:400px;""></stim_listB>","","html-keyboard-response","161","965740","0.0-15.0-1.3","63888","List2B","white","woman","","","","null","","","","","","","","",""
"null","is being touched by","","html-keyboard-response","162","967744","0.0-15.0-2.3","63888","List2B","white","woman","","","","null","","","","","","","","",""
"6914.5","","","survey-text","163","974666","0.0-15.0-3.3","63888","List2B","white","woman","","","","","{""Q0"":""fred is being touched by luke""}","<img src=""stim_listB/touch6.gif""style=""height:400px;""></stim_listB>","is being touched by","","","","","",""
"null","<div style=""font-size:60px;"">+</div>","","html-keyboard-response","164","975180","0.0-15.0-0.4","63888","List2B","white","woman","","","","null","","","","","","","","",""
"null","<img src=""stim_listB/oppose8.gif""style=""height:400px;""></stim_listB>","","html-keyboard-response","165","977195","0.0-15.0-1.4","63888","List2B","white","woman","","","","null","","","","","","","","",""
"null","is being opposed by","","html-keyboard-response","166","979198","0.0-15.0-2.4","63888","List2B","white","woman","","","","null","","","","","","","","",""
"9222.399999976158","","","survey-text","167","988428","0.0-15.0-3.4","63888","List2B","white","woman","","","","","{""Q0"":""ruth is being opposed by beth""}","<img src=""stim_listB/oppose8.gif""style=""height:400px;""></stim_listB>","is being opposed by","","","","","",""
"null","<div style=""font-size:60px;"">+</div>","","html-keyboard-response","168","988937","0.0-15.0-0.5","63888","List2B","white","woman","","","","null","","","","","","","","",""
"null","<img src=""stim_listB/challenge3.gif""style=""height:400px;""></stim_listB>","","html-keyboard-response","169","990948","0.0-15.0-1.5","63888","List2B","white","woman","","","","null","","","","","","","","",""
"null","is challenging","","html-keyboard-response","170","992951","0.0-15.0-2.5","63888","List2B","white","woman","","","","null","","","","","","","","",""
"6841.299999952316","","","survey-text","171","999800","0.0-15.0-3.5","63888","List2B","white","woman","","","","","{""Q0"":""beth is challenging mike""}","<img src=""stim_listB/challenge3.gif""style=""height:400px;""></stim_listB>","is challenging","","","","","",""
"null","<div style=""font-size:60px;"">+</div>","","html-keyboard-response","172","1000318","0.0-15.0-0.6","63888","List2B","white","woman","","","","null","","","","","","","","",""
"null","<img src=""stim_listB/challenge2.gif""style=""height:400px;""></stim_listB>","","html-keyboard-response","173","1002334","0.0-15.0-1.6","63888","List2B","white","woman","","","","null","","","","","","","","",""
"null","is being challenged by","","html-keyboard-response","174","1004351","0.0-15.0-2.6","63888","List2B","white","woman","","","","null","","","","","","","","",""
"8199.699999928474","","","survey-text","175","1012559","0.0-15.0-3.6","63888","List2B","white","woman","","","","","{""Q0"":""luke is being challenged by jane""}","<img src=""stim_listB/challenge2.gif""style=""height:400px;""></stim_listB>","is being challenged by","","","","","",""
"null","<div style=""font-size:60px;"">+</div>","","html-keyboard-response","176","1013068","0.0-15.0-0.7","63888","List2B","white","woman","","","","null","","","","","","","","",""
"null","<img src=""stim_listB/hug1.gif""style=""height:400px;""></stim_listB>","","html-keyboard-response","177","1015087","0.0-15.0-1.7","63888","List2B","white","woman","","","","null","","","","","","","","",""
"null","is hugging","","html-keyboard-response","178","1017100","0.0-15.0-2.7","63888","List2B","white","woman","","","","null","","","","","","","","",""
"6599.300000071526","","","survey-text","179","1023707","0.0-15.0-3.7","63888","List2B","white","woman","","","","","{""Q0"":""ruth is hugging luke""}","<img src=""stim_listB/hug1.gif""style=""height:400px;""></stim_listB>","is hugging","","","","","",""
"null","<div style=""font-size:60px;"">+</div>","","html-keyboard-response","180","1024218","0.0-15.0-0.8","63888","List2B","white","woman","","","","null","","","","","","","","",""
"null","<img src=""stim_listB/shout8.gif""style=""height:400px;""></stim_listB>","","html-keyboard-response","181","1026230","0.0-15.0-1.8","63888","List2B","white","woman","","","","null","","","","","","","","",""
"null","is being shouted at by","","html-keyboard-response","182","1028242","0.0-15.0-2.8","63888","List2B","white","woman","","","","null","","","","","","","","",""
"8214.200000047684","","","survey-text","183","1036464","0.0-15.0-3.8","63888","List2B","white","woman","","","","","{""Q0"":""kate is being shouted at by jane""}","<img src=""stim_listB/shout8.gif""style=""height:400px;""></stim_listB>","is being shouted at by","","","","","",""
"null","<div style=""font-size:60px;"">+</div>","","html-keyboard-response","184","1036973","0.0-15.0-0.9","63888","List2B","white","woman","","","","null","","","","","","","","",""
"null","<img src=""stim_listB/shout5.gif""style=""height:400px;""></stim_listB>","","html-keyboard-response","185","1038992","0.0-15.0-1.9","63888","List2B","white","woman","","","","null","","","","","","","","",""
"null","is shouting at","","html-keyboard-response","186","1041008","0.0-15.0-2.9","63888","List2B","white","woman","","","","null","","","","","","","","",""
"6491.899999976158","","","survey-text","187","1047508","0.0-15.0-3.9","63888","List2B","white","woman","","","","","{""Q0"":""fred is shouting at luke""}","<img src=""stim_listB/shout5.gif""style=""height:400px;""></stim_listB>","is shouting at","","","","","",""
"null","<div style=""font-size:60px;"">+</div>","","html-keyboard-response","188","1048027","0.0-15.0-0.10","63888","List2B","white","woman","","","","null","","","","","","","","",""
"null","<img src=""stim_listB/touch4.gif""style=""height:400px;""></stim_listB>","","html-keyboard-response","189","1050041","0.0-15.0-1.10","63888","List2B","white","woman","","","","null","","","","","","","","",""
"null","is being touched by","","html-keyboard-response","190","1052046","0.0-15.0-2.10","63888","List2B","white","woman","","","","null","","","","","","","","",""
"7816.5","","","survey-text","191","1059870","0.0-15.0-3.10","63888","List2B","white","woman","","","","","{""Q0"":""beth is being touched by fred""}","<img src=""stim_listB/touch4.gif""style=""height:400px;""></stim_listB>","is being touched by","","","","","",""
"null","<div style=""font-size:60px;"">+</div>","","html-keyboard-response","192","1060378","0.0-15.0-0.11","63888","List2B","white","woman","","","","null","","","","","","","","",""
"null","<img src=""stim_listB/greet5.gif""style=""height:400px;""></stim_listB>","","html-keyboard-response","193","1062395","0.0-15.0-1.11","63888","List2B","white","woman","","","","null","","","","","","","","",""
"null","is greeting","","html-keyboard-response","194","1064410","0.0-15.0-2.11","63888","List2B","white","woman","","","","null","","","","","","","","",""
"5256.100000023842","","","survey-text","195","1069674","0.0-15.0-3.11","63888","List2B","white","woman","","","","","{""Q0"":""fred is greeting dave""}","<img src=""stim_listB/greet5.gif""style=""height:400px;""></stim_listB>","is greeting","","","","","",""
"null","<div style=""font-size:60px;"">+</div>","","html-keyboard-response","196","1070193","0.0-15.0-0.12","63888","List2B","white","woman","","","","null","","","","","","","","",""
"null","<img src=""stim_listB/copy1.gif""style=""height:400px;""></stim_listB>","","html-keyboard-response","197","1072208","0.0-15.0-1.12","63888","List2B","white","woman","","","","null","","","","","","","","",""
"null","is copying","","html-keyboard-response","198","1074210","0.0-15.0-2.12","63888","List2B","white","woman","","","","null","","","","","","","","",""
"4200.100000023842","","","survey-text","199","1078418","0.0-15.0-3.12","63888","List2B","white","woman","","","","","{""Q0"":""dave is copying ruth""}","<img src=""stim_listB/copy1.gif""style=""height:400px;""></stim_listB>","is copying","","","","","",""
"null","<div style=""font-size:60px;"">+</div>","","html-keyboard-response","200","1078927","0.0-15.0-0.13","63888","List2B","white","woman","","","","null","","","","","","","","",""
"null","<img src=""stim_listB/look5.gif""style=""height:400px;""></stim_listB>","","html-keyboard-response","201","1080933","0.0-15.0-1.13","63888","List2B","white","woman","","","","null","","","","","","","","",""
"null","is looking at","","html-keyboard-response","202","1082949","0.0-15.0-2.13","63888","List2B","white","woman","","","","null","","","","","","","","",""
"7014.199999928474","","","survey-text","203","1089971","0.0-15.0-3.13","63888","List2B","white","woman","","","","","{""Q0"":""fred is looking at luke""}","<img src=""stim_listB/look5.gif""style=""height:400px;""></stim_listB>","is looking at","","","","","",""
"null","<div style=""font-size:60px;"">+</div>","","html-keyboard-response","204","1090482","0.0-15.0-0.14","63888","List2B","white","woman","","","","null","","","","","","","","",""
"null","<img src=""stim_listB/copy2.gif""style=""height:400px;""></stim_listB>","","html-keyboard-response","205","1092488","0.0-15.0-1.14","63888","List2B","white","woman","","","","null","","","","","","","","",""
"null","is being copied by","","html-keyboard-response","206","1094492","0.0-15.0-2.14","63888","List2B","white","woman","","","","null","","","","","","","","",""
"8437.599999904633","","","survey-text","207","1102938","0.0-15.0-3.14","63888","List2B","white","woman","","","","","{""Q0"":""luke is being copied by jane""}","<img src=""stim_listB/copy2.gif""style=""height:400px;""></stim_listB>","is being copied by","","","","","",""
"null","<div style=""font-size:60px;"">+</div>","","html-keyboard-response","208","1103451","0.0-15.0-0.15","63888","List2B","white","woman","","","","null","","","","","","","","",""
"null","<img src=""stim_listB/hug6.gif""style=""height:400px;""></stim_listB>","","html-keyboard-response","209","1105457","0.0-15.0-1.15","63888","List2B","white","woman","","","","null","","","","","","","","",""
"null","is being hugged by","","html-keyboard-response","210","1107472","0.0-15.0-2.15","63888","List2B","white","woman","","","","null","","","","","","","","",""
"6339.100000023842","","","survey-text","211","1113819","0.0-15.0-3.15","63888","List2B","white","woman","","","","","{""Q0"":""mike is being hugged by dave""}","<img src=""stim_listB/hug6.gif""style=""height:400px;""></stim_listB>","is being hugged by","","","","","",""
"null","<div style=""font-size:60px;"">+</div>","","html-keyboard-response","212","1114326","0.0-15.0-0.16","63888","List2B","white","woman","","","","null","","","","","","","","",""
"null","<img src=""stim_listB/seduce6.gif""style=""height:400px;""></stim_listB>","","html-keyboard-response","213","1116332","0.0-15.0-1.16","63888","List2B","white","woman","","","","null","","","","","","","","",""
"null","is being seduced by","","html-keyboard-response","214","1118337","0.0-15.0-2.16","63888","List2B","white","woman","","","","null","","","","","","","","",""
"6095.100000023842","","","survey-text","215","1124439","0.0-15.0-3.16","63888","List2B","white","woman","","","","","{""Q0"":""dave is being seduced by fred""}","<img src=""stim_listB/seduce6.gif""style=""height:400px;""></stim_listB>","is being seduced by","","","","","",""
"null","<div style=""font-size:60px;"">+</div>","","html-keyboard-response","216","1124943","0.0-15.0-0.17","63888","List2B","white","woman","","","","null","","","","","","","","",""
"null","<img src=""stim_listB/challenge6.gif""style=""height:400px;""></stim_listB>","","html-keyboard-response","217","1126948","0.0-15.0-1.17","63888","List2B","white","woman","","","","null","","","","","","","","",""
"null","is being challenged by","","html-keyboard-response","218","1128951","0.0-15.0-2.17","63888","List2B","white","woman","","","","null","","","","","","","","",""
"6870.5","","","survey-text","219","1135828","0.0-15.0-3.17","63888","List2B","white","woman","","","","","{""Q0"":""mike is being challenged by luke""}","<img src=""stim_listB/challenge6.gif""style=""height:400px;""></stim_listB>","is being challenged by","","","","","",""
"null","<div style=""font-size:60px;"">+</div>","","html-keyboard-response","220","1136343","0.0-15.0-0.18","63888","List2B","white","woman","","","","null","","","","","","","","",""
"null","<img src=""stim_listB/shout2.gif""style=""height:400px;""></stim_listB>","","html-keyboard-response","221","1138349","0.0-15.0-1.18","63888","List2B","white","woman","","","","null","","","","","","","","",""
"null","is being shouted at by","","html-keyboard-response","222","1140361","0.0-15.0-2.18","63888","List2B","white","woman","","","","null","","","","","","","","",""
"10173.399999976158","","","survey-text","223","1150542","0.0-15.0-3.18","63888","List2B","white","woman","","","","","{""Q0"":""dave is being shouted at by jane""}","<img src=""stim_listB/shout2.gif""style=""height:400px;""></stim_listB>","is being shouted at by","","","","","",""
"null","<div style=""font-size:60px;"">+</div>","","html-keyboard-response","224","1151056","0.0-15.0-0.19","63888","List2B","white","woman","","","","null","","","","","","","","",""
"null","<img src=""stim_listB/kiss8.gif""style=""height:400px;""></stim_listB>","","html-keyboard-response","225","1153064","0.0-15.0-1.19","63888","List2B","white","woman","","","","null","","","","","","","","",""
"null","is being kissed by","","html-keyboard-response","226","1155072","0.0-15.0-2.19","63888","List2B","white","woman","","","","null","","","","","","","","",""
"8829.600000023842","","","survey-text","227","1163909","0.0-15.0-3.19","63888","List2B","white","woman","","","","","{""Q0"":""kate is being kissed by jane""}","<img src=""stim_listB/kiss8.gif""style=""height:400px;""></stim_listB>","is being kissed by","","","","","",""
"4350.299999952316","<img src='img/portrait_matrix_list2.jpg' style='width:900px;height:500px;''></img><p>If you have memorised all the portraits and names and are ready to start, press Continue.</p><p><strong>Please note: Your memory of these faces will be tested 4 times during this experiment.</strong></p>","0","html-button-response","228","1168264","0.0-16.0-0.0","63888","List2B","white","woman","","","","","","","","","","","","",""
"3427.3000000715256","<img src=""portrait/WW1.jpg""style=""height:400px;""></img>","1","html-button-response","229","1172695","0.0-16.0-1.0","63888","List2B","white","woman","","true","1","","","","","","","","","",""
"null","CORRECT","","html-keyboard-response","230","1174203","0.0-16.0-2.0-0.0","63888","List2B","white","woman","","","","null","","","","","","","","",""
"2415.6999999284744","<img src=""portrait/BM1.jpg""style=""height:400px;""></img>","4","html-button-response","231","1176621","0.0-16.0-4.0","63888","List2B","white","woman","","true","4","","","","","","","","","",""
"null","CORRECT","","html-keyboard-response","232","1178128","0.0-16.0-5.0-0.0","63888","List2B","white","woman","","","","null","","","","","","","","",""
"2565.399999976158","<img src=""portrait/WM2.jpg""style=""height:400px;""></img>","7","html-button-response","233","1180697","0.0-16.0-7.0","63888","List2B","white","woman","","true","7","","","","","","","","","",""
"null","CORRECT","","html-keyboard-response","234","1182225","0.0-16.0-8.0-0.0","63888","List2B","white","woman","","","","null","","","","","","","","",""
"1879.8999999761581","<img src=""portrait/WM1.jpg""style=""height:400px;""></img>","6","html-button-response","235","1184107","0.0-16.0-10.0","63888","List2B","white","woman","","true","6","","","","","","","","","",""
"null","CORRECT","","html-keyboard-response","236","1185634","0.0-16.0-11.0-0.0","63888","List2B","white","woman","","","","null","","","","","","","","",""
"2292.0999999046326","<img src=""portrait/WW2.jpg""style=""height:400px;""></img>","3","html-button-response","237","1187928","0.0-16.0-13.0","63888","List2B","white","woman","","true","3","","","","","","","","","",""
"null","CORRECT","","html-keyboard-response","238","1189434","0.0-16.0-14.0-0.0","63888","List2B","white","woman","","","","null","","","","","","","","",""
"1944.1000000238419","<img src=""portrait/BM2.jpg""style=""height:400px;""></img>","5","html-button-response","239","1191380","0.0-16.0-16.0","63888","List2B","white","woman","","true","5","","","","","","","","","",""
"null","CORRECT","","html-keyboard-response","240","1192903","0.0-16.0-17.0-0.0","63888","List2B","white","woman","","","","null","","","","","","","","",""
"2484.8000000715256","<img src=""portrait/BW1.jpg""style=""height:400px;""></img>","0","html-button-response","241","1195391","0.0-16.0-19.0","63888","List2B","white","woman","","true","0","","","","","","","","","",""
"null","CORRECT","","html-keyboard-response","242","1196910","0.0-16.0-20.0-0.0","63888","List2B","white","woman","","","","null","","","","","","","","",""
"2371.7999999523163","<img src=""portrait/BW2.jpg""style=""height:400px;""></img>","2","html-button-response","243","1199284","0.0-16.0-22.0","63888","List2B","white","woman","","true","2","","","","","","","","","",""
"null","CORRECT","","html-keyboard-response","244","1200798","0.0-16.0-23.0-0.0","63888","List2B","white","woman","","","","null","","","","","","","","",""
"1557","<p>You got 8 out of 8 right first time. Press Continue.</p>","0","html-button-response","245","1202358","0.0-16.0-25.0","63888","List2B","white","woman","","","","","","","","","","","","",""
"null","<div style=""font-size:60px;"">+</div>","","html-keyboard-response","246","1203864","0.0-17.0-0.0","63888","List2B","white","woman","","","","null","","","","","","","","",""
"null","<img src=""stim_listB/seduce5.gif""style=""height:400px;""></stim_listB>","","html-keyboard-response","247","1205876","0.0-17.0-1.0","63888","List2B","white","woman","","","","null","","","","","","","","",""
"null","is seducing","","html-keyboard-response","248","1207893","0.0-17.0-2.0","63888","List2B","white","woman","","","","null","","","","","","","","",""
"8871.799999952316","","","survey-text","249","1216772","0.0-17.0-3.0","63888","List2B","white","woman","","","","","{""Q0"":""luke is seducing mike""}","<img src=""stim_listB/seduce5.gif""style=""height:400px;""></stim_listB>","is seducing","","","","","",""
"null","<div style=""font-size:60px;"">+</div>","","html-keyboard-response","250","1217280","0.0-17.0-0.1","63888","List2B","white","woman","","","","null","","","","","","","","",""
"null","<img src=""stim_listB/shout6.gif""style=""height:400px;""></stim_listB>","","html-keyboard-response","251","1219288","0.0-17.0-1.1","63888","List2B","white","woman","","","","null","","","","","","","","",""
"null","is being shouted at by","","html-keyboard-response","252","1221290","0.0-17.0-2.1","63888","List2B","white","woman","","","","null","","","","","","","","",""
"13162.399999976158","","","survey-text","253","1234460","0.0-17.0-3.1","63888","List2B","white","woman","","","","","{""Q0"":""dave is being shouted at by mike""}","<img src=""stim_listB/shout6.gif""style=""height:400px;""></stim_listB>","is being shouted at by","","","","","",""
"null","<div style=""font-size:60px;"">+</div>","","html-keyboard-response","254","1234969","0.0-17.0-0.2","63888","List2B","white","woman","","","","null","","","","","","","","",""
"null","<img src=""stim_listB/copy7.gif""style=""height:400px;""></stim_listB>","","html-keyboard-response","255","1236983","0.0-17.0-1.2","63888","List2B","white","woman","","","","null","","","","","","","","",""
"null","is copying","","html-keyboard-response","256","1238988","0.0-17.0-2.2","63888","List2B","white","woman","","","","null","","","","","","","","",""
"6378.700000047684","","","survey-text","257","1245374","0.0-17.0-3.2","63888","List2B","white","woman","","","","","{""Q0"":""jane is copying beth""}","<img src=""stim_listB/copy7.gif""style=""height:400px;""></stim_listB>","is copying","","","","","",""
"null","<div style=""font-size:60px;"">+</div>","","html-keyboard-response","258","1245888","0.0-17.0-0.3","63888","List2B","white","woman","","","","null","","","","","","","","",""
"null","<img src=""stim_listB/touch3.gif""style=""height:400px;""></stim_listB>","","html-keyboard-response","259","1247899","0.0-17.0-1.3","63888","List2B","white","woman","","","","null","","","","","","","","",""
"null","is touching","","html-keyboard-response","260","1249904","0.0-17.0-2.3","63888","List2B","white","woman","","","","null","","","","","","","","",""
"10417.300000071526","","","survey-text","261","1260330","0.0-17.0-3.3","63888","List2B","white","woman","","","","","{""Q0"":""mike is touching kate""}","<img src=""stim_listB/touch3.gif""style=""height:400px;""></stim_listB>","is touching","","","","","",""
"null","<div style=""font-size:60px;"">+</div>","","html-keyboard-response","262","1260841","0.0-17.0-0.4","63888","List2B","white","woman","","","","null","","","","","","","","",""
"null","<img src=""stim_listB/seduce1.gif""style=""height:400px;""></stim_listB>","","html-keyboard-response","263","1262850","0.0-17.0-1.4","63888","List2B","white","woman","","","","null","","","","","","","","",""
"null","is seducing","","html-keyboard-response","264","1264866","0.0-17.0-2.4","63888","List2B","white","woman","","","","null","","","","","","","","",""
"5053","","","survey-text","265","1269927","0.0-17.0-3.4","63888","List2B","white","woman","","","","","{""Q0"":""jane is seducing luke""}","<img src=""stim_listB/seduce1.gif""style=""height:400px;""></stim_listB>","is seducing","","","","","",""
"null","<div style=""font-size:60px;"">+</div>","","html-keyboard-response","266","1270442","0.0-17.0-0.5","63888","List2B","white","woman","","","","null","","","","","","","","",""
"null","<img src=""stim_listB/hug3.gif""style=""height:400px;""></stim_listB>","","html-keyboard-response","267","1272453","0.0-17.0-1.5","63888","List2B","white","woman","","","","null","","","","","","","","",""
"null","is hugging","","html-keyboard-response","268","1274455","0.0-17.0-2.5","63888","List2B","white","woman","","","","null","","","","","","","","",""
"6310.600000023842","","","survey-text","269","1280773","0.0-17.0-3.5","63888","List2B","white","woman","","","","","{""Q0"":""beth is hugging fred""}","<img src=""stim_listB/hug3.gif""style=""height:400px;""></stim_listB>","is hugging","","","","","",""
"null","<div style=""font-size:60px;"">+</div>","","html-keyboard-response","270","1281292","0.0-17.0-0.6","63888","List2B","white","woman","","","","null","","","","","","","","",""
"null","<img src=""stim_listB/copy4.gif""style=""height:400px;""></stim_listB>","","html-keyboard-response","271","1283311","0.0-17.0-1.6","63888","List2B","white","woman","","","","null","","","","","","","","",""
"null","is being copied by","","html-keyboard-response","272","1285321","0.0-17.0-2.6","63888","List2B","white","woman","","","","null","","","","","","","","",""
"7547.200000047684","","","survey-text","273","1292876","0.0-17.0-3.6","63888","List2B","white","woman","","","","","{""Q0"":""fred is being copied by kate""}","<img src=""stim_listB/copy4.gif""style=""height:400px;""></stim_listB>","is being copied by","","","","","",""
"null","<div style=""font-size:60px;"">+</div>","","html-keyboard-response","274","1293384","0.0-17.0-0.7","63888","List2B","white","woman","","","","null","","","","","","","","",""
"null","<img src=""stim_listB/shout7.gif""style=""height:400px;""></stim_listB>","","html-keyboard-response","275","1295390","0.0-17.0-1.7","63888","List2B","white","woman","","","","null","","","","","","","","",""
"null","is shouting at","","html-keyboard-response","276","1297397","0.0-17.0-2.7","63888","List2B","white","woman","","","","null","","","","","","","","",""
"5750.399999976158","","","survey-text","277","1303155","0.0-17.0-3.7","63888","List2B","white","woman","","","","","{""Q0"":""beth is shouting at ruth""}","<img src=""stim_listB/shout7.gif""style=""height:400px;""></stim_listB>","is shouting at","","","","","",""
"null","<div style=""font-size:60px;"">+</div>","","html-keyboard-response","278","1303673","0.0-17.0-0.8","63888","List2B","white","woman","","","","null","","","","","","","","",""
"null","<img src=""stim_listB/kiss6.gif""style=""height:400px;""></stim_listB>","","html-keyboard-response","279","1305687","0.0-17.0-1.8","63888","List2B","white","woman","","","","null","","","","","","","","",""
"null","is being kissed by","","html-keyboard-response","280","1307702","0.0-17.0-2.8","63888","List2B","white","woman","","","","null","","","","","","","","",""
"6067.799999952316","","","survey-text","281","1313778","0.0-17.0-3.8","63888","List2B","white","woman","","","","","{""Q0"":""fred is being kissed by mike""}","<img src=""stim_listB/kiss6.gif""style=""height:400px;""></stim_listB>","is being kissed by","","","","","",""
"null","<div style=""font-size:60px;"">+</div>","","html-keyboard-response","282","1314293","0.0-17.0-0.9","63888","List2B","white","woman","","","","null","","","","","","","","",""
"null","<img src=""stim_listB/seduce2.gif""style=""height:400px;""></stim_listB>","","html-keyboard-response","283","1316309","0.0-17.0-1.9","63888","List2B","white","woman","","","","null","","","","","","","","",""
"null","is being seduced by","","html-keyboard-response","284","1318316","0.0-17.0-2.9","63888","List2B","white","woman","","","","null","","","","","","","","",""
"7908.299999952316","","","survey-text","285","1326232","0.0-17.0-3.9","63888","List2B","white","woman","","","","","{""Q0"":""fred is being seduced by ruth""}","<img src=""stim_listB/seduce2.gif""style=""height:400px;""></stim_listB>","is being seduced by","","","","","",""
"null","<div style=""font-size:60px;"">+</div>","","html-keyboard-response","286","1326748","0.0-17.0-0.10","63888","List2B","white","woman","","","","null","","","","","","","","",""
"null","<img src=""stim_listB/oppose3.gif""style=""height:400px;""></stim_listB>","","html-keyboard-response","287","1328759","0.0-17.0-1.10","63888","List2B","white","woman","","","","null","","","","","","","","",""
"null","is opposing","","html-keyboard-response","288","1330776","0.0-17.0-2.10","63888","List2B","white","woman","","","","null","","","","","","","","",""
"7253.199999928474","","","survey-text","289","1338034","0.0-17.0-3.10","63888","List2B","white","woman","","","","","{""Q0"":""mike is opposing kate""}","<img src=""stim_listB/oppose3.gif""style=""height:400px;""></stim_listB>","is opposing","","","","","",""
"null","<div style=""font-size:60px;"">+</div>","","html-keyboard-response","290","1338549","0.0-17.0-0.11","63888","List2B","white","woman","","","","null","","","","","","","","",""
"null","<img src=""stim_listB/challenge1.gif""style=""height:400px;""></stim_listB>","","html-keyboard-response","291","1340563","0.0-17.0-1.11","63888","List2B","white","woman","","","","null","","","","","","","","",""
"null","is challenging","","html-keyboard-response","292","1342571","0.0-17.0-2.11","63888","List2B","white","woman","","","","null","","","","","","","","",""
"4992","","","survey-text","293","1347571","0.0-17.0-3.11","63888","List2B","white","woman","","","","","{""Q0"":""ruth is challenging dave""}","<img src=""stim_listB/challenge1.gif""style=""height:400px;""></stim_listB>","is challenging","","","","","",""
"null","<div style=""font-size:60px;"">+</div>","","html-keyboard-response","294","1348085","0.0-17.0-0.12","63888","List2B","white","woman","","","","null","","","","","","","","",""
"null","<img src=""stim_listB/oppose6.gif""style=""height:400px;""></stim_listB>","","html-keyboard-response","295","1350097","0.0-17.0-1.12","63888","List2B","white","woman","","","","null","","","","","","","","",""
"null","is being opposed by","","html-keyboard-response","296","1352107","0.0-17.0-2.12","63888","List2B","white","woman","","","","null","","","","","","","","",""
"9731.399999976158","","","survey-text","297","1361848","0.0-17.0-3.12","63888","List2B","white","woman","","","","","{""Q0"":""fred is being opposed by luke""}","<img src=""stim_listB/oppose6.gif""style=""height:400px;""></stim_listB>","is being opposed by","","","","","",""
"null","<div style=""font-size:60px;"">+</div>","","html-keyboard-response","298","1362363","0.0-17.0-0.13","63888","List2B","white","woman","","","","null","","","","","","","","",""
"null","<img src=""stim_listB/look7.gif""style=""height:400px;""></stim_listB>","","html-keyboard-response","299","1364381","0.0-17.0-1.13","63888","List2B","white","woman","","","","null","","","","","","","","",""
"null","is looking at","","html-keyboard-response","300","1366390","0.0-17.0-2.13","63888","List2B","white","woman","","","","null","","","","","","","","",""
"5166.799999952316","","","survey-text","301","1371565","0.0-17.0-3.13","63888","List2B","white","woman","","","","","{""Q0"":""beth is looking at ruth""}","<img src=""stim_listB/look7.gif""style=""height:400px;""></stim_listB>","is looking at","","","","","",""
"null","<div style=""font-size:60px;"">+</div>","","html-keyboard-response","302","1372075","0.0-17.0-0.14","63888","List2B","white","woman","","","","null","","","","","","","","",""
"null","<img src=""stim_listB/oppose5.gif""style=""height:400px;""></stim_listB>","","html-keyboard-response","303","1374093","0.0-17.0-1.14","63888","List2B","white","woman","","","","null","","","","","","","","",""
"null","is opposing","","html-keyboard-response","304","1376111","0.0-17.0-2.14","63888","List2B","white","woman","","","","null","","","","","","","","",""
"5747.600000023842","","","survey-text","305","1381867","0.0-17.0-3.14","63888","List2B","white","woman","","","","","{""Q0"":""mike is opposing dave""}","<img src=""stim_listB/oppose5.gif""style=""height:400px;""></stim_listB>","is opposing","","","","","",""
"null","<div style=""font-size:60px;"">+</div>","","html-keyboard-response","306","1382376","0.0-17.0-0.15","63888","List2B","white","woman","","","","null","","","","","","","","",""
"null","<img src=""stim_listB/seduce3.gif""style=""height:400px;""></stim_listB>","","html-keyboard-response","307","1384383","0.0-17.0-1.15","63888","List2B","white","woman","","","","null","","","","","","","","",""
"null","is seducing","","html-keyboard-response","308","1386385","0.0-17.0-2.15","63888","List2B","white","woman","","","","null","","","","","","","","",""
"6047.300000071526","","","survey-text","309","1392440","0.0-17.0-3.15","63888","List2B","white","woman","","","","","{""Q0"":""fred is seducing kate""}","<img src=""stim_listB/seduce3.gif""style=""height:400px;""></stim_listB>","is seducing","","","","","",""
"null","<div style=""font-size:60px;"">+</div>","","html-keyboard-response","310","1392958","0.0-17.0-0.16","63888","List2B","white","woman","","","","null","","","","","","","","",""
"null","<img src=""stim_listB/touch2.gif""style=""height:400px;""></stim_listB>","","html-keyboard-response","311","1394970","0.0-17.0-1.16","63888","List2B","white","woman","","","","null","","","","","","","","",""
"null","is being touched by","","html-keyboard-response","312","1396986","0.0-17.0-2.16","63888","List2B","white","woman","","","","null","","","","","","","","",""
"8519.800000071526","","","survey-text","313","1405513","0.0-17.0-3.16","63888","List2B","white","woman","","","","","{""Q0"":""luke is being touched by ruth""}","<img src=""stim_listB/touch2.gif""style=""height:400px;""></stim_listB>","is being touched by","","","","","",""
"null","<div style=""font-size:60px;"">+</div>","","html-keyboard-response","314","1406018","0.0-17.0-0.17","63888","List2B","white","woman","","","","null","","","","","","","","",""
"null","<img src=""stim_listB/kiss5.gif""style=""height:400px;""></stim_listB>","","html-keyboard-response","315","1408029","0.0-17.0-1.17","63888","List2B","white","woman","","","","null","","","","","","","","",""
"null","is kissing","","html-keyboard-response","316","1410031","0.0-17.0-2.17","63888","List2B","white","woman","","","","null","","","","","","","","",""
"5063.200000047684","","","survey-text","317","1415101","0.0-17.0-3.17","63888","List2B","white","woman","","","","","{""Q0"":""luke is kissing fred""}","<img src=""stim_listB/kiss5.gif""style=""height:400px;""></stim_listB>","is kissing","","","","","",""
"null","<div style=""font-size:60px;"">+</div>","","html-keyboard-response","318","1415607","0.0-17.0-0.18","63888","List2B","white","woman","","","","null","","","","","","","","",""
"null","<img src=""stim_listB/seduce8.gif""style=""height:400px;""></stim_listB>","","html-keyboard-response","319","1417622","0.0-17.0-1.18","63888","List2B","white","woman","","","","null","","","","","","","","",""
"null","is being seduced by","","html-keyboard-response","320","1419634","0.0-17.0-2.18","63888","List2B","white","woman","","","","null","","","","","","","","",""
"7585.599999904633","","","survey-text","321","1427227","0.0-17.0-3.18","63888","List2B","white","woman","","","","","{""Q0"":""beth is being seduced by jane""}","<img src=""stim_listB/seduce8.gif""style=""height:400px;""></stim_listB>","is being seduced by","","","","","",""
"null","<div style=""font-size:60px;"">+</div>","","html-keyboard-response","322","1427735","0.0-17.0-0.19","63888","List2B","white","woman","","","","null","","","","","","","","",""
"null","<img src=""stim_listB/shout4.gif""style=""height:400px;""></stim_listB>","","html-keyboard-response","323","1429741","0.0-17.0-1.19","63888","List2B","white","woman","","","","null","","","","","","","","",""
"null","is being shouted at by","","html-keyboard-response","324","1431755","0.0-17.0-2.19","63888","List2B","white","woman","","","","null","","","","","","","","",""
"17601","","","survey-text","325","1449364","0.0-17.0-3.19","63888","List2B","white","woman","","","","","{""Q0"":""mike is being shouted at by kate""}","<img src=""stim_listB/shout4.gif""style=""height:400px;""></stim_listB>","is being shouted at by","","","","","",""
"4572","<img src='img/portrait_matrix_list2.jpg' style='width:900px;height:500px;''></img><p>If you have memorised all the portraits and names and are ready to start, press Continue.</p><p><strong>Please note: Your memory of these faces will be tested 4 times during this experiment.</strong></p>","0","html-button-response","326","1453940","0.0-18.0-0.0","63888","List2B","white","woman","","","","","","","","","","","","",""
"5260","<img src=""portrait/BW1.jpg""style=""height:400px;""></img>","0","html-button-response","327","1460209","0.0-18.0-1.0","63888","List2B","white","woman","","true","0","","","","","","","","","",""
"null","CORRECT","","html-keyboard-response","328","1461738","0.0-18.0-2.0-0.0","63888","List2B","white","woman","","","","null","","","","","","","","",""
"2766.2999999523163","<img src=""portrait/WW2.jpg""style=""height:400px;""></img>","3","html-button-response","329","1464507","0.0-18.0-4.0","63888","List2B","white","woman","","true","3","","","","","","","","","",""
"null","CORRECT","","html-keyboard-response","330","1466018","0.0-18.0-5.0-0.0","63888","List2B","white","woman","","","","null","","","","","","","","",""
"2088.100000023842","<img src=""portrait/BW2.jpg""style=""height:400px;""></img>","2","html-button-response","331","1468109","0.0-18.0-7.0","63888","List2B","white","woman","","true","2","","","","","","","","","",""
"null","CORRECT","","html-keyboard-response","332","1469629","0.0-18.0-8.0-0.0","63888","List2B","white","woman","","","","null","","","","","","","","",""
"2657.100000023842","<img src=""portrait/WM1.jpg""style=""height:400px;""></img>","6","html-button-response","333","1472289","0.0-18.0-10.0","63888","List2B","white","woman","","true","6","","","","","","","","","",""
"null","CORRECT","","html-keyboard-response","334","1473797","0.0-18.0-11.0-0.0","63888","List2B","white","woman","","","","null","","","","","","","","",""
"1284","<img src=""portrait/BM2.jpg""style=""height:400px;""></img>","5","html-button-response","335","1475084","0.0-18.0-13.0","63888","List2B","white","woman","","true","5","","","","","","","","","",""
"null","CORRECT","","html-keyboard-response","336","1476599","0.0-18.0-14.0-0.0","63888","List2B","white","woman","","","","null","","","","","","","","",""
"2236.5","<img src=""portrait/WW1.jpg""style=""height:400px;""></img>","1","html-button-response","337","1478838","0.0-18.0-16.0","63888","List2B","white","woman","","true","1","","","","","","","","","",""
"null","CORRECT","","html-keyboard-response","338","1480355","0.0-18.0-17.0-0.0","63888","List2B","white","woman","","","","null","","","","","","","","",""
"3025.0999999046326","<img src=""portrait/BM1.jpg""style=""height:400px;""></img>","4","html-button-response","339","1483383","0.0-18.0-19.0","63888","List2B","white","woman","","true","4","","","","","","","","","",""
"null","CORRECT","","html-keyboard-response","340","1484898","0.0-18.0-20.0-0.0","63888","List2B","white","woman","","","","null","","","","","","","","",""
"1716.1999999284744","<img src=""portrait/WM2.jpg""style=""height:400px;""></img>","7","html-button-response","341","1486617","0.0-18.0-22.0","63888","List2B","white","woman","","true","7","","","","","","","","","",""
"null","CORRECT","","html-keyboard-response","342","1488127","0.0-18.0-23.0-0.0","63888","List2B","white","woman","","","","null","","","","","","","","",""
"1367.6000000238419","<p>You got 8 out of 8 right first time. Press Continue.</p>","0","html-button-response","343","1489498","0.0-18.0-25.0","63888","List2B","white","woman","","","","","","","","","","","","",""
"null","<div style=""font-size:60px;"">+</div>","","html-keyboard-response","344","1491024","0.0-19.0-0.0","63888","List2B","white","woman","","","","null","","","","","","","","",""
"null","<img src=""stim_listB/hug2.gif""style=""height:400px;""></stim_listB>","","html-keyboard-response","345","1493029","0.0-19.0-1.0","63888","List2B","white","woman","","","","null","","","","","","","","",""
"null","is being hugged by","","html-keyboard-response","346","1495042","0.0-19.0-2.0","63888","List2B","white","woman","","","","null","","","","","","","","",""
"5630.100000023842","","","survey-text","347","1500681","0.0-19.0-3.0","63888","List2B","white","woman","","","","","{""Q0"":""dave is being hugged by jane""}","<img src=""stim_listB/hug2.gif""style=""height:400px;""></stim_listB>","is being hugged by","","","","","",""
"null","<div style=""font-size:60px;"">+</div>","","html-keyboard-response","348","1501192","0.0-19.0-0.1","63888","List2B","white","woman","","","","null","","","","","","","","",""
"null","<img src=""stim_listB/look8.gif""style=""height:400px;""></stim_listB>","","html-keyboard-response","349","1503200","0.0-19.0-1.1","63888","List2B","white","woman","","","","null","","","","","","","","",""
"null","is being looked at by","","html-keyboard-response","350","1505217","0.0-19.0-2.1","63888","List2B","white","woman","","","","null","","","","","","","","",""
"5878.700000047684","","","survey-text","351","1511104","0.0-19.0-3.1","63888","List2B","white","woman","","","","","{""Q0"":""jane is being looked at by kate""}","<img src=""stim_listB/look8.gif""style=""height:400px;""></stim_listB>","is being looked at by","","","","","",""
"null","<div style=""font-size:60px;"">+</div>","","html-keyboard-response","352","1511618","0.0-19.0-0.2","63888","List2B","white","woman","","","","null","","","","","","","","",""
"null","<img src=""stim_listB/touch5.gif""style=""height:400px;""></stim_listB>","","html-keyboard-response","353","1513633","0.0-19.0-1.2","63888","List2B","white","woman","","","","null","","","","","","","","",""
"null","is touching","","html-keyboard-response","354","1515649","0.0-19.0-2.2","63888","List2B","white","woman","","","","null","","","","","","","","",""
"4621.599999904633","","","survey-text","355","1520278","0.0-19.0-3.2","63888","List2B","white","woman","","","","","{""Q0"":""dave is touching mike""}","<img src=""stim_listB/touch5.gif""style=""height:400px;""></stim_listB>","is touching","","","","","",""
"null","<div style=""font-size:60px;"">+</div>","","html-keyboard-response","356","1520792","0.0-19.0-0.3","63888","List2B","white","woman","","","","null","","","","","","","","",""
"null","<img src=""stim_listB/kiss7.gif""style=""height:400px;""></stim_listB>","","html-keyboard-response","357","1522809","0.0-19.0-1.3","63888","List2B","white","woman","","","","null","","","","","","","","",""
"null","is kissing","","html-keyboard-response","358","1524823","0.0-19.0-2.3","63888","List2B","white","woman","","","","null","","","","","","","","",""
"3760.5","","","survey-text","359","1528591","0.0-19.0-3.3","63888","List2B","white","woman","","","","","{""Q0"":""beth is kissing ruth""}","<img src=""stim_listB/kiss7.gif""style=""height:400px;""></stim_listB>","is kissing","","","","","",""
"null","<div style=""font-size:60px;"">+</div>","","html-keyboard-response","360","1529103","0.0-19.0-0.4","63888","List2B","white","woman","","","","null","","","","","","","","",""
"null","<img src=""stim_listB/hug4.gif""style=""height:400px;""></stim_listB>","","html-keyboard-response","361","1531119","0.0-19.0-1.4","63888","List2B","white","woman","","","","null","","","","","","","","",""
"null","is being hugged by","","html-keyboard-response","362","1533136","0.0-19.0-2.4","63888","List2B","white","woman","","","","null","","","","","","","","",""
"6897.5","","","survey-text","363","1540041","0.0-19.0-3.4","63888","List2B","white","woman","","","","","{""Q0"":""mike is being hugged by kate""}","<img src=""stim_listB/hug4.gif""style=""height:400px;""></stim_listB>","is being hugged by","","","","","",""
"null","<div style=""font-size:60px;"">+</div>","","html-keyboard-response","364","1540555","0.0-19.0-0.5","63888","List2B","white","woman","","","","null","","","","","","","","",""
"null","<img src=""stim_listB/hug7.gif""style=""height:400px;""></stim_listB>","","html-keyboard-response","365","1542570","0.0-19.0-1.5","63888","List2B","white","woman","","","","null","","","","","","","","",""
"null","is hugging","","html-keyboard-response","366","1544586","0.0-19.0-2.5","63888","List2B","white","woman","","","","null","","","","","","","","",""
"6440.299999952316","","","survey-text","367","1551034","0.0-19.0-3.5","63888","List2B","white","woman","","","","","{""Q0"":""beth is hugging ruth""}","<img src=""stim_listB/hug7.gif""style=""height:400px;""></stim_listB>","is hugging","","","","","",""
"null","<div style=""font-size:60px;"">+</div>","","html-keyboard-response","368","1551541","0.0-19.0-0.6","63888","List2B","white","woman","","","","null","","","","","","","","",""
"null","<img src=""stim_listB/challenge5.gif""style=""height:400px;""></stim_listB>","","html-keyboard-response","369","1553555","0.0-19.0-1.6","63888","List2B","white","woman","","","","null","","","","","","","","",""
"null","is challenging","","html-keyboard-response","370","1555566","0.0-19.0-2.6","63888","List2B","white","woman","","","","null","","","","","","","","",""
"5333.100000023842","","","survey-text","371","1560909","0.0-19.0-3.6","63888","List2B","white","woman","","","","","{""Q0"":""fred is challenging dave""}","<img src=""stim_listB/challenge5.gif""style=""height:400px;""></stim_listB>","is challenging","","","","","",""
"null","<div style=""font-size:60px;"">+</div>","","html-keyboard-response","372","1561427","0.0-19.0-0.7","63888","List2B","white","woman","","","","null","","","","","","","","",""
"null","<img src=""stim_listB/oppose2.gif""style=""height:400px;""></stim_listB>","","html-keyboard-response","373","1563437","0.0-19.0-1.7","63888","List2B","white","woman","","","","null","","","","","","","","",""
"null","is being opposed by","","html-keyboard-response","374","1565455","0.0-19.0-2.7","63888","List2B","white","woman","","","","null","","","","","","","","",""
"8049.200000047684","","","survey-text","375","1573510","0.0-19.0-3.7","63888","List2B","white","woman","","","","","{""Q0"":""luke is being opposed by ruth""}","<img src=""stim_listB/oppose2.gif""style=""height:400px;""></stim_listB>","is being opposed by","","","","","",""
"null","<div style=""font-size:60px;"">+</div>","","html-keyboard-response","376","1574017","0.0-19.0-0.8","63888","List2B","white","woman","","","","null","","","","","","","","",""
"null","<img src=""stim_listB/greet1.gif""style=""height:400px;""></stim_listB>","","html-keyboard-response","377","1576030","0.0-19.0-1.8","63888","List2B","white","woman","","","","null","","","","","","","","",""
"null","is greeting","","html-keyboard-response","378","1578046","0.0-19.0-2.8","63888","List2B","white","woman","","","","null","","","","","","","","",""
"7034.5","","","survey-text","379","1585089","0.0-19.0-3.8","63888","List2B","white","woman","","","","","{""Q0"":""ruth is greeting dave""}","<img src=""stim_listB/greet1.gif""style=""height:400px;""></stim_listB>","is greeting","","","","","",""
"null","<div style=""font-size:60px;"">+</div>","","html-keyboard-response","380","1585600","0.0-19.0-0.9","63888","List2B","white","woman","","","","null","","","","","","","","",""
"null","<img src=""stim_listB/greet3.gif""style=""height:400px;""></stim_listB>","","html-keyboard-response","381","1587605","0.0-19.0-1.9","63888","List2B","white","woman","","","","null","","","","","","","","",""
"null","is greeting","","html-keyboard-response","382","1589612","0.0-19.0-2.9","63888","List2B","white","woman","","","","null","","","","","","","","",""
"4852.100000023842","","","survey-text","383","1594471","0.0-19.0-3.9","63888","List2B","white","woman","","","","","{""Q0"":""mike is greeting beth""}","<img src=""stim_listB/greet3.gif""style=""height:400px;""></stim_listB>","is greeting","","","","","",""
"null","<div style=""font-size:60px;"">+</div>","","html-keyboard-response","384","1594988","0.0-19.0-0.10","63888","List2B","white","woman","","","","null","","","","","","","","",""
"null","<img src=""stim_listB/shout1.gif""style=""height:400px;""></stim_listB>","","html-keyboard-response","385","1597001","0.0-19.0-1.10","63888","List2B","white","woman","","","","null","","","","","","","","",""
"null","is shouting at","","html-keyboard-response","386","1599016","0.0-19.0-2.10","63888","List2B","white","woman","","","","null","","","","","","","","",""
"5638.300000071526","","","survey-text","387","1604686","0.0-19.0-3.10","63888","List2B","white","woman","","","","","{""Q0"":""ruth is shouting at luke""}","<img src=""stim_listB/shout1.gif""style=""height:400px;""></stim_listB>","is shouting at","","","","","",""
"null","<div style=""font-size:60px;"">+</div>","","html-keyboard-response","388","1605201","0.0-19.0-0.11","63888","List2B","white","woman","","","","null","","","","","","","","",""
"null","<img src=""stim_listB/hug5.gif""style=""height:400px;""></stim_listB>","","html-keyboard-response","389","1607205","0.0-19.0-1.11","63888","List2B","white","woman","","","","null","","","","","","","","",""
"null","is hugging","","html-keyboard-response","390","1609208","0.0-19.0-2.11","63888","List2B","white","woman","","","","null","","","","","","","","",""
"4772.399999976158","","","survey-text","391","1613988","0.0-19.0-3.11","63888","List2B","white","woman","","","","","{""Q0"":""luke is hugging fred""}","<img src=""stim_listB/hug5.gif""style=""height:400px;""></stim_listB>","is hugging","","","","","",""
"null","<div style=""font-size:60px;"">+</div>","","html-keyboard-response","392","1614495","0.0-19.0-0.12","63888","List2B","white","woman","","","","null","","","","","","","","",""
"null","<img src=""stim_listB/kiss4.gif""style=""height:400px;""></stim_listB>","","html-keyboard-response","393","1616507","0.0-19.0-1.12","63888","List2B","white","woman","","","","null","","","","","","","","",""
"null","is being kissed by","","html-keyboard-response","394","1618522","0.0-19.0-2.12","63888","List2B","white","woman","","","","null","","","","","","","","",""
"6473.599999904633","","","survey-text","395","1625004","0.0-19.0-3.12","63888","List2B","white","woman","","","","","{""Q0"":""mike is being kissed by kate""}","<img src=""stim_listB/kiss4.gif""style=""height:400px;""></stim_listB>","is being kissed by","","","","","",""
"null","<div style=""font-size:60px;"">+</div>","","html-keyboard-response","396","1625523","0.0-19.0-0.13","63888","List2B","white","woman","","","","null","","","","","","","","",""
"null","<img src=""stim_listB/look2.gif""style=""height:400px;""></stim_listB>","","html-keyboard-response","397","1627542","0.0-19.0-1.13","63888","List2B","white","woman","","","","null","","","","","","","","",""
"null","is being looked at by","","html-keyboard-response","398","1629551","0.0-19.0-2.13","63888","List2B","white","woman","","","","null","","","","","","","","",""
"8204.899999976158","","","survey-text","399","1637763","0.0-19.0-3.13","63888","List2B","white","woman","","","","","{""Q0"":""jane is being looked at by dave""}","<img src=""stim_listB/look2.gif""style=""height:400px;""></stim_listB>","is being looked at by","","","","","",""
"null","<div style=""font-size:60px;"">+</div>","","html-keyboard-response","400","1638280","0.0-19.0-0.14","63888","List2B","white","woman","","","","null","","","","","","","","",""
"null","<img src=""stim_listB/greet4.gif""style=""height:400px;""></stim_listB>","","html-keyboard-response","401","1640285","0.0-19.0-1.14","63888","List2B","white","woman","","","","null","","","","","","","","",""
"null","is being greeted by","","html-keyboard-response","402","1642302","0.0-19.0-2.14","63888","List2B","white","woman","","","","null","","","","","","","","",""
"6559.699999928474","","","survey-text","403","1648869","0.0-19.0-3.14","63888","List2B","white","woman","","","","","{""Q0"":""fred is being greeted by kate""}","<img src=""stim_listB/greet4.gif""style=""height:400px;""></stim_listB>","is being greeted by","","","","","",""
"null","<div style=""font-size:60px;"">+</div>","","html-keyboard-response","404","1649382","0.0-19.0-0.15","63888","List2B","white","woman","","","","null","","","","","","","","",""
"null","<img src=""stim_listB/kiss2.gif""style=""height:400px;""></stim_listB>","","html-keyboard-response","405","1651389","0.0-19.0-1.15","63888","List2B","white","woman","","","","null","","","","","","","","",""
"null","is being kissed by","","html-keyboard-response","406","1653393","0.0-19.0-2.15","63888","List2B","white","woman","","","","null","","","","","","","","",""
"9592","","","survey-text","407","1662992","0.0-19.0-3.15","63888","List2B","white","woman","","","","","{""Q0"":""dave is being kissed by jane""}","<img src=""stim_listB/kiss2.gif""style=""height:400px;""></stim_listB>","is being kissed by","","","","","",""
"null","<div style=""font-size:60px;"">+</div>","","html-keyboard-response","408","1663506","0.0-19.0-0.16","63888","List2B","white","woman","","","","null","","","","","","","","",""
"null","<img src=""stim_listB/greet2.gif""style=""height:400px;""></stim_listB>","","html-keyboard-response","409","1665520","0.0-19.0-1.16","63888","List2B","white","woman","","","","null","","","","","","","","",""
"null","is being greeted by","","html-keyboard-response","410","1667535","0.0-19.0-2.16","63888","List2B","white","woman","","","","null","","","","","","","","",""
"6821.299999952316","","","survey-text","411","1674365","0.0-19.0-3.16","63888","List2B","white","woman","","","","","{""Q0"":""jane is being greeted by luke""}","<img src=""stim_listB/greet2.gif""style=""height:400px;""></stim_listB>","is being greeted by","","","","","",""
"null","<div style=""font-size:60px;"">+</div>","","html-keyboard-response","412","1674883","0.0-19.0-0.17","63888","List2B","white","woman","","","","null","","","","","","","","",""
"null","<img src=""stim_listB/touch1.gif""style=""height:400px;""></stim_listB>","","html-keyboard-response","413","1676887","0.0-19.0-1.17","63888","List2B","white","woman","","","","null","","","","","","","","",""
"null","is touching","","html-keyboard-response","414","1678892","0.0-19.0-2.17","63888","List2B","white","woman","","","","null","","","","","","","","",""
"6555.200000047684","","","survey-text","415","1685454","0.0-19.0-3.17","63888","List2B","white","woman","","","","","{""Q0"":""dave is touching jane""}","<img src=""stim_listB/touch1.gif""style=""height:400px;""></stim_listB>","is touching","","","","","",""
"null","<div style=""font-size:60px;"">+</div>","","html-keyboard-response","416","1685960","0.0-19.0-0.18","63888","List2B","white","woman","","","","null","","","","","","","","",""
"null","<img src=""stim_listB/oppose7.gif""style=""height:400px;""></stim_listB>","","html-keyboard-response","417","1687972","0.0-19.0-1.18","63888","List2B","white","woman","","","","null","","","","","","","","",""
"null","is opposing","","html-keyboard-response","418","1689983","0.0-19.0-2.18","63888","List2B","white","woman","","","","null","","","","","","","","",""
"4904.699999928474","","","survey-text","419","1694896","0.0-19.0-3.18","63888","List2B","white","woman","","","","","{""Q0"":""jane is oppsoing kate""}","<img src=""stim_listB/oppose7.gif""style=""height:400px;""></stim_listB>","is opposing","","","","","",""
"null","<div style=""font-size:60px;"">+</div>","","html-keyboard-response","420","1695400","0.0-19.0-0.19","63888","List2B","white","woman","","","","null","","","","","","","","",""
"null","<img src=""stim_listB/kiss1.gif""style=""height:400px;""></stim_listB>","","html-keyboard-response","421","1697417","0.0-19.0-1.19","63888","List2B","white","woman","","","","null","","","","","","","","",""
"null","is kissing","","html-keyboard-response","422","1699422","0.0-19.0-2.19","63888","List2B","white","woman","","","","null","","","","","","","","",""
"4767.899999976158","","","survey-text","423","1704198","0.0-19.0-3.19","63888","List2B","white","woman","","","","","{""Q0"":""ruth is kissing luke""}","<img src=""stim_listB/kiss1.gif""style=""height:400px;""></stim_listB>","is kissing","","","","","",""
"2738.7000000476837","<p>Thank you for completing that task.</p><p>The final part of this session is a questionnaire that will take about 4 minutes.</p><p>Press Continue.</p>","0","html-button-response","424","1706941","0.0-20.0","63888","List2B","white","woman","","","","","","","","","","","","",""
"56466.89999997616","","","survey-text","425","1764429","0.0-21.0","63888","List2B","white","woman","","","","","{""Q0"":""24"",""Q1"":""English"",""Q2"":""English"",""Q3"":""United States"",""Q4"":""American"",""Q5"":""White"",""Q6"":""Cisgender Woman""}","","","demographics","","","","",""
"2102.5","<p>Have you lived in the USA for the last 5 years or more?</p>","0","html-button-response","426","1766536","0.0-22.0","63888","List2B","white","woman","","","","","","","","fiveyears","","","","",""
"2254.1999999284744","<p>Move the slider to show the extent to which you agree with the following statements.</p>","0","html-button-response","427","1769799","0.0-23.0","63888","List2B","white","woman","","","","","","","","","","","","",""
"7996.600000023842","","","html-slider-response","428","1778807","0.0-24.0-0.0-0.0","63888","List2B","white","woman","","","","","","","","survey_race","72","","","I feel solidarity with people the same age as me.","filler"
"5108.5","","","html-slider-response","429","1783920","0.0-24.0-0.0-0.1","63888","List2B","white","woman","","","","","","","","survey_race","69","","","I feel a bond with people the same age as me.","filler"
"4366.600000023842","","","html-slider-response","430","1788290","0.0-24.0-0.0-0.2","63888","List2B","white","woman","","","","","","","","survey_race","100","","","Getting older does not worry me.","filler"
"4494.199999928474","","","html-slider-response","431","1792788","0.0-24.0-0.0-0.3","63888","List2B","white","woman","","","","","","","","survey_race","64","","","Being my age gives me a good feeling.","filler"
"5762.399999976158","","","html-slider-response","432","1798554","0.0-24.0-0.0-0.4","63888","List2B","white","woman","","","","","","","","survey_race","61","","","People of my race are very similar to each other.","verysimilar"
"6479.799999952316","","","html-slider-response","433","1805037","0.0-24.0-0.0-0.5","63888","List2B","white","woman","","","","","","","","survey_race","49","","","I am glad to be my age.","filler"
"4229.399999976158","","","html-slider-response","434","1809270","0.0-24.0-0.0-0.6","63888","List2B","white","woman","","","","","","","","survey_race","92","","","The older I get, the wiser I feel.","filler"
"3898.399999976158","","","html-slider-response","435","1813172","0.0-24.0-0.0-0.7","63888","List2B","white","woman","","","","","","","","survey_race","32","","","People my age have a lot in common with each other.","filler"
"4129.899999976158","","","html-slider-response","436","1817305","0.0-24.0-0.0-0.8","63888","List2B","white","woman","","","","","","","","survey_race","22","","","I feel committed to my race.","committed"
"5525.400000095367","","","html-slider-response","437","1822834","0.0-24.0-0.0-0.9","63888","List2B","white","woman","","","","","","","","survey_race","32","","","Being my race gives me a good feeling.","feeling"
"7429.100000023842","","","html-slider-response","438","1830266","0.0-24.0-0.0-0.10","63888","List2B","white","woman","","","","","","","","survey_race","40","","","People of my race have a lot in common with each other.","common"
"3059.399999976158","","","html-slider-response","439","1833329","0.0-24.0-0.0-0.11","63888","List2B","white","woman","","","","","","","","survey_race","10","","","I feel a bond with my race.","bond"
"3510.3000000715256","","","html-slider-response","440","1836842","0.0-24.0-0.0-0.12","63888","List2B","white","woman","","","","","","","","survey_race","0","","","I enjoy being in large groups.","filler"
"4420.300000071526","","","html-slider-response","441","1841265","0.0-24.0-0.0-0.13","63888","List2B","white","woman","","","","","","","","survey_race","0","","","I think that my race has a lot to be proud of.","proud"
"3047.600000023842","","","html-slider-response","442","1844316","0.0-24.0-0.0-0.14","63888","List2B","white","woman","","","","","","","","survey_race","71","","","I am glad to be the age I am.","filler"
"6934.800000071526","","","html-slider-response","443","1851255","0.0-24.0-0.0-0.15","63888","List2B","white","woman","","","","","","","","survey_race","51","","","It is pleasant to be my race.","pleasant"
"7529.699999928474","","","html-slider-response","444","1858788","0.0-24.0-0.0-0.16","63888","List2B","white","woman","","","","","","","","survey_race","34","","","I am similar to the average person of my race.","similar"
"4151.200000047684","","","html-slider-response","445","1862943","0.0-24.0-0.0-0.17","63888","List2B","white","woman","","","","","","","","survey_race","16","","","Being my race is an important part of how I see myself.","important"
"4774.399999976158","","","html-slider-response","446","1867721","0.0-24.0-0.0-0.18","63888","List2B","white","woman","","","","","","","","survey_race","26","","","I often think about the fact that I am my age.","filler"
"4827.100000023842","","","html-slider-response","447","1872552","0.0-24.0-0.0-0.19","63888","List2B","white","woman","","","","","","","","survey_race","33","","","The fact that I am my race is an important part of my identity.","identity"
"5282.400000095367","","","html-slider-response","448","1877837","0.0-24.0-0.0-0.20","63888","List2B","white","woman","","","","","","","","survey_race","100","","","I consider myself an introvert.","filler"
"3003.1999999284744","","","html-slider-response","449","1880843","0.0-24.0-0.0-0.21","63888","List2B","white","woman","","","","","","","","survey_race","12","","","I feel solidarity with my race.","solidarity"
"4131","","","html-slider-response","450","1884977","0.0-24.0-0.0-0.22","63888","List2B","white","woman","","","","","","","","survey_race","40","","","I have a lot in common with people of a similar age to me.","filler"
"2896.399999976158","","","html-slider-response","451","1887877","0.0-24.0-0.0-0.23","63888","List2B","white","woman","","","","","","","","survey_race","0","","","I consider myself an extrovert.","filler"
"3409.5","","","html-slider-response","452","1891289","0.0-24.0-0.0-0.24","63888","List2B","white","woman","","","","","","","","survey_race","21","","","I have a lot in common with the average person of my race.","average"
"6029.5","","","html-slider-response","453","1897321","0.0-24.0-0.0-0.25","63888","List2B","white","woman","","","","","","","","survey_race","38","","","I am glad to be my race.","glad"
"6919.700000047684","","","html-slider-response","454","1904244","0.0-24.0-0.0-0.26","63888","List2B","white","woman","","","","","","","","survey_race","66","","","I often think about the fact that I am my race.","often"
"10169.399999976158","","","html-slider-response","455","1914417","0.0-24.0-0.0-0.27","63888","List2B","white","woman","","","","","","","","survey_race","48","","","My age is not an important part of who I am.","filler"
"9676.600000023842","","","html-slider-response","456","1924097","0.0-24.0-1.0-0.0","63888","List2B","white","woman","","","","","","","","survey_gender","56","","","I am similar to the average person of my gender.","similar"
"4156.299999952316","","","html-slider-response","457","1928258","0.0-24.0-1.0-0.1","63888","List2B","white","woman","","","","","","","","survey_gender","74","","","Being around my friends gives me a good feeling.","filler"
"3435.0999999046326","","","html-slider-response","458","1931696","0.0-24.0-1.0-0.2","63888","List2B","white","woman","","","","","","","","survey_gender","100","","","I would say I am an animal person.","filler"
"4042.5999999046326","","","html-slider-response","459","1935742","0.0-24.0-1.0-0.3","63888","List2B","white","woman","","","","","","","","survey_gender","76","","","I often think about my actions.","filler"
"4043.1999999284744","","","html-slider-response","460","1939788","0.0-24.0-1.0-0.4","63888","List2B","white","woman","","","","","","","","survey_gender","83","","","I think that my gender has a lot to be proud of.","proud"
"4194","","","html-slider-response","461","1943985","0.0-24.0-1.0-0.5","63888","List2B","white","woman","","","","","","","","survey_gender","68","","","Most of the friends in my life are very similar to me.","filler"
"2937.5999999046326","","","html-slider-response","462","1946926","0.0-24.0-1.0-0.6","63888","List2B","white","woman","","","","","","","","survey_gender","80","","","I feel solidarity with my friends.","filler"
"4040.3000000715256","","","html-slider-response","463","1950970","0.0-24.0-1.0-0.7","63888","List2B","white","woman","","","","","","","","survey_gender","100","","","I feel a bond with my friends.","filler"
"4738.199999928474","","","html-slider-response","464","1955711","0.0-24.0-1.0-0.8","63888","List2B","white","woman","","","","","","","","survey_gender","58","","","I have a lot in common with the average person of my gender.","average"
"5784.900000095367","","","html-slider-response","465","1961500","0.0-24.0-1.0-0.9","63888","List2B","white","woman","","","","","","","","survey_gender","57","","","I consider myself a highly empathetic person.","filler"
"4635","","","html-slider-response","466","1966138","0.0-24.0-1.0-0.10","63888","List2B","white","woman","","","","","","","","survey_gender","18","","","It is not always easy for people to know what I am thinking.","filler"
"3556.5","","","html-slider-response","467","1969698","0.0-24.0-1.0-0.11","63888","List2B","white","woman","","","","","","","","survey_gender","57","","","I feel solidarity with my gender.","solidarity"
"3123","","","html-slider-response","468","1972824","0.0-24.0-1.0-0.12","63888","List2B","white","woman","","","","","","","","survey_gender","85","","","Being my gender gives me a good feeling.","feeling"
"5534.700000047684","","","html-slider-response","469","1978362","0.0-24.0-1.0-0.13","63888","List2B","white","woman","","","","","","","","survey_gender","40","","","People of my gender are very similar to each other.","verysimilar"
"4016.3000000715256","","","html-slider-response","470","1982382","0.0-24.0-1.0-0.14","63888","List2B","white","woman","","","","","","","","survey_gender","73","","","Being my gender is an important part of how I see myself.","important"
"3774.899999976158","","","html-slider-response","471","1986160","0.0-24.0-1.0-0.15","63888","List2B","white","woman","","","","","","","","survey_gender","37","","","Routine is not important to me.","filler"
"5841.300000071526","","","html-slider-response","472","1992006","0.0-24.0-1.0-0.16","63888","List2B","white","woman","","","","","","","","survey_gender","35","","","I often think about the fact that I am my gender.","often"
"3330.5","","","html-slider-response","473","1995340","0.0-24.0-1.0-0.17","63888","List2B","white","woman","","","","","","","","survey_gender","58","","","I feel a bond with my gender.","bond"
"5084.899999976158","","","html-slider-response","474","2000429","0.0-24.0-1.0-0.18","63888","List2B","white","woman","","","","","","","","survey_gender","36","","","People of my gender have a lot in common with each other.","common"
"4794.599999904633","","","html-slider-response","475","2005227","0.0-24.0-1.0-0.19","63888","List2B","white","woman","","","","","","","","survey_gender","68","","","It is pleasant to be my gender.","pleasant"
