rt,stimulus,button_pressed,trial_type,trial_index,time_elapsed,internal_node_id,subject,list,ppt_race,ppt_gender,url,first_guess,correct,key_press,responses,image_type,phrase_type,test_part,response,stimulus1,stimulus2,question_type,survey_item
3598.5,Welcome to the experiment. Press Continue to begin.,0,html-button-response,0,3605,0.0-0.0,64289,List2A,white,man,,,,,,,,,,,,,
15717.4,,,external-html,1,22982,0.0-1.0,64289,List2A,white,man,consent.html,,,,,,,,,,,,
17502.3,"<p>On the next page, you will see portraits of 8 people and their names.</p><p>Your first task is to take a few minutes to memorise the names of these people.</p><p>You will have to recall their names during the rest of the experiment, so it is</p><p>essential that you try to memorise these people and their names as best as you can.</p><br><p><strong>You will then be tested on your memory of these names and portraits.</strong></p><br><p>The experiment will start after you have completed this memory test.</p><br><p>Ready?</p>",0,html-button-response,2,40486,0.0-2.0,64289,List2A,white,man,,,,,,,,,,,,,
25956.3,"<img src='img/portrait_matrix_list2.jpg' style='width:900px;height:500px;''></img><p>If you have memorised all the portraits and names and are ready to start, press Continue.</p><p><strong>Please note: Your memory of these faces will be tested 4 times during this experiment.</strong></p>",0,html-button-response,3,67452,0.0-3.0-0.0,64289,List2A,white,man,,,,,,,,,,,,,
13852.5,"<img src=""portrait/WM2.jpg""style=""height:400px;""></img>",7,html-button-response,4,82324,0.0-3.0-1.0,64289,List2A,white,man,,TRUE,7,,,,,,,,,,
null,CORRECT,,html-keyboard-response,5,83846,0.0-3.0-2.0-0.0,64289,List2A,white,man,,,,null,,,,,,,,,
22146.5,"<img src=""portrait/WW1.jpg""style=""height:400px;""></img>",0,html-button-response,6,105996,0.0-3.0-4.0,64289,List2A,white,man,,TRUE,1,,,,,,,,,,
5427.9,"<img src=""portrait/WW1.jpg""style=""height:400px;""></img>",3,html-button-response,7,112441,0.0-3.0-6.0-0.0,64289,List2A,white,man,,FALSE,1,,,,,,,,,,
null,INCORRECT,,html-keyboard-response,8,113970,0.0-3.0-6.0-2.0-0.0,64289,List2A,white,man,,,,null,,,,,,,,,
3918.1,"<img src=""portrait/BW2.jpg""style=""height:400px;""></img>",1,html-button-response,9,117891,0.0-3.0-7.0,64289,List2A,white,man,,TRUE,2,,,,,,,,,,
3721.3,"<img src=""portrait/BW2.jpg""style=""height:400px;""></img>",2,html-button-response,10,122621,0.0-3.0-9.0-0.0,64289,List2A,white,man,,FALSE,2,,,,,,,,,,
null,CORRECT,,html-keyboard-response,11,124127,0.0-3.0-9.0-1.0-0.0,64289,List2A,white,man,,,,null,,,,,,,,,
5555.7,"<img src=""portrait/WW2.jpg""style=""height:400px;""></img>",0,html-button-response,12,129685,0.0-3.0-10.0,64289,List2A,white,man,,TRUE,3,,,,,,,,,,
5122.3,"<img src=""portrait/WW2.jpg""style=""height:400px;""></img>",2,html-button-response,13,135814,0.0-3.0-12.0-0.0,64289,List2A,white,man,,FALSE,3,,,,,,,,,,
null,INCORRECT,,html-keyboard-response,14,137337,0.0-3.0-12.0-2.0-0.0,64289,List2A,white,man,,,,null,,,,,,,,,
7502.9,"<img src=""portrait/BW1.jpg""style=""height:400px;""></img>",0,html-button-response,15,144841,0.0-3.0-13.0,64289,List2A,white,man,,TRUE,0,,,,,,,,,,
null,CORRECT,,html-keyboard-response,16,146361,0.0-3.0-14.0-0.0,64289,List2A,white,man,,,,null,,,,,,,,,
5713.8,"<img src=""portrait/WM1.jpg""style=""height:400px;""></img>",5,html-button-response,17,152078,0.0-3.0-16.0,64289,List2A,white,man,,TRUE,6,,,,,,,,,,
4181.6,"<img src=""portrait/WM1.jpg""style=""height:400px;""></img>",6,html-button-response,18,157277,0.0-3.0-18.0-0.0,64289,List2A,white,man,,FALSE,6,,,,,,,,,,
null,CORRECT,,html-keyboard-response,19,158797,0.0-3.0-18.0-1.0-0.0,64289,List2A,white,man,,,,null,,,,,,,,,
7131.5,"<img src=""portrait/BM2.jpg""style=""height:400px;""></img>",5,html-button-response,20,165931,0.0-3.0-19.0,64289,List2A,white,man,,TRUE,5,,,,,,,,,,
null,CORRECT,,html-keyboard-response,21,167453,0.0-3.0-20.0-0.0,64289,List2A,white,man,,,,null,,,,,,,,,
4394.3,"<img src=""portrait/BM1.jpg""style=""height:400px;""></img>",4,html-button-response,22,171850,0.0-3.0-22.0,64289,List2A,white,man,,TRUE,4,,,,,,,,,,
null,CORRECT,,html-keyboard-response,23,173370,0.0-3.0-23.0-0.0,64289,List2A,white,man,,,,null,,,,,,,,,
3466.3,<p>You got 4 out of 8 right first time. Press Continue.</p>,0,html-button-response,24,176840,0.0-3.0-25.0,64289,List2A,white,man,,,,,,,,,,,,,
8514.2,"As you did not score 100%, the memory game will repeat. Press Continue.",0,html-button-response,25,186370,0.0-3.0-26.0-0.0,64289,List2A,white,man,,,,,,,,,,,,,
77303.6,"<img src='img/portrait_matrix_list2.jpg' style='width:900px;height:500px;''></img><p>If you have memorised all the portraits and names and are ready to start, press Continue.</p><p><strong>Please note: Your memory of these faces will be tested 4 times during this experiment.</strong></p>",0,html-button-response,26,264687,0.0-3.1-0.1,64289,List2A,white,man,,,,,,,,,,,,,
10398.2,"<img src=""portrait/WM2.jpg""style=""height:400px;""></img>",7,html-button-response,27,276102,0.0-3.1-1.1,64289,List2A,white,man,,TRUE,7,,,,,,,,,,
null,CORRECT,,html-keyboard-response,28,277619,0.0-3.1-2.1-0.1,64289,List2A,white,man,,,,null,,,,,,,,,
7226.3,"<img src=""portrait/WW1.jpg""style=""height:400px;""></img>",1,html-button-response,29,284849,0.0-3.1-4.1,64289,List2A,white,man,,TRUE,1,,,,,,,,,,
null,CORRECT,,html-keyboard-response,30,286369,0.0-3.1-5.1-0.1,64289,List2A,white,man,,,,null,,,,,,,,,
6734.7,"<img src=""portrait/BW2.jpg""style=""height:400px;""></img>",2,html-button-response,31,293106,0.0-3.1-7.1,64289,List2A,white,man,,TRUE,2,,,,,,,,,,
null,CORRECT,,html-keyboard-response,32,294629,0.0-3.1-8.1-0.1,64289,List2A,white,man,,,,null,,,,,,,,,
7158,"<img src=""portrait/WW2.jpg""style=""height:400px;""></img>",3,html-button-response,33,301789,0.0-3.1-10.1,64289,List2A,white,man,,TRUE,3,,,,,,,,,,
null,CORRECT,,html-keyboard-response,34,303304,0.0-3.1-11.1-0.1,64289,List2A,white,man,,,,null,,,,,,,,,
4394,"<img src=""portrait/BW1.jpg""style=""height:400px;""></img>",0,html-button-response,35,307700,0.0-3.1-13.1,64289,List2A,white,man,,TRUE,0,,,,,,,,,,
null,CORRECT,,html-keyboard-response,36,309221,0.0-3.1-14.1-0.1,64289,List2A,white,man,,,,null,,,,,,,,,
7376.2,"<img src=""portrait/WM1.jpg""style=""height:400px;""></img>",6,html-button-response,37,316600,0.0-3.1-16.1,64289,List2A,white,man,,TRUE,6,,,,,,,,,,
null,CORRECT,,html-keyboard-response,38,318121,0.0-3.1-17.1-0.1,64289,List2A,white,man,,,,null,,,,,,,,,
11189.2,"<img src=""portrait/BM2.jpg""style=""height:400px;""></img>",5,html-button-response,39,329312,0.0-3.1-19.1,64289,List2A,white,man,,TRUE,5,,,,,,,,,,
null,CORRECT,,html-keyboard-response,40,330837,0.0-3.1-20.1-0.1,64289,List2A,white,man,,,,null,,,,,,,,,
4762.1,"<img src=""portrait/BM1.jpg""style=""height:400px;""></img>",4,html-button-response,41,335602,0.0-3.1-22.1,64289,List2A,white,man,,TRUE,4,,,,,,,,,,
null,CORRECT,,html-keyboard-response,42,337117,0.0-3.1-23.1-0.1,64289,List2A,white,man,,,,null,,,,,,,,,
2160.5,<p>You got 8 out of 8 right first time. Press Continue.</p>,0,html-button-response,43,339281,0.0-3.1-25.1,64289,List2A,white,man,,,,,,,,,,,,,
90337.8,"<p>In this experiment, you will view photographs of the people from the memory game interacting.</p><p>By using the <strong>exact</strong> phrase given <i>after</i> the photograph appears and recalling the correct names of the people in the photographs, form a sentence describing the interaction. You do not need to capitalise names.</p><p>Type your answer in the space provided. Please complete every sentence before moving onto the next trial.</p><p>You will only have a few seconds to memorise each given photograph and phrase before you can respond, so try your best to focus.</p><p>An example is given below. Press 'Continue' when you are ready.</p><img src='img/speaking_example.jpg' style='width:800px;height:460px;''></img>",0,html-button-response,44,430640,0.0-4.0,64289,List2A,white,man,,,,,,,,,,,,,
3651.8,"<p>Before the experiment starts, you will watch two example trials. Press 'Continue'.</p>",0,html-button-response,45,435293,0.0-5.0,64289,List2A,white,man,,,,,,,,,,,,,
null,<img src='img/play_eg.gif' style='height:400px;''></img>,,html-keyboard-response,46,438308,0.0-6.0,64289,List2A,white,man,,,,null,,,,,,,,,
null,<p>is playing with</p>,,html-keyboard-response,47,440310,0.0-7.0,64289,List2A,white,man,,,,null,,,,,,,,,
8967.4,<p><b>Answer:</b> jane is playing with ruth</p>,0,html-button-response,48,449279,0.0-8.0,64289,List2A,white,man,,,,,,,,,,,,,
null,<img src='img/dance_eg.gif' style='height:400px;''></img>,,html-keyboard-response,49,452300,0.0-9.0,64289,List2A,white,man,,,,null,,,,,,,,,
null,<p>is being entertained by</p>,,html-keyboard-response,50,454306,0.0-10.0,64289,List2A,white,man,,,,null,,,,,,,,,
7292.2,<p><b>Answer:</b> fred is being entertained by mike</p>,0,html-button-response,51,461599,0.0-11.0,64289,List2A,white,man,,,,,,,,,,,,,
5865.2,"<p>Ready to start the experiment?</p><br><p><strong>Remember to describe the picture using a full sentence,</strong></p><p><strong>that combines the names of the people with the <i>exact</i> phrase given.</strong></p><p><strong>To receive full payment you must do this correctly.</strong></p><p><strong> You do not need to capitalise names or use punctuation.</strong></p><br><p>Press 'Continue' to begin.</p>",0,html-button-response,52,468468,0.0-12.0,64289,List2A,white,man,,,,,,,,,,,,,
null,"<div style=""font-size:60px;"">+</div>",,html-keyboard-response,53,469991,0.0-13.0-0.0,64289,List2A,white,man,,,,null,,,,,,,,,
null,"<img src=""stim_listA/hug5.gif""style=""height:400px;""></stim_listA>",,html-keyboard-response,54,472008,0.0-13.0-1.0,64289,List2A,white,man,,,,null,,,,,,,,,
null,is hugging,,html-keyboard-response,55,474024,0.0-13.0-2.0,64289,List2A,white,man,,,,null,,,,,,,,,
8846.5,,,survey-text,56,482879,0.0-13.0-3.0,64289,List2A,white,man,,,,,"{""Q0"":""luke is hugging fred""}","<img src=""stim_listA/hug5.gif""style=""height:400px;""></stim_listA>",is hugging,,,,,,
null,"<div style=""font-size:60px;"">+</div>",,html-keyboard-response,57,483384,0.0-13.0-0.1,64289,List2A,white,man,,,,null,,,,,,,,,
null,"<img src=""stim_listA/seduce2.gif""style=""height:400px;""></stim_listA>",,html-keyboard-response,58,485398,0.0-13.0-1.1,64289,List2A,white,man,,,,null,,,,,,,,,
null,is being seduced by,,html-keyboard-response,59,487408,0.0-13.0-2.1,64289,List2A,white,man,,,,null,,,,,,,,,
29366.5,,,survey-text,60,516780,0.0-13.0-3.1,64289,List2A,white,man,,,,,"{""Q0"":""jane is being seduced by dave""}","<img src=""stim_listA/seduce2.gif""style=""height:400px;""></stim_listA>",is being seduced by,,,,,,
null,"<div style=""font-size:60px;"">+</div>",,html-keyboard-response,61,517296,0.0-13.0-0.2,64289,List2A,white,man,,,,null,,,,,,,,,
null,"<img src=""stim_listA/seduce6.gif""style=""height:400px;""></stim_listA>",,html-keyboard-response,62,519301,0.0-13.0-1.2,64289,List2A,white,man,,,,null,,,,,,,,,
null,is being seduced by,,html-keyboard-response,63,521306,0.0-13.0-2.2,64289,List2A,white,man,,,,null,,,,,,,,,
27498.4,,,survey-text,64,548809,0.0-13.0-3.2,64289,List2A,white,man,,,,,"{""Q0"":""fred is playing with dave""}","<img src=""stim_listA/seduce6.gif""style=""height:400px;""></stim_listA>",is being seduced by,,,,,,
null,"<div style=""font-size:60px;"">+</div>",,html-keyboard-response,65,549320,0.0-13.0-0.3,64289,List2A,white,man,,,,null,,,,,,,,,
null,"<img src=""stim_listA/shout8.gif""style=""height:400px;""></stim_listA>",,html-keyboard-response,66,551336,0.0-13.0-1.3,64289,List2A,white,man,,,,null,,,,,,,,,
null,is being shouted at by,,html-keyboard-response,67,553352,0.0-13.0-2.3,64289,List2A,white,man,,,,null,,,,,,,,,
15705.5,,,survey-text,68,569062,0.0-13.0-3.3,64289,List2A,white,man,,,,,"{""Q0"":""kate is playing with jane""}","<img src=""stim_listA/shout8.gif""style=""height:400px;""></stim_listA>",is being shouted at by,,,,,,
null,"<div style=""font-size:60px;"">+</div>",,html-keyboard-response,69,569574,0.0-13.0-0.4,64289,List2A,white,man,,,,null,,,,,,,,,
null,"<img src=""stim_listA/shout6.gif""style=""height:400px;""></stim_listA>",,html-keyboard-response,70,571580,0.0-13.0-1.4,64289,List2A,white,man,,,,null,,,,,,,,,
null,is being shouted at by,,html-keyboard-response,71,573582,0.0-13.0-2.4,64289,List2A,white,man,,,,null,,,,,,,,,
21310.2,,,survey-text,72,594897,0.0-13.0-3.4,64289,List2A,white,man,,,,,"{""Q0"":""fred is being shouted at by dave""}","<img src=""stim_listA/shout6.gif""style=""height:400px;""></stim_listA>",is being shouted at by,,,,,,
null,"<div style=""font-size:60px;"">+</div>",,html-keyboard-response,73,595414,0.0-13.0-0.5,64289,List2A,white,man,,,,null,,,,,,,,,
null,"<img src=""stim_listA/shout4.gif""style=""height:400px;""></stim_listA>",,html-keyboard-response,74,597427,0.0-13.0-1.5,64289,List2A,white,man,,,,null,,,,,,,,,
null,is being shouted at by,,html-keyboard-response,75,599437,0.0-13.0-2.5,64289,List2A,white,man,,,,null,,,,,,,,,
31116.9,,,survey-text,76,630559,0.0-13.0-3.5,64289,List2A,white,man,,,,,"{""Q0"":""mike is being shouted at by kate""}","<img src=""stim_listA/shout4.gif""style=""height:400px;""></stim_listA>",is being shouted at by,,,,,,
null,"<div style=""font-size:60px;"">+</div>",,html-keyboard-response,77,631069,0.0-13.0-0.6,64289,List2A,white,man,,,,null,,,,,,,,,
null,"<img src=""stim_listA/challenge6.gif""style=""height:400px;""></stim_listA>",,html-keyboard-response,78,633082,0.0-13.0-1.6,64289,List2A,white,man,,,,null,,,,,,,,,
null,is being challenged by,,html-keyboard-response,79,635085,0.0-13.0-2.6,64289,List2A,white,man,,,,null,,,,,,,,,
27592.4,,,survey-text,80,662682,0.0-13.0-3.6,64289,List2A,white,man,,,,,"{""Q0"":""luke is being shouted at by mike""}","<img src=""stim_listA/challenge6.gif""style=""height:400px;""></stim_listA>",is being challenged by,,,,,,
null,"<div style=""font-size:60px;"">+</div>",,html-keyboard-response,81,663192,0.0-13.0-0.7,64289,List2A,white,man,,,,null,,,,,,,,,
null,"<img src=""stim_listA/copy5.gif""style=""height:400px;""></stim_listA>",,html-keyboard-response,82,665199,0.0-13.0-1.7,64289,List2A,white,man,,,,null,,,,,,,,,
null,is copying,,html-keyboard-response,83,667201,0.0-13.0-2.7,64289,List2A,white,man,,,,null,,,,,,,,,
17331.6,,,survey-text,84,684539,0.0-13.0-3.7,64289,List2A,white,man,,,,,"{""Q0"":""fred is copying dave ""}","<img src=""stim_listA/copy5.gif""style=""height:400px;""></stim_listA>",is copying,,,,,,
null,"<div style=""font-size:60px;"">+</div>",,html-keyboard-response,85,685045,0.0-13.0-0.8,64289,List2A,white,man,,,,null,,,,,,,,,
null,"<img src=""stim_listA/challenge1.gif""style=""height:400px;""></stim_listA>",,html-keyboard-response,86,687054,0.0-13.0-1.8,64289,List2A,white,man,,,,null,,,,,,,,,
null,is challenging,,html-keyboard-response,87,689065,0.0-13.0-2.8,64289,List2A,white,man,,,,null,,,,,,,,,
33166.2,,,survey-text,88,722235,0.0-13.0-3.8,64289,List2A,white,man,,,,,"{""Q0"":""dave  is challenging ruth""}","<img src=""stim_listA/challenge1.gif""style=""height:400px;""></stim_listA>",is challenging,,,,,,
null,"<div style=""font-size:60px;"">+</div>",,html-keyboard-response,89,722745,0.0-13.0-0.9,64289,List2A,white,man,,,,null,,,,,,,,,
null,"<img src=""stim_listA/greet5.gif""style=""height:400px;""></stim_listA>",,html-keyboard-response,90,724758,0.0-13.0-1.9,64289,List2A,white,man,,,,null,,,,,,,,,
null,is greeting,,html-keyboard-response,91,726771,0.0-13.0-2.9,64289,List2A,white,man,,,,null,,,,,,,,,
17290.5,,,survey-text,92,744066,0.0-13.0-3.9,64289,List2A,white,man,,,,,"{""Q0"":""fred is greeting dave""}","<img src=""stim_listA/greet5.gif""style=""height:400px;""></stim_listA>",is greeting,,,,,,
null,"<div style=""font-size:60px;"">+</div>",,html-keyboard-response,93,744575,0.0-13.0-0.10,64289,List2A,white,man,,,,null,,,,,,,,,
null,"<img src=""stim_listA/hug1.gif""style=""height:400px;""></stim_listA>",,html-keyboard-response,94,746588,0.0-13.0-1.10,64289,List2A,white,man,,,,null,,,,,,,,,
null,is hugging,,html-keyboard-response,95,748591,0.0-13.0-2.10,64289,List2A,white,man,,,,null,,,,,,,,,
13909.2,,,survey-text,96,762504,0.0-13.0-3.10,64289,List2A,white,man,,,,,"{""Q0"":""luke is hugging ruth""}","<img src=""stim_listA/hug1.gif""style=""height:400px;""></stim_listA>",is hugging,,,,,,
null,"<div style=""font-size:60px;"">+</div>",,html-keyboard-response,97,763013,0.0-13.0-0.11,64289,List2A,white,man,,,,null,,,,,,,,,
null,"<img src=""stim_listA/hug8.gif""style=""height:400px;""></stim_listA>",,html-keyboard-response,98,765017,0.0-13.0-1.11,64289,List2A,white,man,,,,null,,,,,,,,,
null,is being hugged by,,html-keyboard-response,99,767028,0.0-13.0-2.11,64289,List2A,white,man,,,,null,,,,,,,,,
16708,,,survey-text,100,783742,0.0-13.0-3.11,64289,List2A,white,man,,,,,"{""Q0"":""kate is hugging beth""}","<img src=""stim_listA/hug8.gif""style=""height:400px;""></stim_listA>",is being hugged by,,,,,,
null,"<div style=""font-size:60px;"">+</div>",,html-keyboard-response,101,784245,0.0-13.0-0.12,64289,List2A,white,man,,,,null,,,,,,,,,
null,"<img src=""stim_listA/challenge4.gif""style=""height:400px;""></stim_listA>",,html-keyboard-response,102,786260,0.0-13.0-1.12,64289,List2A,white,man,,,,null,,,,,,,,,
null,is being challenged by,,html-keyboard-response,103,788261,0.0-13.0-2.12,64289,List2A,white,man,,,,null,,,,,,,,,
13576.1,,,survey-text,104,801842,0.0-13.0-3.12,64289,List2A,white,man,,,,,"{""Q0"":""kate is being challenged by fred""}","<img src=""stim_listA/challenge4.gif""style=""height:400px;""></stim_listA>",is being challenged by,,,,,,
null,"<div style=""font-size:60px;"">+</div>",,html-keyboard-response,105,802344,0.0-13.0-0.13,64289,List2A,white,man,,,,null,,,,,,,,,
null,"<img src=""stim_listA/hug2.gif""style=""height:400px;""></stim_listA>",,html-keyboard-response,106,804362,0.0-13.0-1.13,64289,List2A,white,man,,,,null,,,,,,,,,
null,is being hugged by,,html-keyboard-response,107,806373,0.0-13.0-2.13,64289,List2A,white,man,,,,null,,,,,,,,,
32242.1,,,survey-text,108,838620,0.0-13.0-3.13,64289,List2A,white,man,,,,,"{""Q0"":""jane is being hugged by dave""}","<img src=""stim_listA/hug2.gif""style=""height:400px;""></stim_listA>",is being hugged by,,,,,,
null,"<div style=""font-size:60px;"">+</div>",,html-keyboard-response,109,839126,0.0-13.0-0.14,64289,List2A,white,man,,,,null,,,,,,,,,
null,"<img src=""stim_listA/hug6.gif""style=""height:400px;""></stim_listA>",,html-keyboard-response,110,841133,0.0-13.0-1.14,64289,List2A,white,man,,,,null,,,,,,,,,
null,is being hugged by,,html-keyboard-response,111,843137,0.0-13.0-2.14,64289,List2A,white,man,,,,null,,,,,,,,,
17807.7,,,survey-text,112,860949,0.0-13.0-3.14,64289,List2A,white,man,,,,,"{""Q0"":""dave is being hugged by mike""}","<img src=""stim_listA/hug6.gif""style=""height:400px;""></stim_listA>",is being hugged by,,,,,,
null,"<div style=""font-size:60px;"">+</div>",,html-keyboard-response,113,861452,0.0-13.0-0.15,64289,List2A,white,man,,,,null,,,,,,,,,
null,"<img src=""stim_listA/kiss5.gif""style=""height:400px;""></stim_listA>",,html-keyboard-response,114,863460,0.0-13.0-1.15,64289,List2A,white,man,,,,null,,,,,,,,,
null,is kissing,,html-keyboard-response,115,865468,0.0-13.0-2.15,64289,List2A,white,man,,,,null,,,,,,,,,
12133.6,,,survey-text,116,877606,0.0-13.0-3.15,64289,List2A,white,man,,,,,"{""Q0"":""fred is kissing luke""}","<img src=""stim_listA/kiss5.gif""style=""height:400px;""></stim_listA>",is kissing,,,,,,
null,"<div style=""font-size:60px;"">+</div>",,html-keyboard-response,117,878122,0.0-13.0-0.16,64289,List2A,white,man,,,,null,,,,,,,,,
null,"<img src=""stim_listA/shout3.gif""style=""height:400px;""></stim_listA>",,html-keyboard-response,118,880129,0.0-13.0-1.16,64289,List2A,white,man,,,,null,,,,,,,,,
null,is shouting at,,html-keyboard-response,119,882140,0.0-13.0-2.16,64289,List2A,white,man,,,,null,,,,,,,,,
11816.2,,,survey-text,120,893961,0.0-13.0-3.16,64289,List2A,white,man,,,,,"{""Q0"":""fred is shouting at beth""}","<img src=""stim_listA/shout3.gif""style=""height:400px;""></stim_listA>",is shouting at,,,,,,
null,"<div style=""font-size:60px;"">+</div>",,html-keyboard-response,121,894477,0.0-13.0-0.17,64289,List2A,white,man,,,,null,,,,,,,,,
null,"<img src=""stim_listA/hug4.gif""style=""height:400px;""></stim_listA>",,html-keyboard-response,122,896489,0.0-13.0-1.17,64289,List2A,white,man,,,,null,,,,,,,,,
null,is being hugged by,,html-keyboard-response,123,898494,0.0-13.0-2.17,64289,List2A,white,man,,,,null,,,,,,,,,
13931.6,,,survey-text,124,912430,0.0-13.0-3.17,64289,List2A,white,man,,,,,"{""Q0"":""mike is being hugged by kate""}","<img src=""stim_listA/hug4.gif""style=""height:400px;""></stim_listA>",is being hugged by,,,,,,
null,"<div style=""font-size:60px;"">+</div>",,html-keyboard-response,125,912937,0.0-13.0-0.18,64289,List2A,white,man,,,,null,,,,,,,,,
null,"<img src=""stim_listA/copy1.gif""style=""height:400px;""></stim_listA>",,html-keyboard-response,126,914952,0.0-13.0-1.18,64289,List2A,white,man,,,,null,,,,,,,,,
null,is copying,,html-keyboard-response,127,916953,0.0-13.0-2.18,64289,List2A,white,man,,,,null,,,,,,,,,
13763.6,,,survey-text,128,930719,0.0-13.0-3.18,64289,List2A,white,man,,,,,"{""Q0"":""ruth is copying dave""}","<img src=""stim_listA/copy1.gif""style=""height:400px;""></stim_listA>",is copying,,,,,,
null,"<div style=""font-size:60px;"">+</div>",,html-keyboard-response,129,931224,0.0-13.0-0.19,64289,List2A,white,man,,,,null,,,,,,,,,
null,"<img src=""stim_listA/challenge5.gif""style=""height:400px;""></stim_listA>",,html-keyboard-response,130,933233,0.0-13.0-1.19,64289,List2A,white,man,,,,null,,,,,,,,,
null,is challenging,,html-keyboard-response,131,935247,0.0-13.0-2.19,64289,List2A,white,man,,,,null,,,,,,,,,
6864.2,,,survey-text,132,942115,0.0-13.0-3.19,64289,List2A,white,man,,,,,"{""Q0"":""fred is challenging dave""}","<img src=""stim_listA/challenge5.gif""style=""height:400px;""></stim_listA>",is challenging,,,,,,
62710.2,"<img src='img/portrait_matrix_list2.jpg' style='width:900px;height:500px;''></img><p>If you have memorised all the portraits and names and are ready to start, press Continue.</p><p><strong>Please note: Your memory of these faces will be tested 4 times during this experiment.</strong></p>",0,html-button-response,133,1004827,0.0-14.0-0.0,64289,List2A,white,man,,,,,,,,,,,,,
5185.3,"<img src=""portrait/WW2.jpg""style=""height:400px;""></img>",3,html-button-response,134,1011022,0.0-14.0-1.0,64289,List2A,white,man,,TRUE,3,,,,,,,,,,
null,CORRECT,,html-keyboard-response,135,1012544,0.0-14.0-2.0-0.0,64289,List2A,white,man,,,,null,,,,,,,,,
5692.2,"<img src=""portrait/WW1.jpg""style=""height:400px;""></img>",1,html-button-response,136,1018239,0.0-14.0-4.0,64289,List2A,white,man,,TRUE,1,,,,,,,,,,
null,CORRECT,,html-keyboard-response,137,1019762,0.0-14.0-5.0-0.0,64289,List2A,white,man,,,,null,,,,,,,,,
2590.4,"<img src=""portrait/BM1.jpg""style=""height:400px;""></img>",4,html-button-response,138,1022355,0.0-14.0-7.0,64289,List2A,white,man,,TRUE,4,,,,,,,,,,
null,CORRECT,,html-keyboard-response,139,1023879,0.0-14.0-8.0-0.0,64289,List2A,white,man,,,,null,,,,,,,,,
5339.6,"<img src=""portrait/WM2.jpg""style=""height:400px;""></img>",7,html-button-response,140,1029220,0.0-14.0-10.0,64289,List2A,white,man,,TRUE,7,,,,,,,,,,
null,CORRECT,,html-keyboard-response,141,1030744,0.0-14.0-11.0-0.0,64289,List2A,white,man,,,,null,,,,,,,,,
5055,"<img src=""portrait/BW2.jpg""style=""height:400px;""></img>",2,html-button-response,142,1035801,0.0-14.0-13.0,64289,List2A,white,man,,TRUE,2,,,,,,,,,,
null,CORRECT,,html-keyboard-response,143,1037317,0.0-14.0-14.0-0.0,64289,List2A,white,man,,,,null,,,,,,,,,
3633,"<img src=""portrait/BW1.jpg""style=""height:400px;""></img>",0,html-button-response,144,1040951,0.0-14.0-16.0,64289,List2A,white,man,,TRUE,0,,,,,,,,,,
null,CORRECT,,html-keyboard-response,145,1042471,0.0-14.0-17.0-0.0,64289,List2A,white,man,,,,null,,,,,,,,,
3289.3,"<img src=""portrait/BM2.jpg""style=""height:400px;""></img>",5,html-button-response,146,1045763,0.0-14.0-19.0,64289,List2A,white,man,,TRUE,5,,,,,,,,,,
null,CORRECT,,html-keyboard-response,147,1047287,0.0-14.0-20.0-0.0,64289,List2A,white,man,,,,null,,,,,,,,,
4156.3,"<img src=""portrait/WM1.jpg""style=""height:400px;""></img>",6,html-button-response,148,1051446,0.0-14.0-22.0,64289,List2A,white,man,,TRUE,6,,,,,,,,,,
null,CORRECT,,html-keyboard-response,149,1052950,0.0-14.0-23.0-0.0,64289,List2A,white,man,,,,null,,,,,,,,,
2190.8,<p>You got 8 out of 8 right first time. Press Continue.</p>,0,html-button-response,150,1055143,0.0-14.0-25.0,64289,List2A,white,man,,,,,,,,,,,,,
null,"<div style=""font-size:60px;"">+</div>",,html-keyboard-response,151,1056657,0.0-15.0-0.0,64289,List2A,white,man,,,,null,,,,,,,,,
null,"<img src=""stim_listA/oppose6.gif""style=""height:400px;""></stim_listA>",,html-keyboard-response,152,1058665,0.0-15.0-1.0,64289,List2A,white,man,,,,null,,,,,,,,,
null,is being opposed by,,html-keyboard-response,153,1060669,0.0-15.0-2.0,64289,List2A,white,man,,,,null,,,,,,,,,
13610.5,,,survey-text,154,1074285,0.0-15.0-3.0,64289,List2A,white,man,,,,,"{""Q0"":""luke is being opposed by fred""}","<img src=""stim_listA/oppose6.gif""style=""height:400px;""></stim_listA>",is being opposed by,,,,,,
null,"<div style=""font-size:60px;"">+</div>",,html-keyboard-response,155,1074798,0.0-15.0-0.1,64289,List2A,white,man,,,,null,,,,,,,,,
null,"<img src=""stim_listA/kiss4.gif""style=""height:400px;""></stim_listA>",,html-keyboard-response,156,1076816,0.0-15.0-1.1,64289,List2A,white,man,,,,null,,,,,,,,,
null,is being kissed by,,html-keyboard-response,157,1078820,0.0-15.0-2.1,64289,List2A,white,man,,,,null,,,,,,,,,
10235.1,,,survey-text,158,1089060,0.0-15.0-3.1,64289,List2A,white,man,,,,,"{""Q0"":""mike is being kissed by kate""}","<img src=""stim_listA/kiss4.gif""style=""height:400px;""></stim_listA>",is being kissed by,,,,,,
null,"<div style=""font-size:60px;"">+</div>",,html-keyboard-response,159,1089567,0.0-15.0-0.2,64289,List2A,white,man,,,,null,,,,,,,,,
null,"<img src=""stim_listA/kiss7.gif""style=""height:400px;""></stim_listA>",,html-keyboard-response,160,1091576,0.0-15.0-1.2,64289,List2A,white,man,,,,null,,,,,,,,,
null,is kissing,,html-keyboard-response,161,1093591,0.0-15.0-2.2,64289,List2A,white,man,,,,null,,,,,,,,,
12311.2,,,survey-text,162,1105907,0.0-15.0-3.2,64289,List2A,white,man,,,,,"{""Q0"":""ruth is being kissed by beth""}","<img src=""stim_listA/kiss7.gif""style=""height:400px;""></stim_listA>",is kissing,,,,,,
null,"<div style=""font-size:60px;"">+</div>",,html-keyboard-response,163,1106421,0.0-15.0-0.3,64289,List2A,white,man,,,,null,,,,,,,,,
null,"<img src=""stim_listA/touch7.gif""style=""height:400px;""></stim_listA>",,html-keyboard-response,164,1108442,0.0-15.0-1.3,64289,List2A,white,man,,,,null,,,,,,,,,
null,is touching,,html-keyboard-response,165,1110447,0.0-15.0-2.3,64289,List2A,white,man,,,,null,,,,,,,,,
9972.9,,,survey-text,166,1120424,0.0-15.0-3.3,64289,List2A,white,man,,,,,"{""Q0"":""jane is touching kate""}","<img src=""stim_listA/touch7.gif""style=""height:400px;""></stim_listA>",is touching,,,,,,
null,"<div style=""font-size:60px;"">+</div>",,html-keyboard-response,167,1120938,0.0-15.0-0.4,64289,List2A,white,man,,,,null,,,,,,,,,
null,"<img src=""stim_listA/greet7.gif""style=""height:400px;""></stim_listA>",,html-keyboard-response,168,1122951,0.0-15.0-1.4,64289,List2A,white,man,,,,null,,,,,,,,,
null,is greeting,,html-keyboard-response,169,1124953,0.0-15.0-2.4,64289,List2A,white,man,,,,null,,,,,,,,,
11174.3,,,survey-text,170,1136131,0.0-15.0-3.4,64289,List2A,white,man,,,,,"{""Q0"":""beth is touching jane""}","<img src=""stim_listA/greet7.gif""style=""height:400px;""></stim_listA>",is greeting,,,,,,
null,"<div style=""font-size:60px;"">+</div>",,html-keyboard-response,171,1136642,0.0-15.0-0.5,64289,List2A,white,man,,,,null,,,,,,,,,
null,"<img src=""stim_listA/kiss8.gif""style=""height:400px;""></stim_listA>",,html-keyboard-response,172,1138651,0.0-15.0-1.5,64289,List2A,white,man,,,,null,,,,,,,,,
null,is being kissed by,,html-keyboard-response,173,1140654,0.0-15.0-2.5,64289,List2A,white,man,,,,null,,,,,,,,,
18175.1,,,survey-text,174,1158834,0.0-15.0-3.5,64289,List2A,white,man,,,,,"{""Q0"":""kate is being kissed by ruth""}","<img src=""stim_listA/kiss8.gif""style=""height:400px;""></stim_listA>",is being kissed by,,,,,,
null,"<div style=""font-size:60px;"">+</div>",,html-keyboard-response,175,1159345,0.0-15.0-0.6,64289,List2A,white,man,,,,null,,,,,,,,,
null,"<img src=""stim_listA/seduce4.gif""style=""height:400px;""></stim_listA>",,html-keyboard-response,176,1161360,0.0-15.0-1.6,64289,List2A,white,man,,,,null,,,,,,,,,
null,is being seduced by,,html-keyboard-response,177,1163366,0.0-15.0-2.6,64289,List2A,white,man,,,,null,,,,,,,,,
15952.1,,,survey-text,178,1179323,0.0-15.0-3.6,64289,List2A,white,man,,,,,"{""Q0"":""beth is being seduced by mike""}","<img src=""stim_listA/seduce4.gif""style=""height:400px;""></stim_listA>",is being seduced by,,,,,,
null,"<div style=""font-size:60px;"">+</div>",,html-keyboard-response,179,1179824,0.0-15.0-0.7,64289,List2A,white,man,,,,null,,,,,,,,,
null,"<img src=""stim_listA/copy2.gif""style=""height:400px;""></stim_listA>",,html-keyboard-response,180,1181826,0.0-15.0-1.7,64289,List2A,white,man,,,,null,,,,,,,,,
null,is being copied by,,html-keyboard-response,181,1183829,0.0-15.0-2.7,64289,List2A,white,man,,,,null,,,,,,,,,
28712.9,,,survey-text,182,1212547,0.0-15.0-3.7,64289,List2A,white,man,,,,,"{""Q0"":""luke is being copied by ruth""}","<img src=""stim_listA/copy2.gif""style=""height:400px;""></stim_listA>",is being copied by,,,,,,
null,"<div style=""font-size:60px;"">+</div>",,html-keyboard-response,183,1213051,0.0-15.0-0.8,64289,List2A,white,man,,,,null,,,,,,,,,
null,"<img src=""stim_listA/copy3.gif""style=""height:400px;""></stim_listA>",,html-keyboard-response,184,1215070,0.0-15.0-1.8,64289,List2A,white,man,,,,null,,,,,,,,,
null,is copying,,html-keyboard-response,185,1217072,0.0-15.0-2.8,64289,List2A,white,man,,,,null,,,,,,,,,
10512.1,,,survey-text,186,1227586,0.0-15.0-3.8,64289,List2A,white,man,,,,,"{""Q0"":""mike is copying beth""}","<img src=""stim_listA/copy3.gif""style=""height:400px;""></stim_listA>",is copying,,,,,,
null,"<div style=""font-size:60px;"">+</div>",,html-keyboard-response,187,1228093,0.0-15.0-0.9,64289,List2A,white,man,,,,null,,,,,,,,,
null,"<img src=""stim_listA/touch5.gif""style=""height:400px;""></stim_listA>",,html-keyboard-response,188,1230101,0.0-15.0-1.9,64289,List2A,white,man,,,,null,,,,,,,,,
null,is touching,,html-keyboard-response,189,1232118,0.0-15.0-2.9,64289,List2A,white,man,,,,null,,,,,,,,,
7498.3,,,survey-text,190,1239622,0.0-15.0-3.9,64289,List2A,white,man,,,,,"{""Q0"":""dave is touching mike""}","<img src=""stim_listA/touch5.gif""style=""height:400px;""></stim_listA>",is touching,,,,,,
null,"<div style=""font-size:60px;"">+</div>",,html-keyboard-response,191,1240133,0.0-15.0-0.10,64289,List2A,white,man,,,,null,,,,,,,,,
null,"<img src=""stim_listA/shout2.gif""style=""height:400px;""></stim_listA>",,html-keyboard-response,192,1242141,0.0-15.0-1.10,64289,List2A,white,man,,,,null,,,,,,,,,
null,is being shouted at by,,html-keyboard-response,193,1244142,0.0-15.0-2.10,64289,List2A,white,man,,,,null,,,,,,,,,
12096.4,,,survey-text,194,1256243,0.0-15.0-3.10,64289,List2A,white,man,,,,,"{""Q0"":""dave is being shouted at by jane""}","<img src=""stim_listA/shout2.gif""style=""height:400px;""></stim_listA>",is being shouted at by,,,,,,
null,"<div style=""font-size:60px;"">+</div>",,html-keyboard-response,195,1256750,0.0-15.0-0.11,64289,List2A,white,man,,,,null,,,,,,,,,
null,"<img src=""stim_listA/look2.gif""style=""height:400px;""></stim_listA>",,html-keyboard-response,196,1258758,0.0-15.0-1.11,64289,List2A,white,man,,,,null,,,,,,,,,
null,is being looked at by,,html-keyboard-response,197,1260763,0.0-15.0-2.11,64289,List2A,white,man,,,,null,,,,,,,,,
17066.1,,,survey-text,198,1277834,0.0-15.0-3.11,64289,List2A,white,man,,,,,"{""Q0"":""dave is being looked out by ruth""}","<img src=""stim_listA/look2.gif""style=""height:400px;""></stim_listA>",is being looked at by,,,,,,
null,"<div style=""font-size:60px;"">+</div>",,html-keyboard-response,199,1278343,0.0-15.0-0.12,64289,List2A,white,man,,,,null,,,,,,,,,
null,"<img src=""stim_listA/touch4.gif""style=""height:400px;""></stim_listA>",,html-keyboard-response,200,1280349,0.0-15.0-1.12,64289,List2A,white,man,,,,null,,,,,,,,,
null,is being touched by,,html-keyboard-response,201,1282352,0.0-15.0-2.12,64289,List2A,white,man,,,,null,,,,,,,,,
8431.1,,,survey-text,202,1290788,0.0-15.0-3.12,64289,List2A,white,man,,,,,"{""Q0"":""fred is being touched by beth""}","<img src=""stim_listA/touch4.gif""style=""height:400px;""></stim_listA>",is being touched by,,,,,,
null,"<div style=""font-size:60px;"">+</div>",,html-keyboard-response,203,1291299,0.0-15.0-0.13,64289,List2A,white,man,,,,null,,,,,,,,,
null,"<img src=""stim_listA/copy8.gif""style=""height:400px;""></stim_listA>",,html-keyboard-response,204,1293307,0.0-15.0-1.13,64289,List2A,white,man,,,,null,,,,,,,,,
null,is being copied by,,html-keyboard-response,205,1295316,0.0-15.0-2.13,64289,List2A,white,man,,,,null,,,,,,,,,
14096.5,,,survey-text,206,1309418,0.0-15.0-3.13,64289,List2A,white,man,,,,,"{""Q0"":""ruth is being copied by kate""}","<img src=""stim_listA/copy8.gif""style=""height:400px;""></stim_listA>",is being copied by,,,,,,
null,"<div style=""font-size:60px;"">+</div>",,html-keyboard-response,207,1309934,0.0-15.0-0.14,64289,List2A,white,man,,,,null,,,,,,,,,
null,"<img src=""stim_listA/look5.gif""style=""height:400px;""></stim_listA>",,html-keyboard-response,208,1311952,0.0-15.0-1.14,64289,List2A,white,man,,,,null,,,,,,,,,
null,is looking at,,html-keyboard-response,209,1313961,0.0-15.0-2.14,64289,List2A,white,man,,,,null,,,,,,,,,
12470.1,,,survey-text,210,1326437,0.0-15.0-3.14,64289,List2A,white,man,,,,,"{""Q0"":""luke is looking at fred""}","<img src=""stim_listA/look5.gif""style=""height:400px;""></stim_listA>",is looking at,,,,,,
null,"<div style=""font-size:60px;"">+</div>",,html-keyboard-response,211,1326943,0.0-15.0-0.15,64289,List2A,white,man,,,,null,,,,,,,,,
null,"<img src=""stim_listA/look4.gif""style=""height:400px;""></stim_listA>",,html-keyboard-response,212,1328962,0.0-15.0-1.15,64289,List2A,white,man,,,,null,,,,,,,,,
null,is being looked at by,,html-keyboard-response,213,1330967,0.0-15.0-2.15,64289,List2A,white,man,,,,null,,,,,,,,,
13550.8,,,survey-text,214,1344522,0.0-15.0-3.15,64289,List2A,white,man,,,,,"{""Q0"":""mike is being looked at by kate""}","<img src=""stim_listA/look4.gif""style=""height:400px;""></stim_listA>",is being looked at by,,,,,,
null,"<div style=""font-size:60px;"">+</div>",,html-keyboard-response,215,1345038,0.0-15.0-0.16,64289,List2A,white,man,,,,null,,,,,,,,,
null,"<img src=""stim_listA/greet4.gif""style=""height:400px;""></stim_listA>",,html-keyboard-response,216,1347045,0.0-15.0-1.16,64289,List2A,white,man,,,,null,,,,,,,,,
null,is being greeted by,,html-keyboard-response,217,1349050,0.0-15.0-2.16,64289,List2A,white,man,,,,null,,,,,,,,,
13304.3,,,survey-text,218,1362359,0.0-15.0-3.16,64289,List2A,white,man,,,,,"{""Q0"":""kate is being greeted by fred""}","<img src=""stim_listA/greet4.gif""style=""height:400px;""></stim_listA>",is being greeted by,,,,,,
null,"<div style=""font-size:60px;"">+</div>",,html-keyboard-response,219,1362867,0.0-15.0-0.17,64289,List2A,white,man,,,,null,,,,,,,,,
null,"<img src=""stim_listA/challenge7.gif""style=""height:400px;""></stim_listA>",,html-keyboard-response,220,1364885,0.0-15.0-1.17,64289,List2A,white,man,,,,null,,,,,,,,,
null,is challenging,,html-keyboard-response,221,1366890,0.0-15.0-2.17,64289,List2A,white,man,,,,null,,,,,,,,,
21967.2,,,survey-text,222,1388862,0.0-15.0-3.17,64289,List2A,white,man,,,,,"{""Q0"":""beth is challenging ruth""}","<img src=""stim_listA/challenge7.gif""style=""height:400px;""></stim_listA>",is challenging,,,,,,
null,"<div style=""font-size:60px;"">+</div>",,html-keyboard-response,223,1389367,0.0-15.0-0.18,64289,List2A,white,man,,,,null,,,,,,,,,
null,"<img src=""stim_listA/oppose4.gif""style=""height:400px;""></stim_listA>",,html-keyboard-response,224,1391379,0.0-15.0-1.18,64289,List2A,white,man,,,,null,,,,,,,,,
null,is being opposed by,,html-keyboard-response,225,1393382,0.0-15.0-2.18,64289,List2A,white,man,,,,null,,,,,,,,,
13328.2,,,survey-text,226,1406716,0.0-15.0-3.18,64289,List2A,white,man,,,,,"{""Q0"":""beth is being opposed by fred""}","<img src=""stim_listA/oppose4.gif""style=""height:400px;""></stim_listA>",is being opposed by,,,,,,
null,"<div style=""font-size:60px;"">+</div>",,html-keyboard-response,227,1407230,0.0-15.0-0.19,64289,List2A,white,man,,,,null,,,,,,,,,
null,"<img src=""stim_listA/oppose5.gif""style=""height:400px;""></stim_listA>",,html-keyboard-response,228,1409246,0.0-15.0-1.19,64289,List2A,white,man,,,,null,,,,,,,,,
null,is opposing,,html-keyboard-response,229,1411248,0.0-15.0-2.19,64289,List2A,white,man,,,,null,,,,,,,,,
8033.8,,,survey-text,230,1419287,0.0-15.0-3.19,64289,List2A,white,man,,,,,"{""Q0"":""mike is opposing dave""}","<img src=""stim_listA/oppose5.gif""style=""height:400px;""></stim_listA>",is opposing,,,,,,
3247.2,"<img src='img/portrait_matrix_list2.jpg' style='width:900px;height:500px;''></img><p>If you have memorised all the portraits and names and are ready to start, press Continue.</p><p><strong>Please note: Your memory of these faces will be tested 4 times during this experiment.</strong></p>",0,html-button-response,231,1422535,0.0-16.0-0.0,64289,List2A,white,man,,,,,,,,,,,,,
3344.9,"<img src=""portrait/BW2.jpg""style=""height:400px;""></img>",2,html-button-response,232,1426891,0.0-16.0-1.0,64289,List2A,white,man,,TRUE,2,,,,,,,,,,
null,CORRECT,,html-keyboard-response,233,1428400,0.0-16.0-2.0-0.0,64289,List2A,white,man,,,,null,,,,,,,,,
3942.5,"<img src=""portrait/WW2.jpg""style=""height:400px;""></img>",3,html-button-response,234,1432345,0.0-16.0-4.0,64289,List2A,white,man,,TRUE,3,,,,,,,,,,
null,CORRECT,,html-keyboard-response,235,1433867,0.0-16.0-5.0-0.0,64289,List2A,white,man,,,,null,,,,,,,,,
3390.2,"<img src=""portrait/BW1.jpg""style=""height:400px;""></img>",0,html-button-response,236,1437260,0.0-16.0-7.0,64289,List2A,white,man,,TRUE,0,,,,,,,,,,
null,CORRECT,,html-keyboard-response,237,1438784,0.0-16.0-8.0-0.0,64289,List2A,white,man,,,,null,,,,,,,,,
2842.9,"<img src=""portrait/BM2.jpg""style=""height:400px;""></img>",5,html-button-response,238,1441629,0.0-16.0-10.0,64289,List2A,white,man,,TRUE,5,,,,,,,,,,
null,CORRECT,,html-keyboard-response,239,1443144,0.0-16.0-11.0-0.0,64289,List2A,white,man,,,,null,,,,,,,,,
5232.2,"<img src=""portrait/WW1.jpg""style=""height:400px;""></img>",1,html-button-response,240,1448379,0.0-16.0-13.0,64289,List2A,white,man,,TRUE,1,,,,,,,,,,
null,CORRECT,,html-keyboard-response,241,1449901,0.0-16.0-14.0-0.0,64289,List2A,white,man,,,,null,,,,,,,,,
2391.6,"<img src=""portrait/BM1.jpg""style=""height:400px;""></img>",4,html-button-response,242,1452296,0.0-16.0-16.0,64289,List2A,white,man,,TRUE,4,,,,,,,,,,
null,CORRECT,,html-keyboard-response,243,1453820,0.0-16.0-17.0-0.0,64289,List2A,white,man,,,,null,,,,,,,,,
2291.5,"<img src=""portrait/WM1.jpg""style=""height:400px;""></img>",6,html-button-response,244,1456114,0.0-16.0-19.0,64289,List2A,white,man,,TRUE,6,,,,,,,,,,
null,CORRECT,,html-keyboard-response,245,1457626,0.0-16.0-20.0-0.0,64289,List2A,white,man,,,,null,,,,,,,,,
2814.9,"<img src=""portrait/WM2.jpg""style=""height:400px;""></img>",7,html-button-response,246,1460442,0.0-16.0-22.0,64289,List2A,white,man,,TRUE,7,,,,,,,,,,
null,CORRECT,,html-keyboard-response,247,1461968,0.0-16.0-23.0-0.0,64289,List2A,white,man,,,,null,,,,,,,,,
2067.2,<p>You got 8 out of 8 right first time. Press Continue.</p>,0,html-button-response,248,1464038,0.0-16.0-25.0,64289,List2A,white,man,,,,,,,,,,,,,
null,"<div style=""font-size:60px;"">+</div>",,html-keyboard-response,249,1465559,0.0-17.0-0.0,64289,List2A,white,man,,,,null,,,,,,,,,
null,"<img src=""stim_listA/oppose1.gif""style=""height:400px;""></stim_listA>",,html-keyboard-response,250,1467565,0.0-17.0-1.0,64289,List2A,white,man,,,,null,,,,,,,,,
null,is opposing,,html-keyboard-response,251,1469573,0.0-17.0-2.0,64289,List2A,white,man,,,,null,,,,,,,,,
9253.5,,,survey-text,252,1478832,0.0-17.0-3.0,64289,List2A,white,man,,,,,"{""Q0"":""dave is opposing jane""}","<img src=""stim_listA/oppose1.gif""style=""height:400px;""></stim_listA>",is opposing,,,,,,
null,"<div style=""font-size:60px;"">+</div>",,html-keyboard-response,253,1479338,0.0-17.0-0.1,64289,List2A,white,man,,,,null,,,,,,,,,
null,"<img src=""stim_listA/oppose3.gif""style=""height:400px;""></stim_listA>",,html-keyboard-response,254,1481346,0.0-17.0-1.1,64289,List2A,white,man,,,,null,,,,,,,,,
null,is opposing,,html-keyboard-response,255,1483350,0.0-17.0-2.1,64289,List2A,white,man,,,,null,,,,,,,,,
11797.5,,,survey-text,256,1495152,0.0-17.0-3.1,64289,List2A,white,man,,,,,"{""Q0"":""mike is opposing kate""}","<img src=""stim_listA/oppose3.gif""style=""height:400px;""></stim_listA>",is opposing,,,,,,
null,"<div style=""font-size:60px;"">+</div>",,html-keyboard-response,257,1495658,0.0-17.0-0.2,64289,List2A,white,man,,,,null,,,,,,,,,
null,"<img src=""stim_listA/oppose2.gif""style=""height:400px;""></stim_listA>",,html-keyboard-response,258,1497670,0.0-17.0-1.2,64289,List2A,white,man,,,,null,,,,,,,,,
null,is being opposed by,,html-keyboard-response,259,1499686,0.0-17.0-2.2,64289,List2A,white,man,,,,null,,,,,,,,,
12157.5,,,survey-text,260,1511848,0.0-17.0-3.2,64289,List2A,white,man,,,,,"{""Q0"":""luke is being opposed by ruth""}","<img src=""stim_listA/oppose2.gif""style=""height:400px;""></stim_listA>",is being opposed by,,,,,,
null,"<div style=""font-size:60px;"">+</div>",,html-keyboard-response,261,1512350,0.0-17.0-0.3,64289,List2A,white,man,,,,null,,,,,,,,,
null,"<img src=""stim_listA/touch3.gif""style=""height:400px;""></stim_listA>",,html-keyboard-response,262,1514356,0.0-17.0-1.3,64289,List2A,white,man,,,,null,,,,,,,,,
null,is touching,,html-keyboard-response,263,1516359,0.0-17.0-2.3,64289,List2A,white,man,,,,null,,,,,,,,,
8916.9,,,survey-text,264,1525277,0.0-17.0-3.3,64289,List2A,white,man,,,,,"{""Q0"":""mike is touching kate""}","<img src=""stim_listA/touch3.gif""style=""height:400px;""></stim_listA>",is touching,,,,,,
null,"<div style=""font-size:60px;"">+</div>",,html-keyboard-response,265,1525785,0.0-17.0-0.4,64289,List2A,white,man,,,,null,,,,,,,,,
null,"<img src=""stim_listA/greet6.gif""style=""height:400px;""></stim_listA>",,html-keyboard-response,266,1527802,0.0-17.0-1.4,64289,List2A,white,man,,,,null,,,,,,,,,
null,is being greeted by,,html-keyboard-response,267,1529807,0.0-17.0-2.4,64289,List2A,white,man,,,,null,,,,,,,,,
11316.6,,,survey-text,268,1541128,0.0-17.0-3.4,64289,List2A,white,man,,,,,"{""Q0"":""mike is being greeted by luke""}","<img src=""stim_listA/greet6.gif""style=""height:400px;""></stim_listA>",is being greeted by,,,,,,
null,"<div style=""font-size:60px;"">+</div>",,html-keyboard-response,269,1541639,0.0-17.0-0.5,64289,List2A,white,man,,,,null,,,,,,,,,
null,"<img src=""stim_listA/copy6.gif""style=""height:400px;""></stim_listA>",,html-keyboard-response,270,1543645,0.0-17.0-1.5,64289,List2A,white,man,,,,null,,,,,,,,,
null,is being copied by,,html-keyboard-response,271,1545647,0.0-17.0-2.5,64289,List2A,white,man,,,,null,,,,,,,,,
10824.7,,,survey-text,272,1556476,0.0-17.0-3.5,64289,List2A,white,man,,,,,"{""Q0"":""mike is being copied by luke""}","<img src=""stim_listA/copy6.gif""style=""height:400px;""></stim_listA>",is being copied by,,,,,,
null,"<div style=""font-size:60px;"">+</div>",,html-keyboard-response,273,1556982,0.0-17.0-0.6,64289,List2A,white,man,,,,null,,,,,,,,,
null,"<img src=""stim_listA/copy7.gif""style=""height:400px;""></stim_listA>",,html-keyboard-response,274,1558994,0.0-17.0-1.6,64289,List2A,white,man,,,,null,,,,,,,,,
null,is copying,,html-keyboard-response,275,1560998,0.0-17.0-2.6,64289,List2A,white,man,,,,null,,,,,,,,,
11526.6,,,survey-text,276,1572529,0.0-17.0-3.6,64289,List2A,white,man,,,,,"{""Q0"":""beth is copying ruth""}","<img src=""stim_listA/copy7.gif""style=""height:400px;""></stim_listA>",is copying,,,,,,
null,"<div style=""font-size:60px;"">+</div>",,html-keyboard-response,277,1573036,0.0-17.0-0.7,64289,List2A,white,man,,,,null,,,,,,,,,
null,"<img src=""stim_listA/oppose7.gif""style=""height:400px;""></stim_listA>",,html-keyboard-response,278,1575042,0.0-17.0-1.7,64289,List2A,white,man,,,,null,,,,,,,,,
null,is opposing,,html-keyboard-response,279,1577044,0.0-17.0-2.7,64289,List2A,white,man,,,,null,,,,,,,,,
19664.2,,,survey-text,280,1596711,0.0-17.0-3.7,64289,List2A,white,man,,,,,"{""Q0"":""jane is copying fred""}","<img src=""stim_listA/oppose7.gif""style=""height:400px;""></stim_listA>",is opposing,,,,,,
null,"<div style=""font-size:60px;"">+</div>",,html-keyboard-response,281,1597216,0.0-17.0-0.8,64289,List2A,white,man,,,,null,,,,,,,,,
null,"<img src=""stim_listA/hug3.gif""style=""height:400px;""></stim_listA>",,html-keyboard-response,282,1599229,0.0-17.0-1.8,64289,List2A,white,man,,,,null,,,,,,,,,
null,is hugging,,html-keyboard-response,283,1601231,0.0-17.0-2.8,64289,List2A,white,man,,,,null,,,,,,,,,
8429,,,survey-text,284,1609665,0.0-17.0-3.8,64289,List2A,white,man,,,,,"{""Q0"":""fred is hugging beth""}","<img src=""stim_listA/hug3.gif""style=""height:400px;""></stim_listA>",is hugging,,,,,,
null,"<div style=""font-size:60px;"">+</div>",,html-keyboard-response,285,1610179,0.0-17.0-0.9,64289,List2A,white,man,,,,null,,,,,,,,,
null,"<img src=""stim_listA/challenge3.gif""style=""height:400px;""></stim_listA>",,html-keyboard-response,286,1612185,0.0-17.0-1.9,64289,List2A,white,man,,,,null,,,,,,,,,
null,is challenging,,html-keyboard-response,287,1614191,0.0-17.0-2.9,64289,List2A,white,man,,,,null,,,,,,,,,
14236.4,,,survey-text,288,1628432,0.0-17.0-3.9,64289,List2A,white,man,,,,,"{""Q0"":""mike is challenging beth""}","<img src=""stim_listA/challenge3.gif""style=""height:400px;""></stim_listA>",is challenging,,,,,,
null,"<div style=""font-size:60px;"">+</div>",,html-keyboard-response,289,1628945,0.0-17.0-0.10,64289,List2A,white,man,,,,null,,,,,,,,,
null,"<img src=""stim_listA/shout5.gif""style=""height:400px;""></stim_listA>",,html-keyboard-response,290,1630959,0.0-17.0-1.10,64289,List2A,white,man,,,,null,,,,,,,,,
null,is shouting at,,html-keyboard-response,291,1632975,0.0-17.0-2.10,64289,List2A,white,man,,,,null,,,,,,,,,
11179.8,,,survey-text,292,1644160,0.0-17.0-3.10,64289,List2A,white,man,,,,,"{""Q0"":""fred is shouting at by luke""}","<img src=""stim_listA/shout5.gif""style=""height:400px;""></stim_listA>",is shouting at,,,,,,
null,"<div style=""font-size:60px;"">+</div>",,html-keyboard-response,293,1644665,0.0-17.0-0.11,64289,List2A,white,man,,,,null,,,,,,,,,
null,"<img src=""stim_listA/greet8.gif""style=""height:400px;""></stim_listA>",,html-keyboard-response,294,1646683,0.0-17.0-1.11,64289,List2A,white,man,,,,null,,,,,,,,,
null,is being greeted by,,html-keyboard-response,295,1648691,0.0-17.0-2.11,64289,List2A,white,man,,,,null,,,,,,,,,
14203.1,,,survey-text,296,1662899,0.0-17.0-3.11,64289,List2A,white,man,,,,,"{""Q0"":""ruth is being greeted by kate""}","<img src=""stim_listA/greet8.gif""style=""height:400px;""></stim_listA>",is being greeted by,,,,,,
null,"<div style=""font-size:60px;"">+</div>",,html-keyboard-response,297,1663404,0.0-17.0-0.12,64289,List2A,white,man,,,,null,,,,,,,,,
null,"<img src=""stim_listA/greet3.gif""style=""height:400px;""></stim_listA>",,html-keyboard-response,298,1665421,0.0-17.0-1.12,64289,List2A,white,man,,,,null,,,,,,,,,
null,is greeting,,html-keyboard-response,299,1667423,0.0-17.0-2.12,64289,List2A,white,man,,,,null,,,,,,,,,
7215.7,,,survey-text,300,1674643,0.0-17.0-3.12,64289,List2A,white,man,,,,,"{""Q0"":""mike is greeting beth""}","<img src=""stim_listA/greet3.gif""style=""height:400px;""></stim_listA>",is greeting,,,,,,
null,"<div style=""font-size:60px;"">+</div>",,html-keyboard-response,301,1675156,0.0-17.0-0.13,64289,List2A,white,man,,,,null,,,,,,,,,
null,"<img src=""stim_listA/kiss6.gif""style=""height:400px;""></stim_listA>",,html-keyboard-response,302,1677161,0.0-17.0-1.13,64289,List2A,white,man,,,,null,,,,,,,,,
null,is being kissed by,,html-keyboard-response,303,1679164,0.0-17.0-2.13,64289,List2A,white,man,,,,null,,,,,,,,,
8618,,,survey-text,304,1687787,0.0-17.0-3.13,64289,List2A,white,man,,,,,"{""Q0"":""mike is being kissed by dave""}","<img src=""stim_listA/kiss6.gif""style=""height:400px;""></stim_listA>",is being kissed by,,,,,,
null,"<div style=""font-size:60px;"">+</div>",,html-keyboard-response,305,1688298,0.0-17.0-0.14,64289,List2A,white,man,,,,null,,,,,,,,,
null,"<img src=""stim_listA/kiss1.gif""style=""height:400px;""></stim_listA>",,html-keyboard-response,306,1690307,0.0-17.0-1.14,64289,List2A,white,man,,,,null,,,,,,,,,
null,is kissing,,html-keyboard-response,307,1692310,0.0-17.0-2.14,64289,List2A,white,man,,,,null,,,,,,,,,
14936.6,,,survey-text,308,1707253,0.0-17.0-3.14,64289,List2A,white,man,,,,,"{""Q0"":""luke is kissing ruth""}","<img src=""stim_listA/kiss1.gif""style=""height:400px;""></stim_listA>",is kissing,,,,,,
null,"<div style=""font-size:60px;"">+</div>",,html-keyboard-response,309,1707756,0.0-17.0-0.15,64289,List2A,white,man,,,,null,,,,,,,,,
null,"<img src=""stim_listA/touch6.gif""style=""height:400px;""></stim_listA>",,html-keyboard-response,310,1709770,0.0-17.0-1.15,64289,List2A,white,man,,,,null,,,,,,,,,
null,is being touched by,,html-keyboard-response,311,1711774,0.0-17.0-2.15,64289,List2A,white,man,,,,null,,,,,,,,,
10767.4,,,survey-text,312,1722547,0.0-17.0-3.15,64289,List2A,white,man,,,,,"{""Q0"":""luke is being touched by fred""}","<img src=""stim_listA/touch6.gif""style=""height:400px;""></stim_listA>",is being touched by,,,,,,
null,"<div style=""font-size:60px;"">+</div>",,html-keyboard-response,313,1723049,0.0-17.0-0.16,64289,List2A,white,man,,,,null,,,,,,,,,
null,"<img src=""stim_listA/copy4.gif""style=""height:400px;""></stim_listA>",,html-keyboard-response,314,1725055,0.0-17.0-1.16,64289,List2A,white,man,,,,null,,,,,,,,,
null,is being copied by,,html-keyboard-response,315,1727057,0.0-17.0-2.16,64289,List2A,white,man,,,,null,,,,,,,,,
9105.7,,,survey-text,316,1736169,0.0-17.0-3.16,64289,List2A,white,man,,,,,"{""Q0"":""fred is being copied by kate""}","<img src=""stim_listA/copy4.gif""style=""height:400px;""></stim_listA>",is being copied by,,,,,,
null,"<div style=""font-size:60px;"">+</div>",,html-keyboard-response,317,1736675,0.0-17.0-0.17,64289,List2A,white,man,,,,null,,,,,,,,,
null,"<img src=""stim_listA/oppose8.gif""style=""height:400px;""></stim_listA>",,html-keyboard-response,318,1738680,0.0-17.0-1.17,64289,List2A,white,man,,,,null,,,,,,,,,
null,is being opposed by,,html-keyboard-response,319,1740683,0.0-17.0-2.17,64289,List2A,white,man,,,,null,,,,,,,,,
14866.9,,,survey-text,320,1755558,0.0-17.0-3.17,64289,List2A,white,man,,,,,"{""Q0"":""ruth is being opposed by beth""}","<img src=""stim_listA/oppose8.gif""style=""height:400px;""></stim_listA>",is being opposed by,,,,,,
null,"<div style=""font-size:60px;"">+</div>",,html-keyboard-response,321,1756072,0.0-17.0-0.18,64289,List2A,white,man,,,,null,,,,,,,,,
null,"<img src=""stim_listA/challenge8.gif""style=""height:400px;""></stim_listA>",,html-keyboard-response,322,1758081,0.0-17.0-1.18,64289,List2A,white,man,,,,null,,,,,,,,,
null,is being challenged by,,html-keyboard-response,323,1760089,0.0-17.0-2.18,64289,List2A,white,man,,,,null,,,,,,,,,
17732.7,,,survey-text,324,1777828,0.0-17.0-3.18,64289,List2A,white,man,,,,,"{""Q0"":""kate is being challenged by ruth""}","<img src=""stim_listA/challenge8.gif""style=""height:400px;""></stim_listA>",is being challenged by,,,,,,
null,"<div style=""font-size:60px;"">+</div>",,html-keyboard-response,325,1778338,0.0-17.0-0.19,64289,List2A,white,man,,,,null,,,,,,,,,
null,"<img src=""stim_listA/shout1.gif""style=""height:400px;""></stim_listA>",,html-keyboard-response,326,1780353,0.0-17.0-1.19,64289,List2A,white,man,,,,null,,,,,,,,,
null,is shouting at,,html-keyboard-response,327,1782358,0.0-17.0-2.19,64289,List2A,white,man,,,,null,,,,,,,,,
10307.2,,,survey-text,328,1792670,0.0-17.0-3.19,64289,List2A,white,man,,,,,"{""Q0"":""luke is shouting at ruth""}","<img src=""stim_listA/shout1.gif""style=""height:400px;""></stim_listA>",is shouting at,,,,,,
1990.3,"<img src='img/portrait_matrix_list2.jpg' style='width:900px;height:500px;''></img><p>If you have memorised all the portraits and names and are ready to start, press Continue.</p><p><strong>Please note: Your memory of these faces will be tested 4 times during this experiment.</strong></p>",0,html-button-response,329,1794662,0.0-18.0-0.0,64289,List2A,white,man,,,,,,,,,,,,,
2447.1,"<img src=""portrait/BM2.jpg""style=""height:400px;""></img>",5,html-button-response,330,1798114,0.0-18.0-1.0,64289,List2A,white,man,,TRUE,5,,,,,,,,,,
null,CORRECT,,html-keyboard-response,331,1799641,0.0-18.0-2.0-0.0,64289,List2A,white,man,,,,null,,,,,,,,,
2495.6,"<img src=""portrait/BM1.jpg""style=""height:400px;""></img>",4,html-button-response,332,1802140,0.0-18.0-4.0,64289,List2A,white,man,,TRUE,4,,,,,,,,,,
null,CORRECT,,html-keyboard-response,333,1803657,0.0-18.0-5.0-0.0,64289,List2A,white,man,,,,null,,,,,,,,,
3495.1,"<img src=""portrait/WW2.jpg""style=""height:400px;""></img>",3,html-button-response,334,1807154,0.0-18.0-7.0,64289,List2A,white,man,,TRUE,3,,,,,,,,,,
null,CORRECT,,html-keyboard-response,335,1808674,0.0-18.0-8.0-0.0,64289,List2A,white,man,,,,null,,,,,,,,,
2976.5,"<img src=""portrait/WM2.jpg""style=""height:400px;""></img>",7,html-button-response,336,1811654,0.0-18.0-10.0,64289,List2A,white,man,,TRUE,7,,,,,,,,,,
null,CORRECT,,html-keyboard-response,337,1813169,0.0-18.0-11.0-0.0,64289,List2A,white,man,,,,null,,,,,,,,,
3096.5,"<img src=""portrait/WW1.jpg""style=""height:400px;""></img>",1,html-button-response,338,1816268,0.0-18.0-13.0,64289,List2A,white,man,,TRUE,1,,,,,,,,,,
null,CORRECT,,html-keyboard-response,339,1817785,0.0-18.0-14.0-0.0,64289,List2A,white,man,,,,null,,,,,,,,,
3437.9,"<img src=""portrait/BW2.jpg""style=""height:400px;""></img>",2,html-button-response,340,1821224,0.0-18.0-16.0,64289,List2A,white,man,,TRUE,2,,,,,,,,,,
null,CORRECT,,html-keyboard-response,341,1822746,0.0-18.0-17.0-0.0,64289,List2A,white,man,,,,null,,,,,,,,,
2662.2,"<img src=""portrait/BW1.jpg""style=""height:400px;""></img>",0,html-button-response,342,1825411,0.0-18.0-19.0,64289,List2A,white,man,,TRUE,0,,,,,,,,,,
null,CORRECT,,html-keyboard-response,343,1826928,0.0-18.0-20.0-0.0,64289,List2A,white,man,,,,null,,,,,,,,,
2451.7,"<img src=""portrait/WM1.jpg""style=""height:400px;""></img>",6,html-button-response,344,1829383,0.0-18.0-22.0,64289,List2A,white,man,,TRUE,6,,,,,,,,,,
null,CORRECT,,html-keyboard-response,345,1830903,0.0-18.0-23.0-0.0,64289,List2A,white,man,,,,null,,,,,,,,,
2076.8,<p>You got 8 out of 8 right first time. Press Continue.</p>,0,html-button-response,346,1832983,0.0-18.0-25.0,64289,List2A,white,man,,,,,,,,,,,,,
null,"<div style=""font-size:60px;"">+</div>",,html-keyboard-response,347,1834504,0.0-19.0-0.0,64289,List2A,white,man,,,,null,,,,,,,,,
null,"<img src=""stim_listA/challenge2.gif""style=""height:400px;""></stim_listA>",,html-keyboard-response,348,1836511,0.0-19.0-1.0,64289,List2A,white,man,,,,null,,,,,,,,,
null,is being challenged by,,html-keyboard-response,349,1838514,0.0-19.0-2.0,64289,List2A,white,man,,,,null,,,,,,,,,
17505.9,,,survey-text,350,1856025,0.0-19.0-3.0,64289,List2A,white,man,,,,,"{""Q0"":""luke is being challenged by jane""}","<img src=""stim_listA/challenge2.gif""style=""height:400px;""></stim_listA>",is being challenged by,,,,,,
null,"<div style=""font-size:60px;"">+</div>",,html-keyboard-response,351,1856539,0.0-19.0-0.1,64289,List2A,white,man,,,,null,,,,,,,,,
null,"<img src=""stim_listA/seduce7.gif""style=""height:400px;""></stim_listA>",,html-keyboard-response,352,1858558,0.0-19.0-1.1,64289,List2A,white,man,,,,null,,,,,,,,,
null,is seducing,,html-keyboard-response,353,1860561,0.0-19.0-2.1,64289,List2A,white,man,,,,null,,,,,,,,,
13559,,,survey-text,354,1874125,0.0-19.0-3.1,64289,List2A,white,man,,,,,"{""Q0"":""kate is seducing ruth""}","<img src=""stim_listA/seduce7.gif""style=""height:400px;""></stim_listA>",is seducing,,,,,,
null,"<div style=""font-size:60px;"">+</div>",,html-keyboard-response,355,1874636,0.0-19.0-0.2,64289,List2A,white,man,,,,null,,,,,,,,,
null,"<img src=""stim_listA/seduce1.gif""style=""height:400px;""></stim_listA>",,html-keyboard-response,356,1876642,0.0-19.0-1.2,64289,List2A,white,man,,,,null,,,,,,,,,
null,is seducing,,html-keyboard-response,357,1878657,0.0-19.0-2.2,64289,List2A,white,man,,,,null,,,,,,,,,
14524.9,,,survey-text,358,1893187,0.0-19.0-3.2,64289,List2A,white,man,,,,,"{""Q0"":""luke is seducing jane""}","<img src=""stim_listA/seduce1.gif""style=""height:400px;""></stim_listA>",is seducing,,,,,,
null,"<div style=""font-size:60px;"">+</div>",,html-keyboard-response,359,1893702,0.0-19.0-0.3,64289,List2A,white,man,,,,null,,,,,,,,,
null,"<img src=""stim_listA/touch8.gif""style=""height:400px;""></stim_listA>",,html-keyboard-response,360,1895719,0.0-19.0-1.3,64289,List2A,white,man,,,,null,,,,,,,,,
null,is being touched by,,html-keyboard-response,361,1897733,0.0-19.0-2.3,64289,List2A,white,man,,,,null,,,,,,,,,
10259.8,,,survey-text,362,1907996,0.0-19.0-3.3,64289,List2A,white,man,,,,,"{""Q0"":""beth is being touched by ruth""}","<img src=""stim_listA/touch8.gif""style=""height:400px;""></stim_listA>",is being touched by,,,,,,
null,"<div style=""font-size:60px;"">+</div>",,html-keyboard-response,363,1908507,0.0-19.0-0.4,64289,List2A,white,man,,,,null,,,,,,,,,
null,"<img src=""stim_listA/look7.gif""style=""height:400px;""></stim_listA>",,html-keyboard-response,364,1910514,0.0-19.0-1.4,64289,List2A,white,man,,,,null,,,,,,,,,
null,is looking at,,html-keyboard-response,365,1912520,0.0-19.0-2.4,64289,List2A,white,man,,,,null,,,,,,,,,
17523.7,,,survey-text,366,1930048,0.0-19.0-3.4,64289,List2A,white,man,,,,,"{""Q0"":""beth is looking at ruth""}","<img src=""stim_listA/look7.gif""style=""height:400px;""></stim_listA>",is looking at,,,,,,
null,"<div style=""font-size:60px;"">+</div>",,html-keyboard-response,367,1930559,0.0-19.0-0.5,64289,List2A,white,man,,,,null,,,,,,,,,
null,"<img src=""stim_listA/look8.gif""style=""height:400px;""></stim_listA>",,html-keyboard-response,368,1932574,0.0-19.0-1.5,64289,List2A,white,man,,,,null,,,,,,,,,
null,is being looked at by,,html-keyboard-response,369,1934576,0.0-19.0-2.5,64289,List2A,white,man,,,,null,,,,,,,,,
12849.1,,,survey-text,370,1947427,0.0-19.0-3.5,64289,List2A,white,man,,,,,"{""Q0"":""kate is being looked at by jane""}","<img src=""stim_listA/look8.gif""style=""height:400px;""></stim_listA>",is being looked at by,,,,,,
null,"<div style=""font-size:60px;"">+</div>",,html-keyboard-response,371,1947938,0.0-19.0-0.6,64289,List2A,white,man,,,,null,,,,,,,,,
null,"<img src=""stim_listA/touch2.gif""style=""height:400px;""></stim_listA>",,html-keyboard-response,372,1949947,0.0-19.0-1.6,64289,List2A,white,man,,,,null,,,,,,,,,
null,is being touched by,,html-keyboard-response,373,1951949,0.0-19.0-2.6,64289,List2A,white,man,,,,null,,,,,,,,,
15960.8,,,survey-text,374,1967916,0.0-19.0-3.6,64289,List2A,white,man,,,,,"{""Q0"":""luke is being touched by ruth""}","<img src=""stim_listA/touch2.gif""style=""height:400px;""></stim_listA>",is being touched by,,,,,,
null,"<div style=""font-size:60px;"">+</div>",,html-keyboard-response,375,1968428,0.0-19.0-0.7,64289,List2A,white,man,,,,null,,,,,,,,,
null,"<img src=""stim_listA/look1.gif""style=""height:400px;""></stim_listA>",,html-keyboard-response,376,1970436,0.0-19.0-1.7,64289,List2A,white,man,,,,null,,,,,,,,,
null,is looking at,,html-keyboard-response,377,1972449,0.0-19.0-2.7,64289,List2A,white,man,,,,null,,,,,,,,,
19237.7,,,survey-text,378,1991691,0.0-19.0-3.7,64289,List2A,white,man,,,,,"{""Q0"":""ruth is looking at luke""}","<img src=""stim_listA/look1.gif""style=""height:400px;""></stim_listA>",is looking at,,,,,,
null,"<div style=""font-size:60px;"">+</div>",,html-keyboard-response,379,1992194,0.0-19.0-0.8,64289,List2A,white,man,,,,null,,,,,,,,,
null,"<img src=""stim_listA/look3.gif""style=""height:400px;""></stim_listA>",,html-keyboard-response,380,1994208,0.0-19.0-1.8,64289,List2A,white,man,,,,null,,,,,,,,,
null,is looking at,,html-keyboard-response,381,1996211,0.0-19.0-2.8,64289,List2A,white,man,,,,null,,,,,,,,,
7374.3,,,survey-text,382,2003588,0.0-19.0-3.8,64289,List2A,white,man,,,,,"{""Q0"":""fred is looking at beth""}","<img src=""stim_listA/look3.gif""style=""height:400px;""></stim_listA>",is looking at,,,,,,
null,"<div style=""font-size:60px;"">+</div>",,html-keyboard-response,383,2004103,0.0-19.0-0.9,64289,List2A,white,man,,,,null,,,,,,,,,
null,"<img src=""stim_listA/seduce5.gif""style=""height:400px;""></stim_listA>",,html-keyboard-response,384,2006110,0.0-19.0-1.9,64289,List2A,white,man,,,,null,,,,,,,,,
null,is seducing,,html-keyboard-response,385,2008120,0.0-19.0-2.9,64289,List2A,white,man,,,,null,,,,,,,,,
11580.6,,,survey-text,386,2019707,0.0-19.0-3.9,64289,List2A,white,man,,,,,"{""Q0"":""mike is seducing luke""}","<img src=""stim_listA/seduce5.gif""style=""height:400px;""></stim_listA>",is seducing,,,,,,
null,"<div style=""font-size:60px;"">+</div>",,html-keyboard-response,387,2020222,0.0-19.0-0.10,64289,List2A,white,man,,,,null,,,,,,,,,
null,"<img src=""stim_listA/kiss2.gif""style=""height:400px;""></stim_listA>",,html-keyboard-response,388,2022238,0.0-19.0-1.10,64289,List2A,white,man,,,,null,,,,,,,,,
null,is being kissed by,,html-keyboard-response,389,2024240,0.0-19.0-2.10,64289,List2A,white,man,,,,null,,,,,,,,,
9436.9,,,survey-text,390,2033682,0.0-19.0-3.10,64289,List2A,white,man,,,,,"{""Q0"":""jane is being kissed by dave""}","<img src=""stim_listA/kiss2.gif""style=""height:400px;""></stim_listA>",is being kissed by,,,,,,
null,"<div style=""font-size:60px;"">+</div>",,html-keyboard-response,391,2034183,0.0-19.0-0.11,64289,List2A,white,man,,,,null,,,,,,,,,
null,"<img src=""stim_listA/seduce8.gif""style=""height:400px;""></stim_listA>",,html-keyboard-response,392,2036198,0.0-19.0-1.11,64289,List2A,white,man,,,,null,,,,,,,,,
null,is being seduced by,,html-keyboard-response,393,2038201,0.0-19.0-2.11,64289,List2A,white,man,,,,null,,,,,,,,,
17745.2,,,survey-text,394,2055951,0.0-19.0-3.11,64289,List2A,white,man,,,,,"{""Q0"":""jane is seducing beth""}","<img src=""stim_listA/seduce8.gif""style=""height:400px;""></stim_listA>",is being seduced by,,,,,,
null,"<div style=""font-size:60px;"">+</div>",,html-keyboard-response,395,2056464,0.0-19.0-0.12,64289,List2A,white,man,,,,null,,,,,,,,,
null,"<img src=""stim_listA/seduce3.gif""style=""height:400px;""></stim_listA>",,html-keyboard-response,396,2058475,0.0-19.0-1.12,64289,List2A,white,man,,,,null,,,,,,,,,
null,is seducing,,html-keyboard-response,397,2060477,0.0-19.0-2.12,64289,List2A,white,man,,,,null,,,,,,,,,
10749.3,,,survey-text,398,2071231,0.0-19.0-3.12,64289,List2A,white,man,,,,,"{""Q0"":""fred is seducing kate""}","<img src=""stim_listA/seduce3.gif""style=""height:400px;""></stim_listA>",is seducing,,,,,,
null,"<div style=""font-size:60px;"">+</div>",,html-keyboard-response,399,2071739,0.0-19.0-0.13,64289,List2A,white,man,,,,null,,,,,,,,,
null,"<img src=""stim_listA/touch1.gif""style=""height:400px;""></stim_listA>",,html-keyboard-response,400,2073745,0.0-19.0-1.13,64289,List2A,white,man,,,,null,,,,,,,,,
null,is touching,,html-keyboard-response,401,2075751,0.0-19.0-2.13,64289,List2A,white,man,,,,null,,,,,,,,,
7218.9,,,survey-text,402,2082974,0.0-19.0-3.13,64289,List2A,white,man,,,,,"{""Q0"":""jane is touching dave""}","<img src=""stim_listA/touch1.gif""style=""height:400px;""></stim_listA>",is touching,,,,,,
null,"<div style=""font-size:60px;"">+</div>",,html-keyboard-response,403,2083484,0.0-19.0-0.14,64289,List2A,white,man,,,,null,,,,,,,,,
null,"<img src=""stim_listA/greet1.gif""style=""height:400px;""></stim_listA>",,html-keyboard-response,404,2085492,0.0-19.0-1.14,64289,List2A,white,man,,,,null,,,,,,,,,
null,is greeting,,html-keyboard-response,405,2087506,0.0-19.0-2.14,64289,List2A,white,man,,,,null,,,,,,,,,
9187.7,,,survey-text,406,2096699,0.0-19.0-3.14,64289,List2A,white,man,,,,,"{""Q0"":""dave is greeting ruth""}","<img src=""stim_listA/greet1.gif""style=""height:400px;""></stim_listA>",is greeting,,,,,,
null,"<div style=""font-size:60px;"">+</div>",,html-keyboard-response,407,2097210,0.0-19.0-0.15,64289,List2A,white,man,,,,null,,,,,,,,,
null,"<img src=""stim_listA/greet2.gif""style=""height:400px;""></stim_listA>",,html-keyboard-response,408,2099231,0.0-19.0-1.15,64289,List2A,white,man,,,,null,,,,,,,,,
null,is being greeted by,,html-keyboard-response,409,2101247,0.0-19.0-2.15,64289,List2A,white,man,,,,null,,,,,,,,,
17636.2,,,survey-text,410,2118889,0.0-19.0-3.15,64289,List2A,white,man,,,,,"{""Q0"":""luke is being greeted by jane""}","<img src=""stim_listA/greet2.gif""style=""height:400px;""></stim_listA>",is being greeted by,,,,,,
null,"<div style=""font-size:60px;"">+</div>",,html-keyboard-response,411,2119404,0.0-19.0-0.16,64289,List2A,white,man,,,,null,,,,,,,,,
null,"<img src=""stim_listA/shout7.gif""style=""height:400px;""></stim_listA>",,html-keyboard-response,412,2121416,0.0-19.0-1.16,64289,List2A,white,man,,,,null,,,,,,,,,
null,is shouting at,,html-keyboard-response,413,2123427,0.0-19.0-2.16,64289,List2A,white,man,,,,null,,,,,,,,,
16777.9,,,survey-text,414,2140209,0.0-19.0-3.16,64289,List2A,white,man,,,,,"{""Q0"":""ruth is shouted at beth""}","<img src=""stim_listA/shout7.gif""style=""height:400px;""></stim_listA>",is shouting at,,,,,,
null,"<div style=""font-size:60px;"">+</div>",,html-keyboard-response,415,2140711,0.0-19.0-0.17,64289,List2A,white,man,,,,null,,,,,,,,,
null,"<img src=""stim_listA/hug7.gif""style=""height:400px;""></stim_listA>",,html-keyboard-response,416,2142717,0.0-19.0-1.17,64289,List2A,white,man,,,,null,,,,,,,,,
null,is hugging,,html-keyboard-response,417,2144732,0.0-19.0-2.17,64289,List2A,white,man,,,,null,,,,,,,,,
15061.9,,,survey-text,418,2159799,0.0-19.0-3.17,64289,List2A,white,man,,,,,"{""Q0"":""beth is hugging ruth""}","<img src=""stim_listA/hug7.gif""style=""height:400px;""></stim_listA>",is hugging,,,,,,
null,"<div style=""font-size:60px;"">+</div>",,html-keyboard-response,419,2160305,0.0-19.0-0.18,64289,List2A,white,man,,,,null,,,,,,,,,
null,"<img src=""stim_listA/look6.gif""style=""height:400px;""></stim_listA>",,html-keyboard-response,420,2162311,0.0-19.0-1.18,64289,List2A,white,man,,,,null,,,,,,,,,
null,is being looked at by,,html-keyboard-response,421,2164325,0.0-19.0-2.18,64289,List2A,white,man,,,,null,,,,,,,,,
17002.6,,,survey-text,422,2181329,0.0-19.0-3.18,64289,List2A,white,man,,,,,"{""Q0"":""dave is being looked at by mike""}","<img src=""stim_listA/look6.gif""style=""height:400px;""></stim_listA>",is being looked at by,,,,,,
null,"<div style=""font-size:60px;"">+</div>",,html-keyboard-response,423,2181845,0.0-19.0-0.19,64289,List2A,white,man,,,,null,,,,,,,,,
null,"<img src=""stim_listA/kiss3.gif""style=""height:400px;""></stim_listA>",,html-keyboard-response,424,2183858,0.0-19.0-1.19,64289,List2A,white,man,,,,null,,,,,,,,,
null,is kissing,,html-keyboard-response,425,2185861,0.0-19.0-2.19,64289,List2A,white,man,,,,null,,,,,,,,,
14931,,,survey-text,426,2200796,0.0-19.0-3.19,64289,List2A,white,man,,,,,"{""Q0"":""fred is kissing beth""}","<img src=""stim_listA/kiss3.gif""style=""height:400px;""></stim_listA>",is kissing,,,,,,
5791,<p>Thank you for completing that task.</p><p>The final part of this session is a questionnaire that will take about 4 minutes.</p><p>Press Continue.</p>,0,html-button-response,427,2206588,0.0-20.0,64289,List2A,white,man,,,,,,,,,,,,,
54967.1,,,survey-text,428,2262568,0.0-21.0,64289,List2A,white,man,,,,,"{""Q0"":""38"",""Q1"":""English"",""Q2"":""English"",""Q3"":""United states"",""Q4"":""American"",""Q5"":""white"",""Q6"":""male""}",,,demographics,,,,,
4478.4,<p>Have you lived in the USA for the last 5 years or more?</p>,0,html-button-response,429,2267050,0.0-22.0,64289,List2A,white,man,,,,,,,,fiveyears,,,,,
8089.6,<p>Move the slider to show the extent to which you agree with the following statements.</p>,0,html-button-response,430,2276143,0.0-23.0,64289,List2A,white,man,,,,,,,,,,,,,
11174.9,,,html-slider-response,431,2288332,0.0-24.0-0.0-0.0,64289,List2A,white,man,,,,,,,,survey_race,100,,,I think that my race has a lot to be proud of.,proud
6267.8,,,html-slider-response,432,2294603,0.0-24.0-0.0-0.1,64289,List2A,white,man,,,,,,,,survey_race,100,,,"The older I get, the wiser I feel.",filler
7014.2,,,html-slider-response,433,2301619,0.0-24.0-0.0-0.2,64289,List2A,white,man,,,,,,,,survey_race,100,,,I consider myself an extrovert.,filler
4833.1,,,html-slider-response,434,2306454,0.0-24.0-0.0-0.3,64289,List2A,white,man,,,,,,,,survey_race,100,,,Being my race gives me a good feeling.,feeling
5055.5,,,html-slider-response,435,2311511,0.0-24.0-0.0-0.4,64289,List2A,white,man,,,,,,,,survey_race,100,,,I am glad to be the age I am.,filler
5133.9,,,html-slider-response,436,2316647,0.0-24.0-0.0-0.5,64289,List2A,white,man,,,,,,,,survey_race,100,,,Being my age gives me a good feeling.,filler
5004.1,,,html-slider-response,437,2321654,0.0-24.0-0.0-0.6,64289,List2A,white,man,,,,,,,,survey_race,100,,,Getting older does not worry me.,filler
6729.5,,,html-slider-response,438,2328386,0.0-24.0-0.0-0.7,64289,List2A,white,man,,,,,,,,survey_race,16,,,I often think about the fact that I am my age.,filler
6748.6,,,html-slider-response,439,2335137,0.0-24.0-0.0-0.8,64289,List2A,white,man,,,,,,,,survey_race,22,,,People of my race are very similar to each other.,verysimilar
6413.8,,,html-slider-response,440,2341553,0.0-24.0-0.0-0.9,64289,List2A,white,man,,,,,,,,survey_race,94,,,It is pleasant to be my race.,pleasant
7794.2,,,html-slider-response,441,2349349,0.0-24.0-0.0-0.10,64289,List2A,white,man,,,,,,,,survey_race,100,,,I am similar to the average person of my race.,similar
3656.6,,,html-slider-response,442,2353008,0.0-24.0-0.0-0.11,64289,List2A,white,man,,,,,,,,survey_race,100,,,I am glad to be my race.,glad
7309.4,,,html-slider-response,443,2360319,0.0-24.0-0.0-0.12,64289,List2A,white,man,,,,,,,,survey_race,31,,,People my age have a lot in common with each other.,filler
4110.7,,,html-slider-response,444,2364432,0.0-24.0-0.0-0.13,64289,List2A,white,man,,,,,,,,survey_race,100,,,I am glad to be my age.,filler
4762.9,,,html-slider-response,445,2369197,0.0-24.0-0.0-0.14,64289,List2A,white,man,,,,,,,,survey_race,100,,,Being my race is an important part of how I see myself.,important
5179.8,,,html-slider-response,446,2374380,0.0-24.0-0.0-0.15,64289,List2A,white,man,,,,,,,,survey_race,100,,,I feel solidarity with my race.,solidarity
4798.7,,,html-slider-response,447,2379181,0.0-24.0-0.0-0.16,64289,List2A,white,man,,,,,,,,survey_race,100,,,The fact that I am my race is an important part of my identity.,identity
5962.3,,,html-slider-response,448,2385145,0.0-24.0-0.0-0.17,64289,List2A,white,man,,,,,,,,survey_race,100,,,I feel a bond with people the same age as me.,filler
5578.2,,,html-slider-response,449,2390726,0.0-24.0-0.0-0.18,64289,List2A,white,man,,,,,,,,survey_race,100,,,I often think about the fact that I am my race.,often
7429.6,,,html-slider-response,450,2398158,0.0-24.0-0.0-0.19,64289,List2A,white,man,,,,,,,,survey_race,100,,,I have a lot in common with the average person of my race.,average
3931.2,,,html-slider-response,451,2402092,0.0-24.0-0.0-0.20,64289,List2A,white,man,,,,,,,,survey_race,100,,,I feel a bond with my race.,bond
3785.5,,,html-slider-response,452,2405879,0.0-24.0-0.0-0.21,64289,List2A,white,man,,,,,,,,survey_race,100,,,I feel solidarity with people the same age as me.,filler
4888.2,,,html-slider-response,453,2410770,0.0-24.0-0.0-0.22,64289,List2A,white,man,,,,,,,,survey_race,86,,,I enjoy being in large groups.,filler
5961.4,,,html-slider-response,454,2416733,0.0-24.0-0.0-0.23,64289,List2A,white,man,,,,,,,,survey_race,100,,,I have a lot in common with people of a similar age to me.,filler
3703.8,,,html-slider-response,455,2420439,0.0-24.0-0.0-0.24,64289,List2A,white,man,,,,,,,,survey_race,100,,,I feel committed to my race.,committed
8217.2,,,html-slider-response,456,2428658,0.0-24.0-0.0-0.25,64289,List2A,white,man,,,,,,,,survey_race,15,,,My age is not an important part of who I am.,filler
7133.1,,,html-slider-response,457,2435793,0.0-24.0-0.0-0.26,64289,List2A,white,man,,,,,,,,survey_race,2,,,I consider myself an introvert.,filler
7252.3,,,html-slider-response,458,2443048,0.0-24.0-0.0-0.27,64289,List2A,white,man,,,,,,,,survey_race,16,,,People of my race have a lot in common with each other.,common
4757.2,,,html-slider-response,459,2447807,0.0-24.0-1.0-0.0,64289,List2A,white,man,,,,,,,,survey_gender,17,,,People of my gender have a lot in common with each other.,common
6224.9,,,html-slider-response,460,2454033,0.0-24.0-1.0-0.1,64289,List2A,white,man,,,,,,,,survey_gender,11,,,People of my gender are very similar to each other.,verysimilar
4475,,,html-slider-response,461,2458511,0.0-24.0-1.0-0.2,64289,List2A,white,man,,,,,,,,survey_gender,100,,,I feel solidarity with my gender.,solidarity
5144.8,,,html-slider-response,462,2463658,0.0-24.0-1.0-0.3,64289,List2A,white,man,,,,,,,,survey_gender,100,,,I am similar to the average person of my gender.,similar
3409.1,,,html-slider-response,463,2467069,0.0-24.0-1.0-0.4,64289,List2A,white,man,,,,,,,,survey_gender,100,,,I feel a bond with my gender.,bond
5447.5,,,html-slider-response,464,2472518,0.0-24.0-1.0-0.5,64289,List2A,white,man,,,,,,,,survey_gender,99,,,I often think about the fact that I am my gender.,often
4926,,,html-slider-response,465,2477446,0.0-24.0-1.0-0.6,64289,List2A,white,man,,,,,,,,survey_gender,100,,,I am glad to be my gender.,glad
4266.7,,,html-slider-response,466,2481714,0.0-24.0-1.0-0.7,64289,List2A,white,man,,,,,,,,survey_gender,100,,,I think that my gender has a lot to be proud of.,proud
4286.1,,,html-slider-response,467,2486003,0.0-24.0-1.0-0.8,64289,List2A,white,man,,,,,,,,survey_gender,100,,,Being my gender gives me a good feeling.,feeling
4077.4,,,html-slider-response,468,2490082,0.0-24.0-1.0-0.9,64289,List2A,white,man,,,,,,,,survey_gender,100,,,Routine is not important to me.,filler
6786.4,,,html-slider-response,469,2496870,0.0-24.0-1.0-0.10,64289,List2A,white,man,,,,,,,,survey_gender,20,,,I would say I am an animal person.,filler
4771,,,html-slider-response,470,2501643,0.0-24.0-1.0-0.11,64289,List2A,white,man,,,,,,,,survey_gender,99,,,It is pleasant to be my gender.,pleasant
6171.1,,,html-slider-response,471,2507816,0.0-24.0-1.0-0.12,64289,List2A,white,man,,,,,,,,survey_gender,100,,,I am glad to have the friends that I have.,filler
5223.6,,,html-slider-response,472,2513043,0.0-24.0-1.0-0.13,64289,List2A,white,man,,,,,,,,survey_gender,100,,,I have a lot in common with the average person of my gender.,average
5832.1,,,html-slider-response,473,2518877,0.0-24.0-1.0-0.14,64289,List2A,white,man,,,,,,,,survey_gender,100,,,The fact that I am my gender is an important part of my identity.,identity
5447.6,,,html-slider-response,474,2524327,0.0-24.0-1.0-0.15,64289,List2A,white,man,,,,,,,,survey_gender,30,,,I consider myself a highly empathetic person.,filler
8741.4,,,html-slider-response,475,2533070,0.0-24.0-1.0-0.16,64289,List2A,white,man,,,,,,,,survey_gender,13,,,Family is not more important to me than friendship.,filler
4208,,,html-slider-response,476,2537281,0.0-24.0-1.0-0.17,64289,List2A,white,man,,,,,,,,survey_gender,100,,,I have a lot in common with my friends.,filler
26182,,,html-slider-response,477,2563465,0.0-24.0-1.0-0.18,64289,List2A,white,man,,,,,,,,survey_gender,90,,,I often think about my actions.,filler
7974.6,,,html-slider-response,478,2571442,0.0-24.0-1.0-0.19,64289,List2A,white,man,,,,,,,,survey_gender,87,,,I feel a bond with my friends.,filler
6877.1,,,html-slider-response,479,2578321,0.0-24.0-1.0-0.20,64289,List2A,white,man,,,,,,,,survey_gender,100,,,My friends understand me.,filler
10056,,,html-slider-response,480,2588379,0.0-24.0-1.0-0.21,64289,List2A,white,man,,,,,,,,survey_gender,92,,,It is not always easy for people to know what I am thinking.,filler
4375,,,html-slider-response,481,2592756,0.0-24.0-1.0-0.22,64289,List2A,white,man,,,,,,,,survey_gender,100,,,Being my gender is an important part of how I see myself.,important
4170.1,,,html-slider-response,482,2596928,0.0-24.0-1.0-0.23,64289,List2A,white,man,,,,,,,,survey_gender,100,,,Being around my friends gives me a good feeling.,filler
3809.5,,,html-slider-response,483,2600740,0.0-24.0-1.0-0.24,64289,List2A,white,man,,,,,,,,survey_gender,99,,,My friends have a lot in common with each other.,filler
3798.4,,,html-slider-response,484,2604540,0.0-24.0-1.0-0.25,64289,List2A,white,man,,,,,,,,survey_gender,97,,,I feel committed to my gender.,committed
7160.3,,,html-slider-response,485,2611703,0.0-24.0-1.0-0.26,64289,List2A,white,man,,,,,,,,survey_gender,90,,,Most of the friends in my life are very similar to me.,filler
3815.8,,,html-slider-response,486,2615521,0.0-24.0-1.0-0.27,64289,List2A,white,man,,,,,,,,survey_gender,100,,,I feel solidarity with my friends.,filler
9115.6,,,survey-text,487,2624640,0.0-25.0,64289,List2A,white,man,,,,,"{""Q0"":""ccc""}",,,worker_id,,,,,
4372.3,,,external-html,488,2630806,0.0-26.0,64289,List2A,white,man,debrief.html,,,,,,,,,,,,
