"rt","stimulus","button_pressed","trial_type","trial_index","time_elapsed","internal_node_id","subject","list","ppt_race","ppt_gender","url","first_guess","correct","key_press","responses","image_type","phrase_type","test_part","response","stimulus1","stimulus2","question_type","survey_item"
"10806","Welcome to the experiment. Press Continue to begin.","0","html-button-response","0","10816","0.0-0.0","64328","List2B","white","woman","","","","","","","","","","","","",""
"106855.69999999995","","","external-html","1","119093","0.0-1.0","64328","List2B","white","woman","consent.html","","","","","","","","","","","",""
"13052.099999999977","<p>On the next page, you will see portraits of 8 people and their names.</p><p>Your first task is to take a few minutes to memorise the names of these people.</p><p>You will have to recall their names during the rest of the experiment, so it is</p><p>essential that you try to memorise these people and their names as best as you can.</p><br><p><strong>You will then be tested on your memory of these names and portraits.</strong></p><br><p>The experiment will start after you have completed this memory test.</p><br><p>Ready?</p>","0","html-button-response","2","132154","0.0-2.0","64328","List2B","white","woman","","","","","","","","","","","","",""
"51917.29999999993","<img src='img/portrait_matrix_list2.jpg' style='width:900px;height:500px;''></img><p>If you have memorised all the portraits and names and are ready to start, press Continue.</p><p><strong>Please note: Your memory of these faces will be tested 4 times during this experiment.</strong></p>","0","html-button-response","3","185085","0.0-3.0-0.0","64328","List2B","white","woman","","","","","","","","","","","","",""
"6924.5","<img src=""portrait/BM2.jpg""style=""height:400px;""></img>","5","html-button-response","4","193030","0.0-3.0-1.0","64328","List2B","white","woman","","true","5","","","","","","","","","",""
"null","CORRECT","","html-keyboard-response","5","194555","0.0-3.0-2.0-0.0","64328","List2B","white","woman","","","","null","","","","","","","","",""
"2683.2000000001863","<img src=""portrait/WM1.jpg""style=""height:400px;""></img>","6","html-button-response","6","197248","0.0-3.0-4.0","64328","List2B","white","woman","","true","6","","","","","","","","","",""
"null","CORRECT","","html-keyboard-response","7","198754","0.0-3.0-5.0-0.0","64328","List2B","white","woman","","","","null","","","","","","","","",""
"4302.40000000014","<img src=""portrait/WM2.jpg""style=""height:400px;""></img>","7","html-button-response","8","203064","0.0-3.0-7.0","64328","List2B","white","woman","","true","7","","","","","","","","","",""
"null","CORRECT","","html-keyboard-response","9","204573","0.0-3.0-8.0-0.0","64328","List2B","white","woman","","","","null","","","","","","","","",""
"2566.1999999999534","<img src=""portrait/BW2.jpg""style=""height:400px;""></img>","3","html-button-response","10","207151","0.0-3.0-10.0","64328","List2B","white","woman","","true","2","","","","","","","","","",""
"5460.700000000186","<img src=""portrait/BW2.jpg""style=""height:400px;""></img>","2","html-button-response","11","213628","0.0-3.0-12.0-0.0","64328","List2B","white","woman","","false","2","","","","","","","","","",""
"null","CORRECT","","html-keyboard-response","12","215139","0.0-3.0-12.0-1.0-0.0","64328","List2B","white","woman","","","","null","","","","","","","","",""
"3240.6999999999534","<img src=""portrait/BM1.jpg""style=""height:400px;""></img>","4","html-button-response","13","218394","0.0-3.0-13.0","64328","List2B","white","woman","","true","4","","","","","","","","","",""
"null","CORRECT","","html-keyboard-response","14","219901","0.0-3.0-14.0-0.0","64328","List2B","white","woman","","","","null","","","","","","","","",""
"2231.0999999998603","<img src=""portrait/WW2.jpg""style=""height:400px;""></img>","3","html-button-response","15","222142","0.0-3.0-16.0","64328","List2B","white","woman","","true","3","","","","","","","","","",""
"null","CORRECT","","html-keyboard-response","16","223650","0.0-3.0-17.0-0.0","64328","List2B","white","woman","","","","null","","","","","","","","",""
"9533.800000000047","<img src=""portrait/BW1.jpg""style=""height:400px;""></img>","0","html-button-response","17","233195","0.0-3.0-19.0","64328","List2B","white","woman","","true","0","","","","","","","","","",""
"null","CORRECT","","html-keyboard-response","18","234702","0.0-3.0-20.0-0.0","64328","List2B","white","woman","","","","null","","","","","","","","",""
"2983.0999999998603","<img src=""portrait/WW1.jpg""style=""height:400px;""></img>","1","html-button-response","19","237693","0.0-3.0-22.0","64328","List2B","white","woman","","true","1","","","","","","","","","",""
"null","CORRECT","","html-keyboard-response","20","239201","0.0-3.0-23.0-0.0","64328","List2B","white","woman","","","","null","","","","","","","","",""
"1471.3000000000466","<p>You got 7 out of 8 right first time. Press Continue.</p>","0","html-button-response","21","240683","0.0-3.0-25.0","64328","List2B","white","woman","","","","","","","","","","","","",""
"2532.899999999907","As you did not score 100%, the memory game will repeat. Press Continue.","0","html-button-response","22","244231","0.0-3.0-26.0-0.0","64328","List2B","white","woman","","","","","","","","","","","","",""
"7209.800000000047","<img src='img/portrait_matrix_list2.jpg' style='width:900px;height:500px;''></img><p>If you have memorised all the portraits and names and are ready to start, press Continue.</p><p><strong>Please note: Your memory of these faces will be tested 4 times during this experiment.</strong></p>","0","html-button-response","23","252453","0.0-3.1-0.1","64328","List2B","white","woman","","","","","","","","","","","","",""
"4896.300000000047","<img src=""portrait/BM2.jpg""style=""height:400px;""></img>","5","html-button-response","24","258361","0.0-3.1-1.1","64328","List2B","white","woman","","true","5","","","","","","","","","",""
"null","CORRECT","","html-keyboard-response","25","259869","0.0-3.1-2.1-0.1","64328","List2B","white","woman","","","","null","","","","","","","","",""
"2009.1000000000931","<img src=""portrait/WM1.jpg""style=""height:400px;""></img>","6","html-button-response","26","261888","0.0-3.1-4.1","64328","List2B","white","woman","","true","6","","","","","","","","","",""
"null","CORRECT","","html-keyboard-response","27","263394","0.0-3.1-5.1-0.1","64328","List2B","white","woman","","","","null","","","","","","","","",""
"2827.5999999998603","<img src=""portrait/WM2.jpg""style=""height:400px;""></img>","7","html-button-response","28","266231","0.0-3.1-7.1","64328","List2B","white","woman","","true","7","","","","","","","","","",""
"null","CORRECT","","html-keyboard-response","29","267736","0.0-3.1-8.1-0.1","64328","List2B","white","woman","","","","null","","","","","","","","",""
"3100.9000000001397","<img src=""portrait/BW2.jpg""style=""height:400px;""></img>","2","html-button-response","30","270846","0.0-3.1-10.1","64328","List2B","white","woman","","true","2","","","","","","","","","",""
"null","CORRECT","","html-keyboard-response","31","272356","0.0-3.1-11.1-0.1","64328","List2B","white","woman","","","","null","","","","","","","","",""
"1832.1999999999534","<img src=""portrait/BM1.jpg""style=""height:400px;""></img>","4","html-button-response","32","274202","0.0-3.1-13.1","64328","List2B","white","woman","","true","4","","","","","","","","","",""
"null","CORRECT","","html-keyboard-response","33","275713","0.0-3.1-14.1-0.1","64328","List2B","white","woman","","","","null","","","","","","","","",""
"1640.1000000000931","<img src=""portrait/WW2.jpg""style=""height:400px;""></img>","3","html-button-response","34","277367","0.0-3.1-16.1","64328","List2B","white","woman","","true","3","","","","","","","","","",""
"null","CORRECT","","html-keyboard-response","35","278875","0.0-3.1-17.1-0.1","64328","List2B","white","woman","","","","null","","","","","","","","",""
"1960.3000000000466","<img src=""portrait/BW1.jpg""style=""height:400px;""></img>","0","html-button-response","36","280851","0.0-3.1-19.1","64328","List2B","white","woman","","true","0","","","","","","","","","",""
"null","CORRECT","","html-keyboard-response","37","282358","0.0-3.1-20.1-0.1","64328","List2B","white","woman","","","","null","","","","","","","","",""
"651.5999999998603","<img src=""portrait/WW1.jpg""style=""height:400px;""></img>","1","html-button-response","38","283023","0.0-3.1-22.1","64328","List2B","white","woman","","true","1","","","","","","","","","",""
"null","CORRECT","","html-keyboard-response","39","284533","0.0-3.1-23.1-0.1","64328","List2B","white","woman","","","","null","","","","","","","","",""
"1340.1999999999534","<p>You got 8 out of 8 right first time. Press Continue.</p>","0","html-button-response","40","285883","0.0-3.1-25.1","64328","List2B","white","woman","","","","","","","","","","","","",""
"52231","<p>In this experiment, you will view photographs of the people from the memory game interacting.</p><p>By using the <strong>exact</strong> phrase given <i>after</i> the photograph appears and recalling the correct names of the people in the photographs, form a sentence describing the interaction. You do not need to capitalise names.</p><p>Type your answer in the space provided. Please complete every sentence before moving onto the next trial.</p><p>You will only have a few seconds to memorise each given photograph and phrase before you can respond, so try your best to focus.</p><p>An example is given below. Press 'Continue' when you are ready.</p><img src='img/speaking_example.jpg' style='width:800px;height:460px;''></img>","0","html-button-response","41","339121","0.0-4.0","64328","List2B","white","woman","","","","","","","","","","","","",""
"2322.899999999907","<p>Before the experiment starts, you will watch two example trials. Press 'Continue'.</p>","0","html-button-response","42","342452","0.0-5.0","64328","List2B","white","woman","","","","","","","","","","","","",""
"null","<img src='img/play_eg.gif' style='height:400px;''></img>","","html-keyboard-response","43","345461","0.0-6.0","64328","List2B","white","woman","","","","null","","","","","","","","",""
"null","<p>is playing with</p>","","html-keyboard-response","44","347465","0.0-7.0","64328","List2B","white","woman","","","","null","","","","","","","","",""
"6641.699999999953","<p><b>Answer:</b> jane is playing with ruth</p>","0","html-button-response","45","354114","0.0-8.0","64328","List2B","white","woman","","","","","","","","","","","","",""
"null","<img src='img/dance_eg.gif' style='height:400px;''></img>","","html-keyboard-response","46","357123","0.0-9.0","64328","List2B","white","woman","","","","null","","","","","","","","",""
"null","<p>is being entertained by</p>","","html-keyboard-response","47","359126","0.0-10.0","64328","List2B","white","woman","","","","null","","","","","","","","",""
"2125.8000000000466","<p><b>Answer:</b> fred is being entertained by mike</p>","0","html-button-response","48","361256","0.0-11.0","64328","List2B","white","woman","","","","","","","","","","","","",""
"3704.6999999999534","<p>Ready to start the experiment?</p><br><p><strong>Remember to describe the picture using a full sentence,</strong></p><p><strong>that combines the names of the people with the <i>exact</i> phrase given.</strong></p><p><strong>To receive full payment you must do this correctly.</strong></p><p><strong> You do not need to capitalise names or use punctuation.</strong></p><br><p>Press 'Continue' to begin.</p>","0","html-button-response","49","365968","0.0-12.0","64328","List2B","white","woman","","","","","","","","","","","","",""
"null","<div style=""font-size:60px;"">+</div>","","html-keyboard-response","50","367474","0.0-13.0-0.0","64328","List2B","white","woman","","","","null","","","","","","","","",""
"null","<img src=""stim_listB/seduce5.gif""style=""height:400px;""></stim_listB>","","html-keyboard-response","51","369480","0.0-13.0-1.0","64328","List2B","white","woman","","","","null","","","","","","","","",""
"null","is seducing","","html-keyboard-response","52","371486","0.0-13.0-2.0","64328","List2B","white","woman","","","","null","","","","","","","","",""
"9923.699999999953","","","survey-text","53","381423","0.0-13.0-3.0","64328","List2B","white","woman","","","","","{""Q0"":""luke is seducing mike""}","<img src=""stim_listB/seduce5.gif""style=""height:400px;""></stim_listB>","is seducing","","","","","",""
"null","<div style=""font-size:60px;"">+</div>","","html-keyboard-response","54","381928","0.0-13.0-0.1","64328","List2B","white","woman","","","","null","","","","","","","","",""
"null","<img src=""stim_listB/challenge7.gif""style=""height:400px;""></stim_listB>","","html-keyboard-response","55","383932","0.0-13.0-1.1","64328","List2B","white","woman","","","","null","","","","","","","","",""
"null","is challenging","","html-keyboard-response","56","385936","0.0-13.0-2.1","64328","List2B","white","woman","","","","null","","","","","","","","",""
"8704.899999999907","","","survey-text","57","394651","0.0-13.0-3.1","64328","List2B","white","woman","","","","","{""Q0"":""jane is challenging beth""}","<img src=""stim_listB/challenge7.gif""style=""height:400px;""></stim_listB>","is challenging","","","","","",""
"null","<div style=""font-size:60px;"">+</div>","","html-keyboard-response","58","395156","0.0-13.0-0.2","64328","List2B","white","woman","","","","null","","","","","","","","",""
"null","<img src=""stim_listB/touch4.gif""style=""height:400px;""></stim_listB>","","html-keyboard-response","59","397166","0.0-13.0-1.2","64328","List2B","white","woman","","","","null","","","","","","","","",""
"null","is being touched by","","html-keyboard-response","60","399171","0.0-13.0-2.2","64328","List2B","white","woman","","","","null","","","","","","","","",""
"14159","","","survey-text","61","413346","0.0-13.0-3.2","64328","List2B","white","woman","","","","","{""Q0"":""fred is being touched by kate""}","<img src=""stim_listB/touch4.gif""style=""height:400px;""></stim_listB>","is being touched by","","","","","",""
"null","<div style=""font-size:60px;"">+</div>","","html-keyboard-response","62","413853","0.0-13.0-0.3","64328","List2B","white","woman","","","","null","","","","","","","","",""
"null","<img src=""stim_listB/kiss4.gif""style=""height:400px;""></stim_listB>","","html-keyboard-response","63","415863","0.0-13.0-1.3","64328","List2B","white","woman","","","","null","","","","","","","","",""
"null","is being kissed by","","html-keyboard-response","64","417871","0.0-13.0-2.3","64328","List2B","white","woman","","","","null","","","","","","","","",""
"14866.699999999953","","","survey-text","65","432751","0.0-13.0-3.3","64328","List2B","white","woman","","","","","{""Q0"":""kate is being kissed by mike""}","<img src=""stim_listB/kiss4.gif""style=""height:400px;""></stim_listB>","is being kissed by","","","","","",""
"null","<div style=""font-size:60px;"">+</div>","","html-keyboard-response","66","433256","0.0-13.0-0.4","64328","List2B","white","woman","","","","null","","","","","","","","",""
"null","<img src=""stim_listB/seduce4.gif""style=""height:400px;""></stim_listB>","","html-keyboard-response","67","435263","0.0-13.0-1.4","64328","List2B","white","woman","","","","null","","","","","","","","",""
"null","is being seduced by","","html-keyboard-response","68","437266","0.0-13.0-2.4","64328","List2B","white","woman","","","","null","","","","","","","","",""
"17715.600000000093","","","survey-text","69","454991","0.0-13.0-3.4","64328","List2B","white","woman","","","","","{""Q0"":""mike is being seduced by beth""}","<img src=""stim_listB/seduce4.gif""style=""height:400px;""></stim_listB>","is being seduced by","","","","","",""
"null","<div style=""font-size:60px;"">+</div>","","html-keyboard-response","70","455496","0.0-13.0-0.5","64328","List2B","white","woman","","","","null","","","","","","","","",""
"null","<img src=""stim_listB/look8.gif""style=""height:400px;""></stim_listB>","","html-keyboard-response","71","457507","0.0-13.0-1.5","64328","List2B","white","woman","","","","null","","","","","","","","",""
"null","is being looked at by","","html-keyboard-response","72","459511","0.0-13.0-2.5","64328","List2B","white","woman","","","","null","","","","","","","","",""
"9330.90000000014","","","survey-text","73","468855","0.0-13.0-3.5","64328","List2B","white","woman","","","","","{""Q0"":""jane is being looked at by kate""}","<img src=""stim_listB/look8.gif""style=""height:400px;""></stim_listB>","is being looked at by","","","","","",""
"null","<div style=""font-size:60px;"">+</div>","","html-keyboard-response","74","469362","0.0-13.0-0.6","64328","List2B","white","woman","","","","null","","","","","","","","",""
"null","<img src=""stim_listB/greet2.gif""style=""height:400px;""></stim_listB>","","html-keyboard-response","75","471372","0.0-13.0-1.6","64328","List2B","white","woman","","","","null","","","","","","","","",""
"null","is being greeted by","","html-keyboard-response","76","473376","0.0-13.0-2.6","64328","List2B","white","woman","","","","null","","","","","","","","",""
"8332.299999999814","","","survey-text","77","481725","0.0-13.0-3.6","64328","List2B","white","woman","","","","","{""Q0"":""jane is being greeted by luke""}","<img src=""stim_listB/greet2.gif""style=""height:400px;""></stim_listB>","is being greeted by","","","","","",""
"null","<div style=""font-size:60px;"">+</div>","","html-keyboard-response","78","482229","0.0-13.0-0.7","64328","List2B","white","woman","","","","null","","","","","","","","",""
"null","<img src=""stim_listB/hug2.gif""style=""height:400px;""></stim_listB>","","html-keyboard-response","79","484238","0.0-13.0-1.7","64328","List2B","white","woman","","","","null","","","","","","","","",""
"null","is being hugged by","","html-keyboard-response","80","486241","0.0-13.0-2.7","64328","List2B","white","woman","","","","null","","","","","","","","",""
"7693.800000000047","","","survey-text","81","493942","0.0-13.0-3.7","64328","List2B","white","woman","","","","","{""Q0"":""dave is being hugged by jane""}","<img src=""stim_listB/hug2.gif""style=""height:400px;""></stim_listB>","is being hugged by","","","","","",""
"null","<div style=""font-size:60px;"">+</div>","","html-keyboard-response","82","494448","0.0-13.0-0.8","64328","List2B","white","woman","","","","null","","","","","","","","",""
"null","<img src=""stim_listB/hug3.gif""style=""height:400px;""></stim_listB>","","html-keyboard-response","83","496454","0.0-13.0-1.8","64328","List2B","white","woman","","","","null","","","","","","","","",""
"null","is hugging","","html-keyboard-response","84","498458","0.0-13.0-2.8","64328","List2B","white","woman","","","","null","","","","","","","","",""
"8365.40000000014","","","survey-text","85","506834","0.0-13.0-3.8","64328","List2B","white","woman","","","","","{""Q0"":""kate is hugging fred""}","<img src=""stim_listB/hug3.gif""style=""height:400px;""></stim_listB>","is hugging","","","","","",""
"null","<div style=""font-size:60px;"">+</div>","","html-keyboard-response","86","507339","0.0-13.0-0.9","64328","List2B","white","woman","","","","null","","","","","","","","",""
"null","<img src=""stim_listB/touch2.gif""style=""height:400px;""></stim_listB>","","html-keyboard-response","87","509348","0.0-13.0-1.9","64328","List2B","white","woman","","","","null","","","","","","","","",""
"null","is being touched by","","html-keyboard-response","88","511352","0.0-13.0-2.9","64328","List2B","white","woman","","","","null","","","","","","","","",""
"7588.300000000047","","","survey-text","89","518953","0.0-13.0-3.9","64328","List2B","white","woman","","","","","{""Q0"":""luke is being touched by ruth""}","<img src=""stim_listB/touch2.gif""style=""height:400px;""></stim_listB>","is being touched by","","","","","",""
"null","<div style=""font-size:60px;"">+</div>","","html-keyboard-response","90","519458","0.0-13.0-0.10","64328","List2B","white","woman","","","","null","","","","","","","","",""
"null","<img src=""stim_listB/copy5.gif""style=""height:400px;""></stim_listB>","","html-keyboard-response","91","521466","0.0-13.0-1.10","64328","List2B","white","woman","","","","null","","","","","","","","",""
"null","is copying","","html-keyboard-response","92","523473","0.0-13.0-2.10","64328","List2B","white","woman","","","","null","","","","","","","","",""
"4480","","","survey-text","93","527969","0.0-13.0-3.10","64328","List2B","white","woman","","","","","{""Q0"":""dave is copying fred""}","<img src=""stim_listB/copy5.gif""style=""height:400px;""></stim_listB>","is copying","","","","","",""
"null","<div style=""font-size:60px;"">+</div>","","html-keyboard-response","94","528473","0.0-13.0-0.11","64328","List2B","white","woman","","","","null","","","","","","","","",""
"null","<img src=""stim_listB/shout8.gif""style=""height:400px;""></stim_listB>","","html-keyboard-response","95","530481","0.0-13.0-1.11","64328","List2B","white","woman","","","","null","","","","","","","","",""
"null","is being shouted at by","","html-keyboard-response","96","532486","0.0-13.0-2.11","64328","List2B","white","woman","","","","null","","","","","","","","",""
"4898.5","","","survey-text","97","537400","0.0-13.0-3.11","64328","List2B","white","woman","","","","","{""Q0"":""jane is being shouted at by kate""}","<img src=""stim_listB/shout8.gif""style=""height:400px;""></stim_listB>","is being shouted at by","","","","","",""
"null","<div style=""font-size:60px;"">+</div>","","html-keyboard-response","98","537905","0.0-13.0-0.12","64328","List2B","white","woman","","","","null","","","","","","","","",""
"null","<img src=""stim_listB/challenge6.gif""style=""height:400px;""></stim_listB>","","html-keyboard-response","99","539916","0.0-13.0-1.12","64328","List2B","white","woman","","","","null","","","","","","","","",""
"null","is being challenged by","","html-keyboard-response","100","541925","0.0-13.0-2.12","64328","List2B","white","woman","","","","null","","","","","","","","",""
"5161.600000000093","","","survey-text","101","547104","0.0-13.0-3.12","64328","List2B","white","woman","","","","","{""Q0"":""mike is being challenged by luke""}","<img src=""stim_listB/challenge6.gif""style=""height:400px;""></stim_listB>","is being challenged by","","","","","",""
"null","<div style=""font-size:60px;"">+</div>","","html-keyboard-response","102","547609","0.0-13.0-0.13","64328","List2B","white","woman","","","","null","","","","","","","","",""
"null","<img src=""stim_listB/copy7.gif""style=""height:400px;""></stim_listB>","","html-keyboard-response","103","549617","0.0-13.0-1.13","64328","List2B","white","woman","","","","null","","","","","","","","",""
"null","is copying","","html-keyboard-response","104","551625","0.0-13.0-2.13","64328","List2B","white","woman","","","","null","","","","","","","","",""
"6864.5","","","survey-text","105","558506","0.0-13.0-3.13","64328","List2B","white","woman","","","","","{""Q0"":""jane is copying beth""}","<img src=""stim_listB/copy7.gif""style=""height:400px;""></stim_listB>","is copying","","","","","",""
"null","<div style=""font-size:60px;"">+</div>","","html-keyboard-response","106","559012","0.0-13.0-0.14","64328","List2B","white","woman","","","","null","","","","","","","","",""
"null","<img src=""stim_listB/oppose4.gif""style=""height:400px;""></stim_listB>","","html-keyboard-response","107","561022","0.0-13.0-1.14","64328","List2B","white","woman","","","","null","","","","","","","","",""
"null","is being opposed by","","html-keyboard-response","108","563030","0.0-13.0-2.14","64328","List2B","white","woman","","","","null","","","","","","","","",""
"6928.200000000186","","","survey-text","109","569971","0.0-13.0-3.14","64328","List2B","white","woman","","","","","{""Q0"":""fred is being opposed by beth""}","<img src=""stim_listB/oppose4.gif""style=""height:400px;""></stim_listB>","is being opposed by","","","","","",""
"null","<div style=""font-size:60px;"">+</div>","","html-keyboard-response","110","570477","0.0-13.0-0.15","64328","List2B","white","woman","","","","null","","","","","","","","",""
"null","<img src=""stim_listB/hug6.gif""style=""height:400px;""></stim_listB>","","html-keyboard-response","111","572488","0.0-13.0-1.15","64328","List2B","white","woman","","","","null","","","","","","","","",""
"null","is being hugged by","","html-keyboard-response","112","574495","0.0-13.0-2.15","64328","List2B","white","woman","","","","null","","","","","","","","",""
"5331.300000000047","","","survey-text","113","579847","0.0-13.0-3.15","64328","List2B","white","woman","","","","","{""Q0"":""mike is being hugged by dave""}","<img src=""stim_listB/hug6.gif""style=""height:400px;""></stim_listB>","is being hugged by","","","","","",""
"null","<div style=""font-size:60px;"">+</div>","","html-keyboard-response","114","580354","0.0-13.0-0.16","64328","List2B","white","woman","","","","null","","","","","","","","",""
"null","<img src=""stim_listB/look2.gif""style=""height:400px;""></stim_listB>","","html-keyboard-response","115","582366","0.0-13.0-1.16","64328","List2B","white","woman","","","","null","","","","","","","","",""
"null","is being looked at by","","html-keyboard-response","116","584372","0.0-13.0-2.16","64328","List2B","white","woman","","","","null","","","","","","","","",""
"5436.5","","","survey-text","117","589824","0.0-13.0-3.16","64328","List2B","white","woman","","","","","{""Q0"":""jane is being looked at by dave""}","<img src=""stim_listB/look2.gif""style=""height:400px;""></stim_listB>","is being looked at by","","","","","",""
"null","<div style=""font-size:60px;"">+</div>","","html-keyboard-response","118","590330","0.0-13.0-0.17","64328","List2B","white","woman","","","","null","","","","","","","","",""
"null","<img src=""stim_listB/copy2.gif""style=""height:400px;""></stim_listB>","","html-keyboard-response","119","592341","0.0-13.0-1.17","64328","List2B","white","woman","","","","null","","","","","","","","",""
"null","is being copied by","","html-keyboard-response","120","594348","0.0-13.0-2.17","64328","List2B","white","woman","","","","null","","","","","","","","",""
"5063.800000000047","","","survey-text","121","599421","0.0-13.0-3.17","64328","List2B","white","woman","","","","","{""Q0"":""luke is being copied by jane""}","<img src=""stim_listB/copy2.gif""style=""height:400px;""></stim_listB>","is being copied by","","","","","",""
"null","<div style=""font-size:60px;"">+</div>","","html-keyboard-response","122","599927","0.0-13.0-0.18","64328","List2B","white","woman","","","","null","","","","","","","","",""
"null","<img src=""stim_listB/kiss1.gif""style=""height:400px;""></stim_listB>","","html-keyboard-response","123","601939","0.0-13.0-1.18","64328","List2B","white","woman","","","","null","","","","","","","","",""
"null","is kissing","","html-keyboard-response","124","603945","0.0-13.0-2.18","64328","List2B","white","woman","","","","null","","","","","","","","",""
"2964.100000000093","","","survey-text","125","606924","0.0-13.0-3.18","64328","List2B","white","woman","","","","","{""Q0"":""ruth is kissing luke""}","<img src=""stim_listB/kiss1.gif""style=""height:400px;""></stim_listB>","is kissing","","","","","",""
"null","<div style=""font-size:60px;"">+</div>","","html-keyboard-response","126","607428","0.0-13.0-0.19","64328","List2B","white","woman","","","","null","","","","","","","","",""
"null","<img src=""stim_listB/oppose2.gif""style=""height:400px;""></stim_listB>","","html-keyboard-response","127","609435","0.0-13.0-1.19","64328","List2B","white","woman","","","","null","","","","","","","","",""
"null","is being opposed by","","html-keyboard-response","128","611439","0.0-13.0-2.19","64328","List2B","white","woman","","","","null","","","","","","","","",""
"8834.700000000186","","","survey-text","129","620287","0.0-13.0-3.19","64328","List2B","white","woman","","","","","{""Q0"":""luke is being opposed by ruth""}","<img src=""stim_listB/oppose2.gif""style=""height:400px;""></stim_listB>","is being opposed by","","","","","",""
"112739.59999999986","<img src='img/portrait_matrix_list2.jpg' style='width:900px;height:500px;''></img><p>If you have memorised all the portraits and names and are ready to start, press Continue.</p><p><strong>Please note: Your memory of these faces will be tested 4 times during this experiment.</strong></p>","0","html-button-response","130","733032","0.0-14.0-0.0","64328","List2B","white","woman","","","","","","","","","","","","",""
"3546.2000000001863","<img src=""portrait/BW1.jpg""style=""height:400px;""></img>","0","html-button-response","131","737586","0.0-14.0-1.0","64328","List2B","white","woman","","true","0","","","","","","","","","",""
"null","CORRECT","","html-keyboard-response","132","739092","0.0-14.0-2.0-0.0","64328","List2B","white","woman","","","","null","","","","","","","","",""
"1351.7000000001863","<img src=""portrait/WW1.jpg""style=""height:400px;""></img>","1","html-button-response","133","740456","0.0-14.0-4.0","64328","List2B","white","woman","","true","1","","","","","","","","","",""
"null","CORRECT","","html-keyboard-response","134","741962","0.0-14.0-5.0-0.0","64328","List2B","white","woman","","","","null","","","","","","","","",""
"2943.0999999998603","<img src=""portrait/BW2.jpg""style=""height:400px;""></img>","2","html-button-response","135","744915","0.0-14.0-7.0","64328","List2B","white","woman","","true","2","","","","","","","","","",""
"null","CORRECT","","html-keyboard-response","136","746419","0.0-14.0-8.0-0.0","64328","List2B","white","woman","","","","null","","","","","","","","",""
"1954.8000000000466","<img src=""portrait/BM2.jpg""style=""height:400px;""></img>","5","html-button-response","137","748380","0.0-14.0-10.0","64328","List2B","white","woman","","true","5","","","","","","","","","",""
"null","CORRECT","","html-keyboard-response","138","749886","0.0-14.0-11.0-0.0","64328","List2B","white","woman","","","","null","","","","","","","","",""
"1238.1999999999534","<img src=""portrait/WW2.jpg""style=""height:400px;""></img>","3","html-button-response","139","751133","0.0-14.0-13.0","64328","List2B","white","woman","","true","3","","","","","","","","","",""
"null","CORRECT","","html-keyboard-response","140","752640","0.0-14.0-14.0-0.0","64328","List2B","white","woman","","","","null","","","","","","","","",""
"2071.8000000000466","<img src=""portrait/WM1.jpg""style=""height:400px;""></img>","6","html-button-response","141","754723","0.0-14.0-16.0","64328","List2B","white","woman","","true","6","","","","","","","","","",""
"null","CORRECT","","html-keyboard-response","142","756232","0.0-14.0-17.0-0.0","64328","List2B","white","woman","","","","null","","","","","","","","",""
"1275.6000000000931","<img src=""portrait/BM1.jpg""style=""height:400px;""></img>","4","html-button-response","143","757523","0.0-14.0-19.0","64328","List2B","white","woman","","true","4","","","","","","","","","",""
"null","CORRECT","","html-keyboard-response","144","759033","0.0-14.0-20.0-0.0","64328","List2B","white","woman","","","","null","","","","","","","","",""
"707.8000000000466","<img src=""portrait/WM2.jpg""style=""height:400px;""></img>","7","html-button-response","145","759752","0.0-14.0-22.0","64328","List2B","white","woman","","true","7","","","","","","","","","",""
"null","CORRECT","","html-keyboard-response","146","761263","0.0-14.0-23.0-0.0","64328","List2B","white","woman","","","","null","","","","","","","","",""
"5080.90000000014","<p>You got 8 out of 8 right first time. Press Continue.</p>","0","html-button-response","147","766354","0.0-14.0-25.0","64328","List2B","white","woman","","","","","","","","","","","","",""
"null","<div style=""font-size:60px;"">+</div>","","html-keyboard-response","148","767862","0.0-15.0-0.0","64328","List2B","white","woman","","","","null","","","","","","","","",""
"null","<img src=""stim_listB/seduce2.gif""style=""height:400px;""></stim_listB>","","html-keyboard-response","149","769865","0.0-15.0-1.0","64328","List2B","white","woman","","","","null","","","","","","","","",""
"null","is being seduced by","","html-keyboard-response","150","771868","0.0-15.0-2.0","64328","List2B","white","woman","","","","null","","","","","","","","",""
"12805.90000000014","","","survey-text","151","784682","0.0-15.0-3.0","64328","List2B","white","woman","","","","","{""Q0"":""dave is being seduced by ruth""}","<img src=""stim_listB/seduce2.gif""style=""height:400px;""></stim_listB>","is being seduced by","","","","","",""
"null","<div style=""font-size:60px;"">+</div>","","html-keyboard-response","152","785189","0.0-15.0-0.1","64328","List2B","white","woman","","","","null","","","","","","","","",""
"null","<img src=""stim_listB/challenge3.gif""style=""height:400px;""></stim_listB>","","html-keyboard-response","153","787199","0.0-15.0-1.1","64328","List2B","white","woman","","","","null","","","","","","","","",""
"null","is challenging","","html-keyboard-response","154","789204","0.0-15.0-2.1","64328","List2B","white","woman","","","","null","","","","","","","","",""
"4632.600000000093","","","survey-text","155","793850","0.0-15.0-3.1","64328","List2B","white","woman","","","","","{""Q0"":""beth is challenging mike""}","<img src=""stim_listB/challenge3.gif""style=""height:400px;""></stim_listB>","is challenging","","","","","",""
"null","<div style=""font-size:60px;"">+</div>","","html-keyboard-response","156","794355","0.0-15.0-0.2","64328","List2B","white","woman","","","","null","","","","","","","","",""
"null","<img src=""stim_listB/look5.gif""style=""height:400px;""></stim_listB>","","html-keyboard-response","157","796365","0.0-15.0-1.2","64328","List2B","white","woman","","","","null","","","","","","","","",""
"null","is looking at","","html-keyboard-response","158","798371","0.0-15.0-2.2","64328","List2B","white","woman","","","","null","","","","","","","","",""
"8971","","","survey-text","159","807353","0.0-15.0-3.2","64328","List2B","white","woman","","","","","{""Q0"":""fred is looking at luke""}","<img src=""stim_listB/look5.gif""style=""height:400px;""></stim_listB>","is looking at","","","","","",""
"null","<div style=""font-size:60px;"">+</div>","","html-keyboard-response","160","807860","0.0-15.0-0.3","64328","List2B","white","woman","","","","null","","","","","","","","",""
"null","<img src=""stim_listB/copy6.gif""style=""height:400px;""></stim_listB>","","html-keyboard-response","161","809869","0.0-15.0-1.3","64328","List2B","white","woman","","","","null","","","","","","","","",""
"null","is being copied by","","html-keyboard-response","162","811873","0.0-15.0-2.3","64328","List2B","white","woman","","","","null","","","","","","","","",""
"3562.899999999907","","","survey-text","163","815449","0.0-15.0-3.3","64328","List2B","white","woman","","","","","{""Q0"":""luke is copied by mike""}","<img src=""stim_listB/copy6.gif""style=""height:400px;""></stim_listB>","is being copied by","","","","","",""
"null","<div style=""font-size:60px;"">+</div>","","html-keyboard-response","164","815955","0.0-15.0-0.4","64328","List2B","white","woman","","","","null","","","","","","","","",""
"null","<img src=""stim_listB/hug8.gif""style=""height:400px;""></stim_listB>","","html-keyboard-response","165","817961","0.0-15.0-1.4","64328","List2B","white","woman","","","","null","","","","","","","","",""
"null","is being hugged by","","html-keyboard-response","166","819967","0.0-15.0-2.4","64328","List2B","white","woman","","","","null","","","","","","","","",""
"6827.199999999953","","","survey-text","167","826805","0.0-15.0-3.4","64328","List2B","white","woman","","","","","{""Q0"":""jane is being hugged by kate""}","<img src=""stim_listB/hug8.gif""style=""height:400px;""></stim_listB>","is being hugged by","","","","","",""
"null","<div style=""font-size:60px;"">+</div>","","html-keyboard-response","168","827311","0.0-15.0-0.5","64328","List2B","white","woman","","","","null","","","","","","","","",""
"null","<img src=""stim_listB/copy1.gif""style=""height:400px;""></stim_listB>","","html-keyboard-response","169","829322","0.0-15.0-1.5","64328","List2B","white","woman","","","","null","","","","","","","","",""
"null","is copying","","html-keyboard-response","170","831329","0.0-15.0-2.5","64328","List2B","white","woman","","","","null","","","","","","","","",""
"3010.399999999907","","","survey-text","171","834352","0.0-15.0-3.5","64328","List2B","white","woman","","","","","{""Q0"":""ruth is copying dave""}","<img src=""stim_listB/copy1.gif""style=""height:400px;""></stim_listB>","is copying","","","","","",""
"null","<div style=""font-size:60px;"">+</div>","","html-keyboard-response","172","834857","0.0-15.0-0.6","64328","List2B","white","woman","","","","null","","","","","","","","",""
"null","<img src=""stim_listB/shout2.gif""style=""height:400px;""></stim_listB>","","html-keyboard-response","173","836865","0.0-15.0-1.6","64328","List2B","white","woman","","","","null","","","","","","","","",""
"null","is being shouted at by","","html-keyboard-response","174","838871","0.0-15.0-2.6","64328","List2B","white","woman","","","","null","","","","","","","","",""
"5423.399999999907","","","survey-text","175","844307","0.0-15.0-3.6","64328","List2B","white","woman","","","","","{""Q0"":""jane is being shouted at by dave""}","<img src=""stim_listB/shout2.gif""style=""height:400px;""></stim_listB>","is being shouted at by","","","","","",""
"null","<div style=""font-size:60px;"">+</div>","","html-keyboard-response","176","844812","0.0-15.0-0.7","64328","List2B","white","woman","","","","null","","","","","","","","",""
"null","<img src=""stim_listB/look4.gif""style=""height:400px;""></stim_listB>","","html-keyboard-response","177","846820","0.0-15.0-1.7","64328","List2B","white","woman","","","","null","","","","","","","","",""
"null","is being looked at by","","html-keyboard-response","178","848828","0.0-15.0-2.7","64328","List2B","white","woman","","","","null","","","","","","","","",""
"6755.09999999986","","","survey-text","179","855599","0.0-15.0-3.7","64328","List2B","white","woman","","","","","{""Q0"":""mike is being looked at by kate""}","<img src=""stim_listB/look4.gif""style=""height:400px;""></stim_listB>","is being looked at by","","","","","",""
"null","<div style=""font-size:60px;"">+</div>","","html-keyboard-response","180","856104","0.0-15.0-0.8","64328","List2B","white","woman","","","","null","","","","","","","","",""
"null","<img src=""stim_listB/shout7.gif""style=""height:400px;""></stim_listB>","","html-keyboard-response","181","858114","0.0-15.0-1.8","64328","List2B","white","woman","","","","null","","","","","","","","",""
"null","is shouting at","","html-keyboard-response","182","860121","0.0-15.0-2.8","64328","List2B","white","woman","","","","null","","","","","","","","",""
"3896.8000000000466","","","survey-text","183","864028","0.0-15.0-3.8","64328","List2B","white","woman","","","","","{""Q0"":""beth is shouting at ruth""}","<img src=""stim_listB/shout7.gif""style=""height:400px;""></stim_listB>","is shouting at","","","","","",""
"null","<div style=""font-size:60px;"">+</div>","","html-keyboard-response","184","864537","0.0-15.0-0.9","64328","List2B","white","woman","","","","null","","","","","","","","",""
"null","<img src=""stim_listB/touch8.gif""style=""height:400px;""></stim_listB>","","html-keyboard-response","185","866546","0.0-15.0-1.9","64328","List2B","white","woman","","","","null","","","","","","","","",""
"null","is being touched by","","html-keyboard-response","186","868555","0.0-15.0-2.9","64328","List2B","white","woman","","","","null","","","","","","","","",""
"5307.600000000093","","","survey-text","187","873876","0.0-15.0-3.9","64328","List2B","white","woman","","","","","{""Q0"":""ruth is being touched by beth""}","<img src=""stim_listB/touch8.gif""style=""height:400px;""></stim_listB>","is being touched by","","","","","",""
"null","<div style=""font-size:60px;"">+</div>","","html-keyboard-response","188","874382","0.0-15.0-0.10","64328","List2B","white","woman","","","","null","","","","","","","","",""
"null","<img src=""stim_listB/touch3.gif""style=""height:400px;""></stim_listB>","","html-keyboard-response","189","876391","0.0-15.0-1.10","64328","List2B","white","woman","","","","null","","","","","","","","",""
"null","is touching","","html-keyboard-response","190","878396","0.0-15.0-2.10","64328","List2B","white","woman","","","","null","","","","","","","","",""
"7221.300000000047","","","survey-text","191","885632","0.0-15.0-3.10","64328","List2B","white","woman","","","","","{""Q0"":""mike is touching kate""}","<img src=""stim_listB/touch3.gif""style=""height:400px;""></stim_listB>","is touching","","","","","",""
"null","<div style=""font-size:60px;"">+</div>","","html-keyboard-response","192","886141","0.0-15.0-0.11","64328","List2B","white","woman","","","","null","","","","","","","","",""
"null","<img src=""stim_listB/seduce8.gif""style=""height:400px;""></stim_listB>","","html-keyboard-response","193","888151","0.0-15.0-1.11","64328","List2B","white","woman","","","","null","","","","","","","","",""
"null","is being seduced by","","html-keyboard-response","194","890157","0.0-15.0-2.11","64328","List2B","white","woman","","","","null","","","","","","","","",""
"4138.199999999953","","","survey-text","195","894311","0.0-15.0-3.11","64328","List2B","white","woman","","","","","{""Q0"":""jane is being seduced by beth""}","<img src=""stim_listB/seduce8.gif""style=""height:400px;""></stim_listB>","is being seduced by","","","","","",""
"null","<div style=""font-size:60px;"">+</div>","","html-keyboard-response","196","894816","0.0-15.0-0.12","64328","List2B","white","woman","","","","null","","","","","","","","",""
"null","<img src=""stim_listB/oppose8.gif""style=""height:400px;""></stim_listB>","","html-keyboard-response","197","896829","0.0-15.0-1.12","64328","List2B","white","woman","","","","null","","","","","","","","",""
"null","is being opposed by","","html-keyboard-response","198","898836","0.0-15.0-2.12","64328","List2B","white","woman","","","","null","","","","","","","","",""
"6871.5","","","survey-text","199","905721","0.0-15.0-3.12","64328","List2B","white","woman","","","","","{""Q0"":""beth is being opposed by ruth""}","<img src=""stim_listB/oppose8.gif""style=""height:400px;""></stim_listB>","is being opposed by","","","","","",""
"null","<div style=""font-size:60px;"">+</div>","","html-keyboard-response","200","906229","0.0-15.0-0.13","64328","List2B","white","woman","","","","null","","","","","","","","",""
"null","<img src=""stim_listB/kiss6.gif""style=""height:400px;""></stim_listB>","","html-keyboard-response","201","908240","0.0-15.0-1.13","64328","List2B","white","woman","","","","null","","","","","","","","",""
"null","is being kissed by","","html-keyboard-response","202","910246","0.0-15.0-2.13","64328","List2B","white","woman","","","","null","","","","","","","","",""
"4370.899999999907","","","survey-text","203","914631","0.0-15.0-3.13","64328","List2B","white","woman","","","","","{""Q0"":""dave is being kissed by mike""}","<img src=""stim_listB/kiss6.gif""style=""height:400px;""></stim_listB>","is being kissed by","","","","","",""
"null","<div style=""font-size:60px;"">+</div>","","html-keyboard-response","204","915135","0.0-15.0-0.14","64328","List2B","white","woman","","","","null","","","","","","","","",""
"null","<img src=""stim_listB/seduce6.gif""style=""height:400px;""></stim_listB>","","html-keyboard-response","205","917145","0.0-15.0-1.14","64328","List2B","white","woman","","","","null","","","","","","","","",""
"null","is being seduced by","","html-keyboard-response","206","919153","0.0-15.0-2.14","64328","List2B","white","woman","","","","null","","","","","","","","",""
"21666.100000000093","","","survey-text","207","940828","0.0-15.0-3.14","64328","List2B","white","woman","","","","","{""Q0"":""fred is being seduced by dave""}","<img src=""stim_listB/seduce6.gif""style=""height:400px;""></stim_listB>","is being seduced by","","","","","",""
"null","<div style=""font-size:60px;"">+</div>","","html-keyboard-response","208","941335","0.0-15.0-0.15","64328","List2B","white","woman","","","","null","","","","","","","","",""
"null","<img src=""stim_listB/kiss7.gif""style=""height:400px;""></stim_listB>","","html-keyboard-response","209","943342","0.0-15.0-1.15","64328","List2B","white","woman","","","","null","","","","","","","","",""
"null","is kissing","","html-keyboard-response","210","945350","0.0-15.0-2.15","64328","List2B","white","woman","","","","null","","","","","","","","",""
"105402.3999999999","","","survey-text","211","1050766","0.0-15.0-3.15","64328","List2B","white","woman","","","","","{""Q0"":""ruth is kissing beth""}","<img src=""stim_listB/kiss7.gif""style=""height:400px;""></stim_listB>","is kissing","","","","","",""
"null","<div style=""font-size:60px;"">+</div>","","html-keyboard-response","212","1051274","0.0-15.0-0.16","64328","List2B","white","woman","","","","null","","","","","","","","",""
"null","<img src=""stim_listB/oppose6.gif""style=""height:400px;""></stim_listB>","","html-keyboard-response","213","1053281","0.0-15.0-1.16","64328","List2B","white","woman","","","","null","","","","","","","","",""
"null","is being opposed by","","html-keyboard-response","214","1055284","0.0-15.0-2.16","64328","List2B","white","woman","","","","null","","","","","","","","",""
"5608.700000000186","","","survey-text","215","1060903","0.0-15.0-3.16","64328","List2B","white","woman","","","","","{""Q0"":""luke is being opposed by mike""}","<img src=""stim_listB/oppose6.gif""style=""height:400px;""></stim_listB>","is being opposed by","","","","","",""
"null","<div style=""font-size:60px;"">+</div>","","html-keyboard-response","216","1061411","0.0-15.0-0.17","64328","List2B","white","woman","","","","null","","","","","","","","",""
"null","<img src=""stim_listB/copy8.gif""style=""height:400px;""></stim_listB>","","html-keyboard-response","217","1063415","0.0-15.0-1.17","64328","List2B","white","woman","","","","null","","","","","","","","",""
"null","is being copied by","","html-keyboard-response","218","1065418","0.0-15.0-2.17","64328","List2B","white","woman","","","","null","","","","","","","","",""
"4939.300000000047","","","survey-text","219","1070367","0.0-15.0-3.17","64328","List2B","white","woman","","","","","{""Q0"":""ruth is being copied by kate""}","<img src=""stim_listB/copy8.gif""style=""height:400px;""></stim_listB>","is being copied by","","","","","",""
"null","<div style=""font-size:60px;"">+</div>","","html-keyboard-response","220","1070870","0.0-15.0-0.18","64328","List2B","white","woman","","","","null","","","","","","","","",""
"null","<img src=""stim_listB/kiss5.gif""style=""height:400px;""></stim_listB>","","html-keyboard-response","221","1072874","0.0-15.0-1.18","64328","List2B","white","woman","","","","null","","","","","","","","",""
"null","is kissing","","html-keyboard-response","222","1074879","0.0-15.0-2.18","64328","List2B","white","woman","","","","null","","","","","","","","",""
"4202.899999999907","","","survey-text","223","1079094","0.0-15.0-3.18","64328","List2B","white","woman","","","","","{""Q0"":""fred is kissing luke""}","<img src=""stim_listB/kiss5.gif""style=""height:400px;""></stim_listB>","is kissing","","","","","",""
"null","<div style=""font-size:60px;"">+</div>","","html-keyboard-response","224","1079598","0.0-15.0-0.19","64328","List2B","white","woman","","","","null","","","","","","","","",""
"null","<img src=""stim_listB/copy4.gif""style=""height:400px;""></stim_listB>","","html-keyboard-response","225","1081602","0.0-15.0-1.19","64328","List2B","white","woman","","","","null","","","","","","","","",""
"null","is being copied by","","html-keyboard-response","226","1083607","0.0-15.0-2.19","64328","List2B","white","woman","","","","null","","","","","","","","",""
"5162.40000000014","","","survey-text","227","1088785","0.0-15.0-3.19","64328","List2B","white","woman","","","","","{""Q0"":""fred is being copied by kate""}","<img src=""stim_listB/copy4.gif""style=""height:400px;""></stim_listB>","is being copied by","","","","","",""
"16755.699999999953","<img src='img/portrait_matrix_list2.jpg' style='width:900px;height:500px;''></img><p>If you have memorised all the portraits and names and are ready to start, press Continue.</p><p><strong>Please note: Your memory of these faces will be tested 4 times during this experiment.</strong></p>","0","html-button-response","228","1105548","0.0-16.0-0.0","64328","List2B","white","woman","","","","","","","","","","","","",""
"5928.90000000014","<img src=""portrait/BW1.jpg""style=""height:400px;""></img>","0","html-button-response","229","1112491","0.0-16.0-1.0","64328","List2B","white","woman","","true","0","","","","","","","","","",""
"null","CORRECT","","html-keyboard-response","230","1114013","0.0-16.0-2.0-0.0","64328","List2B","white","woman","","","","null","","","","","","","","",""
"2895.8000000000466","<img src=""portrait/WM2.jpg""style=""height:400px;""></img>","7","html-button-response","231","1116914","0.0-16.0-4.0","64328","List2B","white","woman","","true","7","","","","","","","","","",""
"null","CORRECT","","html-keyboard-response","232","1118422","0.0-16.0-5.0-0.0","64328","List2B","white","woman","","","","null","","","","","","","","",""
"1637.4000000001397","<img src=""portrait/WM1.jpg""style=""height:400px;""></img>","6","html-button-response","233","1120069","0.0-16.0-7.0","64328","List2B","white","woman","","true","6","","","","","","","","","",""
"null","CORRECT","","html-keyboard-response","234","1121572","0.0-16.0-8.0-0.0","64328","List2B","white","woman","","","","null","","","","","","","","",""
"1602.8000000000466","<img src=""portrait/BM2.jpg""style=""height:400px;""></img>","5","html-button-response","235","1123183","0.0-16.0-10.0","64328","List2B","white","woman","","true","5","","","","","","","","","",""
"null","CORRECT","","html-keyboard-response","236","1124693","0.0-16.0-11.0-0.0","64328","List2B","white","woman","","","","null","","","","","","","","",""
"1831.9000000001397","<img src=""portrait/BM1.jpg""style=""height:400px;""></img>","4","html-button-response","237","1126539","0.0-16.0-13.0","64328","List2B","white","woman","","true","4","","","","","","","","","",""
"null","CORRECT","","html-keyboard-response","238","1128044","0.0-16.0-14.0-0.0","64328","List2B","white","woman","","","","null","","","","","","","","",""
"1395.1999999999534","<img src=""portrait/WW2.jpg""style=""height:400px;""></img>","3","html-button-response","239","1129449","0.0-16.0-16.0","64328","List2B","white","woman","","true","3","","","","","","","","","",""
"null","CORRECT","","html-keyboard-response","240","1130955","0.0-16.0-17.0-0.0","64328","List2B","white","woman","","","","null","","","","","","","","",""
"6694.100000000093","<img src=""portrait/BW2.jpg""style=""height:400px;""></img>","2","html-button-response","241","1137656","0.0-16.0-19.0","64328","List2B","white","woman","","true","2","","","","","","","","","",""
"null","CORRECT","","html-keyboard-response","242","1139160","0.0-16.0-20.0-0.0","64328","List2B","white","woman","","","","null","","","","","","","","",""
"1486.6999999999534","<img src=""portrait/WW1.jpg""style=""height:400px;""></img>","1","html-button-response","243","1140656","0.0-16.0-22.0","64328","List2B","white","woman","","true","1","","","","","","","","","",""
"null","CORRECT","","html-keyboard-response","244","1142164","0.0-16.0-23.0-0.0","64328","List2B","white","woman","","","","null","","","","","","","","",""
"1472","<p>You got 8 out of 8 right first time. Press Continue.</p>","0","html-button-response","245","1143647","0.0-16.0-25.0","64328","List2B","white","woman","","","","","","","","","","","","",""
"null","<div style=""font-size:60px;"">+</div>","","html-keyboard-response","246","1145161","0.0-17.0-0.0","64328","List2B","white","woman","","","","null","","","","","","","","",""
"null","<img src=""stim_listB/look6.gif""style=""height:400px;""></stim_listB>","","html-keyboard-response","247","1147169","0.0-17.0-1.0","64328","List2B","white","woman","","","","null","","","","","","","","",""
"null","is being looked at by","","html-keyboard-response","248","1149176","0.0-17.0-2.0","64328","List2B","white","woman","","","","null","","","","","","","","",""
"7893.300000000047","","","survey-text","249","1157083","0.0-17.0-3.0","64328","List2B","white","woman","","","","","{""Q0"":""dave is being looked at by mike""}","<img src=""stim_listB/look6.gif""style=""height:400px;""></stim_listB>","is being looked at by","","","","","",""
"null","<div style=""font-size:60px;"">+</div>","","html-keyboard-response","250","1157591","0.0-17.0-0.1","64328","List2B","white","woman","","","","null","","","","","","","","",""
"null","<img src=""stim_listB/shout1.gif""style=""height:400px;""></stim_listB>","","html-keyboard-response","251","1159600","0.0-17.0-1.1","64328","List2B","white","woman","","","","null","","","","","","","","",""
"null","is shouting at","","html-keyboard-response","252","1161604","0.0-17.0-2.1","64328","List2B","white","woman","","","","null","","","","","","","","",""
"4863.100000000093","","","survey-text","253","1166475","0.0-17.0-3.1","64328","List2B","white","woman","","","","","{""Q0"":""ruth is shouting at luke""}","<img src=""stim_listB/shout1.gif""style=""height:400px;""></stim_listB>","is shouting at","","","","","",""
"null","<div style=""font-size:60px;"">+</div>","","html-keyboard-response","254","1166980","0.0-17.0-0.2","64328","List2B","white","woman","","","","null","","","","","","","","",""
"null","<img src=""stim_listB/look3.gif""style=""height:400px;""></stim_listB>","","html-keyboard-response","255","1168989","0.0-17.0-1.2","64328","List2B","white","woman","","","","null","","","","","","","","",""
"null","is looking at","","html-keyboard-response","256","1170996","0.0-17.0-2.2","64328","List2B","white","woman","","","","null","","","","","","","","",""
"3228.5","","","survey-text","257","1174245","0.0-17.0-3.2","64328","List2B","white","woman","","","","","{""Q0"":""beth is looking at fred""}","<img src=""stim_listB/look3.gif""style=""height:400px;""></stim_listB>","is looking at","","","","","",""
"null","<div style=""font-size:60px;"">+</div>","","html-keyboard-response","258","1174750","0.0-17.0-0.3","64328","List2B","white","woman","","","","null","","","","","","","","",""
"null","<img src=""stim_listB/kiss2.gif""style=""height:400px;""></stim_listB>","","html-keyboard-response","259","1176756","0.0-17.0-1.3","64328","List2B","white","woman","","","","null","","","","","","","","",""
"null","is being kissed by","","html-keyboard-response","260","1178761","0.0-17.0-2.3","64328","List2B","white","woman","","","","null","","","","","","","","",""
"5549.600000000093","","","survey-text","261","1184327","0.0-17.0-3.3","64328","List2B","white","woman","","","","","{""Q0"":""dave is being kissed by jane""}","<img src=""stim_listB/kiss2.gif""style=""height:400px;""></stim_listB>","is being kissed by","","","","","",""
"null","<div style=""font-size:60px;"">+</div>","","html-keyboard-response","262","1184833","0.0-17.0-0.4","64328","List2B","white","woman","","","","null","","","","","","","","",""
"null","<img src=""stim_listB/hug7.gif""style=""height:400px;""></stim_listB>","","html-keyboard-response","263","1186847","0.0-17.0-1.4","64328","List2B","white","woman","","","","null","","","","","","","","",""
"null","is hugging","","html-keyboard-response","264","1188855","0.0-17.0-2.4","64328","List2B","white","woman","","","","null","","","","","","","","",""
"4475.100000000093","","","survey-text","265","1193346","0.0-17.0-3.4","64328","List2B","white","woman","","","","","{""Q0"":""ruth is hugging beth""}","<img src=""stim_listB/hug7.gif""style=""height:400px;""></stim_listB>","is hugging","","","","","",""
"null","<div style=""font-size:60px;"">+</div>","","html-keyboard-response","266","1193852","0.0-17.0-0.5","64328","List2B","white","woman","","","","null","","","","","","","","",""
"null","<img src=""stim_listB/look7.gif""style=""height:400px;""></stim_listB>","","html-keyboard-response","267","1195861","0.0-17.0-1.5","64328","List2B","white","woman","","","","null","","","","","","","","",""
"null","is looking at","","html-keyboard-response","268","1197870","0.0-17.0-2.5","64328","List2B","white","woman","","","","null","","","","","","","","",""
"5198.100000000093","","","survey-text","269","1203083","0.0-17.0-3.5","64328","List2B","white","woman","","","","","{""Q0"":""beth is looking at ruth""}","<img src=""stim_listB/look7.gif""style=""height:400px;""></stim_listB>","is looking at","","","","","",""
"null","<div style=""font-size:60px;"">+</div>","","html-keyboard-response","270","1203587","0.0-17.0-0.6","64328","List2B","white","woman","","","","null","","","","","","","","",""
"null","<img src=""stim_listB/oppose5.gif""style=""height:400px;""></stim_listB>","","html-keyboard-response","271","1205597","0.0-17.0-1.6","64328","List2B","white","woman","","","","null","","","","","","","","",""
"null","is opposing","","html-keyboard-response","272","1207605","0.0-17.0-2.6","64328","List2B","white","woman","","","","null","","","","","","","","",""
"4117.5","","","survey-text","273","1211739","0.0-17.0-3.6","64328","List2B","white","woman","","","","","{""Q0"":""dave is opposing mike""}","<img src=""stim_listB/oppose5.gif""style=""height:400px;""></stim_listB>","is opposing","","","","","",""
"null","<div style=""font-size:60px;"">+</div>","","html-keyboard-response","274","1212243","0.0-17.0-0.7","64328","List2B","white","woman","","","","null","","","","","","","","",""
"null","<img src=""stim_listB/seduce1.gif""style=""height:400px;""></stim_listB>","","html-keyboard-response","275","1214253","0.0-17.0-1.7","64328","List2B","white","woman","","","","null","","","","","","","","",""
"null","is seducing","","html-keyboard-response","276","1216258","0.0-17.0-2.7","64328","List2B","white","woman","","","","null","","","","","","","","",""
"3462","","","survey-text","277","1219733","0.0-17.0-3.7","64328","List2B","white","woman","","","","","{""Q0"":""jane is seducing luke""}","<img src=""stim_listB/seduce1.gif""style=""height:400px;""></stim_listB>","is seducing","","","","","",""
"null","<div style=""font-size:60px;"">+</div>","","html-keyboard-response","278","1220238","0.0-17.0-0.8","64328","List2B","white","woman","","","","null","","","","","","","","",""
"null","<img src=""stim_listB/shout3.gif""style=""height:400px;""></stim_listB>","","html-keyboard-response","279","1222247","0.0-17.0-1.8","64328","List2B","white","woman","","","","null","","","","","","","","",""
"null","is shouting at","","html-keyboard-response","280","1224252","0.0-17.0-2.8","64328","List2B","white","woman","","","","null","","","","","","","","",""
"5453.9000000003725","","","survey-text","281","1229720","0.0-17.0-3.8","64328","List2B","white","woman","","","","","{""Q0"":""beth is shouting at fred""}","<img src=""stim_listB/shout3.gif""style=""height:400px;""></stim_listB>","is shouting at","","","","","",""
"null","<div style=""font-size:60px;"">+</div>","","html-keyboard-response","282","1230224","0.0-17.0-0.9","64328","List2B","white","woman","","","","null","","","","","","","","",""
"null","<img src=""stim_listB/oppose1.gif""style=""height:400px;""></stim_listB>","","html-keyboard-response","283","1232233","0.0-17.0-1.9","64328","List2B","white","woman","","","","null","","","","","","","","",""
"null","is opposing","","html-keyboard-response","284","1234238","0.0-17.0-2.9","64328","List2B","white","woman","","","","null","","","","","","","","",""
"4951.800000000279","","","survey-text","285","1239199","0.0-17.0-3.9","64328","List2B","white","woman","","","","","{""Q0"":""dave is opposing jane""}","<img src=""stim_listB/oppose1.gif""style=""height:400px;""></stim_listB>","is opposing","","","","","",""
"null","<div style=""font-size:60px;"">+</div>","","html-keyboard-response","286","1239703","0.0-17.0-0.10","64328","List2B","white","woman","","","","null","","","","","","","","",""
"null","<img src=""stim_listB/hug5.gif""style=""height:400px;""></stim_listB>","","html-keyboard-response","287","1241713","0.0-17.0-1.10","64328","List2B","white","woman","","","","null","","","","","","","","",""
"null","is hugging","","html-keyboard-response","288","1243718","0.0-17.0-2.10","64328","List2B","white","woman","","","","null","","","","","","","","",""
"3535.5","","","survey-text","289","1247270","0.0-17.0-3.10","64328","List2B","white","woman","","","","","{""Q0"":""fred is hugging luke""}","<img src=""stim_listB/hug5.gif""style=""height:400px;""></stim_listB>","is hugging","","","","","",""
"null","<div style=""font-size:60px;"">+</div>","","html-keyboard-response","290","1247772","0.0-17.0-0.11","64328","List2B","white","woman","","","","null","","","","","","","","",""
"null","<img src=""stim_listB/greet7.gif""style=""height:400px;""></stim_listB>","","html-keyboard-response","291","1249777","0.0-17.0-1.11","64328","List2B","white","woman","","","","null","","","","","","","","",""
"null","is greeting","","html-keyboard-response","292","1251780","0.0-17.0-2.11","64328","List2B","white","woman","","","","null","","","","","","","","",""
"2624","","","survey-text","293","1254413","0.0-17.0-3.11","64328","List2B","white","woman","","","","","{""Q0"":""jane is greeting beth""}","<img src=""stim_listB/greet7.gif""style=""height:400px;""></stim_listB>","is greeting","","","","","",""
"null","<div style=""font-size:60px;"">+</div>","","html-keyboard-response","294","1254922","0.0-17.0-0.12","64328","List2B","white","woman","","","","null","","","","","","","","",""
"null","<img src=""stim_listB/copy3.gif""style=""height:400px;""></stim_listB>","","html-keyboard-response","295","1256928","0.0-17.0-1.12","64328","List2B","white","woman","","","","null","","","","","","","","",""
"null","is copying","","html-keyboard-response","296","1258934","0.0-17.0-2.12","64328","List2B","white","woman","","","","null","","","","","","","","",""
"6651.899999999907","","","survey-text","297","1265602","0.0-17.0-3.12","64328","List2B","white","woman","","","","","{""Q0"":""beth is copying mike""}","<img src=""stim_listB/copy3.gif""style=""height:400px;""></stim_listB>","is copying","","","","","",""
"null","<div style=""font-size:60px;"">+</div>","","html-keyboard-response","298","1266107","0.0-17.0-0.13","64328","List2B","white","woman","","","","null","","","","","","","","",""
"null","<img src=""stim_listB/greet3.gif""style=""height:400px;""></stim_listB>","","html-keyboard-response","299","1268117","0.0-17.0-1.13","64328","List2B","white","woman","","","","null","","","","","","","","",""
"null","is greeting","","html-keyboard-response","300","1270123","0.0-17.0-2.13","64328","List2B","white","woman","","","","null","","","","","","","","",""
"3020.7000000001863","","","survey-text","301","1273156","0.0-17.0-3.13","64328","List2B","white","woman","","","","","{""Q0"":""beth is greeting mike""}","<img src=""stim_listB/greet3.gif""style=""height:400px;""></stim_listB>","is greeting","","","","","",""
"null","<div style=""font-size:60px;"">+</div>","","html-keyboard-response","302","1273662","0.0-17.0-0.14","64328","List2B","white","woman","","","","null","","","","","","","","",""
"null","<img src=""stim_listB/challenge1.gif""style=""height:400px;""></stim_listB>","","html-keyboard-response","303","1275667","0.0-17.0-1.14","64328","List2B","white","woman","","","","null","","","","","","","","",""
"null","is challenging","","html-keyboard-response","304","1277672","0.0-17.0-2.14","64328","List2B","white","woman","","","","null","","","","","","","","",""
"6752","","","survey-text","305","1284440","0.0-17.0-3.14","64328","List2B","white","woman","","","","","{""Q0"":""ruth is challenging dave""}","<img src=""stim_listB/challenge1.gif""style=""height:400px;""></stim_listB>","is challenging","","","","","",""
"null","<div style=""font-size:60px;"">+</div>","","html-keyboard-response","306","1284945","0.0-17.0-0.15","64328","List2B","white","woman","","","","null","","","","","","","","",""
"null","<img src=""stim_listB/greet5.gif""style=""height:400px;""></stim_listB>","","html-keyboard-response","307","1286953","0.0-17.0-1.15","64328","List2B","white","woman","","","","null","","","","","","","","",""
"null","is greeting","","html-keyboard-response","308","1288957","0.0-17.0-2.15","64328","List2B","white","woman","","","","null","","","","","","","","",""
"4405.399999999907","","","survey-text","309","1293376","0.0-17.0-3.15","64328","List2B","white","woman","","","","","{""Q0"":""fred is greeting dave""}","<img src=""stim_listB/greet5.gif""style=""height:400px;""></stim_listB>","is greeting","","","","","",""
"null","<div style=""font-size:60px;"">+</div>","","html-keyboard-response","310","1293881","0.0-17.0-0.16","64328","List2B","white","woman","","","","null","","","","","","","","",""
"null","<img src=""stim_listB/hug1.gif""style=""height:400px;""></stim_listB>","","html-keyboard-response","311","1295891","0.0-17.0-1.16","64328","List2B","white","woman","","","","null","","","","","","","","",""
"null","is hugging","","html-keyboard-response","312","1297895","0.0-17.0-2.16","64328","List2B","white","woman","","","","null","","","","","","","","",""
"3232.100000000093","","","survey-text","313","1301140","0.0-17.0-3.16","64328","List2B","white","woman","","","","","{""Q0"":""ruth is hugging luke""}","<img src=""stim_listB/hug1.gif""style=""height:400px;""></stim_listB>","is hugging","","","","","",""
"null","<div style=""font-size:60px;"">+</div>","","html-keyboard-response","314","1301644","0.0-17.0-0.17","64328","List2B","white","woman","","","","null","","","","","","","","",""
"null","<img src=""stim_listB/touch5.gif""style=""height:400px;""></stim_listB>","","html-keyboard-response","315","1303651","0.0-17.0-1.17","64328","List2B","white","woman","","","","null","","","","","","","","",""
"null","is touching","","html-keyboard-response","316","1305657","0.0-17.0-2.17","64328","List2B","white","woman","","","","null","","","","","","","","",""
"2634.899999999907","","","survey-text","317","1308308","0.0-17.0-3.17","64328","List2B","white","woman","","","","","{""Q0"":""mike is touching dave""}","<img src=""stim_listB/touch5.gif""style=""height:400px;""></stim_listB>","is touching","","","","","",""
"null","<div style=""font-size:60px;"">+</div>","","html-keyboard-response","318","1308814","0.0-17.0-0.18","64328","List2B","white","woman","","","","null","","","","","","","","",""
"null","<img src=""stim_listB/hug4.gif""style=""height:400px;""></stim_listB>","","html-keyboard-response","319","1310825","0.0-17.0-1.18","64328","List2B","white","woman","","","","null","","","","","","","","",""
"null","is being hugged by","","html-keyboard-response","320","1312833","0.0-17.0-2.18","64328","List2B","white","woman","","","","null","","","","","","","","",""
"7763.600000000093","","","survey-text","321","1320611","0.0-17.0-3.18","64328","List2B","white","woman","","","","","{""Q0"":""kate is being hugged by mike""}","<img src=""stim_listB/hug4.gif""style=""height:400px;""></stim_listB>","is being hugged by","","","","","",""
"null","<div style=""font-size:60px;"">+</div>","","html-keyboard-response","322","1321117","0.0-17.0-0.19","64328","List2B","white","woman","","","","null","","","","","","","","",""
"null","<img src=""stim_listB/greet8.gif""style=""height:400px;""></stim_listB>","","html-keyboard-response","323","1323123","0.0-17.0-1.19","64328","List2B","white","woman","","","","null","","","","","","","","",""
"null","is being greeted by","","html-keyboard-response","324","1325129","0.0-17.0-2.19","64328","List2B","white","woman","","","","null","","","","","","","","",""
"5443","","","survey-text","325","1330587","0.0-17.0-3.19","64328","List2B","white","woman","","","","","{""Q0"":""ruth is being greeted by kate""}","<img src=""stim_listB/greet8.gif""style=""height:400px;""></stim_listB>","is being greeted by","","","","","",""
"3939.7000000001863","<img src='img/portrait_matrix_list2.jpg' style='width:900px;height:500px;''></img><p>If you have memorised all the portraits and names and are ready to start, press Continue.</p><p><strong>Please note: Your memory of these faces will be tested 4 times during this experiment.</strong></p>","0","html-button-response","326","1334533","0.0-18.0-0.0","64328","List2B","white","woman","","","","","","","","","","","","",""
"2273.399999999907","<img src=""portrait/WM1.jpg""style=""height:400px;""></img>","6","html-button-response","327","1337821","0.0-18.0-1.0","64328","List2B","white","woman","","true","6","","","","","","","","","",""
"null","CORRECT","","html-keyboard-response","328","1339330","0.0-18.0-2.0-0.0","64328","List2B","white","woman","","","","null","","","","","","","","",""
"1549.7999999998137","<img src=""portrait/BM1.jpg""style=""height:400px;""></img>","4","html-button-response","329","1340886","0.0-18.0-4.0","64328","List2B","white","woman","","true","4","","","","","","","","","",""
"null","CORRECT","","html-keyboard-response","330","1342391","0.0-18.0-5.0-0.0","64328","List2B","white","woman","","","","null","","","","","","","","",""
"1679.1000000000931","<img src=""portrait/BW1.jpg""style=""height:400px;""></img>","0","html-button-response","331","1344079","0.0-18.0-7.0","64328","List2B","white","woman","","true","0","","","","","","","","","",""
"null","CORRECT","","html-keyboard-response","332","1345585","0.0-18.0-8.0-0.0","64328","List2B","white","woman","","","","null","","","","","","","","",""
"1009.5","<img src=""portrait/WW1.jpg""style=""height:400px;""></img>","1","html-button-response","333","1346609","0.0-18.0-10.0","64328","List2B","white","woman","","true","1","","","","","","","","","",""
"null","CORRECT","","html-keyboard-response","334","1348119","0.0-18.0-11.0-0.0","64328","List2B","white","woman","","","","null","","","","","","","","",""
"3904.7999999998137","<img src=""portrait/WM2.jpg""style=""height:400px;""></img>","7","html-button-response","335","1352038","0.0-18.0-13.0","64328","List2B","white","woman","","true","7","","","","","","","","","",""
"null","CORRECT","","html-keyboard-response","336","1353548","0.0-18.0-14.0-0.0","64328","List2B","white","woman","","","","null","","","","","","","","",""
"4641.600000000093","<img src=""portrait/BW2.jpg""style=""height:400px;""></img>","2","html-button-response","337","1358208","0.0-18.0-16.0","64328","List2B","white","woman","","true","2","","","","","","","","","",""
"null","CORRECT","","html-keyboard-response","338","1359713","0.0-18.0-17.0-0.0","64328","List2B","white","woman","","","","null","","","","","","","","",""
"2220.399999999907","<img src=""portrait/BM2.jpg""style=""height:400px;""></img>","5","html-button-response","339","1361947","0.0-18.0-19.0","64328","List2B","white","woman","","true","5","","","","","","","","","",""
"null","CORRECT","","html-keyboard-response","340","1363456","0.0-18.0-20.0-0.0","64328","List2B","white","woman","","","","null","","","","","","","","",""
"1256.2999999998137","<img src=""portrait/WW2.jpg""style=""height:400px;""></img>","3","html-button-response","341","1364725","0.0-18.0-22.0","64328","List2B","white","woman","","true","3","","","","","","","","","",""
"null","CORRECT","","html-keyboard-response","342","1366235","0.0-18.0-23.0-0.0","64328","List2B","white","woman","","","","null","","","","","","","","",""
"984","<p>You got 8 out of 8 right first time. Press Continue.</p>","0","html-button-response","343","1367231","0.0-18.0-25.0","64328","List2B","white","woman","","","","","","","","","","","","",""
"null","<div style=""font-size:60px;"">+</div>","","html-keyboard-response","344","1368743","0.0-19.0-0.0","64328","List2B","white","woman","","","","null","","","","","","","","",""
"null","<img src=""stim_listB/challenge4.gif""style=""height:400px;""></stim_listB>","","html-keyboard-response","345","1370756","0.0-19.0-1.0","64328","List2B","white","woman","","","","null","","","","","","","","",""
"null","is being challenged by","","html-keyboard-response","346","1372763","0.0-19.0-2.0","64328","List2B","white","woman","","","","null","","","","","","","","",""
"5635.800000000279","","","survey-text","347","1378418","0.0-19.0-3.0","64328","List2B","white","woman","","","","","{""Q0"":""fred is being challenged by kate""}","<img src=""stim_listB/challenge4.gif""style=""height:400px;""></stim_listB>","is being challenged by","","","","","",""
"null","<div style=""font-size:60px;"">+</div>","","html-keyboard-response","348","1378925","0.0-19.0-0.1","64328","List2B","white","woman","","","","null","","","","","","","","",""
"null","<img src=""stim_listB/challenge2.gif""style=""height:400px;""></stim_listB>","","html-keyboard-response","349","1380936","0.0-19.0-1.1","64328","List2B","white","woman","","","","null","","","","","","","","",""
"null","is being challenged by","","html-keyboard-response","350","1382942","0.0-19.0-2.1","64328","List2B","white","woman","","","","null","","","","","","","","",""
"5153.700000000186","","","survey-text","351","1388112","0.0-19.0-3.1","64328","List2B","white","woman","","","","","{""Q0"":""jane is being challenged by luke""}","<img src=""stim_listB/challenge2.gif""style=""height:400px;""></stim_listB>","is being challenged by","","","","","",""
"null","<div style=""font-size:60px;"">+</div>","","html-keyboard-response","352","1388621","0.0-19.0-0.2","64328","List2B","white","woman","","","","null","","","","","","","","",""
"null","<img src=""stim_listB/touch1.gif""style=""height:400px;""></stim_listB>","","html-keyboard-response","353","1390630","0.0-19.0-1.2","64328","List2B","white","woman","","","","null","","","","","","","","",""
"null","is touching","","html-keyboard-response","354","1392636","0.0-19.0-2.2","64328","List2B","white","woman","","","","null","","","","","","","","",""
"3951.2000000001863","","","survey-text","355","1396599","0.0-19.0-3.2","64328","List2B","white","woman","","","","","{""Q0"":""jane is touching dave""}","<img src=""stim_listB/touch1.gif""style=""height:400px;""></stim_listB>","is touching","","","","","",""
"null","<div style=""font-size:60px;"">+</div>","","html-keyboard-response","356","1397106","0.0-19.0-0.3","64328","List2B","white","woman","","","","null","","","","","","","","",""
"null","<img src=""stim_listB/challenge5.gif""style=""height:400px;""></stim_listB>","","html-keyboard-response","357","1399116","0.0-19.0-1.3","64328","List2B","white","woman","","","","null","","","","","","","","",""
"null","is challenging","","html-keyboard-response","358","1401124","0.0-19.0-2.3","64328","List2B","white","woman","","","","null","","","","","","","","",""
"4732.100000000093","","","survey-text","359","1405868","0.0-19.0-3.3","64328","List2B","white","woman","","","","","{""Q0"":""fred is challenging dave""}","<img src=""stim_listB/challenge5.gif""style=""height:400px;""></stim_listB>","is challenging","","","","","",""
"null","<div style=""font-size:60px;"">+</div>","","html-keyboard-response","360","1406375","0.0-19.0-0.4","64328","List2B","white","woman","","","","null","","","","","","","","",""
"null","<img src=""stim_listB/shout5.gif""style=""height:400px;""></stim_listB>","","html-keyboard-response","361","1408384","0.0-19.0-1.4","64328","List2B","white","woman","","","","null","","","","","","","","",""
"null","is shouting at","","html-keyboard-response","362","1410391","0.0-19.0-2.4","64328","List2B","white","woman","","","","null","","","","","","","","",""
"11542.100000000093","","","survey-text","363","1421949","0.0-19.0-3.4","64328","List2B","white","woman","","","","","{""Q0"":""fred is shouting at dave""}","<img src=""stim_listB/shout5.gif""style=""height:400px;""></stim_listB>","is shouting at","","","","","",""
"null","<div style=""font-size:60px;"">+</div>","","html-keyboard-response","364","1422453","0.0-19.0-0.5","64328","List2B","white","woman","","","","null","","","","","","","","",""
"null","<img src=""stim_listB/greet4.gif""style=""height:400px;""></stim_listB>","","html-keyboard-response","365","1424458","0.0-19.0-1.5","64328","List2B","white","woman","","","","null","","","","","","","","",""
"null","is being greeted by","","html-keyboard-response","366","1426463","0.0-19.0-2.5","64328","List2B","white","woman","","","","null","","","","","","","","",""
"7048.5","","","survey-text","367","1433526","0.0-19.0-3.5","64328","List2B","white","woman","","","","","{""Q0"":""fred is being greeted by kate""}","<img src=""stim_listB/greet4.gif""style=""height:400px;""></stim_listB>","is being greeted by","","","","","",""
"null","<div style=""font-size:60px;"">+</div>","","html-keyboard-response","368","1434033","0.0-19.0-0.6","64328","List2B","white","woman","","","","null","","","","","","","","",""
"null","<img src=""stim_listB/greet6.gif""style=""height:400px;""></stim_listB>","","html-keyboard-response","369","1436044","0.0-19.0-1.6","64328","List2B","white","woman","","","","null","","","","","","","","",""
"null","is being greeted by","","html-keyboard-response","370","1438052","0.0-19.0-2.6","64328","List2B","white","woman","","","","null","","","","","","","","",""
"5224.699999999721","","","survey-text","371","1443292","0.0-19.0-3.6","64328","List2B","white","woman","","","","","{""Q0"":""luke is being greeted by mike""}","<img src=""stim_listB/greet6.gif""style=""height:400px;""></stim_listB>","is being greeted by","","","","","",""
"null","<div style=""font-size:60px;"">+</div>","","html-keyboard-response","372","1443796","0.0-19.0-0.7","64328","List2B","white","woman","","","","null","","","","","","","","",""
"null","<img src=""stim_listB/look1.gif""style=""height:400px;""></stim_listB>","","html-keyboard-response","373","1445803","0.0-19.0-1.7","64328","List2B","white","woman","","","","null","","","","","","","","",""
"null","is looking at","","html-keyboard-response","374","1447808","0.0-19.0-2.7","64328","List2B","white","woman","","","","null","","","","","","","","",""
"3756","","","survey-text","375","1451575","0.0-19.0-3.7","64328","List2B","white","woman","","","","","{""Q0"":""ruth is looking at luke""}","<img src=""stim_listB/look1.gif""style=""height:400px;""></stim_listB>","is looking at","","","","","",""
"null","<div style=""font-size:60px;"">+</div>","","html-keyboard-response","376","1452079","0.0-19.0-0.8","64328","List2B","white","woman","","","","null","","","","","","","","",""
"null","<img src=""stim_listB/kiss8.gif""style=""height:400px;""></stim_listB>","","html-keyboard-response","377","1454089","0.0-19.0-1.8","64328","List2B","white","woman","","","","null","","","","","","","","",""
"null","is being kissed by","","html-keyboard-response","378","1456094","0.0-19.0-2.8","64328","List2B","white","woman","","","","null","","","","","","","","",""
"6155.5","","","survey-text","379","1462261","0.0-19.0-3.8","64328","List2B","white","woman","","","","","{""Q0"":""kate is being kissed by jane""}","<img src=""stim_listB/kiss8.gif""style=""height:400px;""></stim_listB>","is being kissed by","","","","","",""
"null","<div style=""font-size:60px;"">+</div>","","html-keyboard-response","380","1462768","0.0-19.0-0.9","64328","List2B","white","woman","","","","null","","","","","","","","",""
"null","<img src=""stim_listB/seduce7.gif""style=""height:400px;""></stim_listB>","","html-keyboard-response","381","1464777","0.0-19.0-1.9","64328","List2B","white","woman","","","","null","","","","","","","","",""
"null","is seducing","","html-keyboard-response","382","1466783","0.0-19.0-2.9","64328","List2B","white","woman","","","","null","","","","","","","","",""
"7161.100000000093","","","survey-text","383","1473960","0.0-19.0-3.9","64328","List2B","white","woman","","","","","{""Q0"":""kate is seducing ruth""}","<img src=""stim_listB/seduce7.gif""style=""height:400px;""></stim_listB>","is seducing","","","","","",""
"null","<div style=""font-size:60px;"">+</div>","","html-keyboard-response","384","1474464","0.0-19.0-0.10","64328","List2B","white","woman","","","","null","","","","","","","","",""
"null","<img src=""stim_listB/seduce3.gif""style=""height:400px;""></stim_listB>","","html-keyboard-response","385","1476473","0.0-19.0-1.10","64328","List2B","white","woman","","","","null","","","","","","","","",""
"null","is seducing","","html-keyboard-response","386","1478479","0.0-19.0-2.10","64328","List2B","white","woman","","","","null","","","","","","","","",""
"5427.5","","","survey-text","387","1483924","0.0-19.0-3.10","64328","List2B","white","woman","","","","","{""Q0"":""kate is seducing fred""}","<img src=""stim_listB/seduce3.gif""style=""height:400px;""></stim_listB>","is seducing","","","","","",""
"null","<div style=""font-size:60px;"">+</div>","","html-keyboard-response","388","1484433","0.0-19.0-0.11","64328","List2B","white","woman","","","","null","","","","","","","","",""
"null","<img src=""stim_listB/touch6.gif""style=""height:400px;""></stim_listB>","","html-keyboard-response","389","1486440","0.0-19.0-1.11","64328","List2B","white","woman","","","","null","","","","","","","","",""
"null","is being touched by","","html-keyboard-response","390","1488444","0.0-19.0-2.11","64328","List2B","white","woman","","","","null","","","","","","","","",""
"4215","","","survey-text","391","1492676","0.0-19.0-3.11","64328","List2B","white","woman","","","","","{""Q0"":""luke is being touched by fred""}","<img src=""stim_listB/touch6.gif""style=""height:400px;""></stim_listB>","is being touched by","","","","","",""
"null","<div style=""font-size:60px;"">+</div>","","html-keyboard-response","392","1493180","0.0-19.0-0.12","64328","List2B","white","woman","","","","null","","","","","","","","",""
"null","<img src=""stim_listB/oppose3.gif""style=""height:400px;""></stim_listB>","","html-keyboard-response","393","1495191","0.0-19.0-1.12","64328","List2B","white","woman","","","","null","","","","","","","","",""
"null","is opposing","","html-keyboard-response","394","1497197","0.0-19.0-2.12","64328","List2B","white","woman","","","","null","","","","","","","","",""
"5544.600000000093","","","survey-text","395","1502758","0.0-19.0-3.12","64328","List2B","white","woman","","","","","{""Q0"":""kate is opposing mike""}","<img src=""stim_listB/oppose3.gif""style=""height:400px;""></stim_listB>","is opposing","","","","","",""
"null","<div style=""font-size:60px;"">+</div>","","html-keyboard-response","396","1503262","0.0-19.0-0.13","64328","List2B","white","woman","","","","null","","","","","","","","",""
"null","<img src=""stim_listB/challenge8.gif""style=""height:400px;""></stim_listB>","","html-keyboard-response","397","1505272","0.0-19.0-1.13","64328","List2B","white","woman","","","","null","","","","","","","","",""
"null","is being challenged by","","html-keyboard-response","398","1507280","0.0-19.0-2.13","64328","List2B","white","woman","","","","null","","","","","","","","",""
"9589.200000000186","","","survey-text","399","1516881","0.0-19.0-3.13","64328","List2B","white","woman","","","","","{""Q0"":""?""}","<img src=""stim_listB/challenge8.gif""style=""height:400px;""></stim_listB>","is being challenged by","","","","","",""
"null","<div style=""font-size:60px;"">+</div>","","html-keyboard-response","400","1517385","0.0-19.0-0.14","64328","List2B","white","woman","","","","null","","","","","","","","",""
"null","<img src=""stim_listB/shout4.gif""style=""height:400px;""></stim_listB>","","html-keyboard-response","401","1519395","0.0-19.0-1.14","64328","List2B","white","woman","","","","null","","","","","","","","",""
"null","is being shouted at by","","html-keyboard-response","402","1521402","0.0-19.0-2.14","64328","List2B","white","woman","","","","null","","","","","","","","",""
"6371.299999999814","","","survey-text","403","1527786","0.0-19.0-3.14","64328","List2B","white","woman","","","","","{""Q0"":""kate is being shouted at by mike""}","<img src=""stim_listB/shout4.gif""style=""height:400px;""></stim_listB>","is being shouted at by","","","","","",""
"null","<div style=""font-size:60px;"">+</div>","","html-keyboard-response","404","1528291","0.0-19.0-0.15","64328","List2B","white","woman","","","","null","","","","","","","","",""
"null","<img src=""stim_listB/touch7.gif""style=""height:400px;""></stim_listB>","","html-keyboard-response","405","1530299","0.0-19.0-1.15","64328","List2B","white","woman","","","","null","","","","","","","","",""
"null","is touching","","html-keyboard-response","406","1532305","0.0-19.0-2.15","64328","List2B","white","woman","","","","null","","","","","","","","",""
"4018.5","","","survey-text","407","1536334","0.0-19.0-3.15","64328","List2B","white","woman","","","","","{""Q0"":""kate is touching jane""}","<img src=""stim_listB/touch7.gif""style=""height:400px;""></stim_listB>","is touching","","","","","",""
"null","<div style=""font-size:60px;"">+</div>","","html-keyboard-response","408","1536841","0.0-19.0-0.16","64328","List2B","white","woman","","","","null","","","","","","","","",""
"null","<img src=""stim_listB/greet1.gif""style=""height:400px;""></stim_listB>","","html-keyboard-response","409","1538854","0.0-19.0-1.16","64328","List2B","white","woman","","","","null","","","","","","","","",""
"null","is greeting","","html-keyboard-response","410","1540861","0.0-19.0-2.16","64328","List2B","white","woman","","","","null","","","","","","","","",""
"3679.2999999998137","","","survey-text","411","1544556","0.0-19.0-3.16","64328","List2B","white","woman","","","","","{""Q0"":""ruth is greeting dave""}","<img src=""stim_listB/greet1.gif""style=""height:400px;""></stim_listB>","is greeting","","","","","",""
"null","<div style=""font-size:60px;"">+</div>","","html-keyboard-response","412","1545063","0.0-19.0-0.17","64328","List2B","white","woman","","","","null","","","","","","","","",""
"null","<img src=""stim_listB/kiss3.gif""style=""height:400px;""></stim_listB>","","html-keyboard-response","413","1547074","0.0-19.0-1.17","64328","List2B","white","woman","","","","null","","","","","","","","",""
"null","is kissing","","html-keyboard-response","414","1549081","0.0-19.0-2.17","64328","List2B","white","woman","","","","null","","","","","","","","",""
"3061.600000000093","","","survey-text","415","1552156","0.0-19.0-3.17","64328","List2B","white","woman","","","","","{""Q0"":""beth is kissing fred""}","<img src=""stim_listB/kiss3.gif""style=""height:400px;""></stim_listB>","is kissing","","","","","",""
"null","<div style=""font-size:60px;"">+</div>","","html-keyboard-response","416","1552660","0.0-19.0-0.18","64328","List2B","white","woman","","","","null","","","","","","","","",""
"null","<img src=""stim_listB/shout6.gif""style=""height:400px;""></stim_listB>","","html-keyboard-response","417","1554668","0.0-19.0-1.18","64328","List2B","white","woman","","","","null","","","","","","","","",""
"null","is being shouted at by","","html-keyboard-response","418","1556674","0.0-19.0-2.18","64328","List2B","white","woman","","","","null","","","","","","","","",""
"7429.300000000279","","","survey-text","419","1564117","0.0-19.0-3.18","64328","List2B","white","woman","","","","","{""Q0"":""dave is being shouted at by mike""}","<img src=""stim_listB/shout6.gif""style=""height:400px;""></stim_listB>","is being shouted at by","","","","","",""
"null","<div style=""font-size:60px;"">+</div>","","html-keyboard-response","420","1564621","0.0-19.0-0.19","64328","List2B","white","woman","","","","null","","","","","","","","",""
"null","<img src=""stim_listB/oppose7.gif""style=""height:400px;""></stim_listB>","","html-keyboard-response","421","1566633","0.0-19.0-1.19","64328","List2B","white","woman","","","","null","","","","","","","","",""
"null","is opposing","","html-keyboard-response","422","1568641","0.0-19.0-2.19","64328","List2B","white","woman","","","","null","","","","","","","","",""
"3938.2000000001863","","","survey-text","423","1572591","0.0-19.0-3.19","64328","List2B","white","woman","","","","","{""Q0"":""jane is opposing kate""}","<img src=""stim_listB/oppose7.gif""style=""height:400px;""></stim_listB>","is opposing","","","","","",""
"2994.100000000093","<p>Thank you for completing that task.</p><p>The final part of this session is a questionnaire that will take about 4 minutes.</p><p>Press Continue.</p>","0","html-button-response","424","1575591","0.0-20.0","64328","List2B","white","woman","","","","","","","","","","","","",""
"34402","","","survey-text","425","1611015","0.0-21.0","64328","List2B","white","woman","","","","","{""Q0"":""24"",""Q1"":""english"",""Q2"":""english"",""Q3"":""united states"",""Q4"":""american"",""Q5"":""white"",""Q6"":""female""}","","","demographics","","","","",""
"1973.6999999997206","<p>Have you lived in the USA for the last 5 years or more?</p>","0","html-button-response","426","1612998","0.0-22.0","64328","List2B","white","woman","","","","","","","","fiveyears","","","","",""
"3050.5","<p>Move the slider to show the extent to which you agree with the following statements.</p>","0","html-button-response","427","1617057","0.0-23.0","64328","List2B","white","woman","","","","","","","","","","","","",""
"16873.700000000186","","","html-slider-response","428","1634947","0.0-24.0-0.0-0.0","64328","List2B","white","woman","","","","","","","","survey_gender","52","","","People of my gender are very similar to each other.","verysimilar"
"70393.5","","","html-slider-response","429","1705347","0.0-24.0-0.0-0.1","64328","List2B","white","woman","","","","","","","","survey_gender","19","","","Most of the friends in my life are very similar to me.","filler"
"3982.100000000093","","","html-slider-response","430","1709339","0.0-24.0-0.0-0.2","64328","List2B","white","woman","","","","","","","","survey_gender","88","","","Being around my friends gives me a good feeling.","filler"
"3875.7999999998137","","","html-slider-response","431","1713223","0.0-24.0-0.0-0.3","64328","List2B","white","woman","","","","","","","","survey_gender","86","","","It is not always easy for people to know what I am thinking.","filler"
"5037.200000000186","","","html-slider-response","432","1718269","0.0-24.0-0.0-0.4","64328","List2B","white","woman","","","","","","","","survey_gender","73","","","I feel a bond with my friends.","filler"
"4041.7999999998137","","","html-slider-response","433","1722318","0.0-24.0-0.0-0.5","64328","List2B","white","woman","","","","","","","","survey_gender","25","","","I am similar to the average person of my gender.","similar"
"7242.5999999996275","","","html-slider-response","434","1729571","0.0-24.0-0.0-0.6","64328","List2B","white","woman","","","","","","","","survey_gender","52","","","I feel solidarity with my friends.","filler"
"7122.799999999814","","","html-slider-response","435","1736700","0.0-24.0-0.0-0.7","64328","List2B","white","woman","","","","","","","","survey_gender","52","","","My friends have a lot in common with each other.","filler"
"6054.299999999814","","","html-slider-response","436","1742765","0.0-24.0-0.0-0.8","64328","List2B","white","woman","","","","","","","","survey_gender","46","","","Family is not more important to me than friendship.","filler"
"3154","","","html-slider-response","437","1745929","0.0-24.0-0.0-0.9","64328","List2B","white","woman","","","","","","","","survey_gender","72","","","I feel committed to my gender.","committed"
"4454.100000000093","","","html-slider-response","438","1750392","0.0-24.0-0.0-0.10","64328","List2B","white","woman","","","","","","","","survey_gender","45","","","I have a lot in common with the average person of my gender.","average"
"3002.5","","","html-slider-response","439","1753403","0.0-24.0-0.0-0.11","64328","List2B","white","woman","","","","","","","","survey_gender","100","","","I would say I am an animal person.","filler"
"6811.600000000093","","","html-slider-response","440","1760221","0.0-24.0-0.0-0.12","64328","List2B","white","woman","","","","","","","","survey_gender","76","","","The fact that I am my gender is an important part of my identity.","identity"
"4264.300000000279","","","html-slider-response","441","1764493","0.0-24.0-0.0-0.13","64328","List2B","white","woman","","","","","","","","survey_gender","57","","","It is pleasant to be my gender.","pleasant"
"3668.600000000093","","","html-slider-response","442","1768172","0.0-24.0-0.0-0.14","64328","List2B","white","woman","","","","","","","","survey_gender","20","","","Routine is not important to me.","filler"
"2963.1999999997206","","","html-slider-response","443","1771143","0.0-24.0-0.0-0.15","64328","List2B","white","woman","","","","","","","","survey_gender","62","","","Being my gender is an important part of how I see myself.","important"
"3880.899999999907","","","html-slider-response","444","1775031","0.0-24.0-0.0-0.16","64328","List2B","white","woman","","","","","","","","survey_gender","71","","","I feel a bond with my gender.","bond"
"3090.5999999996275","","","html-slider-response","445","1778130","0.0-24.0-0.0-0.17","64328","List2B","white","woman","","","","","","","","survey_gender","59","","","I often think about my actions.","filler"
"2092.600000000093","","","html-slider-response","446","1780229","0.0-24.0-0.0-0.18","64328","List2B","white","woman","","","","","","","","survey_gender","65","","","I am glad to have the friends that I have.","filler"
"3287","","","html-slider-response","447","1783526","0.0-24.0-0.0-0.19","64328","List2B","white","woman","","","","","","","","survey_gender","55","","","I think that my gender has a lot to be proud of.","proud"
"3412.7999999998137","","","html-slider-response","448","1786945","0.0-24.0-0.0-0.20","64328","List2B","white","woman","","","","","","","","survey_gender","55","","","I have a lot in common with my friends.","filler"
"3943.2999999998137","","","html-slider-response","449","1790895","0.0-24.0-0.0-0.21","64328","List2B","white","woman","","","","","","","","survey_gender","51","","","Being my gender gives me a good feeling.","feeling"
"3821.1999999997206","","","html-slider-response","450","1794725","0.0-24.0-0.0-0.22","64328","List2B","white","woman","","","","","","","","survey_gender","34","","","I often think about the fact that I am my gender.","often"
"3029.2000000001863","","","html-slider-response","451","1797766","0.0-24.0-0.0-0.23","64328","List2B","white","woman","","","","","","","","survey_gender","51","","","I feel solidarity with my gender.","solidarity"
"2171.0999999996275","","","html-slider-response","452","1799947","0.0-24.0-0.0-0.24","64328","List2B","white","woman","","","","","","","","survey_gender","61","","","My friends understand me.","filler"
"6921","","","html-slider-response","453","1806877","0.0-24.0-0.0-0.25","64328","List2B","white","woman","","","","","","","","survey_gender","59","","","People of my gender have a lot in common with each other.","common"
"2367.399999999907","","","html-slider-response","454","1809252","0.0-24.0-0.0-0.26","64328","List2B","white","woman","","","","","","","","survey_gender","63","","","I consider myself a highly empathetic person.","filler"
"3280.7999999998137","","","html-slider-response","455","1812542","0.0-24.0-0.0-0.27","64328","List2B","white","woman","","","","","","","","survey_gender","56","","","I am glad to be my gender.","glad"
"4257.200000000186","","","html-slider-response","456","1816807","0.0-24.0-1.0-0.0","64328","List2B","white","woman","","","","","","","","survey_race","51","","","People of my race have a lot in common with each other.","common"
"2699.600000000093","","","html-slider-response","457","1819516","0.0-24.0-1.0-0.1","64328","List2B","white","woman","","","","","","","","survey_race","51","","","I think that my race has a lot to be proud of.","proud"
"5376.300000000279","","","html-slider-response","458","1824899","0.0-24.0-1.0-0.2","64328","List2B","white","woman","","","","","","","","survey_race","52","","","I feel committed to my race.","committed"
"2841.1999999997206","","","html-slider-response","459","1827752","0.0-24.0-1.0-0.3","64328","List2B","white","woman","","","","","","","","survey_race","51","","","People of my race are very similar to each other.","verysimilar"
"4218.199999999721","","","html-slider-response","460","1831977","0.0-24.0-1.0-0.4","64328","List2B","white","woman","","","","","","","","survey_race","50","","","I have a lot in common with the average person of my race.","average"
"2818.4000000003725","","","html-slider-response","461","1834804","0.0-24.0-1.0-0.5","64328","List2B","white","woman","","","","","","","","survey_race","52","","","Being my race gives me a good feeling.","feeling"
"2527.2000000001863","","","html-slider-response","462","1837340","0.0-24.0-1.0-0.6","64328","List2B","white","woman","","","","","","","","survey_race","51","","","I feel solidarity with my race.","solidarity"
"2667.5","","","html-slider-response","463","1840014","0.0-24.0-1.0-0.7","64328","List2B","white","woman","","","","","","","","survey_race","92","","","I consider myself an introvert.","filler"
"3193.399999999907","","","html-slider-response","464","1843215","0.0-24.0-1.0-0.8","64328","List2B","white","woman","","","","","","","","survey_race","71","","","Getting older does not worry me.","filler"
"3001.899999999907","","","html-slider-response","465","1846225","0.0-24.0-1.0-0.9","64328","List2B","white","woman","","","","","","","","survey_race","50","","","I am glad to be my race.","glad"
"4210.700000000186","","","html-slider-response","466","1850445","0.0-24.0-1.0-0.10","64328","List2B","white","woman","","","","","","","","survey_race","50","","","I feel a bond with my race.","bond"
"6420.700000000186","","","html-slider-response","467","1856876","0.0-24.0-1.0-0.11","64328","List2B","white","woman","","","","","","","","survey_race","50","","","I feel solidarity with people the same age as me.","filler"
"3500.100000000093","","","html-slider-response","468","1860388","0.0-24.0-1.0-0.12","64328","List2B","white","woman","","","","","","","","survey_race","50","","","Being my race is an important part of how I see myself.","important"
"2761.399999999907","","","html-slider-response","469","1863157","0.0-24.0-1.0-0.13","64328","List2B","white","woman","","","","","","","","survey_race","50","","","I often think about the fact that I am my race.","often"
"4099.700000000186","","","html-slider-response","470","1867262","0.0-24.0-1.0-0.14","64328","List2B","white","woman","","","","","","","","survey_race","41","","","I have a lot in common with people of a similar age to me.","filler"
"3775.2999999998137","","","html-slider-response","471","1871050","0.0-24.0-1.0-0.15","64328","List2B","white","woman","","","","","","","","survey_race","50","","","I am glad to be my age.","filler"
"3041.600000000093","","","html-slider-response","472","1874099","0.0-24.0-1.0-0.16","64328","List2B","white","woman","","","","","","","","survey_race","29","","","I enjoy being in large groups.","filler"
"3825.7000000001863","","","html-slider-response","473","1877934","0.0-24.0-1.0-0.17","64328","List2B","white","woman","","","","","","","","survey_race","50","","","Being my age gives me a good feeling.","filler"
"6034.200000000186","","","html-slider-response","474","1883978","0.0-24.0-1.0-0.18","64328","List2B","white","woman","","","","","","","","survey_race","51","","","It is pleasant to be my race.","pleasant"
