"rt","stimulus","button_pressed","trial_type","trial_index","time_elapsed","internal_node_id","subject","list","ppt_race","ppt_gender","url","first_guess","correct","key_press","responses","image_type","phrase_type","test_part","response","stimulus1","stimulus2","question_type","survey_item"
"2923","Welcome to the experiment. Press Continue to begin.","0","html-button-response","0","2927","0.0-0.0","65174","List2A","white","woman","","","","","","","","","","","","",""
"13184.40000000596","","","external-html","1","17226","0.0-1.0","65174","List2A","white","woman","consent.html","","","","","","","","","","","",""
"10129.299999982119","<p>On the next page, you will see portraits of 8 people and their names.</p><p>Your first task is to take a few minutes to memorise the names of these people.</p><p>You will have to recall their names during the rest of the experiment, so it is</p><p>essential that you try to memorise these people and their names as best as you can.</p><br><p><strong>You will then be tested on your memory of these names and portraits.</strong></p><br><p>The experiment will start after you have completed this memory test.</p><br><p>Ready?</p>","0","html-button-response","2","27358","0.0-2.0","65174","List2A","white","woman","","","","","","","","","","","","",""
"252615.89999997616","<img src='img/portrait_matrix_list2.jpg' style='width:900px;height:500px;''></img><p>If you have memorised all the portraits and names and are ready to start, press Continue.</p><p><strong>Please note: Your memory of these faces will be tested 4 times during this experiment.</strong></p>","0","html-button-response","3","280972","0.0-3.0-0.0","65174","List2A","white","woman","","","","","","","","","","","","",""
"10243.399999976158","<img src=""portrait/BW2.jpg""style=""height:400px;""></img>","2","html-button-response","4","292226","0.0-3.0-1.0","65174","List2A","white","woman","","true","2","","","","","","","","","",""
"null","CORRECT","","html-keyboard-response","5","293739","0.0-3.0-2.0-0.0","65174","List2A","white","woman","","","","null","","","","","","","","",""
"6904.700000017881","<img src=""portrait/WM2.jpg""style=""height:400px;""></img>","7","html-button-response","6","300647","0.0-3.0-4.0","65174","List2A","white","woman","","true","7","","","","","","","","","",""
"null","CORRECT","","html-keyboard-response","7","302157","0.0-3.0-5.0-0.0","65174","List2A","white","woman","","","","null","","","","","","","","",""
"5581.200000017881","<img src=""portrait/BM2.jpg""style=""height:400px;""></img>","4","html-button-response","8","307741","0.0-3.0-7.0","65174","List2A","white","woman","","true","5","","","","","","","","","",""
"5061.0999999940395","<img src=""portrait/BM2.jpg""style=""height:400px;""></img>","5","html-button-response","9","313810","0.0-3.0-9.0-0.0","65174","List2A","white","woman","","false","5","","","","","","","","","",""
"null","CORRECT","","html-keyboard-response","10","315323","0.0-3.0-9.0-1.0-0.0","65174","List2A","white","woman","","","","null","","","","","","","","",""
"6226.199999988079","<img src=""portrait/WW2.jpg""style=""height:400px;""></img>","3","html-button-response","11","321552","0.0-3.0-10.0","65174","List2A","white","woman","","true","3","","","","","","","","","",""
"null","CORRECT","","html-keyboard-response","12","323064","0.0-3.0-11.0-0.0","65174","List2A","white","woman","","","","null","","","","","","","","",""
"3048.300000011921","<img src=""portrait/BW1.jpg""style=""height:400px;""></img>","0","html-button-response","13","326114","0.0-3.0-13.0","65174","List2A","white","woman","","true","0","","","","","","","","","",""
"null","CORRECT","","html-keyboard-response","14","327621","0.0-3.0-14.0-0.0","65174","List2A","white","woman","","","","null","","","","","","","","",""
"1457.5","<img src=""portrait/WW1.jpg""style=""height:400px;""></img>","1","html-button-response","15","329081","0.0-3.0-16.0","65174","List2A","white","woman","","true","1","","","","","","","","","",""
"null","CORRECT","","html-keyboard-response","16","330591","0.0-3.0-17.0-0.0","65174","List2A","white","woman","","","","null","","","","","","","","",""
"1939.5","<img src=""portrait/BM1.jpg""style=""height:400px;""></img>","4","html-button-response","17","332533","0.0-3.0-19.0","65174","List2A","white","woman","","true","4","","","","","","","","","",""
"null","CORRECT","","html-keyboard-response","18","334047","0.0-3.0-20.0-0.0","65174","List2A","white","woman","","","","null","","","","","","","","",""
"34664.5","<img src=""portrait/WM1.jpg""style=""height:400px;""></img>","6","html-button-response","19","368712","0.0-3.0-22.0","65174","List2A","white","woman","","true","6","","","","","","","","","",""
"null","CORRECT","","html-keyboard-response","20","370229","0.0-3.0-23.0-0.0","65174","List2A","white","woman","","","","null","","","","","","","","",""
"2207.7999999821186","<p>You got 7 out of 8 right first time. Press Continue.</p>","0","html-button-response","21","372439","0.0-3.0-25.0","65174","List2A","white","woman","","","","","","","","","","","","",""
"20566","As you did not score 100%, the memory game will repeat. Press Continue.","0","html-button-response","22","394009","0.0-3.0-26.0-0.0","65174","List2A","white","woman","","","","","","","","","","","","",""
"10735.699999988079","<img src='img/portrait_matrix_list2.jpg' style='width:900px;height:500px;''></img><p>If you have memorised all the portraits and names and are ready to start, press Continue.</p><p><strong>Please note: Your memory of these faces will be tested 4 times during this experiment.</strong></p>","0","html-button-response","23","405748","0.0-3.1-0.1","65174","List2A","white","woman","","","","","","","","","","","","",""
"1856.699999988079","<img src=""portrait/BW2.jpg""style=""height:400px;""></img>","2","html-button-response","24","408613","0.0-3.1-1.1","65174","List2A","white","woman","","true","2","","","","","","","","","",""
"null","CORRECT","","html-keyboard-response","25","410121","0.0-3.1-2.1-0.1","65174","List2A","white","woman","","","","null","","","","","","","","",""
"3413.800000011921","<img src=""portrait/WM2.jpg""style=""height:400px;""></img>","7","html-button-response","26","413538","0.0-3.1-4.1","65174","List2A","white","woman","","true","7","","","","","","","","","",""
"null","CORRECT","","html-keyboard-response","27","415041","0.0-3.1-5.1-0.1","65174","List2A","white","woman","","","","null","","","","","","","","",""
"41360.09999999404","<img src=""portrait/BM2.jpg""style=""height:400px;""></img>","5","html-button-response","28","456403","0.0-3.1-7.1","65174","List2A","white","woman","","true","5","","","","","","","","","",""
"null","CORRECT","","html-keyboard-response","29","457915","0.0-3.1-8.1-0.1","65174","List2A","white","woman","","","","null","","","","","","","","",""
"3698.9000000059605","<img src=""portrait/WW2.jpg""style=""height:400px;""></img>","3","html-button-response","30","461617","0.0-3.1-10.1","65174","List2A","white","woman","","true","3","","","","","","","","","",""
"null","CORRECT","","html-keyboard-response","31","463119","0.0-3.1-11.1-0.1","65174","List2A","white","woman","","","","null","","","","","","","","",""
"82534.09999999404","<img src=""portrait/BW1.jpg""style=""height:400px;""></img>","0","html-button-response","32","545653","0.0-3.1-13.1","65174","List2A","white","woman","","true","0","","","","","","","","","",""
"null","CORRECT","","html-keyboard-response","33","547157","0.0-3.1-14.1-0.1","65174","List2A","white","woman","","","","null","","","","","","","","",""
"55281.19999998808","<img src=""portrait/WW1.jpg""style=""height:400px;""></img>","1","html-button-response","34","602439","0.0-3.1-16.1","65174","List2A","white","woman","","true","1","","","","","","","","","",""
"null","CORRECT","","html-keyboard-response","35","603949","0.0-3.1-17.1-0.1","65174","List2A","white","woman","","","","null","","","","","","","","",""
"2004.199999988079","<img src=""portrait/BM1.jpg""style=""height:400px;""></img>","4","html-button-response","36","605956","0.0-3.1-19.1","65174","List2A","white","woman","","true","4","","","","","","","","","",""
"null","CORRECT","","html-keyboard-response","37","607472","0.0-3.1-20.1-0.1","65174","List2A","white","woman","","","","null","","","","","","","","",""
"11455.600000023842","<img src=""portrait/WM1.jpg""style=""height:400px;""></img>","6","html-button-response","38","618930","0.0-3.1-22.1","65174","List2A","white","woman","","true","6","","","","","","","","","",""
"null","CORRECT","","html-keyboard-response","39","620437","0.0-3.1-23.1-0.1","65174","List2A","white","woman","","","","null","","","","","","","","",""
"1222.0999999940395","<p>You got 8 out of 8 right first time. Press Continue.</p>","0","html-button-response","40","621661","0.0-3.1-25.1","65174","List2A","white","woman","","","","","","","","","","","","",""
"103539.19999998808","<p>In this experiment, you will view photographs of the people from the memory game interacting.</p><p>By using the <strong>exact</strong> phrase given <i>after</i> the photograph appears and recalling the correct names of the people in the photographs, form a sentence describing the interaction. You do not need to capitalise names.</p><p>Type your answer in the space provided. Please complete every sentence before moving onto the next trial.</p><p>You will only have a few seconds to memorise each given photograph and phrase before you can respond, so try your best to focus.</p><p>An example is given below. Press 'Continue' when you are ready.</p><img src='img/speaking_example.jpg' style='width:800px;height:460px;''></img>","0","html-button-response","41","726203","0.0-4.0","65174","List2A","white","woman","","","","","","","","","","","","",""
"3261.9000000059605","<p>Before the experiment starts, you will watch two example trials. Press 'Continue'.</p>","0","html-button-response","42","730470","0.0-5.0","65174","List2A","white","woman","","","","","","","","","","","","",""
"null","<img src='img/play_eg.gif' style='height:400px;''></img>","","html-keyboard-response","43","733481","0.0-6.0","65174","List2A","white","woman","","","","null","","","","","","","","",""
"null","<p>is playing with</p>","","html-keyboard-response","44","735486","0.0-7.0","65174","List2A","white","woman","","","","null","","","","","","","","",""
"2843.7999999821186","<p><b>Answer:</b> jane is playing with ruth</p>","0","html-button-response","45","738331","0.0-8.0","65174","List2A","white","woman","","","","","","","","","","","","",""
"null","<img src='img/dance_eg.gif' style='height:400px;''></img>","","html-keyboard-response","46","741337","0.0-9.0","65174","List2A","white","woman","","","","null","","","","","","","","",""
"null","<p>is being entertained by</p>","","html-keyboard-response","47","743343","0.0-10.0","65174","List2A","white","woman","","","","null","","","","","","","","",""
"2870.0999999940395","<p><b>Answer:</b> fred is being entertained by mike</p>","0","html-button-response","48","746215","0.0-11.0","65174","List2A","white","woman","","","","","","","","","","","","",""
"7991","<p>Ready to start the experiment?</p><br><p><strong>Remember to describe the picture using a full sentence,</strong></p><p><strong>that combines the names of the people with the <i>exact</i> phrase given.</strong></p><p><strong>To receive full payment you must do this correctly.</strong></p><p><strong> You do not need to capitalise names or use punctuation.</strong></p><br><p>Press 'Continue' to begin.</p>","0","html-button-response","49","755213","0.0-12.0","65174","List2A","white","woman","","","","","","","","","","","","",""
"null","<div style=""font-size:60px;"">+</div>","","html-keyboard-response","50","756716","0.0-13.0-0.0","65174","List2A","white","woman","","","","null","","","","","","","","",""
"null","<img src=""stim_listA/oppose2.gif""style=""height:400px;""></stim_listA>","","html-keyboard-response","51","758720","0.0-13.0-1.0","65174","List2A","white","woman","","","","null","","","","","","","","",""
"null","is being opposed by","","html-keyboard-response","52","760722","0.0-13.0-2.0","65174","List2A","white","woman","","","","null","","","","","","","","",""
"14410","","","survey-text","53","775136","0.0-13.0-3.0","65174","List2A","white","woman","","","","","{""Q0"":""Ruth is being opposed by Luke""}","<img src=""stim_listA/oppose2.gif""style=""height:400px;""></stim_listA>","is being opposed by","","","","","",""
"null","<div style=""font-size:60px;"">+</div>","","html-keyboard-response","54","775640","0.0-13.0-0.1","65174","List2A","white","woman","","","","null","","","","","","","","",""
"null","<img src=""stim_listA/copy5.gif""style=""height:400px;""></stim_listA>","","html-keyboard-response","55","777645","0.0-13.0-1.1","65174","List2A","white","woman","","","","null","","","","","","","","",""
"null","is copying","","html-keyboard-response","56","779651","0.0-13.0-2.1","65174","List2A","white","woman","","","","null","","","","","","","","",""
"12713.59999999404","","","survey-text","57","792368","0.0-13.0-3.1","65174","List2A","white","woman","","","","","{""Q0"":""Dave is copying Fred""}","<img src=""stim_listA/copy5.gif""style=""height:400px;""></stim_listA>","is copying","","","","","",""
"null","<div style=""font-size:60px;"">+</div>","","html-keyboard-response","58","792872","0.0-13.0-0.2","65174","List2A","white","woman","","","","null","","","","","","","","",""
"null","<img src=""stim_listA/oppose6.gif""style=""height:400px;""></stim_listA>","","html-keyboard-response","59","794880","0.0-13.0-1.2","65174","List2A","white","woman","","","","null","","","","","","","","",""
"null","is being opposed by","","html-keyboard-response","60","796885","0.0-13.0-2.2","65174","List2A","white","woman","","","","null","","","","","","","","",""
"10313.5","","","survey-text","61","807205","0.0-13.0-3.2","65174","List2A","white","woman","","","","","{""Q0"":""Fred is being opposed by Luke""}","<img src=""stim_listA/oppose6.gif""style=""height:400px;""></stim_listA>","is being opposed by","","","","","",""
"null","<div style=""font-size:60px;"">+</div>","","html-keyboard-response","62","807707","0.0-13.0-0.3","65174","List2A","white","woman","","","","null","","","","","","","","",""
"null","<img src=""stim_listA/touch6.gif""style=""height:400px;""></stim_listA>","","html-keyboard-response","63","809713","0.0-13.0-1.3","65174","List2A","white","woman","","","","null","","","","","","","","",""
"null","is being touched by","","html-keyboard-response","64","811717","0.0-13.0-2.3","65174","List2A","white","woman","","","","null","","","","","","","","",""
"13244.40000000596","","","survey-text","65","824965","0.0-13.0-3.3","65174","List2A","white","woman","","","","","{""Q0"":""Luke is being touched by Fred""}","<img src=""stim_listA/touch6.gif""style=""height:400px;""></stim_listA>","is being touched by","","","","","",""
"null","<div style=""font-size:60px;"">+</div>","","html-keyboard-response","66","825470","0.0-13.0-0.4","65174","List2A","white","woman","","","","null","","","","","","","","",""
"null","<img src=""stim_listA/hug8.gif""style=""height:400px;""></stim_listA>","","html-keyboard-response","67","827477","0.0-13.0-1.4","65174","List2A","white","woman","","","","null","","","","","","","","",""
"null","is being hugged by","","html-keyboard-response","68","829482","0.0-13.0-2.4","65174","List2A","white","woman","","","","null","","","","","","","","",""
"17592","","","survey-text","69","847078","0.0-13.0-3.4","65174","List2A","white","woman","","","","","{""Q0"":""Jane is being hugged by Kate""}","<img src=""stim_listA/hug8.gif""style=""height:400px;""></stim_listA>","is being hugged by","","","","","",""
"null","<div style=""font-size:60px;"">+</div>","","html-keyboard-response","70","847579","0.0-13.0-0.5","65174","List2A","white","woman","","","","null","","","","","","","","",""
"null","<img src=""stim_listA/seduce4.gif""style=""height:400px;""></stim_listA>","","html-keyboard-response","71","849586","0.0-13.0-1.5","65174","List2A","white","woman","","","","null","","","","","","","","",""
"null","is being seduced by","","html-keyboard-response","72","851589","0.0-13.0-2.5","65174","List2A","white","woman","","","","null","","","","","","","","",""
"17299.09999999404","","","survey-text","73","868892","0.0-13.0-3.5","65174","List2A","white","woman","","","","","{""Q0"":""Mike is being seduced by Beth""}","<img src=""stim_listA/seduce4.gif""style=""height:400px;""></stim_listA>","is being seduced by","","","","","",""
"null","<div style=""font-size:60px;"">+</div>","","html-keyboard-response","74","869394","0.0-13.0-0.6","65174","List2A","white","woman","","","","null","","","","","","","","",""
"null","<img src=""stim_listA/look4.gif""style=""height:400px;""></stim_listA>","","html-keyboard-response","75","871399","0.0-13.0-1.6","65174","List2A","white","woman","","","","null","","","","","","","","",""
"null","is being looked at by","","html-keyboard-response","76","873401","0.0-13.0-2.6","65174","List2A","white","woman","","","","null","","","","","","","","",""
"14061.100000023842","","","survey-text","77","887465","0.0-13.0-3.6","65174","List2A","white","woman","","","","","{""Q0"":""Kate is being looked at by Mike""}","<img src=""stim_listA/look4.gif""style=""height:400px;""></stim_listA>","is being looked at by","","","","","",""
"null","<div style=""font-size:60px;"">+</div>","","html-keyboard-response","78","887969","0.0-13.0-0.7","65174","List2A","white","woman","","","","null","","","","","","","","",""
"null","<img src=""stim_listA/copy6.gif""style=""height:400px;""></stim_listA>","","html-keyboard-response","79","889975","0.0-13.0-1.7","65174","List2A","white","woman","","","","null","","","","","","","","",""
"null","is being copied by","","html-keyboard-response","80","891977","0.0-13.0-2.7","65174","List2A","white","woman","","","","null","","","","","","","","",""
"11444.699999988079","","","survey-text","81","903426","0.0-13.0-3.7","65174","List2A","white","woman","","","","","{""Q0"":""Luke is being copied by Mike""}","<img src=""stim_listA/copy6.gif""style=""height:400px;""></stim_listA>","is being copied by","","","","","",""
"null","<div style=""font-size:60px;"">+</div>","","html-keyboard-response","82","903931","0.0-13.0-0.8","65174","List2A","white","woman","","","","null","","","","","","","","",""
"null","<img src=""stim_listA/touch5.gif""style=""height:400px;""></stim_listA>","","html-keyboard-response","83","905938","0.0-13.0-1.8","65174","List2A","white","woman","","","","null","","","","","","","","",""
"null","is touching","","html-keyboard-response","84","907940","0.0-13.0-2.8","65174","List2A","white","woman","","","","null","","","","","","","","",""
"11577.799999982119","","","survey-text","85","919522","0.0-13.0-3.8","65174","List2A","white","woman","","","","","{""Q0"":""Mike is touching Dave""}","<img src=""stim_listA/touch5.gif""style=""height:400px;""></stim_listA>","is touching","","","","","",""
"null","<div style=""font-size:60px;"">+</div>","","html-keyboard-response","86","920026","0.0-13.0-0.9","65174","List2A","white","woman","","","","null","","","","","","","","",""
"null","<img src=""stim_listA/greet1.gif""style=""height:400px;""></stim_listA>","","html-keyboard-response","87","922033","0.0-13.0-1.9","65174","List2A","white","woman","","","","null","","","","","","","","",""
"null","is greeting","","html-keyboard-response","88","924036","0.0-13.0-2.9","65174","List2A","white","woman","","","","null","","","","","","","","",""
"7650.5","","","survey-text","89","931690","0.0-13.0-3.9","65174","List2A","white","woman","","","","","{""Q0"":""Dave is greeting Ruth""}","<img src=""stim_listA/greet1.gif""style=""height:400px;""></stim_listA>","is greeting","","","","","",""
"null","<div style=""font-size:60px;"">+</div>","","html-keyboard-response","90","932195","0.0-13.0-0.10","65174","List2A","white","woman","","","","null","","","","","","","","",""
"null","<img src=""stim_listA/hug6.gif""style=""height:400px;""></stim_listA>","","html-keyboard-response","91","934204","0.0-13.0-1.10","65174","List2A","white","woman","","","","null","","","","","","","","",""
"null","is being hugged by","","html-keyboard-response","92","936206","0.0-13.0-2.10","65174","List2A","white","woman","","","","null","","","","","","","","",""
"11727.200000017881","","","survey-text","93","947938","0.0-13.0-3.10","65174","List2A","white","woman","","","","","{""Q0"":""Dave is being hugged by Mike""}","<img src=""stim_listA/hug6.gif""style=""height:400px;""></stim_listA>","is being hugged by","","","","","",""
"null","<div style=""font-size:60px;"">+</div>","","html-keyboard-response","94","948441","0.0-13.0-0.11","65174","List2A","white","woman","","","","null","","","","","","","","",""
"null","<img src=""stim_listA/copy1.gif""style=""height:400px;""></stim_listA>","","html-keyboard-response","95","950449","0.0-13.0-1.11","65174","List2A","white","woman","","","","null","","","","","","","","",""
"null","is copying","","html-keyboard-response","96","952452","0.0-13.0-2.11","65174","List2A","white","woman","","","","null","","","","","","","","",""
"7156.800000011921","","","survey-text","97","959612","0.0-13.0-3.11","65174","List2A","white","woman","","","","","{""Q0"":""Ruth is copying Dave""}","<img src=""stim_listA/copy1.gif""style=""height:400px;""></stim_listA>","is copying","","","","","",""
"null","<div style=""font-size:60px;"">+</div>","","html-keyboard-response","98","960117","0.0-13.0-0.12","65174","List2A","white","woman","","","","null","","","","","","","","",""
"null","<img src=""stim_listA/hug3.gif""style=""height:400px;""></stim_listA>","","html-keyboard-response","99","962125","0.0-13.0-1.12","65174","List2A","white","woman","","","","null","","","","","","","","",""
"null","is hugging","","html-keyboard-response","100","964128","0.0-13.0-2.12","65174","List2A","white","woman","","","","null","","","","","","","","",""
"8007","","","survey-text","101","972138","0.0-13.0-3.12","65174","List2A","white","woman","","","","","{""Q0"":""Fred is hugging Beth""}","<img src=""stim_listA/hug3.gif""style=""height:400px;""></stim_listA>","is hugging","","","","","",""
"null","<div style=""font-size:60px;"">+</div>","","html-keyboard-response","102","972641","0.0-13.0-0.13","65174","List2A","white","woman","","","","null","","","","","","","","",""
"null","<img src=""stim_listA/shout7.gif""style=""height:400px;""></stim_listA>","","html-keyboard-response","103","974648","0.0-13.0-1.13","65174","List2A","white","woman","","","","null","","","","","","","","",""
"null","is shouting at","","html-keyboard-response","104","976653","0.0-13.0-2.13","65174","List2A","white","woman","","","","null","","","","","","","","",""
"5859.4000000059605","","","survey-text","105","982517","0.0-13.0-3.13","65174","List2A","white","woman","","","","","{""Q0"":""Beth is shouting at Ruth""}","<img src=""stim_listA/shout7.gif""style=""height:400px;""></stim_listA>","is shouting at","","","","","",""
"null","<div style=""font-size:60px;"">+</div>","","html-keyboard-response","106","983021","0.0-13.0-0.14","65174","List2A","white","woman","","","","null","","","","","","","","",""
"null","<img src=""stim_listA/seduce1.gif""style=""height:400px;""></stim_listA>","","html-keyboard-response","107","985025","0.0-13.0-1.14","65174","List2A","white","woman","","","","null","","","","","","","","",""
"null","is seducing","","html-keyboard-response","108","987027","0.0-13.0-2.14","65174","List2A","white","woman","","","","null","","","","","","","","",""
"9457.700000017881","","","survey-text","109","996489","0.0-13.0-3.14","65174","List2A","white","woman","","","","","{""Q0"":""Luke is seducing Jane""}","<img src=""stim_listA/seduce1.gif""style=""height:400px;""></stim_listA>","is seducing","","","","","",""
"null","<div style=""font-size:60px;"">+</div>","","html-keyboard-response","110","996994","0.0-13.0-0.15","65174","List2A","white","woman","","","","null","","","","","","","","",""
"null","<img src=""stim_listA/hug4.gif""style=""height:400px;""></stim_listA>","","html-keyboard-response","111","998999","0.0-13.0-1.15","65174","List2A","white","woman","","","","null","","","","","","","","",""
"null","is being hugged by","","html-keyboard-response","112","1001002","0.0-13.0-2.15","65174","List2A","white","woman","","","","null","","","","","","","","",""
"7971.9000000059605","","","survey-text","113","1008978","0.0-13.0-3.15","65174","List2A","white","woman","","","","","{""Q0"":""Kate is being hugged by Mike""}","<img src=""stim_listA/hug4.gif""style=""height:400px;""></stim_listA>","is being hugged by","","","","","",""
"null","<div style=""font-size:60px;"">+</div>","","html-keyboard-response","114","1009483","0.0-13.0-0.16","65174","List2A","white","woman","","","","null","","","","","","","","",""
"null","<img src=""stim_listA/look1.gif""style=""height:400px;""></stim_listA>","","html-keyboard-response","115","1011489","0.0-13.0-1.16","65174","List2A","white","woman","","","","null","","","","","","","","",""
"null","is looking at","","html-keyboard-response","116","1013495","0.0-13.0-2.16","65174","List2A","white","woman","","","","null","","","","","","","","",""
"14889.300000011921","","","survey-text","117","1028388","0.0-13.0-3.16","65174","List2A","white","woman","","","","","{""Q0"":""Luke is copying Ruth""}","<img src=""stim_listA/look1.gif""style=""height:400px;""></stim_listA>","is looking at","","","","","",""
"null","<div style=""font-size:60px;"">+</div>","","html-keyboard-response","118","1028893","0.0-13.0-0.17","65174","List2A","white","woman","","","","null","","","","","","","","",""
"null","<img src=""stim_listA/seduce6.gif""style=""height:400px;""></stim_listA>","","html-keyboard-response","119","1030902","0.0-13.0-1.17","65174","List2A","white","woman","","","","null","","","","","","","","",""
"null","is being seduced by","","html-keyboard-response","120","1032904","0.0-13.0-2.17","65174","List2A","white","woman","","","","null","","","","","","","","",""
"14369.09999999404","","","survey-text","121","1047275","0.0-13.0-3.17","65174","List2A","white","woman","","","","","{""Q0"":""Fred is being seduced by Luke""}","<img src=""stim_listA/seduce6.gif""style=""height:400px;""></stim_listA>","is being seduced by","","","","","",""
"null","<div style=""font-size:60px;"">+</div>","","html-keyboard-response","122","1047777","0.0-13.0-0.18","65174","List2A","white","woman","","","","null","","","","","","","","",""
"null","<img src=""stim_listA/shout8.gif""style=""height:400px;""></stim_listA>","","html-keyboard-response","123","1049782","0.0-13.0-1.18","65174","List2A","white","woman","","","","null","","","","","","","","",""
"null","is being shouted at by","","html-keyboard-response","124","1051784","0.0-13.0-2.18","65174","List2A","white","woman","","","","null","","","","","","","","",""
"14325.09999999404","","","survey-text","125","1066113","0.0-13.0-3.18","65174","List2A","white","woman","","","","","{""Q0"":""Kate is being shouted at by Beth""}","<img src=""stim_listA/shout8.gif""style=""height:400px;""></stim_listA>","is being shouted at by","","","","","",""
"null","<div style=""font-size:60px;"">+</div>","","html-keyboard-response","126","1066614","0.0-13.0-0.19","65174","List2A","white","woman","","","","null","","","","","","","","",""
"null","<img src=""stim_listA/copy3.gif""style=""height:400px;""></stim_listA>","","html-keyboard-response","127","1068621","0.0-13.0-1.19","65174","List2A","white","woman","","","","null","","","","","","","","",""
"null","is copying","","html-keyboard-response","128","1070623","0.0-13.0-2.19","65174","List2A","white","woman","","","","null","","","","","","","","",""
"6989","","","survey-text","129","1077616","0.0-13.0-3.19","65174","List2A","white","woman","","","","","{""Q0"":""Beth is copying Mike""}","<img src=""stim_listA/copy3.gif""style=""height:400px;""></stim_listA>","is copying","","","","","",""
"16533.5","<img src='img/portrait_matrix_list2.jpg' style='width:900px;height:500px;''></img><p>If you have memorised all the portraits and names and are ready to start, press Continue.</p><p><strong>Please note: Your memory of these faces will be tested 4 times during this experiment.</strong></p>","0","html-button-response","130","1094152","0.0-14.0-0.0","65174","List2A","white","woman","","","","","","","","","","","","",""
"2084.5999999940395","<img src=""portrait/BM1.jpg""style=""height:400px;""></img>","4","html-button-response","131","1097247","0.0-14.0-1.0","65174","List2A","white","woman","","true","4","","","","","","","","","",""
"null","CORRECT","","html-keyboard-response","132","1098759","0.0-14.0-2.0-0.0","65174","List2A","white","woman","","","","null","","","","","","","","",""
"3165.9000000059605","<img src=""portrait/WM2.jpg""style=""height:400px;""></img>","7","html-button-response","133","1101928","0.0-14.0-4.0","65174","List2A","white","woman","","true","7","","","","","","","","","",""
"null","CORRECT","","html-keyboard-response","134","1103440","0.0-14.0-5.0-0.0","65174","List2A","white","woman","","","","null","","","","","","","","",""
"2389.2000000178814","<img src=""portrait/WW1.jpg""style=""height:400px;""></img>","1","html-button-response","135","1105832","0.0-14.0-7.0","65174","List2A","white","woman","","true","1","","","","","","","","","",""
"null","CORRECT","","html-keyboard-response","136","1107349","0.0-14.0-8.0-0.0","65174","List2A","white","woman","","","","null","","","","","","","","",""
"3678.399999976158","<img src=""portrait/BW2.jpg""style=""height:400px;""></img>","2","html-button-response","137","1111030","0.0-14.0-10.0","65174","List2A","white","woman","","true","2","","","","","","","","","",""
"null","CORRECT","","html-keyboard-response","138","1112538","0.0-14.0-11.0-0.0","65174","List2A","white","woman","","","","null","","","","","","","","",""
"3302","<img src=""portrait/BW1.jpg""style=""height:400px;""></img>","0","html-button-response","139","1115843","0.0-14.0-13.0","65174","List2A","white","woman","","true","0","","","","","","","","","",""
"null","CORRECT","","html-keyboard-response","140","1117349","0.0-14.0-14.0-0.0","65174","List2A","white","woman","","","","null","","","","","","","","",""
"2123.199999988079","<img src=""portrait/BM2.jpg""style=""height:400px;""></img>","5","html-button-response","141","1119475","0.0-14.0-16.0","65174","List2A","white","woman","","true","5","","","","","","","","","",""
"null","CORRECT","","html-keyboard-response","142","1120982","0.0-14.0-17.0-0.0","65174","List2A","white","woman","","","","null","","","","","","","","",""
"2525.5","<img src=""portrait/WW2.jpg""style=""height:400px;""></img>","3","html-button-response","143","1123511","0.0-14.0-19.0","65174","List2A","white","woman","","true","3","","","","","","","","","",""
"null","CORRECT","","html-keyboard-response","144","1125023","0.0-14.0-20.0-0.0","65174","List2A","white","woman","","","","null","","","","","","","","",""
"5478.300000011921","<img src=""portrait/WM1.jpg""style=""height:400px;""></img>","6","html-button-response","145","1130504","0.0-14.0-22.0","65174","List2A","white","woman","","true","6","","","","","","","","","",""
"null","CORRECT","","html-keyboard-response","146","1132013","0.0-14.0-23.0-0.0","65174","List2A","white","woman","","","","null","","","","","","","","",""
"1267.5","<p>You got 8 out of 8 right first time. Press Continue.</p>","0","html-button-response","147","1133284","0.0-14.0-25.0","65174","List2A","white","woman","","","","","","","","","","","","",""
"null","<div style=""font-size:60px;"">+</div>","","html-keyboard-response","148","1134798","0.0-15.0-0.0","65174","List2A","white","woman","","","","null","","","","","","","","",""
"null","<img src=""stim_listA/look8.gif""style=""height:400px;""></stim_listA>","","html-keyboard-response","149","1136805","0.0-15.0-1.0","65174","List2A","white","woman","","","","null","","","","","","","","",""
"null","is being looked at by","","html-keyboard-response","150","1138811","0.0-15.0-2.0","65174","List2A","white","woman","","","","null","","","","","","","","",""
"13468.399999976158","","","survey-text","151","1152284","0.0-15.0-3.0","65174","List2A","white","woman","","","","","{""Q0"":""Jane is being looked at by Kate""}","<img src=""stim_listA/look8.gif""style=""height:400px;""></stim_listA>","is being looked at by","","","","","",""
"null","<div style=""font-size:60px;"">+</div>","","html-keyboard-response","152","1152790","0.0-15.0-0.1","65174","List2A","white","woman","","","","null","","","","","","","","",""
"null","<img src=""stim_listA/look2.gif""style=""height:400px;""></stim_listA>","","html-keyboard-response","153","1154798","0.0-15.0-1.1","65174","List2A","white","woman","","","","null","","","","","","","","",""
"null","is being looked at by","","html-keyboard-response","154","1156802","0.0-15.0-2.1","65174","List2A","white","woman","","","","null","","","","","","","","",""
"6927.0999999940395","","","survey-text","155","1163733","0.0-15.0-3.1","65174","List2A","white","woman","","","","","{""Q0"":""Jane is being looked at by Dave ""}","<img src=""stim_listA/look2.gif""style=""height:400px;""></stim_listA>","is being looked at by","","","","","",""
"null","<div style=""font-size:60px;"">+</div>","","html-keyboard-response","156","1164236","0.0-15.0-0.2","65174","List2A","white","woman","","","","null","","","","","","","","",""
"null","<img src=""stim_listA/kiss2.gif""style=""height:400px;""></stim_listA>","","html-keyboard-response","157","1166241","0.0-15.0-1.2","65174","List2A","white","woman","","","","null","","","","","","","","",""
"null","is being kissed by","","html-keyboard-response","158","1168244","0.0-15.0-2.2","65174","List2A","white","woman","","","","null","","","","","","","","",""
"8777.09999999404","","","survey-text","159","1177025","0.0-15.0-3.2","65174","List2A","white","woman","","","","","{""Q0"":""Jane is being kissed by Dave""}","<img src=""stim_listA/kiss2.gif""style=""height:400px;""></stim_listA>","is being kissed by","","","","","",""
"null","<div style=""font-size:60px;"">+</div>","","html-keyboard-response","160","1177527","0.0-15.0-0.3","65174","List2A","white","woman","","","","null","","","","","","","","",""
"null","<img src=""stim_listA/kiss7.gif""style=""height:400px;""></stim_listA>","","html-keyboard-response","161","1179534","0.0-15.0-1.3","65174","List2A","white","woman","","","","null","","","","","","","","",""
"null","is kissing","","html-keyboard-response","162","1181537","0.0-15.0-2.3","65174","List2A","white","woman","","","","null","","","","","","","","",""
"17261.5","","","survey-text","163","1198802","0.0-15.0-3.3","65174","List2A","white","woman","","","","","{""Q0"":""Ruth is kissing Beth""}","<img src=""stim_listA/kiss7.gif""style=""height:400px;""></stim_listA>","is kissing","","","","","",""
"null","<div style=""font-size:60px;"">+</div>","","html-keyboard-response","164","1199304","0.0-15.0-0.4","65174","List2A","white","woman","","","","null","","","","","","","","",""
"null","<img src=""stim_listA/greet3.gif""style=""height:400px;""></stim_listA>","","html-keyboard-response","165","1201314","0.0-15.0-1.4","65174","List2A","white","woman","","","","null","","","","","","","","",""
"null","is greeting","","html-keyboard-response","166","1203316","0.0-15.0-2.4","65174","List2A","white","woman","","","","null","","","","","","","","",""
"7528.600000023842","","","survey-text","167","1210849","0.0-15.0-3.4","65174","List2A","white","woman","","","","","{""Q0"":""Mike is greeting Beth""}","<img src=""stim_listA/greet3.gif""style=""height:400px;""></stim_listA>","is greeting","","","","","",""
"null","<div style=""font-size:60px;"">+</div>","","html-keyboard-response","168","1211351","0.0-15.0-0.5","65174","List2A","white","woman","","","","null","","","","","","","","",""
"null","<img src=""stim_listA/greet5.gif""style=""height:400px;""></stim_listA>","","html-keyboard-response","169","1213359","0.0-15.0-1.5","65174","List2A","white","woman","","","","null","","","","","","","","",""
"null","is greeting","","html-keyboard-response","170","1215363","0.0-15.0-2.5","65174","List2A","white","woman","","","","null","","","","","","","","",""
"6019.9000000059605","","","survey-text","171","1221387","0.0-15.0-3.5","65174","List2A","white","woman","","","","","{""Q0"":""Fred is greeting Dave ""}","<img src=""stim_listA/greet5.gif""style=""height:400px;""></stim_listA>","is greeting","","","","","",""
"null","<div style=""font-size:60px;"">+</div>","","html-keyboard-response","172","1221890","0.0-15.0-0.6","65174","List2A","white","woman","","","","null","","","","","","","","",""
"null","<img src=""stim_listA/oppose4.gif""style=""height:400px;""></stim_listA>","","html-keyboard-response","173","1223901","0.0-15.0-1.6","65174","List2A","white","woman","","","","null","","","","","","","","",""
"null","is being opposed by","","html-keyboard-response","174","1225904","0.0-15.0-2.6","65174","List2A","white","woman","","","","null","","","","","","","","",""
"7879.0999999940395","","","survey-text","175","1233786","0.0-15.0-3.6","65174","List2A","white","woman","","","","","{""Q0"":""Fred is being opposed by Beth ""}","<img src=""stim_listA/oppose4.gif""style=""height:400px;""></stim_listA>","is being opposed by","","","","","",""
"null","<div style=""font-size:60px;"">+</div>","","html-keyboard-response","176","1234289","0.0-15.0-0.7","65174","List2A","white","woman","","","","null","","","","","","","","",""
"null","<img src=""stim_listA/shout1.gif""style=""height:400px;""></stim_listA>","","html-keyboard-response","177","1236296","0.0-15.0-1.7","65174","List2A","white","woman","","","","null","","","","","","","","",""
"null","is shouting at","","html-keyboard-response","178","1238298","0.0-15.0-2.7","65174","List2A","white","woman","","","","null","","","","","","","","",""
"11584.299999982119","","","survey-text","179","1249886","0.0-15.0-3.7","65174","List2A","white","woman","","","","","{""Q0"":""Ruth is shouting at Luke""}","<img src=""stim_listA/shout1.gif""style=""height:400px;""></stim_listA>","is shouting at","","","","","",""
"null","<div style=""font-size:60px;"">+</div>","","html-keyboard-response","180","1250391","0.0-15.0-0.8","65174","List2A","white","woman","","","","null","","","","","","","","",""
"null","<img src=""stim_listA/greet4.gif""style=""height:400px;""></stim_listA>","","html-keyboard-response","181","1253555","0.0-15.0-1.8","65174","List2A","white","woman","","","","null","","","","","","","","",""
"null","is being greeted by","","html-keyboard-response","182","1255561","0.0-15.0-2.8","65174","List2A","white","woman","","","","null","","","","","","","","",""
"11310","","","survey-text","183","1266875","0.0-15.0-3.8","65174","List2A","white","woman","","","","","{""Q0"":""Ruth is being greeted by Dave""}","<img src=""stim_listA/greet4.gif""style=""height:400px;""></stim_listA>","is being greeted by","","","","","",""
"null","<div style=""font-size:60px;"">+</div>","","html-keyboard-response","184","1267377","0.0-15.0-0.9","65174","List2A","white","woman","","","","null","","","","","","","","",""
"null","<img src=""stim_listA/kiss6.gif""style=""height:400px;""></stim_listA>","","html-keyboard-response","185","1269382","0.0-15.0-1.9","65174","List2A","white","woman","","","","null","","","","","","","","",""
"null","is being kissed by","","html-keyboard-response","186","1271383","0.0-15.0-2.9","65174","List2A","white","woman","","","","null","","","","","","","","",""
"12551","","","survey-text","187","1283936","0.0-15.0-3.9","65174","List2A","white","woman","","","","","{""Q0"":""Dave is being kissed by Mike""}","<img src=""stim_listA/kiss6.gif""style=""height:400px;""></stim_listA>","is being kissed by","","","","","",""
"null","<div style=""font-size:60px;"">+</div>","","html-keyboard-response","188","1284438","0.0-15.0-0.10","65174","List2A","white","woman","","","","null","","","","","","","","",""
"null","<img src=""stim_listA/touch1.gif""style=""height:400px;""></stim_listA>","","html-keyboard-response","189","1286441","0.0-15.0-1.10","65174","List2A","white","woman","","","","null","","","","","","","","",""
"null","is touching","","html-keyboard-response","190","1288443","0.0-15.0-2.10","65174","List2A","white","woman","","","","null","","","","","","","","",""
"15243.799999982119","","","survey-text","191","1303691","0.0-15.0-3.10","65174","List2A","white","woman","","","","","{""Q0"":""Dave is touching Jane""}","<img src=""stim_listA/touch1.gif""style=""height:400px;""></stim_listA>","is touching","","","","","",""
"null","<div style=""font-size:60px;"">+</div>","","html-keyboard-response","192","1304194","0.0-15.0-0.11","65174","List2A","white","woman","","","","null","","","","","","","","",""
"null","<img src=""stim_listA/kiss4.gif""style=""height:400px;""></stim_listA>","","html-keyboard-response","193","1306201","0.0-15.0-1.11","65174","List2A","white","woman","","","","null","","","","","","","","",""
"null","is being kissed by","","html-keyboard-response","194","1308202","0.0-15.0-2.11","65174","List2A","white","woman","","","","null","","","","","","","","",""
"7910.5999999940395","","","survey-text","195","1316117","0.0-15.0-3.11","65174","List2A","white","woman","","","","","{""Q0"":""Mike is being kissed by Kate""}","<img src=""stim_listA/kiss4.gif""style=""height:400px;""></stim_listA>","is being kissed by","","","","","",""
"null","<div style=""font-size:60px;"">+</div>","","html-keyboard-response","196","1316621","0.0-15.0-0.12","65174","List2A","white","woman","","","","null","","","","","","","","",""
"null","<img src=""stim_listA/kiss5.gif""style=""height:400px;""></stim_listA>","","html-keyboard-response","197","1318628","0.0-15.0-1.12","65174","List2A","white","woman","","","","null","","","","","","","","",""
"null","is kissing","","html-keyboard-response","198","1320635","0.0-15.0-2.12","65174","List2A","white","woman","","","","null","","","","","","","","",""
"6394.9000000059605","","","survey-text","199","1327034","0.0-15.0-3.12","65174","List2A","white","woman","","","","","{""Q0"":""Fred is kissing Luke""}","<img src=""stim_listA/kiss5.gif""style=""height:400px;""></stim_listA>","is kissing","","","","","",""
"null","<div style=""font-size:60px;"">+</div>","","html-keyboard-response","200","1327537","0.0-15.0-0.13","65174","List2A","white","woman","","","","null","","","","","","","","",""
"null","<img src=""stim_listA/touch8.gif""style=""height:400px;""></stim_listA>","","html-keyboard-response","201","1329543","0.0-15.0-1.13","65174","List2A","white","woman","","","","null","","","","","","","","",""
"null","is being touched by","","html-keyboard-response","202","1331545","0.0-15.0-2.13","65174","List2A","white","woman","","","","null","","","","","","","","",""
"12740.90000000596","","","survey-text","203","1344290","0.0-15.0-3.13","65174","List2A","white","woman","","","","","{""Q0"":""Beth is being touched by Ruth""}","<img src=""stim_listA/touch8.gif""style=""height:400px;""></stim_listA>","is being touched by","","","","","",""
"null","<div style=""font-size:60px;"">+</div>","","html-keyboard-response","204","1344796","0.0-15.0-0.14","65174","List2A","white","woman","","","","null","","","","","","","","",""
"null","<img src=""stim_listA/oppose1.gif""style=""height:400px;""></stim_listA>","","html-keyboard-response","205","1346803","0.0-15.0-1.14","65174","List2A","white","woman","","","","null","","","","","","","","",""
"null","is opposing","","html-keyboard-response","206","1348811","0.0-15.0-2.14","65174","List2A","white","woman","","","","null","","","","","","","","",""
"11985.700000017881","","","survey-text","207","1360800","0.0-15.0-3.14","65174","List2A","white","woman","","","","","{""Q0"":""Jane is opposing Dave ""}","<img src=""stim_listA/oppose1.gif""style=""height:400px;""></stim_listA>","is opposing","","","","","",""
"null","<div style=""font-size:60px;"">+</div>","","html-keyboard-response","208","1361302","0.0-15.0-0.15","65174","List2A","white","woman","","","","null","","","","","","","","",""
"null","<img src=""stim_listA/copy2.gif""style=""height:400px;""></stim_listA>","","html-keyboard-response","209","1363306","0.0-15.0-1.15","65174","List2A","white","woman","","","","null","","","","","","","","",""
"null","is being copied by","","html-keyboard-response","210","1365307","0.0-15.0-2.15","65174","List2A","white","woman","","","","null","","","","","","","","",""
"7911.799999982119","","","survey-text","211","1373223","0.0-15.0-3.15","65174","List2A","white","woman","","","","","{""Q0"":""Jane is being copied by Luke""}","<img src=""stim_listA/copy2.gif""style=""height:400px;""></stim_listA>","is being copied by","","","","","",""
"null","<div style=""font-size:60px;"">+</div>","","html-keyboard-response","212","1373728","0.0-15.0-0.16","65174","List2A","white","woman","","","","null","","","","","","","","",""
"null","<img src=""stim_listA/greet2.gif""style=""height:400px;""></stim_listA>","","html-keyboard-response","213","1375731","0.0-15.0-1.16","65174","List2A","white","woman","","","","null","","","","","","","","",""
"null","is being greeted by","","html-keyboard-response","214","1377735","0.0-15.0-2.16","65174","List2A","white","woman","","","","null","","","","","","","","",""
"8256.59999999404","","","survey-text","215","1385997","0.0-15.0-3.16","65174","List2A","white","woman","","","","","{""Q0"":""Jane is being greeted by Luke""}","<img src=""stim_listA/greet2.gif""style=""height:400px;""></stim_listA>","is being greeted by","","","","","",""
"null","<div style=""font-size:60px;"">+</div>","","html-keyboard-response","216","1386501","0.0-15.0-0.17","65174","List2A","white","woman","","","","null","","","","","","","","",""
"null","<img src=""stim_listA/hug5.gif""style=""height:400px;""></stim_listA>","","html-keyboard-response","217","1388511","0.0-15.0-1.17","65174","List2A","white","woman","","","","null","","","","","","","","",""
"null","is hugging","","html-keyboard-response","218","1390515","0.0-15.0-2.17","65174","List2A","white","woman","","","","null","","","","","","","","",""
"5870.799999982119","","","survey-text","219","1396389","0.0-15.0-3.17","65174","List2A","white","woman","","","","","{""Q0"":""Luke is hugging Fred""}","<img src=""stim_listA/hug5.gif""style=""height:400px;""></stim_listA>","is hugging","","","","","",""
"null","<div style=""font-size:60px;"">+</div>","","html-keyboard-response","220","1396892","0.0-15.0-0.18","65174","List2A","white","woman","","","","null","","","","","","","","",""
"null","<img src=""stim_listA/hug7.gif""style=""height:400px;""></stim_listA>","","html-keyboard-response","221","1398898","0.0-15.0-1.18","65174","List2A","white","woman","","","","null","","","","","","","","",""
"null","is hugging","","html-keyboard-response","222","1400905","0.0-15.0-2.18","65174","List2A","white","woman","","","","null","","","","","","","","",""
"10827.300000011921","","","survey-text","223","1411736","0.0-15.0-3.18","65174","List2A","white","woman","","","","","{""Q0"":""Ruth is hugging Beth""}","<img src=""stim_listA/hug7.gif""style=""height:400px;""></stim_listA>","is hugging","","","","","",""
"null","<div style=""font-size:60px;"">+</div>","","html-keyboard-response","224","1412239","0.0-15.0-0.19","65174","List2A","white","woman","","","","null","","","","","","","","",""
"null","<img src=""stim_listA/kiss1.gif""style=""height:400px;""></stim_listA>","","html-keyboard-response","225","1414249","0.0-15.0-1.19","65174","List2A","white","woman","","","","null","","","","","","","","",""
"null","is kissing","","html-keyboard-response","226","1416251","0.0-15.0-2.19","65174","List2A","white","woman","","","","null","","","","","","","","",""
"5405.300000011921","","","survey-text","227","1421661","0.0-15.0-3.19","65174","List2A","white","woman","","","","","{""Q0"":""Ruth is kissing Luke""}","<img src=""stim_listA/kiss1.gif""style=""height:400px;""></stim_listA>","is kissing","","","","","",""
"4482.899999976158","<img src='img/portrait_matrix_list2.jpg' style='width:900px;height:500px;''></img><p>If you have memorised all the portraits and names and are ready to start, press Continue.</p><p><strong>Please note: Your memory of these faces will be tested 4 times during this experiment.</strong></p>","0","html-button-response","228","1426146","0.0-16.0-0.0","65174","List2A","white","woman","","","","","","","","","","","","",""
"1232","<img src=""portrait/WW2.jpg""style=""height:400px;""></img>","3","html-button-response","229","1428385","0.0-16.0-1.0","65174","List2A","white","woman","","true","3","","","","","","","","","",""
"null","CORRECT","","html-keyboard-response","230","1429896","0.0-16.0-2.0-0.0","65174","List2A","white","woman","","","","null","","","","","","","","",""
"1714.9000000059605","<img src=""portrait/WM1.jpg""style=""height:400px;""></img>","6","html-button-response","231","1431615","0.0-16.0-4.0","65174","List2A","white","woman","","true","6","","","","","","","","","",""
"null","CORRECT","","html-keyboard-response","232","1433130","0.0-16.0-5.0-0.0","65174","List2A","white","woman","","","","null","","","","","","","","",""
"1940.9000000059605","<img src=""portrait/WW1.jpg""style=""height:400px;""></img>","1","html-button-response","233","1435074","0.0-16.0-7.0","65174","List2A","white","woman","","true","1","","","","","","","","","",""
"null","CORRECT","","html-keyboard-response","234","1436588","0.0-16.0-8.0-0.0","65174","List2A","white","woman","","","","null","","","","","","","","",""
"2636.5999999940395","<img src=""portrait/BW1.jpg""style=""height:400px;""></img>","0","html-button-response","235","1439228","0.0-16.0-10.0","65174","List2A","white","woman","","true","0","","","","","","","","","",""
"null","CORRECT","","html-keyboard-response","236","1440736","0.0-16.0-11.0-0.0","65174","List2A","white","woman","","","","null","","","","","","","","",""
"1422.1000000238419","<img src=""portrait/BM1.jpg""style=""height:400px;""></img>","4","html-button-response","237","1442162","0.0-16.0-13.0","65174","List2A","white","woman","","true","4","","","","","","","","","",""
"null","CORRECT","","html-keyboard-response","238","1443674","0.0-16.0-14.0-0.0","65174","List2A","white","woman","","","","null","","","","","","","","",""
"3147.0999999940395","<img src=""portrait/WM2.jpg""style=""height:400px;""></img>","7","html-button-response","239","1446824","0.0-16.0-16.0","65174","List2A","white","woman","","true","7","","","","","","","","","",""
"null","CORRECT","","html-keyboard-response","240","1448329","0.0-16.0-17.0-0.0","65174","List2A","white","woman","","","","null","","","","","","","","",""
"1621.800000011921","<img src=""portrait/BM2.jpg""style=""height:400px;""></img>","5","html-button-response","241","1449953","0.0-16.0-19.0","65174","List2A","white","woman","","true","5","","","","","","","","","",""
"null","CORRECT","","html-keyboard-response","242","1451466","0.0-16.0-20.0-0.0","65174","List2A","white","woman","","","","null","","","","","","","","",""
"2618.4000000059605","<img src=""portrait/BW2.jpg""style=""height:400px;""></img>","2","html-button-response","243","1454087","0.0-16.0-22.0","65174","List2A","white","woman","","true","2","","","","","","","","","",""
"null","CORRECT","","html-keyboard-response","244","1455600","0.0-16.0-23.0-0.0","65174","List2A","white","woman","","","","null","","","","","","","","",""
"1481.4000000059605","<p>You got 8 out of 8 right first time. Press Continue.</p>","0","html-button-response","245","1457083","0.0-16.0-25.0","65174","List2A","white","woman","","","","","","","","","","","","",""
"null","<div style=""font-size:60px;"">+</div>","","html-keyboard-response","246","1458597","0.0-17.0-0.0","65174","List2A","white","woman","","","","null","","","","","","","","",""
"null","<img src=""stim_listA/shout5.gif""style=""height:400px;""></stim_listA>","","html-keyboard-response","247","1460601","0.0-17.0-1.0","65174","List2A","white","woman","","","","null","","","","","","","","",""
"null","is shouting at","","html-keyboard-response","248","1462606","0.0-17.0-2.0","65174","List2A","white","woman","","","","null","","","","","","","","",""
"7394.5999999940395","","","survey-text","249","1470005","0.0-17.0-3.0","65174","List2A","white","woman","","","","","{""Q0"":""Fred is shouting at Luke""}","<img src=""stim_listA/shout5.gif""style=""height:400px;""></stim_listA>","is shouting at","","","","","",""
"null","<div style=""font-size:60px;"">+</div>","","html-keyboard-response","250","1470507","0.0-17.0-0.1","65174","List2A","white","woman","","","","null","","","","","","","","",""
"null","<img src=""stim_listA/copy7.gif""style=""height:400px;""></stim_listA>","","html-keyboard-response","251","1472513","0.0-17.0-1.1","65174","List2A","white","woman","","","","null","","","","","","","","",""
"null","is copying","","html-keyboard-response","252","1474520","0.0-17.0-2.1","65174","List2A","white","woman","","","","null","","","","","","","","",""
"13786.09999999404","","","survey-text","253","1488309","0.0-17.0-3.1","65174","List2A","white","woman","","","","","{""Q0"":""Jane is copying Beth""}","<img src=""stim_listA/copy7.gif""style=""height:400px;""></stim_listA>","is copying","","","","","",""
"null","<div style=""font-size:60px;"">+</div>","","html-keyboard-response","254","1488811","0.0-17.0-0.2","65174","List2A","white","woman","","","","null","","","","","","","","",""
"null","<img src=""stim_listA/seduce2.gif""style=""height:400px;""></stim_listA>","","html-keyboard-response","255","1490819","0.0-17.0-1.2","65174","List2A","white","woman","","","","null","","","","","","","","",""
"null","is being seduced by","","html-keyboard-response","256","1492821","0.0-17.0-2.2","65174","List2A","white","woman","","","","null","","","","","","","","",""
"6974.5","","","survey-text","257","1499799","0.0-17.0-3.2","65174","List2A","white","woman","","","","","{""Q0"":""Ruth is being seduced by Dave ""}","<img src=""stim_listA/seduce2.gif""style=""height:400px;""></stim_listA>","is being seduced by","","","","","",""
"null","<div style=""font-size:60px;"">+</div>","","html-keyboard-response","258","1500301","0.0-17.0-0.3","65174","List2A","white","woman","","","","null","","","","","","","","",""
"null","<img src=""stim_listA/seduce3.gif""style=""height:400px;""></stim_listA>","","html-keyboard-response","259","1502309","0.0-17.0-1.3","65174","List2A","white","woman","","","","null","","","","","","","","",""
"null","is seducing","","html-keyboard-response","260","1504312","0.0-17.0-2.3","65174","List2A","white","woman","","","","null","","","","","","","","",""
"8514","","","survey-text","261","1512830","0.0-17.0-3.3","65174","List2A","white","woman","","","","","{""Q0"":""Kate is seducing Fred""}","<img src=""stim_listA/seduce3.gif""style=""height:400px;""></stim_listA>","is seducing","","","","","",""
"null","<div style=""font-size:60px;"">+</div>","","html-keyboard-response","262","1513337","0.0-17.0-0.4","65174","List2A","white","woman","","","","null","","","","","","","","",""
"null","<img src=""stim_listA/kiss3.gif""style=""height:400px;""></stim_listA>","","html-keyboard-response","263","1515342","0.0-17.0-1.4","65174","List2A","white","woman","","","","null","","","","","","","","",""
"null","is kissing","","html-keyboard-response","264","1517347","0.0-17.0-2.4","65174","List2A","white","woman","","","","null","","","","","","","","",""
"11362.90000000596","","","survey-text","265","1528713","0.0-17.0-3.4","65174","List2A","white","woman","","","","","{""Q0"":""Fred is kissing Beth""}","<img src=""stim_listA/kiss3.gif""style=""height:400px;""></stim_listA>","is kissing","","","","","",""
"null","<div style=""font-size:60px;"">+</div>","","html-keyboard-response","266","1529215","0.0-17.0-0.5","65174","List2A","white","woman","","","","null","","","","","","","","",""
"null","<img src=""stim_listA/greet6.gif""style=""height:400px;""></stim_listA>","","html-keyboard-response","267","1531219","0.0-17.0-1.5","65174","List2A","white","woman","","","","null","","","","","","","","",""
"null","is being greeted by","","html-keyboard-response","268","1533223","0.0-17.0-2.5","65174","List2A","white","woman","","","","null","","","","","","","","",""
"8539.800000011921","","","survey-text","269","1541767","0.0-17.0-3.5","65174","List2A","white","woman","","","","","{""Q0"":""Mike is being greeted by Luke""}","<img src=""stim_listA/greet6.gif""style=""height:400px;""></stim_listA>","is being greeted by","","","","","",""
"null","<div style=""font-size:60px;"">+</div>","","html-keyboard-response","270","1542269","0.0-17.0-0.6","65174","List2A","white","woman","","","","null","","","","","","","","",""
"null","<img src=""stim_listA/shout3.gif""style=""height:400px;""></stim_listA>","","html-keyboard-response","271","1544278","0.0-17.0-1.6","65174","List2A","white","woman","","","","null","","","","","","","","",""
"null","is shouting at","","html-keyboard-response","272","1546282","0.0-17.0-2.6","65174","List2A","white","woman","","","","null","","","","","","","","",""
"5761.9000000059605","","","survey-text","273","1552048","0.0-17.0-3.6","65174","List2A","white","woman","","","","","{""Q0"":""Fred is shouting at Beth""}","<img src=""stim_listA/shout3.gif""style=""height:400px;""></stim_listA>","is shouting at","","","","","",""
"null","<div style=""font-size:60px;"">+</div>","","html-keyboard-response","274","1552552","0.0-17.0-0.7","65174","List2A","white","woman","","","","null","","","","","","","","",""
"null","<img src=""stim_listA/challenge1.gif""style=""height:400px;""></stim_listA>","","html-keyboard-response","275","1554558","0.0-17.0-1.7","65174","List2A","white","woman","","","","null","","","","","","","","",""
"null","is challenging","","html-keyboard-response","276","1556565","0.0-17.0-2.7","65174","List2A","white","woman","","","","null","","","","","","","","",""
"8525.399999976158","","","survey-text","277","1565094","0.0-17.0-3.7","65174","List2A","white","woman","","","","","{""Q0"":""Ruth is challenging Dave""}","<img src=""stim_listA/challenge1.gif""style=""height:400px;""></stim_listA>","is challenging","","","","","",""
"null","<div style=""font-size:60px;"">+</div>","","html-keyboard-response","278","1565597","0.0-17.0-0.8","65174","List2A","white","woman","","","","null","","","","","","","","",""
"null","<img src=""stim_listA/shout6.gif""style=""height:400px;""></stim_listA>","","html-keyboard-response","279","1567600","0.0-17.0-1.8","65174","List2A","white","woman","","","","null","","","","","","","","",""
"null","is being shouted at by","","html-keyboard-response","280","1569602","0.0-17.0-2.8","65174","List2A","white","woman","","","","null","","","","","","","","",""
"14084","","","survey-text","281","1583690","0.0-17.0-3.8","65174","List2A","white","woman","","","","","{""Q0"":""Dave is being shouted at by Mike""}","<img src=""stim_listA/shout6.gif""style=""height:400px;""></stim_listA>","is being shouted at by","","","","","",""
"null","<div style=""font-size:60px;"">+</div>","","html-keyboard-response","282","1584194","0.0-17.0-0.9","65174","List2A","white","woman","","","","null","","","","","","","","",""
"null","<img src=""stim_listA/look5.gif""style=""height:400px;""></stim_listA>","","html-keyboard-response","283","1586201","0.0-17.0-1.9","65174","List2A","white","woman","","","","null","","","","","","","","",""
"null","is looking at","","html-keyboard-response","284","1588206","0.0-17.0-2.9","65174","List2A","white","woman","","","","null","","","","","","","","",""
"5797","","","survey-text","285","1594007","0.0-17.0-3.9","65174","List2A","white","woman","","","","","{""Q0"":""Luke is looking at Fred""}","<img src=""stim_listA/look5.gif""style=""height:400px;""></stim_listA>","is looking at","","","","","",""
"null","<div style=""font-size:60px;"">+</div>","","html-keyboard-response","286","1594510","0.0-17.0-0.10","65174","List2A","white","woman","","","","null","","","","","","","","",""
"null","<img src=""stim_listA/oppose7.gif""style=""height:400px;""></stim_listA>","","html-keyboard-response","287","1596520","0.0-17.0-1.10","65174","List2A","white","woman","","","","null","","","","","","","","",""
"null","is opposing","","html-keyboard-response","288","1598525","0.0-17.0-2.10","65174","List2A","white","woman","","","","null","","","","","","","","",""
"6208.799999982119","","","survey-text","289","1604738","0.0-17.0-3.10","65174","List2A","white","woman","","","","","{""Q0"":""Jane is opposing Kate""}","<img src=""stim_listA/oppose7.gif""style=""height:400px;""></stim_listA>","is opposing","","","","","",""
"null","<div style=""font-size:60px;"">+</div>","","html-keyboard-response","290","1605240","0.0-17.0-0.11","65174","List2A","white","woman","","","","null","","","","","","","","",""
"null","<img src=""stim_listA/kiss8.gif""style=""height:400px;""></stim_listA>","","html-keyboard-response","291","1607248","0.0-17.0-1.11","65174","List2A","white","woman","","","","null","","","","","","","","",""
"null","is being kissed by","","html-keyboard-response","292","1609256","0.0-17.0-2.11","65174","List2A","white","woman","","","","null","","","","","","","","",""
"10733","","","survey-text","293","1619992","0.0-17.0-3.11","65174","List2A","white","woman","","","","","{""Q0"":""Jane is being kissed by Kate""}","<img src=""stim_listA/kiss8.gif""style=""height:400px;""></stim_listA>","is being kissed by","","","","","",""
"null","<div style=""font-size:60px;"">+</div>","","html-keyboard-response","294","1620499","0.0-17.0-0.12","65174","List2A","white","woman","","","","null","","","","","","","","",""
"null","<img src=""stim_listA/challenge5.gif""style=""height:400px;""></stim_listA>","","html-keyboard-response","295","1622502","0.0-17.0-1.12","65174","List2A","white","woman","","","","null","","","","","","","","",""
"null","is challenging","","html-keyboard-response","296","1624505","0.0-17.0-2.12","65174","List2A","white","woman","","","","null","","","","","","","","",""
"15532.199999988079","","","survey-text","297","1640041","0.0-17.0-3.12","65174","List2A","white","woman","","","","","{""Q0"":""Fred is challenging Dave""}","<img src=""stim_listA/challenge5.gif""style=""height:400px;""></stim_listA>","is challenging","","","","","",""
"null","<div style=""font-size:60px;"">+</div>","","html-keyboard-response","298","1640543","0.0-17.0-0.13","65174","List2A","white","woman","","","","null","","","","","","","","",""
"null","<img src=""stim_listA/greet8.gif""style=""height:400px;""></stim_listA>","","html-keyboard-response","299","1642548","0.0-17.0-1.13","65174","List2A","white","woman","","","","null","","","","","","","","",""
"null","is being greeted by","","html-keyboard-response","300","1644553","0.0-17.0-2.13","65174","List2A","white","woman","","","","null","","","","","","","","",""
"7822.5999999940395","","","survey-text","301","1652380","0.0-17.0-3.13","65174","List2A","white","woman","","","","","{""Q0"":""Ruth is being greeted by Kate""}","<img src=""stim_listA/greet8.gif""style=""height:400px;""></stim_listA>","is being greeted by","","","","","",""
"null","<div style=""font-size:60px;"">+</div>","","html-keyboard-response","302","1652886","0.0-17.0-0.14","65174","List2A","white","woman","","","","null","","","","","","","","",""
"null","<img src=""stim_listA/shout4.gif""style=""height:400px;""></stim_listA>","","html-keyboard-response","303","1654897","0.0-17.0-1.14","65174","List2A","white","woman","","","","null","","","","","","","","",""
"null","is being shouted at by","","html-keyboard-response","304","1656903","0.0-17.0-2.14","65174","List2A","white","woman","","","","null","","","","","","","","",""
"9514.100000023842","","","survey-text","305","1666421","0.0-17.0-3.14","65174","List2A","white","woman","","","","","{""Q0"":""Kate is being shouted at by Mike""}","<img src=""stim_listA/shout4.gif""style=""height:400px;""></stim_listA>","is being shouted at by","","","","","",""
"null","<div style=""font-size:60px;"">+</div>","","html-keyboard-response","306","1666928","0.0-17.0-0.15","65174","List2A","white","woman","","","","null","","","","","","","","",""
"null","<img src=""stim_listA/oppose8.gif""style=""height:400px;""></stim_listA>","","html-keyboard-response","307","1668935","0.0-17.0-1.15","65174","List2A","white","woman","","","","null","","","","","","","","",""
"null","is being opposed by","","html-keyboard-response","308","1670938","0.0-17.0-2.15","65174","List2A","white","woman","","","","null","","","","","","","","",""
"9976.59999999404","","","survey-text","309","1680989","0.0-17.0-3.15","65174","List2A","white","woman","","","","","{""Q0"":""Ruth is being opposed by Beth""}","<img src=""stim_listA/oppose8.gif""style=""height:400px;""></stim_listA>","is being opposed by","","","","","",""
"null","<div style=""font-size:60px;"">+</div>","","html-keyboard-response","310","1681491","0.0-17.0-0.16","65174","List2A","white","woman","","","","null","","","","","","","","",""
"null","<img src=""stim_listA/shout2.gif""style=""height:400px;""></stim_listA>","","html-keyboard-response","311","1683499","0.0-17.0-1.16","65174","List2A","white","woman","","","","null","","","","","","","","",""
"null","is being shouted at by","","html-keyboard-response","312","1685504","0.0-17.0-2.16","65174","List2A","white","woman","","","","null","","","","","","","","",""
"12781","","","survey-text","313","1698289","0.0-17.0-3.16","65174","List2A","white","woman","","","","","{""Q0"":""Dave is being shouted at by Jane""}","<img src=""stim_listA/shout2.gif""style=""height:400px;""></stim_listA>","is being shouted at by","","","","","",""
"null","<div style=""font-size:60px;"">+</div>","","html-keyboard-response","314","1698792","0.0-17.0-0.17","65174","List2A","white","woman","","","","null","","","","","","","","",""
"null","<img src=""stim_listA/copy8.gif""style=""height:400px;""></stim_listA>","","html-keyboard-response","315","1700795","0.0-17.0-1.17","65174","List2A","white","woman","","","","null","","","","","","","","",""
"null","is being copied by","","html-keyboard-response","316","1702803","0.0-17.0-2.17","65174","List2A","white","woman","","","","null","","","","","","","","",""
"8229.59999999404","","","survey-text","317","1711036","0.0-17.0-3.17","65174","List2A","white","woman","","","","","{""Q0"":""Ruth is being copied by Kate""}","<img src=""stim_listA/copy8.gif""style=""height:400px;""></stim_listA>","is being copied by","","","","","",""
"null","<div style=""font-size:60px;"">+</div>","","html-keyboard-response","318","1711540","0.0-17.0-0.18","65174","List2A","white","woman","","","","null","","","","","","","","",""
"null","<img src=""stim_listA/copy4.gif""style=""height:400px;""></stim_listA>","","html-keyboard-response","319","1713547","0.0-17.0-1.18","65174","List2A","white","woman","","","","null","","","","","","","","",""
"null","is being copied by","","html-keyboard-response","320","1715550","0.0-17.0-2.18","65174","List2A","white","woman","","","","null","","","","","","","","",""
"8363.90000000596","","","survey-text","321","1723917","0.0-17.0-3.18","65174","List2A","white","woman","","","","","{""Q0"":""Kate is being copied by Fred""}","<img src=""stim_listA/copy4.gif""style=""height:400px;""></stim_listA>","is being copied by","","","","","",""
"null","<div style=""font-size:60px;"">+</div>","","html-keyboard-response","322","1724419","0.0-17.0-0.19","65174","List2A","white","woman","","","","null","","","","","","","","",""
"null","<img src=""stim_listA/seduce8.gif""style=""height:400px;""></stim_listA>","","html-keyboard-response","323","1726427","0.0-17.0-1.19","65174","List2A","white","woman","","","","null","","","","","","","","",""
"null","is being seduced by","","html-keyboard-response","324","1728432","0.0-17.0-2.19","65174","List2A","white","woman","","","","null","","","","","","","","",""
"11314.59999999404","","","survey-text","325","1739752","0.0-17.0-3.19","65174","List2A","white","woman","","","","","{""Q0"":""Jane is being seduced by Beth""}","<img src=""stim_listA/seduce8.gif""style=""height:400px;""></stim_listA>","is being seduced by","","","","","",""
"1742","<img src='img/portrait_matrix_list2.jpg' style='width:900px;height:500px;''></img><p>If you have memorised all the portraits and names and are ready to start, press Continue.</p><p><strong>Please note: Your memory of these faces will be tested 4 times during this experiment.</strong></p>","0","html-button-response","326","1741496","0.0-18.0-0.0","65174","List2A","white","woman","","","","","","","","","","","","",""
"2330.7000000178814","<img src=""portrait/WM2.jpg""style=""height:400px;""></img>","7","html-button-response","327","1744832","0.0-18.0-1.0","65174","List2A","white","woman","","true","7","","","","","","","","","",""
"null","CORRECT","","html-keyboard-response","328","1746343","0.0-18.0-2.0-0.0","65174","List2A","white","woman","","","","null","","","","","","","","",""
"1913.5999999940395","<img src=""portrait/WW1.jpg""style=""height:400px;""></img>","1","html-button-response","329","1748259","0.0-18.0-4.0","65174","List2A","white","woman","","true","1","","","","","","","","","",""
"null","CORRECT","","html-keyboard-response","330","1749765","0.0-18.0-5.0-0.0","65174","List2A","white","woman","","","","null","","","","","","","","",""
"1291.5","<img src=""portrait/WW2.jpg""style=""height:400px;""></img>","3","html-button-response","331","1751059","0.0-18.0-7.0","65174","List2A","white","woman","","true","3","","","","","","","","","",""
"null","CORRECT","","html-keyboard-response","332","1752572","0.0-18.0-8.0-0.0","65174","List2A","white","woman","","","","null","","","","","","","","",""
"1764.2000000178814","<img src=""portrait/BM2.jpg""style=""height:400px;""></img>","5","html-button-response","333","1754339","0.0-18.0-10.0","65174","List2A","white","woman","","true","5","","","","","","","","","",""
"null","CORRECT","","html-keyboard-response","334","1755851","0.0-18.0-11.0-0.0","65174","List2A","white","woman","","","","null","","","","","","","","",""
"2020.300000011921","<img src=""portrait/BW2.jpg""style=""height:400px;""></img>","2","html-button-response","335","1757874","0.0-18.0-13.0","65174","List2A","white","woman","","true","2","","","","","","","","","",""
"null","CORRECT","","html-keyboard-response","336","1759383","0.0-18.0-14.0-0.0","65174","List2A","white","woman","","","","null","","","","","","","","",""
"1434.699999988079","<img src=""portrait/BM1.jpg""style=""height:400px;""></img>","4","html-button-response","337","1760820","0.0-18.0-16.0","65174","List2A","white","woman","","true","4","","","","","","","","","",""
"null","CORRECT","","html-keyboard-response","338","1762328","0.0-18.0-17.0-0.0","65174","List2A","white","woman","","","","null","","","","","","","","",""
"6546.5999999940395","<img src=""portrait/BW1.jpg""style=""height:400px;""></img>","0","html-button-response","339","1768877","0.0-18.0-19.0","65174","List2A","white","woman","","true","0","","","","","","","","","",""
"null","CORRECT","","html-keyboard-response","340","1770388","0.0-18.0-20.0-0.0","65174","List2A","white","woman","","","","null","","","","","","","","",""
"1899.800000011921","<img src=""portrait/WM1.jpg""style=""height:400px;""></img>","6","html-button-response","341","1772291","0.0-18.0-22.0","65174","List2A","white","woman","","true","6","","","","","","","","","",""
"null","CORRECT","","html-keyboard-response","342","1773805","0.0-18.0-23.0-0.0","65174","List2A","white","woman","","","","null","","","","","","","","",""
"2563.0999999940395","<p>You got 8 out of 8 right first time. Press Continue.</p>","0","html-button-response","343","1776370","0.0-18.0-25.0","65174","List2A","white","woman","","","","","","","","","","","","",""
"null","<div style=""font-size:60px;"">+</div>","","html-keyboard-response","344","1777883","0.0-19.0-0.0","65174","List2A","white","woman","","","","null","","","","","","","","",""
"null","<img src=""stim_listA/touch7.gif""style=""height:400px;""></stim_listA>","","html-keyboard-response","345","1779889","0.0-19.0-1.0","65174","List2A","white","woman","","","","null","","","","","","","","",""
"null","is touching","","html-keyboard-response","346","1781898","0.0-19.0-2.0","65174","List2A","white","woman","","","","null","","","","","","","","",""
"8841.59999999404","","","survey-text","347","1790744","0.0-19.0-3.0","65174","List2A","white","woman","","","","","{""Q0"":""Jane is touching Kate""}","<img src=""stim_listA/touch7.gif""style=""height:400px;""></stim_listA>","is touching","","","","","",""
"null","<div style=""font-size:60px;"">+</div>","","html-keyboard-response","348","1791248","0.0-19.0-0.1","65174","List2A","white","woman","","","","null","","","","","","","","",""
"null","<img src=""stim_listA/hug1.gif""style=""height:400px;""></stim_listA>","","html-keyboard-response","349","1793252","0.0-19.0-1.1","65174","List2A","white","woman","","","","null","","","","","","","","",""
"null","is hugging","","html-keyboard-response","350","1795258","0.0-19.0-2.1","65174","List2A","white","woman","","","","null","","","","","","","","",""
"11000.09999999404","","","survey-text","351","1806262","0.0-19.0-3.1","65174","List2A","white","woman","","","","","{""Q0"":""Ruth is hugging Luke""}","<img src=""stim_listA/hug1.gif""style=""height:400px;""></stim_listA>","is hugging","","","","","",""
"null","<div style=""font-size:60px;"">+</div>","","html-keyboard-response","352","1806766","0.0-19.0-0.2","65174","List2A","white","woman","","","","null","","","","","","","","",""
"null","<img src=""stim_listA/oppose3.gif""style=""height:400px;""></stim_listA>","","html-keyboard-response","353","1808770","0.0-19.0-1.2","65174","List2A","white","woman","","","","null","","","","","","","","",""
"null","is opposing","","html-keyboard-response","354","1810774","0.0-19.0-2.2","65174","List2A","white","woman","","","","null","","","","","","","","",""
"6213.100000023842","","","survey-text","355","1816992","0.0-19.0-3.2","65174","List2A","white","woman","","","","","{""Q0"":""Kate is opposing Mike""}","<img src=""stim_listA/oppose3.gif""style=""height:400px;""></stim_listA>","is opposing","","","","","",""
"null","<div style=""font-size:60px;"">+</div>","","html-keyboard-response","356","1817494","0.0-19.0-0.3","65174","List2A","white","woman","","","","null","","","","","","","","",""
"null","<img src=""stim_listA/challenge4.gif""style=""height:400px;""></stim_listA>","","html-keyboard-response","357","1819503","0.0-19.0-1.3","65174","List2A","white","woman","","","","null","","","","","","","","",""
"null","is being challenged by","","html-keyboard-response","358","1821507","0.0-19.0-2.3","65174","List2A","white","woman","","","","null","","","","","","","","",""
"7565.0999999940395","","","survey-text","359","1829076","0.0-19.0-3.3","65174","List2A","white","woman","","","","","{""Q0"":""Fred is being challenged by Kate ""}","<img src=""stim_listA/challenge4.gif""style=""height:400px;""></stim_listA>","is being challenged by","","","","","",""
"null","<div style=""font-size:60px;"">+</div>","","html-keyboard-response","360","1829578","0.0-19.0-0.4","65174","List2A","white","woman","","","","null","","","","","","","","",""
"null","<img src=""stim_listA/challenge6.gif""style=""height:400px;""></stim_listA>","","html-keyboard-response","361","1831584","0.0-19.0-1.4","65174","List2A","white","woman","","","","null","","","","","","","","",""
"null","is being challenged by","","html-keyboard-response","362","1833590","0.0-19.0-2.4","65174","List2A","white","woman","","","","null","","","","","","","","",""
"13718.59999999404","","","survey-text","363","1847313","0.0-19.0-3.4","65174","List2A","white","woman","","","","","{""Q0"":""Luke is being challenged by Mike""}","<img src=""stim_listA/challenge6.gif""style=""height:400px;""></stim_listA>","is being challenged by","","","","","",""
"null","<div style=""font-size:60px;"">+</div>","","html-keyboard-response","364","1847817","0.0-19.0-0.5","65174","List2A","white","woman","","","","null","","","","","","","","",""
"null","<img src=""stim_listA/look6.gif""style=""height:400px;""></stim_listA>","","html-keyboard-response","365","1849822","0.0-19.0-1.5","65174","List2A","white","woman","","","","null","","","","","","","","",""
"null","is being looked at by","","html-keyboard-response","366","1851824","0.0-19.0-2.5","65174","List2A","white","woman","","","","null","","","","","","","","",""
"9105.800000011921","","","survey-text","367","1860934","0.0-19.0-3.5","65174","List2A","white","woman","","","","","{""Q0"":""Mike is being looked at by Dave ""}","<img src=""stim_listA/look6.gif""style=""height:400px;""></stim_listA>","is being looked at by","","","","","",""
"null","<div style=""font-size:60px;"">+</div>","","html-keyboard-response","368","1861437","0.0-19.0-0.6","65174","List2A","white","woman","","","","null","","","","","","","","",""
"null","<img src=""stim_listA/oppose5.gif""style=""height:400px;""></stim_listA>","","html-keyboard-response","369","1863447","0.0-19.0-1.6","65174","List2A","white","woman","","","","null","","","","","","","","",""
"null","is opposing","","html-keyboard-response","370","1865450","0.0-19.0-2.6","65174","List2A","white","woman","","","","null","","","","","","","","",""
"6471","","","survey-text","371","1871925","0.0-19.0-3.6","65174","List2A","white","woman","","","","","{""Q0"":""Mike is opposing Dave ""}","<img src=""stim_listA/oppose5.gif""style=""height:400px;""></stim_listA>","is opposing","","","","","",""
"null","<div style=""font-size:60px;"">+</div>","","html-keyboard-response","372","1872429","0.0-19.0-0.7","65174","List2A","white","woman","","","","null","","","","","","","","",""
"null","<img src=""stim_listA/challenge3.gif""style=""height:400px;""></stim_listA>","","html-keyboard-response","373","1874434","0.0-19.0-1.7","65174","List2A","white","woman","","","","null","","","","","","","","",""
"null","is challenging","","html-keyboard-response","374","1876440","0.0-19.0-2.7","65174","List2A","white","woman","","","","null","","","","","","","","",""
"10335.100000023842","","","survey-text","375","1886779","0.0-19.0-3.7","65174","List2A","white","woman","","","","","{""Q0"":""Mike is challenging Beth""}","<img src=""stim_listA/challenge3.gif""style=""height:400px;""></stim_listA>","is challenging","","","","","",""
"null","<div style=""font-size:60px;"">+</div>","","html-keyboard-response","376","1887285","0.0-19.0-0.8","65174","List2A","white","woman","","","","null","","","","","","","","",""
"null","<img src=""stim_listA/seduce5.gif""style=""height:400px;""></stim_listA>","","html-keyboard-response","377","1889295","0.0-19.0-1.8","65174","List2A","white","woman","","","","null","","","","","","","","",""
"null","is seducing","","html-keyboard-response","378","1891298","0.0-19.0-2.8","65174","List2A","white","woman","","","","null","","","","","","","","",""
"8061.699999988079","","","survey-text","379","1899365","0.0-19.0-3.8","65174","List2A","white","woman","","","","","{""Q0"":""Mike is seducing Luke""}","<img src=""stim_listA/seduce5.gif""style=""height:400px;""></stim_listA>","is seducing","","","","","",""
"null","<div style=""font-size:60px;"">+</div>","","html-keyboard-response","380","1899871","0.0-19.0-0.9","65174","List2A","white","woman","","","","null","","","","","","","","",""
"null","<img src=""stim_listA/touch3.gif""style=""height:400px;""></stim_listA>","","html-keyboard-response","381","1901877","0.0-19.0-1.9","65174","List2A","white","woman","","","","null","","","","","","","","",""
"null","is touching","","html-keyboard-response","382","1903887","0.0-19.0-2.9","65174","List2A","white","woman","","","","null","","","","","","","","",""
"5442.399999976158","","","survey-text","383","1909333","0.0-19.0-3.9","65174","List2A","white","woman","","","","","{""Q0"":""Mike is touching Kate ""}","<img src=""stim_listA/touch3.gif""style=""height:400px;""></stim_listA>","is touching","","","","","",""
"null","<div style=""font-size:60px;"">+</div>","","html-keyboard-response","384","1909840","0.0-19.0-0.10","65174","List2A","white","woman","","","","null","","","","","","","","",""
"null","<img src=""stim_listA/hug2.gif""style=""height:400px;""></stim_listA>","","html-keyboard-response","385","1911850","0.0-19.0-1.10","65174","List2A","white","woman","","","","null","","","","","","","","",""
"null","is being hugged by","","html-keyboard-response","386","1913860","0.0-19.0-2.10","65174","List2A","white","woman","","","","null","","","","","","","","",""
"6992.800000011921","","","survey-text","387","1920859","0.0-19.0-3.10","65174","List2A","white","woman","","","","","{""Q0"":""Dave is being hugged by Jane ""}","<img src=""stim_listA/hug2.gif""style=""height:400px;""></stim_listA>","is being hugged by","","","","","",""
"null","<div style=""font-size:60px;"">+</div>","","html-keyboard-response","388","1921364","0.0-19.0-0.11","65174","List2A","white","woman","","","","null","","","","","","","","",""
"null","<img src=""stim_listA/look3.gif""style=""height:400px;""></stim_listA>","","html-keyboard-response","389","1923375","0.0-19.0-1.11","65174","List2A","white","woman","","","","null","","","","","","","","",""
"null","is looking at","","html-keyboard-response","390","1925378","0.0-19.0-2.11","65174","List2A","white","woman","","","","null","","","","","","","","",""
"5319.5","","","survey-text","391","1930701","0.0-19.0-3.11","65174","List2A","white","woman","","","","","{""Q0"":""Fred is looking at Beth""}","<img src=""stim_listA/look3.gif""style=""height:400px;""></stim_listA>","is looking at","","","","","",""
"null","<div style=""font-size:60px;"">+</div>","","html-keyboard-response","392","1931208","0.0-19.0-0.12","65174","List2A","white","woman","","","","null","","","","","","","","",""
"null","<img src=""stim_listA/challenge8.gif""style=""height:400px;""></stim_listA>","","html-keyboard-response","393","1933214","0.0-19.0-1.12","65174","List2A","white","woman","","","","null","","","","","","","","",""
"null","is being challenged by","","html-keyboard-response","394","1935223","0.0-19.0-2.12","65174","List2A","white","woman","","","","null","","","","","","","","",""
"13661","","","survey-text","395","1948888","0.0-19.0-3.12","65174","List2A","white","woman","","","","","{""Q0"":""Ruth is being challenged by Kate ""}","<img src=""stim_listA/challenge8.gif""style=""height:400px;""></stim_listA>","is being challenged by","","","","","",""
"null","<div style=""font-size:60px;"">+</div>","","html-keyboard-response","396","1949390","0.0-19.0-0.13","65174","List2A","white","woman","","","","null","","","","","","","","",""
"null","<img src=""stim_listA/challenge2.gif""style=""height:400px;""></stim_listA>","","html-keyboard-response","397","1951399","0.0-19.0-1.13","65174","List2A","white","woman","","","","null","","","","","","","","",""
"null","is being challenged by","","html-keyboard-response","398","1953406","0.0-19.0-2.13","65174","List2A","white","woman","","","","null","","","","","","","","",""
"8992","","","survey-text","399","1962402","0.0-19.0-3.13","65174","List2A","white","woman","","","","","{""Q0"":""Luke is being challenged by Jane ""}","<img src=""stim_listA/challenge2.gif""style=""height:400px;""></stim_listA>","is being challenged by","","","","","",""
"null","<div style=""font-size:60px;"">+</div>","","html-keyboard-response","400","1962908","0.0-19.0-0.14","65174","List2A","white","woman","","","","null","","","","","","","","",""
"null","<img src=""stim_listA/greet7.gif""style=""height:400px;""></stim_listA>","","html-keyboard-response","401","1964918","0.0-19.0-1.14","65174","List2A","white","woman","","","","null","","","","","","","","",""
"null","is greeting","","html-keyboard-response","402","1966924","0.0-19.0-2.14","65174","List2A","white","woman","","","","null","","","","","","","","",""
"8300.59999999404","","","survey-text","403","1975228","0.0-19.0-3.14","65174","List2A","white","woman","","","","","{""Q0"":""Jane is greeting Beth""}","<img src=""stim_listA/greet7.gif""style=""height:400px;""></stim_listA>","is greeting","","","","","",""
"null","<div style=""font-size:60px;"">+</div>","","html-keyboard-response","404","1975730","0.0-19.0-0.15","65174","List2A","white","woman","","","","null","","","","","","","","",""
"null","<img src=""stim_listA/touch4.gif""style=""height:400px;""></stim_listA>","","html-keyboard-response","405","1977733","0.0-19.0-1.15","65174","List2A","white","woman","","","","null","","","","","","","","",""
"null","is being touched by","","html-keyboard-response","406","1979735","0.0-19.0-2.15","65174","List2A","white","woman","","","","null","","","","","","","","",""
"12227.59999999404","","","survey-text","407","1991967","0.0-19.0-3.15","65174","List2A","white","woman","","","","","{""Q0"":""Fred is being touched by Beth""}","<img src=""stim_listA/touch4.gif""style=""height:400px;""></stim_listA>","is being touched by","","","","","",""
"null","<div style=""font-size:60px;"">+</div>","","html-keyboard-response","408","1992469","0.0-19.0-0.16","65174","List2A","white","woman","","","","null","","","","","","","","",""
"null","<img src=""stim_listA/look7.gif""style=""height:400px;""></stim_listA>","","html-keyboard-response","409","1994478","0.0-19.0-1.16","65174","List2A","white","woman","","","","null","","","","","","","","",""
"null","is looking at","","html-keyboard-response","410","1996483","0.0-19.0-2.16","65174","List2A","white","woman","","","","null","","","","","","","","",""
"8454.5","","","survey-text","411","2004942","0.0-19.0-3.16","65174","List2A","white","woman","","","","","{""Q0"":""Ruth is looking at Beth""}","<img src=""stim_listA/look7.gif""style=""height:400px;""></stim_listA>","is looking at","","","","","",""
"null","<div style=""font-size:60px;"">+</div>","","html-keyboard-response","412","2005448","0.0-19.0-0.17","65174","List2A","white","woman","","","","null","","","","","","","","",""
"null","<img src=""stim_listA/seduce7.gif""style=""height:400px;""></stim_listA>","","html-keyboard-response","413","2007454","0.0-19.0-1.17","65174","List2A","white","woman","","","","null","","","","","","","","",""
"null","is seducing","","html-keyboard-response","414","2009461","0.0-19.0-2.17","65174","List2A","white","woman","","","","null","","","","","","","","",""
"7386.9000000059605","","","survey-text","415","2016852","0.0-19.0-3.17","65174","List2A","white","woman","","","","","{""Q0"":""Ruth is seducing Kate ""}","<img src=""stim_listA/seduce7.gif""style=""height:400px;""></stim_listA>","is seducing","","","","","",""
"null","<div style=""font-size:60px;"">+</div>","","html-keyboard-response","416","2017354","0.0-19.0-0.18","65174","List2A","white","woman","","","","null","","","","","","","","",""
"null","<img src=""stim_listA/touch2.gif""style=""height:400px;""></stim_listA>","","html-keyboard-response","417","2019360","0.0-19.0-1.18","65174","List2A","white","woman","","","","null","","","","","","","","",""
"null","is being touched by","","html-keyboard-response","418","2021369","0.0-19.0-2.18","65174","List2A","white","woman","","","","null","","","","","","","","",""
"8582.90000000596","","","survey-text","419","2029956","0.0-19.0-3.18","65174","List2A","white","woman","","","","","{""Q0"":""Ruth is being touched by Luke""}","<img src=""stim_listA/touch2.gif""style=""height:400px;""></stim_listA>","is being touched by","","","","","",""
"null","<div style=""font-size:60px;"">+</div>","","html-keyboard-response","420","2030460","0.0-19.0-0.19","65174","List2A","white","woman","","","","null","","","","","","","","",""
"null","<img src=""stim_listA/challenge7.gif""style=""height:400px;""></stim_listA>","","html-keyboard-response","421","2032469","0.0-19.0-1.19","65174","List2A","white","woman","","","","null","","","","","","","","",""
"null","is challenging","","html-keyboard-response","422","2034474","0.0-19.0-2.19","65174","List2A","white","woman","","","","null","","","","","","","","",""
"5132","","","survey-text","423","2039611","0.0-19.0-3.19","65174","List2A","white","woman","","","","","{""Q0"":""Jane is challenging Beth""}","<img src=""stim_listA/challenge7.gif""style=""height:400px;""></stim_listA>","is challenging","","","","","",""
"2461.2999999821186","<p>Thank you for completing that task.</p><p>The final part of this session is a questionnaire that will take about 4 minutes.</p><p>Press Continue.</p>","0","html-button-response","424","2042074","0.0-20.0","65174","List2A","white","woman","","","","","","","","","","","","",""
"24935.09999999404","","","survey-text","425","2068024","0.0-21.0","65174","List2A","white","woman","","","","","{""Q0"":""19"",""Q1"":""English "",""Q2"":""English"",""Q3"":""United States"",""Q4"":""American "",""Q5"":""White "",""Q6"":""Female ""}","","","demographics","","","","",""
"3111.699999988079","<p>Have you lived in the USA for the last 5 years or more?</p>","0","html-button-response","426","2071142","0.0-22.0","65174","List2A","white","woman","","","","","","","","fiveyears","","","","",""
"2012.699999988079","<p>Move the slider to show the extent to which you agree with the following statements.</p>","0","html-button-response","427","2074159","0.0-23.0","65174","List2A","white","woman","","","","","","","","","","","","",""
"9640.699999988079","","","html-slider-response","428","2084807","0.0-24.0-0.0-0.0","65174","List2A","white","woman","","","","","","","","survey_gender","63","","","I have a lot in common with the average person of my gender.","average"
"3387.5999999940395","","","html-slider-response","429","2088199","0.0-24.0-0.0-0.1","65174","List2A","white","woman","","","","","","","","survey_gender","66","","","My friends understand me.","filler"
"3647.7999999821186","","","html-slider-response","430","2091849","0.0-24.0-0.0-0.2","65174","List2A","white","woman","","","","","","","","survey_gender","33","","","Routine is not important to me.","filler"
"10927.600000023842","","","html-slider-response","431","2102782","0.0-24.0-0.0-0.3","65174","List2A","white","woman","","","","","","","","survey_gender","89","","","I feel a bond with my gender.","bond"
"4372.4000000059605","","","html-slider-response","432","2107158","0.0-24.0-0.0-0.4","65174","List2A","white","woman","","","","","","","","survey_gender","89","","","Being around my friends gives me a good feeling.","filler"
"7421.100000023842","","","html-slider-response","433","2114584","0.0-24.0-0.0-0.5","65174","List2A","white","woman","","","","","","","","survey_gender","75","","","Family is not more important to me than friendship.","filler"
"6058.5999999940395","","","html-slider-response","434","2120646","0.0-24.0-0.0-0.6","65174","List2A","white","woman","","","","","","","","survey_gender","26","","","The fact that I am my gender is an important part of my identity.","identity"
"3946.199999988079","","","html-slider-response","435","2124598","0.0-24.0-0.0-0.7","65174","List2A","white","woman","","","","","","","","survey_gender","30","","","People of my gender are very similar to each other.","verysimilar"
"3781.199999988079","","","html-slider-response","436","2128383","0.0-24.0-0.0-0.8","65174","List2A","white","woman","","","","","","","","survey_gender","63","","","I feel solidarity with my gender.","solidarity"
"2786.199999988079","","","html-slider-response","437","2131174","0.0-24.0-0.0-0.9","65174","List2A","white","woman","","","","","","","","survey_gender","86","","","I feel a bond with my friends.","filler"
"3805.699999988079","","","html-slider-response","438","2134983","0.0-24.0-0.0-0.10","65174","List2A","white","woman","","","","","","","","survey_gender","28","","","Being my gender is an important part of how I see myself.","important"
"3527.399999976158","","","html-slider-response","439","2138515","0.0-24.0-0.0-0.11","65174","List2A","white","woman","","","","","","","","survey_gender","75","","","I feel committed to my gender.","committed"
"4887.5","","","html-slider-response","440","2143406","0.0-24.0-0.0-0.12","65174","List2A","white","woman","","","","","","","","survey_gender","74","","","It is not always easy for people to know what I am thinking.","filler"
"3766.9000000059605","","","html-slider-response","441","2147177","0.0-24.0-0.0-0.13","65174","List2A","white","woman","","","","","","","","survey_gender","62","","","I am similar to the average person of my gender.","similar"
"3718.600000023842","","","html-slider-response","442","2150898","0.0-24.0-0.0-0.14","65174","List2A","white","woman","","","","","","","","survey_gender","100","","","I consider myself a highly empathetic person.","filler"
"3469.0999999940395","","","html-slider-response","443","2154371","0.0-24.0-0.0-0.15","65174","List2A","white","woman","","","","","","","","survey_gender","69","","","Most of the friends in my life are very similar to me.","filler"
"3284.9000000059605","","","html-slider-response","444","2157657","0.0-24.0-0.0-0.16","65174","List2A","white","woman","","","","","","","","survey_gender","58","","","I think that my gender has a lot to be proud of.","proud"
"3490.5999999940395","","","html-slider-response","445","2161151","0.0-24.0-0.0-0.17","65174","List2A","white","woman","","","","","","","","survey_gender","65","","","It is pleasant to be my gender.","pleasant"
"2967.7000000178814","","","html-slider-response","446","2164123","0.0-24.0-0.0-0.18","65174","List2A","white","woman","","","","","","","","survey_gender","94","","","I often think about my actions.","filler"
"32319","","","html-slider-response","447","2196443","0.0-24.0-0.0-0.19","65174","List2A","white","woman","","","","","","","","survey_gender","79","","","Being my gender gives me a good feeling.","feeling"
"3983.699999988079","","","html-slider-response","448","2200431","0.0-24.0-0.0-0.20","65174","List2A","white","woman","","","","","","","","survey_gender","33","","","I often think about the fact that I am my gender.","often"
"3008.5","","","html-slider-response","449","2203443","0.0-24.0-0.0-0.21","65174","List2A","white","woman","","","","","","","","survey_gender","70","","","I have a lot in common with my friends.","filler"
"2181.2000000178814","","","html-slider-response","450","2205629","0.0-24.0-0.0-0.22","65174","List2A","white","woman","","","","","","","","survey_gender","65","","","I feel solidarity with my friends.","filler"
"4867","","","html-slider-response","451","2210499","0.0-24.0-0.0-0.23","65174","List2A","white","woman","","","","","","","","survey_gender","65","","","My friends have a lot in common with each other.","filler"
"4170.5","","","html-slider-response","452","2214674","0.0-24.0-0.0-0.24","65174","List2A","white","woman","","","","","","","","survey_gender","57","","","People of my gender have a lot in common with each other.","common"
"2565.9000000059605","","","html-slider-response","453","2217244","0.0-24.0-0.0-0.25","65174","List2A","white","woman","","","","","","","","survey_gender","68","","","I am glad to have the friends that I have.","filler"
"3135.5","","","html-slider-response","454","2220382","0.0-24.0-0.0-0.26","65174","List2A","white","woman","","","","","","","","survey_gender","89","","","I would say I am an animal person.","filler"
"3720.300000011921","","","html-slider-response","455","2224105","0.0-24.0-0.0-0.27","65174","List2A","white","woman","","","","","","","","survey_gender","56","","","I am glad to be my gender.","glad"
"3625.4000000059605","","","html-slider-response","456","2227734","0.0-24.0-1.0-0.0","65174","List2A","white","woman","","","","","","","","survey_race","66","","","I am glad to be the age I am.","filler"
"3362.199999988079","","","html-slider-response","457","2231100","0.0-24.0-1.0-0.1","65174","List2A","white","woman","","","","","","","","survey_race","59","","","I feel solidarity with people the same age as me.","filler"
"2473.5","","","html-slider-response","458","2233577","0.0-24.0-1.0-0.2","65174","List2A","white","woman","","","","","","","","survey_race","63","","","Being my age gives me a good feeling.","filler"
"3905","","","html-slider-response","459","2237484","0.0-24.0-1.0-0.3","65174","List2A","white","woman","","","","","","","","survey_race","40","","","People my age have a lot in common with each other.","filler"
"2837.800000011921","","","html-slider-response","460","2240324","0.0-24.0-1.0-0.4","65174","List2A","white","woman","","","","","","","","survey_race","57","","","I feel solidarity with my race.","solidarity"
"2673.5999999940395","","","html-slider-response","461","2243000","0.0-24.0-1.0-0.5","65174","List2A","white","woman","","","","","","","","survey_race","12","","","I consider myself an extrovert.","filler"
"3166.0999999940395","","","html-slider-response","462","2246170","0.0-24.0-1.0-0.6","65174","List2A","white","woman","","","","","","","","survey_race","43","","","I feel a bond with my race.","bond"
"3620","","","html-slider-response","463","2249792","0.0-24.0-1.0-0.7","65174","List2A","white","woman","","","","","","","","survey_race","40","","","I have a lot in common with people of a similar age to me.","filler"
"3812.7999999821186","","","html-slider-response","464","2253609","0.0-24.0-1.0-0.8","65174","List2A","white","woman","","","","","","","","survey_race","38","","","I enjoy being in large groups.","filler"
"3918","","","html-slider-response","465","2257532","0.0-24.0-1.0-0.9","65174","List2A","white","woman","","","","","","","","survey_race","54","","","People of my race have a lot in common with each other.","common"
"2868.4000000059605","","","html-slider-response","466","2260404","0.0-24.0-1.0-0.10","65174","List2A","white","woman","","","","","","","","survey_race","44","","","I often think about the fact that I am my age.","filler"
"2413.9000000059605","","","html-slider-response","467","2262821","0.0-24.0-1.0-0.11","65174","List2A","white","woman","","","","","","","","survey_race","34","","","Being my race is an important part of how I see myself.","important"
"2734.5","","","html-slider-response","468","2265560","0.0-24.0-1.0-0.12","65174","List2A","white","woman","","","","","","","","survey_race","84","","","I consider myself an introvert.","filler"
"3199.0999999940395","","","html-slider-response","469","2268762","0.0-24.0-1.0-0.13","65174","List2A","white","woman","","","","","","","","survey_race","69","","","I am glad to be my race.","glad"
"3297","","","html-slider-response","470","2272062","0.0-24.0-1.0-0.14","65174","List2A","white","woman","","","","","","","","survey_race","55","","","People of my race are very similar to each other.","verysimilar"
"3631.0999999940395","","","html-slider-response","471","2275695","0.0-24.0-1.0-0.15","65174","List2A","white","woman","","","","","","","","survey_race","40","","","I am similar to the average person of my race.","similar"
"5354.0999999940395","","","html-slider-response","472","2281053","0.0-24.0-1.0-0.16","65174","List2A","white","woman","","","","","","","","survey_race","38","","","I often think about the fact that I am my race.","often"
"2840.5","","","html-slider-response","473","2283897","0.0-24.0-1.0-0.17","65174","List2A","white","woman","","","","","","","","survey_race","23","","","I think that my race has a lot to be proud of.","proud"
"2832.5","","","html-slider-response","474","2286731","0.0-24.0-1.0-0.18","65174","List2A","white","woman","","","","","","","","survey_race","61","","","It is pleasant to be my race.","pleasant"
"2203.5999999940395","","","html-slider-response","475","2288938","0.0-24.0-1.0-0.19","65174","List2A","white","woman","","","","","","","","survey_race","31","","","I feel committed to my race.","committed"
