"rt","stimulus","button_pressed","trial_type","trial_index","time_elapsed","internal_node_id","subject","list","ppt_race","ppt_gender","url","first_guess","correct","key_press","responses","image_type","phrase_type","test_part","response","stimulus1","stimulus2","question_type","survey_item"
"5502.300000071526","Welcome to the experiment. Press Continue to begin.","0","html-button-response","0","5504","0.0-0.0","66300","List2B","white","man","","","","","","","","","","","","",""
"48422.10000002384","","","external-html","1","55257","0.0-1.0","66300","List2B","white","man","consent.html","","","","","","","","","","","",""
"13668","<p>On the next page, you will see portraits of 8 people and their names.</p><p>Your first task is to take a few minutes to memorise the names of these people.</p><p>You will have to recall their names during the rest of the experiment, so it is</p><p>essential that you try to memorise these people and their names as best as you can.</p><br><p><strong>You will then be tested on your memory of these names and portraits.</strong></p><br><p>The experiment will start after you have completed this memory test.</p><br><p>Ready?</p>","0","html-button-response","2","68925","0.0-2.0","66300","List2B","white","man","","","","","","","","","","","","",""
"42741.40000009537","<img src='img/portrait_matrix_list2.jpg' style='width:900px;height:500px;''></img><p>If you have memorised all the portraits and names and are ready to start, press Continue.</p><p><strong>Please note: Your memory of these faces will be tested 4 times during this experiment.</strong></p>","0","html-button-response","3","112669","0.0-3.0-0.0","66300","List2B","white","man","","","","","","","","","","","","",""
"7642.5","<img src=""portrait/WM1.jpg""style=""height:400px;""></img>","6","html-button-response","4","121313","0.0-3.0-1.0","66300","List2B","white","man","","true","6","","","","","","","","","",""
"null","CORRECT","","html-keyboard-response","5","122817","0.0-3.0-2.0-0.0","66300","List2B","white","man","","","","null","","","","","","","","",""
"4209.799999952316","<img src=""portrait/WM2.jpg""style=""height:400px;""></img>","7","html-button-response","6","127029","0.0-3.0-4.0","66300","List2B","white","man","","true","7","","","","","","","","","",""
"null","CORRECT","","html-keyboard-response","7","128532","0.0-3.0-5.0-0.0","66300","List2B","white","man","","","","null","","","","","","","","",""
"3020.5","<img src=""portrait/BW1.jpg""style=""height:400px;""></img>","0","html-button-response","8","131553","0.0-3.0-7.0","66300","List2B","white","man","","true","0","","","","","","","","","",""
"null","CORRECT","","html-keyboard-response","9","133055","0.0-3.0-8.0-0.0","66300","List2B","white","man","","","","null","","","","","","","","",""
"6762","<img src=""portrait/WW1.jpg""style=""height:400px;""></img>","1","html-button-response","10","139818","0.0-3.0-10.0","66300","List2B","white","man","","true","1","","","","","","","","","",""
"null","CORRECT","","html-keyboard-response","11","141319","0.0-3.0-11.0-0.0","66300","List2B","white","man","","","","null","","","","","","","","",""
"5272.399999976158","<img src=""portrait/BW2.jpg""style=""height:400px;""></img>","2","html-button-response","12","146592","0.0-3.0-13.0","66300","List2B","white","man","","true","2","","","","","","","","","",""
"null","CORRECT","","html-keyboard-response","13","148094","0.0-3.0-14.0-0.0","66300","List2B","white","man","","","","null","","","","","","","","",""
"3526.100000023842","<img src=""portrait/BM2.jpg""style=""height:400px;""></img>","5","html-button-response","14","151621","0.0-3.0-16.0","66300","List2B","white","man","","true","5","","","","","","","","","",""
"null","CORRECT","","html-keyboard-response","15","153122","0.0-3.0-17.0-0.0","66300","List2B","white","man","","","","null","","","","","","","","",""
"1896.8000000715256","<img src=""portrait/WW2.jpg""style=""height:400px;""></img>","3","html-button-response","16","155019","0.0-3.0-19.0","66300","List2B","white","man","","true","3","","","","","","","","","",""
"null","CORRECT","","html-keyboard-response","17","156521","0.0-3.0-20.0-0.0","66300","List2B","white","man","","","","null","","","","","","","","",""
"2736.5","<img src=""portrait/BM1.jpg""style=""height:400px;""></img>","4","html-button-response","18","159258","0.0-3.0-22.0","66300","List2B","white","man","","true","4","","","","","","","","","",""
"null","CORRECT","","html-keyboard-response","19","160760","0.0-3.0-23.0-0.0","66300","List2B","white","man","","","","null","","","","","","","","",""
"3032.600000023842","<p>You got 8 out of 8 right first time. Press Continue.</p>","0","html-button-response","20","163794","0.0-3.0-25.0","66300","List2B","white","man","","","","","","","","","","","","",""
"30148.700000047684","<p>In this experiment, you will view photographs of the people from the memory game interacting.</p><p>By using the <strong>exact</strong> phrase given <i>after</i> the photograph appears and recalling the correct names of the people in the photographs, form a sentence describing the interaction. You do not need to capitalise names.</p><p>Type your answer in the space provided. Please complete every sentence before moving onto the next trial.</p><p>You will only have a few seconds to memorise each given photograph and phrase before you can respond, so try your best to focus.</p><p>An example is given below. Press 'Continue' when you are ready.</p><img src='img/speaking_example.jpg' style='width:800px;height:460px;''></img>","0","html-button-response","21","194946","0.0-4.0","66300","List2B","white","man","","","","","","","","","","","","",""
"2660.7000000476837","<p>Before the experiment starts, you will watch two example trials. Press 'Continue'.</p>","0","html-button-response","22","198609","0.0-5.0","66300","List2B","white","man","","","","","","","","","","","","",""
"null","<img src='img/play_eg.gif' style='height:400px;''></img>","","html-keyboard-response","23","201612","0.0-6.0","66300","List2B","white","man","","","","null","","","","","","","","",""
"null","<p>is playing with</p>","","html-keyboard-response","24","203614","0.0-7.0","66300","List2B","white","man","","","","null","","","","","","","","",""
"3332.8000000715256","<p><b>Answer:</b> jane is playing with ruth</p>","0","html-button-response","25","206947","0.0-8.0","66300","List2B","white","man","","","","","","","","","","","","",""
"null","<img src='img/dance_eg.gif' style='height:400px;''></img>","","html-keyboard-response","26","209950","0.0-9.0","66300","List2B","white","man","","","","null","","","","","","","","",""
"null","<p>is being entertained by</p>","","html-keyboard-response","27","211951","0.0-10.0","66300","List2B","white","man","","","","null","","","","","","","","",""
"5955","<p><b>Answer:</b> fred is being entertained by mike</p>","0","html-button-response","28","217907","0.0-11.0","66300","List2B","white","man","","","","","","","","","","","","",""
"12021","<p>Ready to start the experiment?</p><br><p><strong>Remember to describe the picture using a full sentence,</strong></p><p><strong>that combines the names of the people with the <i>exact</i> phrase given.</strong></p><p><strong>To receive full payment you must do this correctly.</strong></p><p><strong> You do not need to capitalise names or use punctuation.</strong></p><br><p>Press 'Continue' to begin.</p>","0","html-button-response","29","230931","0.0-12.0","66300","List2B","white","man","","","","","","","","","","","","",""
"null","<div style=""font-size:60px;"">+</div>","","html-keyboard-response","30","232434","0.0-13.0-0.0","66300","List2B","white","man","","","","null","","","","","","","","",""
"null","<img src=""stim_listB/touch6.gif""style=""height:400px;""></stim_listB>","","html-keyboard-response","31","234436","0.0-13.0-1.0","66300","List2B","white","man","","","","null","","","","","","","","",""
"null","is being touched by","","html-keyboard-response","32","236443","0.0-13.0-2.0","66300","List2B","white","man","","","","null","","","","","","","","",""
"10158.600000023842","","","survey-text","33","246604","0.0-13.0-3.0","66300","List2B","white","man","","","","","{""Q0"":""Luke is being touched by Fred""}","<img src=""stim_listB/touch6.gif""style=""height:400px;""></stim_listB>","is being touched by","","","","","",""
"null","<div style=""font-size:60px;"">+</div>","","html-keyboard-response","34","247106","0.0-13.0-0.1","66300","List2B","white","man","","","","null","","","","","","","","",""
"null","<img src=""stim_listB/hug5.gif""style=""height:400px;""></stim_listB>","","html-keyboard-response","35","249107","0.0-13.0-1.1","66300","List2B","white","man","","","","null","","","","","","","","",""
"null","is hugging","","html-keyboard-response","36","251109","0.0-13.0-2.1","66300","List2B","white","man","","","","null","","","","","","","","",""
"9014.399999976158","","","survey-text","37","260125","0.0-13.0-3.1","66300","List2B","white","man","","","","","{""Q0"":""Luke is hugging Fred""}","<img src=""stim_listB/hug5.gif""style=""height:400px;""></stim_listB>","is hugging","","","","","",""
"null","<div style=""font-size:60px;"">+</div>","","html-keyboard-response","38","260626","0.0-13.0-0.2","66300","List2B","white","man","","","","null","","","","","","","","",""
"null","<img src=""stim_listB/hug4.gif""style=""height:400px;""></stim_listB>","","html-keyboard-response","39","262628","0.0-13.0-1.2","66300","List2B","white","man","","","","null","","","","","","","","",""
"null","is being hugged by","","html-keyboard-response","40","264628","0.0-13.0-2.2","66300","List2B","white","man","","","","null","","","","","","","","",""
"9802.600000023842","","","survey-text","41","274432","0.0-13.0-3.2","66300","List2B","white","man","","","","","{""Q0"":""Kate is being hugged by Mike""}","<img src=""stim_listB/hug4.gif""style=""height:400px;""></stim_listB>","is being hugged by","","","","","",""
"null","<div style=""font-size:60px;"">+</div>","","html-keyboard-response","42","274934","0.0-13.0-0.3","66300","List2B","white","man","","","","null","","","","","","","","",""
"null","<img src=""stim_listB/seduce7.gif""style=""height:400px;""></stim_listB>","","html-keyboard-response","43","276937","0.0-13.0-1.3","66300","List2B","white","man","","","","null","","","","","","","","",""
"null","is seducing","","html-keyboard-response","44","278938","0.0-13.0-2.3","66300","List2B","white","man","","","","null","","","","","","","","",""
"11215.899999976158","","","survey-text","45","290155","0.0-13.0-3.3","66300","List2B","white","man","","","","","{""Q0"":""Kate is seducing Ruth""}","<img src=""stim_listB/seduce7.gif""style=""height:400px;""></stim_listB>","is seducing","","","","","",""
"null","<div style=""font-size:60px;"">+</div>","","html-keyboard-response","46","290657","0.0-13.0-0.4","66300","List2B","white","man","","","","null","","","","","","","","",""
"null","<img src=""stim_listB/kiss1.gif""style=""height:400px;""></stim_listB>","","html-keyboard-response","47","292659","0.0-13.0-1.4","66300","List2B","white","man","","","","null","","","","","","","","",""
"null","is kissing","","html-keyboard-response","48","294660","0.0-13.0-2.4","66300","List2B","white","man","","","","null","","","","","","","","",""
"7325.100000023842","","","survey-text","49","301987","0.0-13.0-3.4","66300","List2B","white","man","","","","","{""Q0"":""Luke is kissing Ruth""}","<img src=""stim_listB/kiss1.gif""style=""height:400px;""></stim_listB>","is kissing","","","","","",""
"null","<div style=""font-size:60px;"">+</div>","","html-keyboard-response","50","302489","0.0-13.0-0.5","66300","List2B","white","man","","","","null","","","","","","","","",""
"null","<img src=""stim_listB/shout3.gif""style=""height:400px;""></stim_listB>","","html-keyboard-response","51","304491","0.0-13.0-1.5","66300","List2B","white","man","","","","null","","","","","","","","",""
"null","is shouting at","","html-keyboard-response","52","306493","0.0-13.0-2.5","66300","List2B","white","man","","","","null","","","","","","","","",""
"9936.800000071526","","","survey-text","53","316431","0.0-13.0-3.5","66300","List2B","white","man","","","","","{""Q0"":""Beth is shouting at Fred""}","<img src=""stim_listB/shout3.gif""style=""height:400px;""></stim_listB>","is shouting at","","","","","",""
"null","<div style=""font-size:60px;"">+</div>","","html-keyboard-response","54","316933","0.0-13.0-0.6","66300","List2B","white","man","","","","null","","","","","","","","",""
"null","<img src=""stim_listB/seduce6.gif""style=""height:400px;""></stim_listB>","","html-keyboard-response","55","318935","0.0-13.0-1.6","66300","List2B","white","man","","","","null","","","","","","","","",""
"null","is being seduced by","","html-keyboard-response","56","320936","0.0-13.0-2.6","66300","List2B","white","man","","","","null","","","","","","","","",""
"11582.200000047684","","","survey-text","57","332519","0.0-13.0-3.6","66300","List2B","white","man","","","","","{""Q0"":""Dave is being seduced by Fred""}","<img src=""stim_listB/seduce6.gif""style=""height:400px;""></stim_listB>","is being seduced by","","","","","",""
"null","<div style=""font-size:60px;"">+</div>","","html-keyboard-response","58","333021","0.0-13.0-0.7","66300","List2B","white","man","","","","null","","","","","","","","",""
"null","<img src=""stim_listB/look7.gif""style=""height:400px;""></stim_listB>","","html-keyboard-response","59","335023","0.0-13.0-1.7","66300","List2B","white","man","","","","null","","","","","","","","",""
"null","is looking at","","html-keyboard-response","60","337024","0.0-13.0-2.7","66300","List2B","white","man","","","","null","","","","","","","","",""
"6339.400000095367","","","survey-text","61","343366","0.0-13.0-3.7","66300","List2B","white","man","","","","","{""Q0"":""Ruth is looking at Beth""}","<img src=""stim_listB/look7.gif""style=""height:400px;""></stim_listB>","is looking at","","","","","",""
"null","<div style=""font-size:60px;"">+</div>","","html-keyboard-response","62","343881","0.0-13.0-0.8","66300","List2B","white","man","","","","null","","","","","","","","",""
"null","<img src=""stim_listB/greet7.gif""style=""height:400px;""></stim_listB>","","html-keyboard-response","63","345883","0.0-13.0-1.8","66300","List2B","white","man","","","","null","","","","","","","","",""
"null","is greeting","","html-keyboard-response","64","347884","0.0-13.0-2.8","66300","List2B","white","man","","","","null","","","","","","","","",""
"8128.800000071526","","","survey-text","65","356015","0.0-13.0-3.8","66300","List2B","white","man","","","","","{""Q0"":""Beth is greeting Jane""}","<img src=""stim_listB/greet7.gif""style=""height:400px;""></stim_listB>","is greeting","","","","","",""
"null","<div style=""font-size:60px;"">+</div>","","html-keyboard-response","66","356515","0.0-13.0-0.9","66300","List2B","white","man","","","","null","","","","","","","","",""
"null","<img src=""stim_listB/oppose2.gif""style=""height:400px;""></stim_listB>","","html-keyboard-response","67","358518","0.0-13.0-1.9","66300","List2B","white","man","","","","null","","","","","","","","",""
"null","is being opposed by","","html-keyboard-response","68","360520","0.0-13.0-2.9","66300","List2B","white","man","","","","null","","","","","","","","",""
"12521.599999904633","","","survey-text","69","373044","0.0-13.0-3.9","66300","List2B","white","man","","","","","{""Q0"":""Ruth is being opposed by Luke""}","<img src=""stim_listB/oppose2.gif""style=""height:400px;""></stim_listB>","is being opposed by","","","","","",""
"null","<div style=""font-size:60px;"">+</div>","","html-keyboard-response","70","373544","0.0-13.0-0.10","66300","List2B","white","man","","","","null","","","","","","","","",""
"null","<img src=""stim_listB/challenge1.gif""style=""height:400px;""></stim_listB>","","html-keyboard-response","71","375546","0.0-13.0-1.10","66300","List2B","white","man","","","","null","","","","","","","","",""
"null","is challenging","","html-keyboard-response","72","377547","0.0-13.0-2.10","66300","List2B","white","man","","","","null","","","","","","","","",""
"7879.900000095367","","","survey-text","73","385429","0.0-13.0-3.10","66300","List2B","white","man","","","","","{""Q0"":""Ruth is challenging Dave""}","<img src=""stim_listB/challenge1.gif""style=""height:400px;""></stim_listB>","is challenging","","","","","",""
"null","<div style=""font-size:60px;"">+</div>","","html-keyboard-response","74","385929","0.0-13.0-0.11","66300","List2B","white","man","","","","null","","","","","","","","",""
"null","<img src=""stim_listB/hug3.gif""style=""height:400px;""></stim_listB>","","html-keyboard-response","75","387930","0.0-13.0-1.11","66300","List2B","white","man","","","","null","","","","","","","","",""
"null","is hugging","","html-keyboard-response","76","389932","0.0-13.0-2.11","66300","List2B","white","man","","","","null","","","","","","","","",""
"6564.900000095367","","","survey-text","77","396501","0.0-13.0-3.11","66300","List2B","white","man","","","","","{""Q0"":""Fred is hugging Beth""}","<img src=""stim_listB/hug3.gif""style=""height:400px;""></stim_listB>","is hugging","","","","","",""
"null","<div style=""font-size:60px;"">+</div>","","html-keyboard-response","78","397001","0.0-13.0-0.12","66300","List2B","white","man","","","","null","","","","","","","","",""
"null","<img src=""stim_listB/shout2.gif""style=""height:400px;""></stim_listB>","","html-keyboard-response","79","399003","0.0-13.0-1.12","66300","List2B","white","man","","","","null","","","","","","","","",""
"null","is being shouted at by","","html-keyboard-response","80","401003","0.0-13.0-2.12","66300","List2B","white","man","","","","null","","","","","","","","",""
"10252.199999928474","","","survey-text","81","411258","0.0-13.0-3.12","66300","List2B","white","man","","","","","{""Q0"":""Jane is being shouted at by Dave""}","<img src=""stim_listB/shout2.gif""style=""height:400px;""></stim_listB>","is being shouted at by","","","","","",""
"null","<div style=""font-size:60px;"">+</div>","","html-keyboard-response","82","411759","0.0-13.0-0.13","66300","List2B","white","man","","","","null","","","","","","","","",""
"null","<img src=""stim_listB/seduce1.gif""style=""height:400px;""></stim_listB>","","html-keyboard-response","83","413761","0.0-13.0-1.13","66300","List2B","white","man","","","","null","","","","","","","","",""
"null","is seducing","","html-keyboard-response","84","415762","0.0-13.0-2.13","66300","List2B","white","man","","","","null","","","","","","","","",""
"7442.600000023842","","","survey-text","85","423207","0.0-13.0-3.13","66300","List2B","white","man","","","","","{""Q0"":""Jane is seducing Luke""}","<img src=""stim_listB/seduce1.gif""style=""height:400px;""></stim_listB>","is seducing","","","","","",""
"null","<div style=""font-size:60px;"">+</div>","","html-keyboard-response","86","423708","0.0-13.0-0.14","66300","List2B","white","man","","","","null","","","","","","","","",""
"null","<img src=""stim_listB/shout6.gif""style=""height:400px;""></stim_listB>","","html-keyboard-response","87","425710","0.0-13.0-1.14","66300","List2B","white","man","","","","null","","","","","","","","",""
"null","is being shouted at by","","html-keyboard-response","88","427711","0.0-13.0-2.14","66300","List2B","white","man","","","","null","","","","","","","","",""
"10408.899999976158","","","survey-text","89","438121","0.0-13.0-3.14","66300","List2B","white","man","","","","","{""Q0"":""Mike is being shouted at by Dave""}","<img src=""stim_listB/shout6.gif""style=""height:400px;""></stim_listB>","is being shouted at by","","","","","",""
"null","<div style=""font-size:60px;"">+</div>","","html-keyboard-response","90","438623","0.0-13.0-0.15","66300","List2B","white","man","","","","null","","","","","","","","",""
"null","<img src=""stim_listB/copy8.gif""style=""height:400px;""></stim_listB>","","html-keyboard-response","91","440624","0.0-13.0-1.15","66300","List2B","white","man","","","","null","","","","","","","","",""
"null","is being copied by","","html-keyboard-response","92","442625","0.0-13.0-2.15","66300","List2B","white","man","","","","null","","","","","","","","",""
"7635.900000095367","","","survey-text","93","450262","0.0-13.0-3.15","66300","List2B","white","man","","","","","{""Q0"":""Kate is being copied by Ruth""}","<img src=""stim_listB/copy8.gif""style=""height:400px;""></stim_listB>","is being copied by","","","","","",""
"null","<div style=""font-size:60px;"">+</div>","","html-keyboard-response","94","450763","0.0-13.0-0.16","66300","List2B","white","man","","","","null","","","","","","","","",""
"null","<img src=""stim_listB/look3.gif""style=""height:400px;""></stim_listB>","","html-keyboard-response","95","452765","0.0-13.0-1.16","66300","List2B","white","man","","","","null","","","","","","","","",""
"null","is looking at","","html-keyboard-response","96","454766","0.0-13.0-2.16","66300","List2B","white","man","","","","null","","","","","","","","",""
"6495.399999976158","","","survey-text","97","461263","0.0-13.0-3.16","66300","List2B","white","man","","","","","{""Q0"":""Fred is looking at Beth""}","<img src=""stim_listB/look3.gif""style=""height:400px;""></stim_listB>","is looking at","","","","","",""
"null","<div style=""font-size:60px;"">+</div>","","html-keyboard-response","98","461765","0.0-13.0-0.17","66300","List2B","white","man","","","","null","","","","","","","","",""
"null","<img src=""stim_listB/touch3.gif""style=""height:400px;""></stim_listB>","","html-keyboard-response","99","463767","0.0-13.0-1.17","66300","List2B","white","man","","","","null","","","","","","","","",""
"null","is touching","","html-keyboard-response","100","465769","0.0-13.0-2.17","66300","List2B","white","man","","","","null","","","","","","","","",""
"6562.800000071526","","","survey-text","101","472333","0.0-13.0-3.17","66300","List2B","white","man","","","","","{""Q0"":""Mike is touching Kate""}","<img src=""stim_listB/touch3.gif""style=""height:400px;""></stim_listB>","is touching","","","","","",""
"null","<div style=""font-size:60px;"">+</div>","","html-keyboard-response","102","472833","0.0-13.0-0.18","66300","List2B","white","man","","","","null","","","","","","","","",""
"null","<img src=""stim_listB/kiss2.gif""style=""height:400px;""></stim_listB>","","html-keyboard-response","103","474835","0.0-13.0-1.18","66300","List2B","white","man","","","","null","","","","","","","","",""
"null","is being kissed by","","html-keyboard-response","104","476837","0.0-13.0-2.18","66300","List2B","white","man","","","","null","","","","","","","","",""
"8741.200000047684","","","survey-text","105","485580","0.0-13.0-3.18","66300","List2B","white","man","","","","","{""Q0"":""Dave is being kissed by Jane""}","<img src=""stim_listB/kiss2.gif""style=""height:400px;""></stim_listB>","is being kissed by","","","","","",""
"null","<div style=""font-size:60px;"">+</div>","","html-keyboard-response","106","486080","0.0-13.0-0.19","66300","List2B","white","man","","","","null","","","","","","","","",""
"null","<img src=""stim_listB/hug8.gif""style=""height:400px;""></stim_listB>","","html-keyboard-response","107","488082","0.0-13.0-1.19","66300","List2B","white","man","","","","null","","","","","","","","",""
"null","is being hugged by","","html-keyboard-response","108","490083","0.0-13.0-2.19","66300","List2B","white","man","","","","null","","","","","","","","",""
"8127.200000047684","","","survey-text","109","498212","0.0-13.0-3.19","66300","List2B","white","man","","","","","{""Q0"":""Kate is being hugged by Jane""}","<img src=""stim_listB/hug8.gif""style=""height:400px;""></stim_listB>","is being hugged by","","","","","",""
"5095.899999976158","<img src='img/portrait_matrix_list2.jpg' style='width:900px;height:500px;''></img><p>If you have memorised all the portraits and names and are ready to start, press Continue.</p><p><strong>Please note: Your memory of these faces will be tested 4 times during this experiment.</strong></p>","0","html-button-response","110","503309","0.0-14.0-0.0","66300","List2B","white","man","","","","","","","","","","","","",""
"3496","<img src=""portrait/WM2.jpg""style=""height:400px;""></img>","7","html-button-response","111","507806","0.0-14.0-1.0","66300","List2B","white","man","","true","7","","","","","","","","","",""
"null","CORRECT","","html-keyboard-response","112","509310","0.0-14.0-2.0-0.0","66300","List2B","white","man","","","","null","","","","","","","","",""
"3037.8000000715256","<img src=""portrait/BW2.jpg""style=""height:400px;""></img>","2","html-button-response","113","512349","0.0-14.0-4.0","66300","List2B","white","man","","true","2","","","","","","","","","",""
"null","CORRECT","","html-keyboard-response","114","513852","0.0-14.0-5.0-0.0","66300","List2B","white","man","","","","null","","","","","","","","",""
"2712.5","<img src=""portrait/WW2.jpg""style=""height:400px;""></img>","3","html-button-response","115","516565","0.0-14.0-7.0","66300","List2B","white","man","","true","3","","","","","","","","","",""
"null","CORRECT","","html-keyboard-response","116","518067","0.0-14.0-8.0-0.0","66300","List2B","white","man","","","","null","","","","","","","","",""
"2504.7999999523163","<img src=""portrait/BW1.jpg""style=""height:400px;""></img>","0","html-button-response","117","520572","0.0-14.0-10.0","66300","List2B","white","man","","true","0","","","","","","","","","",""
"null","CORRECT","","html-keyboard-response","118","522075","0.0-14.0-11.0-0.0","66300","List2B","white","man","","","","null","","","","","","","","",""
"2567.8000000715256","<img src=""portrait/WW1.jpg""style=""height:400px;""></img>","1","html-button-response","119","524643","0.0-14.0-13.0","66300","List2B","white","man","","true","1","","","","","","","","","",""
"null","CORRECT","","html-keyboard-response","120","526145","0.0-14.0-14.0-0.0","66300","List2B","white","man","","","","null","","","","","","","","",""
"2639.8000000715256","<img src=""portrait/BM1.jpg""style=""height:400px;""></img>","4","html-button-response","121","528785","0.0-14.0-16.0","66300","List2B","white","man","","true","4","","","","","","","","","",""
"null","CORRECT","","html-keyboard-response","122","530288","0.0-14.0-17.0-0.0","66300","List2B","white","man","","","","null","","","","","","","","",""
"1469.3999999761581","<img src=""portrait/BM2.jpg""style=""height:400px;""></img>","5","html-button-response","123","531758","0.0-14.0-19.0","66300","List2B","white","man","","true","5","","","","","","","","","",""
"null","CORRECT","","html-keyboard-response","124","533261","0.0-14.0-20.0-0.0","66300","List2B","white","man","","","","null","","","","","","","","",""
"1953.6999999284744","<img src=""portrait/WM1.jpg""style=""height:400px;""></img>","6","html-button-response","125","535216","0.0-14.0-22.0","66300","List2B","white","man","","true","6","","","","","","","","","",""
"null","CORRECT","","html-keyboard-response","126","536726","0.0-14.0-23.0-0.0","66300","List2B","white","man","","","","null","","","","","","","","",""
"985.3999999761581","<p>You got 8 out of 8 right first time. Press Continue.</p>","0","html-button-response","127","537713","0.0-14.0-25.0","66300","List2B","white","man","","","","","","","","","","","","",""
"null","<div style=""font-size:60px;"">+</div>","","html-keyboard-response","128","539215","0.0-15.0-0.0","66300","List2B","white","man","","","","null","","","","","","","","",""
"null","<img src=""stim_listB/hug7.gif""style=""height:400px;""></stim_listB>","","html-keyboard-response","129","541216","0.0-15.0-1.0","66300","List2B","white","man","","","","null","","","","","","","","",""
"null","is hugging","","html-keyboard-response","130","543217","0.0-15.0-2.0","66300","List2B","white","man","","","","null","","","","","","","","",""
"7375","","","survey-text","131","550594","0.0-15.0-3.0","66300","List2B","white","man","","","","","{""Q0"":""Beth is hugging Ruth""}","<img src=""stim_listB/hug7.gif""style=""height:400px;""></stim_listB>","is hugging","","","","","",""
"null","<div style=""font-size:60px;"">+</div>","","html-keyboard-response","132","551094","0.0-15.0-0.1","66300","List2B","white","man","","","","null","","","","","","","","",""
"null","<img src=""stim_listB/hug1.gif""style=""height:400px;""></stim_listB>","","html-keyboard-response","133","553095","0.0-15.0-1.1","66300","List2B","white","man","","","","null","","","","","","","","",""
"null","is hugging","","html-keyboard-response","134","555096","0.0-15.0-2.1","66300","List2B","white","man","","","","null","","","","","","","","",""
"7535.299999952316","","","survey-text","135","562636","0.0-15.0-3.1","66300","List2B","white","man","","","","","{""Q0"":""Ruth is hugging Luke""}","<img src=""stim_listB/hug1.gif""style=""height:400px;""></stim_listB>","is hugging","","","","","",""
"null","<div style=""font-size:60px;"">+</div>","","html-keyboard-response","136","563137","0.0-15.0-0.2","66300","List2B","white","man","","","","null","","","","","","","","",""
"null","<img src=""stim_listB/challenge6.gif""style=""height:400px;""></stim_listB>","","html-keyboard-response","137","565138","0.0-15.0-1.2","66300","List2B","white","man","","","","null","","","","","","","","",""
"null","is being challenged by","","html-keyboard-response","138","567140","0.0-15.0-2.2","66300","List2B","white","man","","","","null","","","","","","","","",""
"8551.799999952316","","","survey-text","139","575693","0.0-15.0-3.2","66300","List2B","white","man","","","","","{""Q0"":""Mike is being challenged by Luke""}","<img src=""stim_listB/challenge6.gif""style=""height:400px;""></stim_listB>","is being challenged by","","","","","",""
"null","<div style=""font-size:60px;"">+</div>","","html-keyboard-response","140","576194","0.0-15.0-0.3","66300","List2B","white","man","","","","null","","","","","","","","",""
"null","<img src=""stim_listB/copy3.gif""style=""height:400px;""></stim_listB>","","html-keyboard-response","141","578196","0.0-15.0-1.3","66300","List2B","white","man","","","","null","","","","","","","","",""
"null","is copying","","html-keyboard-response","142","580198","0.0-15.0-2.3","66300","List2B","white","man","","","","null","","","","","","","","",""
"6727.5","","","survey-text","143","586927","0.0-15.0-3.3","66300","List2B","white","man","","","","","{""Q0"":""Beth is copying Mike""}","<img src=""stim_listB/copy3.gif""style=""height:400px;""></stim_listB>","is copying","","","","","",""
"null","<div style=""font-size:60px;"">+</div>","","html-keyboard-response","144","587428","0.0-15.0-0.4","66300","List2B","white","man","","","","null","","","","","","","","",""
"null","<img src=""stim_listB/kiss7.gif""style=""height:400px;""></stim_listB>","","html-keyboard-response","145","589430","0.0-15.0-1.4","66300","List2B","white","man","","","","null","","","","","","","","",""
"null","is kissing","","html-keyboard-response","146","591431","0.0-15.0-2.4","66300","List2B","white","man","","","","null","","","","","","","","",""
"4109.400000095367","","","survey-text","147","595544","0.0-15.0-3.4","66300","List2B","white","man","","","","","{""Q0"":""Beth is kissing Ruth""}","<img src=""stim_listB/kiss7.gif""style=""height:400px;""></stim_listB>","is kissing","","","","","",""
"null","<div style=""font-size:60px;"">+</div>","","html-keyboard-response","148","596046","0.0-15.0-0.5","66300","List2B","white","man","","","","null","","","","","","","","",""
"null","<img src=""stim_listB/seduce4.gif""style=""height:400px;""></stim_listB>","","html-keyboard-response","149","598047","0.0-15.0-1.5","66300","List2B","white","man","","","","null","","","","","","","","",""
"null","is being seduced by","","html-keyboard-response","150","600048","0.0-15.0-2.5","66300","List2B","white","man","","","","null","","","","","","","","",""
"7216.800000071526","","","survey-text","151","607266","0.0-15.0-3.5","66300","List2B","white","man","","","","","{""Q0"":""Beth is being seduced by Mike""}","<img src=""stim_listB/seduce4.gif""style=""height:400px;""></stim_listB>","is being seduced by","","","","","",""
"null","<div style=""font-size:60px;"">+</div>","","html-keyboard-response","152","607767","0.0-15.0-0.6","66300","List2B","white","man","","","","null","","","","","","","","",""
"null","<img src=""stim_listB/oppose6.gif""style=""height:400px;""></stim_listB>","","html-keyboard-response","153","609768","0.0-15.0-1.6","66300","List2B","white","man","","","","null","","","","","","","","",""
"null","is being opposed by","","html-keyboard-response","154","611770","0.0-15.0-2.6","66300","List2B","white","man","","","","null","","","","","","","","",""
"9613","","","survey-text","155","621384","0.0-15.0-3.6","66300","List2B","white","man","","","","","{""Q0"":""Fred is being opposed by Luke""}","<img src=""stim_listB/oppose6.gif""style=""height:400px;""></stim_listB>","is being opposed by","","","","","",""
"null","<div style=""font-size:60px;"">+</div>","","html-keyboard-response","156","621885","0.0-15.0-0.7","66300","List2B","white","man","","","","null","","","","","","","","",""
"null","<img src=""stim_listB/greet4.gif""style=""height:400px;""></stim_listB>","","html-keyboard-response","157","623886","0.0-15.0-1.7","66300","List2B","white","man","","","","null","","","","","","","","",""
"null","is being greeted by","","html-keyboard-response","158","625887","0.0-15.0-2.7","66300","List2B","white","man","","","","null","","","","","","","","",""
"8516","","","survey-text","159","634405","0.0-15.0-3.7","66300","List2B","white","man","","","","","{""Q0"":""Fred is being greeted by Kate""}","<img src=""stim_listB/greet4.gif""style=""height:400px;""></stim_listB>","is being greeted by","","","","","",""
"null","<div style=""font-size:60px;"">+</div>","","html-keyboard-response","160","634907","0.0-15.0-0.8","66300","List2B","white","man","","","","null","","","","","","","","",""
"null","<img src=""stim_listB/look6.gif""style=""height:400px;""></stim_listB>","","html-keyboard-response","161","636908","0.0-15.0-1.8","66300","List2B","white","man","","","","null","","","","","","","","",""
"null","is being looked at by","","html-keyboard-response","162","638909","0.0-15.0-2.8","66300","List2B","white","man","","","","null","","","","","","","","",""
"8625","","","survey-text","163","647536","0.0-15.0-3.8","66300","List2B","white","man","","","","","{""Q0"":""Dave is being looked at by Mike""}","<img src=""stim_listB/look6.gif""style=""height:400px;""></stim_listB>","is being looked at by","","","","","",""
"null","<div style=""font-size:60px;"">+</div>","","html-keyboard-response","164","648037","0.0-15.0-0.9","66300","List2B","white","man","","","","null","","","","","","","","",""
"null","<img src=""stim_listB/oppose1.gif""style=""height:400px;""></stim_listB>","","html-keyboard-response","165","650038","0.0-15.0-1.9","66300","List2B","white","man","","","","null","","","","","","","","",""
"null","is opposing","","html-keyboard-response","166","652040","0.0-15.0-2.9","66300","List2B","white","man","","","","null","","","","","","","","",""
"7205.700000047684","","","survey-text","167","659247","0.0-15.0-3.9","66300","List2B","white","man","","","","","{""Q0"":""Jane is opposing Dave""}","<img src=""stim_listB/oppose1.gif""style=""height:400px;""></stim_listB>","is opposing","","","","","",""
"null","<div style=""font-size:60px;"">+</div>","","html-keyboard-response","168","659748","0.0-15.0-0.10","66300","List2B","white","man","","","","null","","","","","","","","",""
"null","<img src=""stim_listB/copy6.gif""style=""height:400px;""></stim_listB>","","html-keyboard-response","169","661749","0.0-15.0-1.10","66300","List2B","white","man","","","","null","","","","","","","","",""
"null","is being copied by","","html-keyboard-response","170","663751","0.0-15.0-2.10","66300","List2B","white","man","","","","null","","","","","","","","",""
"11198.299999952316","","","survey-text","171","674950","0.0-15.0-3.10","66300","List2B","white","man","","","","","{""Q0"":""Luke is being copied by Mike""}","<img src=""stim_listB/copy6.gif""style=""height:400px;""></stim_listB>","is being copied by","","","","","",""
"null","<div style=""font-size:60px;"">+</div>","","html-keyboard-response","172","675451","0.0-15.0-0.11","66300","List2B","white","man","","","","null","","","","","","","","",""
"null","<img src=""stim_listB/copy5.gif""style=""height:400px;""></stim_listB>","","html-keyboard-response","173","677452","0.0-15.0-1.11","66300","List2B","white","man","","","","null","","","","","","","","",""
"null","is copying","","html-keyboard-response","174","679454","0.0-15.0-2.11","66300","List2B","white","man","","","","null","","","","","","","","",""
"6519.100000023842","","","survey-text","175","685975","0.0-15.0-3.11","66300","List2B","white","man","","","","","{""Q0"":""Fred is copying Dave""}","<img src=""stim_listB/copy5.gif""style=""height:400px;""></stim_listB>","is copying","","","","","",""
"null","<div style=""font-size:60px;"">+</div>","","html-keyboard-response","176","686476","0.0-15.0-0.12","66300","List2B","white","man","","","","null","","","","","","","","",""
"null","<img src=""stim_listB/kiss6.gif""style=""height:400px;""></stim_listB>","","html-keyboard-response","177","688478","0.0-15.0-1.12","66300","List2B","white","man","","","","null","","","","","","","","",""
"null","is being kissed by","","html-keyboard-response","178","690480","0.0-15.0-2.12","66300","List2B","white","man","","","","null","","","","","","","","",""
"7520.200000047684","","","survey-text","179","698001","0.0-15.0-3.12","66300","List2B","white","man","","","","","{""Q0"":""Dave is being kissed by Mike""}","<img src=""stim_listB/kiss6.gif""style=""height:400px;""></stim_listB>","is being kissed by","","","","","",""
"null","<div style=""font-size:60px;"">+</div>","","html-keyboard-response","180","698502","0.0-15.0-0.13","66300","List2B","white","man","","","","null","","","","","","","","",""
"null","<img src=""stim_listB/shout4.gif""style=""height:400px;""></stim_listB>","","html-keyboard-response","181","700504","0.0-15.0-1.13","66300","List2B","white","man","","","","null","","","","","","","","",""
"null","is being shouted at by","","html-keyboard-response","182","702506","0.0-15.0-2.13","66300","List2B","white","man","","","","null","","","","","","","","",""
"6583.399999976158","","","survey-text","183","709091","0.0-15.0-3.13","66300","List2B","white","man","","","","","{""Q0"":""Mike is being shouted at by Kate""}","<img src=""stim_listB/shout4.gif""style=""height:400px;""></stim_listB>","is being shouted at by","","","","","",""
"null","<div style=""font-size:60px;"">+</div>","","html-keyboard-response","184","709592","0.0-15.0-0.14","66300","List2B","white","man","","","","null","","","","","","","","",""
"null","<img src=""stim_listB/shout1.gif""style=""height:400px;""></stim_listB>","","html-keyboard-response","185","711594","0.0-15.0-1.14","66300","List2B","white","man","","","","null","","","","","","","","",""
"null","is shouting at","","html-keyboard-response","186","713595","0.0-15.0-2.14","66300","List2B","white","man","","","","null","","","","","","","","",""
"5801.599999904633","","","survey-text","187","719398","0.0-15.0-3.14","66300","List2B","white","man","","","","","{""Q0"":""Ruth is shouting at Luke""}","<img src=""stim_listB/shout1.gif""style=""height:400px;""></stim_listB>","is shouting at","","","","","",""
"null","<div style=""font-size:60px;"">+</div>","","html-keyboard-response","188","719900","0.0-15.0-0.15","66300","List2B","white","man","","","","null","","","","","","","","",""
"null","<img src=""stim_listB/touch8.gif""style=""height:400px;""></stim_listB>","","html-keyboard-response","189","721901","0.0-15.0-1.15","66300","List2B","white","man","","","","null","","","","","","","","",""
"null","is being touched by","","html-keyboard-response","190","723903","0.0-15.0-2.15","66300","List2B","white","man","","","","null","","","","","","","","",""
"6855.699999928474","","","survey-text","191","730760","0.0-15.0-3.15","66300","List2B","white","man","","","","","{""Q0"":""Ruth is being touched by Beth""}","<img src=""stim_listB/touch8.gif""style=""height:400px;""></stim_listB>","is being touched by","","","","","",""
"null","<div style=""font-size:60px;"">+</div>","","html-keyboard-response","192","731262","0.0-15.0-0.16","66300","List2B","white","man","","","","null","","","","","","","","",""
"null","<img src=""stim_listB/greet6.gif""style=""height:400px;""></stim_listB>","","html-keyboard-response","193","733264","0.0-15.0-1.16","66300","List2B","white","man","","","","null","","","","","","","","",""
"null","is being greeted by","","html-keyboard-response","194","735266","0.0-15.0-2.16","66300","List2B","white","man","","","","null","","","","","","","","",""
"9325.699999928474","","","survey-text","195","744593","0.0-15.0-3.16","66300","List2B","white","man","","","","","{""Q0"":""Luke is being greeted by Mike""}","<img src=""stim_listB/greet6.gif""style=""height:400px;""></stim_listB>","is being greeted by","","","","","",""
"null","<div style=""font-size:60px;"">+</div>","","html-keyboard-response","196","745093","0.0-15.0-0.17","66300","List2B","white","man","","","","null","","","","","","","","",""
"null","<img src=""stim_listB/copy7.gif""style=""height:400px;""></stim_listB>","","html-keyboard-response","197","747094","0.0-15.0-1.17","66300","List2B","white","man","","","","null","","","","","","","","",""
"null","is copying","","html-keyboard-response","198","749096","0.0-15.0-2.17","66300","List2B","white","man","","","","null","","","","","","","","",""
"5263.399999976158","","","survey-text","199","754361","0.0-15.0-3.17","66300","List2B","white","man","","","","","{""Q0"":""Jane is copying Beth""}","<img src=""stim_listB/copy7.gif""style=""height:400px;""></stim_listB>","is copying","","","","","",""
"null","<div style=""font-size:60px;"">+</div>","","html-keyboard-response","200","754862","0.0-15.0-0.18","66300","List2B","white","man","","","","null","","","","","","","","",""
"null","<img src=""stim_listB/touch1.gif""style=""height:400px;""></stim_listB>","","html-keyboard-response","201","756864","0.0-15.0-1.18","66300","List2B","white","man","","","","null","","","","","","","","",""
"null","is touching","","html-keyboard-response","202","758865","0.0-15.0-2.18","66300","List2B","white","man","","","","null","","","","","","","","",""
"3420.8000000715256","","","survey-text","203","762288","0.0-15.0-3.18","66300","List2B","white","man","","","","","{""Q0"":""Dave is touching Jane""}","<img src=""stim_listB/touch1.gif""style=""height:400px;""></stim_listB>","is touching","","","","","",""
"null","<div style=""font-size:60px;"">+</div>","","html-keyboard-response","204","762789","0.0-15.0-0.19","66300","List2B","white","man","","","","null","","","","","","","","",""
"null","<img src=""stim_listB/look8.gif""style=""height:400px;""></stim_listB>","","html-keyboard-response","205","764792","0.0-15.0-1.19","66300","List2B","white","man","","","","null","","","","","","","","",""
"null","is being looked at by","","html-keyboard-response","206","766793","0.0-15.0-2.19","66300","List2B","white","man","","","","null","","","","","","","","",""
"7978.600000023842","","","survey-text","207","774774","0.0-15.0-3.19","66300","List2B","white","man","","","","","{""Q0"":""Kate is being looked at by Jane""}","<img src=""stim_listB/look8.gif""style=""height:400px;""></stim_listB>","is being looked at by","","","","","",""
"8169.800000071526","<img src='img/portrait_matrix_list2.jpg' style='width:900px;height:500px;''></img><p>If you have memorised all the portraits and names and are ready to start, press Continue.</p><p><strong>Please note: Your memory of these faces will be tested 4 times during this experiment.</strong></p>","0","html-button-response","208","782944","0.0-16.0-0.0","66300","List2B","white","man","","","","","","","","","","","","",""
"3744.100000023842","<img src=""portrait/WW1.jpg""style=""height:400px;""></img>","1","html-button-response","209","787691","0.0-16.0-1.0","66300","List2B","white","man","","true","1","","","","","","","","","",""
"null","CORRECT","","html-keyboard-response","210","789194","0.0-16.0-2.0-0.0","66300","List2B","white","man","","","","null","","","","","","","","",""
"2910","<img src=""portrait/BM1.jpg""style=""height:400px;""></img>","4","html-button-response","211","792105","0.0-16.0-4.0","66300","List2B","white","man","","true","4","","","","","","","","","",""
"null","CORRECT","","html-keyboard-response","212","793608","0.0-16.0-5.0-0.0","66300","List2B","white","man","","","","null","","","","","","","","",""
"1903.7000000476837","<img src=""portrait/WM2.jpg""style=""height:400px;""></img>","7","html-button-response","213","795512","0.0-16.0-7.0","66300","List2B","white","man","","true","7","","","","","","","","","",""
"null","CORRECT","","html-keyboard-response","214","797015","0.0-16.0-8.0-0.0","66300","List2B","white","man","","","","null","","","","","","","","",""
"2524.100000023842","<img src=""portrait/BW2.jpg""style=""height:400px;""></img>","2","html-button-response","215","799540","0.0-16.0-10.0","66300","List2B","white","man","","true","2","","","","","","","","","",""
"null","CORRECT","","html-keyboard-response","216","801042","0.0-16.0-11.0-0.0","66300","List2B","white","man","","","","null","","","","","","","","",""
"2882.7000000476837","<img src=""portrait/WM1.jpg""style=""height:400px;""></img>","6","html-button-response","217","803925","0.0-16.0-13.0","66300","List2B","white","man","","true","6","","","","","","","","","",""
"null","CORRECT","","html-keyboard-response","218","805430","0.0-16.0-14.0-0.0","66300","List2B","white","man","","","","null","","","","","","","","",""
"2036.2999999523163","<img src=""portrait/BW1.jpg""style=""height:400px;""></img>","0","html-button-response","219","807467","0.0-16.0-16.0","66300","List2B","white","man","","true","0","","","","","","","","","",""
"null","CORRECT","","html-keyboard-response","220","808970","0.0-16.0-17.0-0.0","66300","List2B","white","man","","","","null","","","","","","","","",""
"1928.8999999761581","<img src=""portrait/WW2.jpg""style=""height:400px;""></img>","3","html-button-response","221","810900","0.0-16.0-19.0","66300","List2B","white","man","","true","3","","","","","","","","","",""
"null","CORRECT","","html-keyboard-response","222","812403","0.0-16.0-20.0-0.0","66300","List2B","white","man","","","","null","","","","","","","","",""
"1898.7000000476837","<img src=""portrait/BM2.jpg""style=""height:400px;""></img>","5","html-button-response","223","814302","0.0-16.0-22.0","66300","List2B","white","man","","true","5","","","","","","","","","",""
"null","CORRECT","","html-keyboard-response","224","815815","0.0-16.0-23.0-0.0","66300","List2B","white","man","","","","null","","","","","","","","",""
"931.2999999523163","<p>You got 8 out of 8 right first time. Press Continue.</p>","0","html-button-response","225","816747","0.0-16.0-25.0","66300","List2B","white","man","","","","","","","","","","","","",""
"null","<div style=""font-size:60px;"">+</div>","","html-keyboard-response","226","818250","0.0-17.0-0.0","66300","List2B","white","man","","","","null","","","","","","","","",""
"null","<img src=""stim_listB/hug6.gif""style=""height:400px;""></stim_listB>","","html-keyboard-response","227","820251","0.0-17.0-1.0","66300","List2B","white","man","","","","null","","","","","","","","",""
"null","is being hugged by","","html-keyboard-response","228","822252","0.0-17.0-2.0","66300","List2B","white","man","","","","null","","","","","","","","",""
"5086.299999952316","","","survey-text","229","827340","0.0-17.0-3.0","66300","List2B","white","man","","","","","{""Q0"":""Mike is being hugged by Dave""}","<img src=""stim_listB/hug6.gif""style=""height:400px;""></stim_listB>","is being hugged by","","","","","",""
"null","<div style=""font-size:60px;"">+</div>","","html-keyboard-response","230","827841","0.0-17.0-0.1","66300","List2B","white","man","","","","null","","","","","","","","",""
"null","<img src=""stim_listB/shout5.gif""style=""height:400px;""></stim_listB>","","html-keyboard-response","231","829843","0.0-17.0-1.1","66300","List2B","white","man","","","","null","","","","","","","","",""
"null","is shouting at","","html-keyboard-response","232","831844","0.0-17.0-2.1","66300","List2B","white","man","","","","null","","","","","","","","",""
"4621.600000023842","","","survey-text","233","836467","0.0-17.0-3.1","66300","List2B","white","man","","","","","{""Q0"":""Luke is shouting at Fred""}","<img src=""stim_listB/shout5.gif""style=""height:400px;""></stim_listB>","is shouting at","","","","","",""
"null","<div style=""font-size:60px;"">+</div>","","html-keyboard-response","234","836968","0.0-17.0-0.2","66300","List2B","white","man","","","","null","","","","","","","","",""
"null","<img src=""stim_listB/touch2.gif""style=""height:400px;""></stim_listB>","","html-keyboard-response","235","838970","0.0-17.0-1.2","66300","List2B","white","man","","","","null","","","","","","","","",""
"null","is being touched by","","html-keyboard-response","236","840972","0.0-17.0-2.2","66300","List2B","white","man","","","","null","","","","","","","","",""
"4970.100000023842","","","survey-text","237","845947","0.0-17.0-3.2","66300","List2B","white","man","","","","","{""Q0"":""Ruth is being touched by Luke""}","<img src=""stim_listB/touch2.gif""style=""height:400px;""></stim_listB>","is being touched by","","","","","",""
"null","<div style=""font-size:60px;"">+</div>","","html-keyboard-response","238","846449","0.0-17.0-0.3","66300","List2B","white","man","","","","null","","","","","","","","",""
"null","<img src=""stim_listB/oppose3.gif""style=""height:400px;""></stim_listB>","","html-keyboard-response","239","848450","0.0-17.0-1.3","66300","List2B","white","man","","","","null","","","","","","","","",""
"null","is opposing","","html-keyboard-response","240","850451","0.0-17.0-2.3","66300","List2B","white","man","","","","null","","","","","","","","",""
"4942.800000071526","","","survey-text","241","855395","0.0-17.0-3.3","66300","List2B","white","man","","","","","{""Q0"":""Mike is opposing Kate""}","<img src=""stim_listB/oppose3.gif""style=""height:400px;""></stim_listB>","is opposing","","","","","",""
"null","<div style=""font-size:60px;"">+</div>","","html-keyboard-response","242","855897","0.0-17.0-0.4","66300","List2B","white","man","","","","null","","","","","","","","",""
"null","<img src=""stim_listB/greet2.gif""style=""height:400px;""></stim_listB>","","html-keyboard-response","243","857898","0.0-17.0-1.4","66300","List2B","white","man","","","","null","","","","","","","","",""
"null","is being greeted by","","html-keyboard-response","244","859900","0.0-17.0-2.4","66300","List2B","white","man","","","","null","","","","","","","","",""
"4786","","","survey-text","245","864691","0.0-17.0-3.4","66300","List2B","white","man","","","","","{""Q0"":""Luke is being greeted by Jane""}","<img src=""stim_listB/greet2.gif""style=""height:400px;""></stim_listB>","is being greeted by","","","","","",""
"null","<div style=""font-size:60px;"">+</div>","","html-keyboard-response","246","865191","0.0-17.0-0.5","66300","List2B","white","man","","","","null","","","","","","","","",""
"null","<img src=""stim_listB/challenge4.gif""style=""height:400px;""></stim_listB>","","html-keyboard-response","247","867194","0.0-17.0-1.5","66300","List2B","white","man","","","","null","","","","","","","","",""
"null","is being challenged by","","html-keyboard-response","248","869195","0.0-17.0-2.5","66300","List2B","white","man","","","","null","","","","","","","","",""
"5766.900000095367","","","survey-text","249","874967","0.0-17.0-3.5","66300","List2B","white","man","","","","","{""Q0"":""Fred is being challenged by Kate""}","<img src=""stim_listB/challenge4.gif""style=""height:400px;""></stim_listB>","is being challenged by","","","","","",""
"null","<div style=""font-size:60px;"">+</div>","","html-keyboard-response","250","875469","0.0-17.0-0.6","66300","List2B","white","man","","","","null","","","","","","","","",""
"null","<img src=""stim_listB/look5.gif""style=""height:400px;""></stim_listB>","","html-keyboard-response","251","877470","0.0-17.0-1.6","66300","List2B","white","man","","","","null","","","","","","","","",""
"null","is looking at","","html-keyboard-response","252","879470","0.0-17.0-2.6","66300","List2B","white","man","","","","null","","","","","","","","",""
"4959.399999976158","","","survey-text","253","884431","0.0-17.0-3.6","66300","List2B","white","man","","","","","{""Q0"":""Luke is looking at Fred""}","<img src=""stim_listB/look5.gif""style=""height:400px;""></stim_listB>","is looking at","","","","","",""
"null","<div style=""font-size:60px;"">+</div>","","html-keyboard-response","254","884933","0.0-17.0-0.7","66300","List2B","white","man","","","","null","","","","","","","","",""
"null","<img src=""stim_listB/shout8.gif""style=""height:400px;""></stim_listB>","","html-keyboard-response","255","886934","0.0-17.0-1.7","66300","List2B","white","man","","","","null","","","","","","","","",""
"null","is being shouted at by","","html-keyboard-response","256","888936","0.0-17.0-2.7","66300","List2B","white","man","","","","null","","","","","","","","",""
"6578.399999976158","","","survey-text","257","895516","0.0-17.0-3.7","66300","List2B","white","man","","","","","{""Q0"":""Kate is being shouted at by Jane""}","<img src=""stim_listB/shout8.gif""style=""height:400px;""></stim_listB>","is being shouted at by","","","","","",""
"null","<div style=""font-size:60px;"">+</div>","","html-keyboard-response","258","896017","0.0-17.0-0.8","66300","List2B","white","man","","","","null","","","","","","","","",""
"null","<img src=""stim_listB/seduce3.gif""style=""height:400px;""></stim_listB>","","html-keyboard-response","259","898021","0.0-17.0-1.8","66300","List2B","white","man","","","","null","","","","","","","","",""
"null","is seducing","","html-keyboard-response","260","900023","0.0-17.0-2.8","66300","List2B","white","man","","","","null","","","","","","","","",""
"3682.5","","","survey-text","261","903707","0.0-17.0-3.8","66300","List2B","white","man","","","","","{""Q0"":""Kate is seducing Fred""}","<img src=""stim_listB/seduce3.gif""style=""height:400px;""></stim_listB>","is seducing","","","","","",""
"null","<div style=""font-size:60px;"">+</div>","","html-keyboard-response","262","904208","0.0-17.0-0.9","66300","List2B","white","man","","","","null","","","","","","","","",""
"null","<img src=""stim_listB/challenge2.gif""style=""height:400px;""></stim_listB>","","html-keyboard-response","263","906221","0.0-17.0-1.9","66300","List2B","white","man","","","","null","","","","","","","","",""
"null","is being challenged by","","html-keyboard-response","264","908222","0.0-17.0-2.9","66300","List2B","white","man","","","","null","","","","","","","","",""
"6343.799999952316","","","survey-text","265","914568","0.0-17.0-3.9","66300","List2B","white","man","","","","","{""Q0"":""Jane is being challenged by Luke""}","<img src=""stim_listB/challenge2.gif""style=""height:400px;""></stim_listB>","is being challenged by","","","","","",""
"null","<div style=""font-size:60px;"">+</div>","","html-keyboard-response","266","915069","0.0-17.0-0.10","66300","List2B","white","man","","","","null","","","","","","","","",""
"null","<img src=""stim_listB/greet8.gif""style=""height:400px;""></stim_listB>","","html-keyboard-response","267","917071","0.0-17.0-1.10","66300","List2B","white","man","","","","null","","","","","","","","",""
"null","is being greeted by","","html-keyboard-response","268","919072","0.0-17.0-2.10","66300","List2B","white","man","","","","null","","","","","","","","",""
"5962.100000023842","","","survey-text","269","925036","0.0-17.0-3.10","66300","List2B","white","man","","","","","{""Q0"":""Ruth is being greeted by Kate""}","<img src=""stim_listB/greet8.gif""style=""height:400px;""></stim_listB>","is being greeted by","","","","","",""
"null","<div style=""font-size:60px;"">+</div>","","html-keyboard-response","270","925537","0.0-17.0-0.11","66300","List2B","white","man","","","","null","","","","","","","","",""
"null","<img src=""stim_listB/kiss5.gif""style=""height:400px;""></stim_listB>","","html-keyboard-response","271","927539","0.0-17.0-1.11","66300","List2B","white","man","","","","null","","","","","","","","",""
"null","is kissing","","html-keyboard-response","272","929540","0.0-17.0-2.11","66300","List2B","white","man","","","","null","","","","","","","","",""
"4594.200000047684","","","survey-text","273","934137","0.0-17.0-3.11","66300","List2B","white","man","","","","","{""Q0"":""Fred is kissing Luke""}","<img src=""stim_listB/kiss5.gif""style=""height:400px;""></stim_listB>","is kissing","","","","","",""
"null","<div style=""font-size:60px;"">+</div>","","html-keyboard-response","274","934638","0.0-17.0-0.12","66300","List2B","white","man","","","","null","","","","","","","","",""
"null","<img src=""stim_listB/look2.gif""style=""height:400px;""></stim_listB>","","html-keyboard-response","275","936641","0.0-17.0-1.12","66300","List2B","white","man","","","","null","","","","","","","","",""
"null","is being looked at by","","html-keyboard-response","276","938654","0.0-17.0-2.12","66300","List2B","white","man","","","","null","","","","","","","","",""
"6784","","","survey-text","277","945440","0.0-17.0-3.12","66300","List2B","white","man","","","","","{""Q0"":""Dave is being looked at by Jane""}","<img src=""stim_listB/look2.gif""style=""height:400px;""></stim_listB>","is being looked at by","","","","","",""
"null","<div style=""font-size:60px;"">+</div>","","html-keyboard-response","278","945942","0.0-17.0-0.13","66300","List2B","white","man","","","","null","","","","","","","","",""
"null","<img src=""stim_listB/oppose5.gif""style=""height:400px;""></stim_listB>","","html-keyboard-response","279","947944","0.0-17.0-1.13","66300","List2B","white","man","","","","null","","","","","","","","",""
"null","is opposing","","html-keyboard-response","280","949946","0.0-17.0-2.13","66300","List2B","white","man","","","","null","","","","","","","","",""
"3760.399999976158","","","survey-text","281","953711","0.0-17.0-3.13","66300","List2B","white","man","","","","","{""Q0"":""Dave is opposing Mike""}","<img src=""stim_listB/oppose5.gif""style=""height:400px;""></stim_listB>","is opposing","","","","","",""
"null","<div style=""font-size:60px;"">+</div>","","html-keyboard-response","282","954214","0.0-17.0-0.14","66300","List2B","white","man","","","","null","","","","","","","","",""
"null","<img src=""stim_listB/touch7.gif""style=""height:400px;""></stim_listB>","","html-keyboard-response","283","956216","0.0-17.0-1.14","66300","List2B","white","man","","","","null","","","","","","","","",""
"null","is touching","","html-keyboard-response","284","958220","0.0-17.0-2.14","66300","List2B","white","man","","","","null","","","","","","","","",""
"3285.8000000715256","","","survey-text","285","961508","0.0-17.0-3.14","66300","List2B","white","man","","","","","{""Q0"":""Kate is touching Jane""}","<img src=""stim_listB/touch7.gif""style=""height:400px;""></stim_listB>","is touching","","","","","",""
"null","<div style=""font-size:60px;"">+</div>","","html-keyboard-response","286","962011","0.0-17.0-0.15","66300","List2B","white","man","","","","null","","","","","","","","",""
"null","<img src=""stim_listB/seduce2.gif""style=""height:400px;""></stim_listB>","","html-keyboard-response","287","964012","0.0-17.0-1.15","66300","List2B","white","man","","","","null","","","","","","","","",""
"null","is being seduced by","","html-keyboard-response","288","966014","0.0-17.0-2.15","66300","List2B","white","man","","","","null","","","","","","","","",""
"5704.299999952316","","","survey-text","289","971723","0.0-17.0-3.15","66300","List2B","white","man","","","","","{""Q0"":""Ruth is being seduced by Dave""}","<img src=""stim_listB/seduce2.gif""style=""height:400px;""></stim_listB>","is being seduced by","","","","","",""
"null","<div style=""font-size:60px;"">+</div>","","html-keyboard-response","290","972225","0.0-17.0-0.16","66300","List2B","white","man","","","","null","","","","","","","","",""
"null","<img src=""stim_listB/greet1.gif""style=""height:400px;""></stim_listB>","","html-keyboard-response","291","974226","0.0-17.0-1.16","66300","List2B","white","man","","","","null","","","","","","","","",""
"null","is greeting","","html-keyboard-response","292","976228","0.0-17.0-2.16","66300","List2B","white","man","","","","null","","","","","","","","",""
"5390.199999928474","","","survey-text","293","981620","0.0-17.0-3.16","66300","List2B","white","man","","","","","{""Q0"":""Dave is greeting Ruth""}","<img src=""stim_listB/greet1.gif""style=""height:400px;""></stim_listB>","is greeting","","","","","",""
"null","<div style=""font-size:60px;"">+</div>","","html-keyboard-response","294","982122","0.0-17.0-0.17","66300","List2B","white","man","","","","null","","","","","","","","",""
"null","<img src=""stim_listB/kiss3.gif""style=""height:400px;""></stim_listB>","","html-keyboard-response","295","984124","0.0-17.0-1.17","66300","List2B","white","man","","","","null","","","","","","","","",""
"null","is kissing","","html-keyboard-response","296","986126","0.0-17.0-2.17","66300","List2B","white","man","","","","null","","","","","","","","",""
"6024.699999928474","","","survey-text","297","992153","0.0-17.0-3.17","66300","List2B","white","man","","","","","{""Q0"":""Fred is kissing Beth""}","<img src=""stim_listB/kiss3.gif""style=""height:400px;""></stim_listB>","is kissing","","","","","",""
"null","<div style=""font-size:60px;"">+</div>","","html-keyboard-response","298","992654","0.0-17.0-0.18","66300","List2B","white","man","","","","null","","","","","","","","",""
"null","<img src=""stim_listB/look1.gif""style=""height:400px;""></stim_listB>","","html-keyboard-response","299","994655","0.0-17.0-1.18","66300","List2B","white","man","","","","null","","","","","","","","",""
"null","is looking at","","html-keyboard-response","300","996656","0.0-17.0-2.18","66300","List2B","white","man","","","","null","","","","","","","","",""
"4178.5","","","survey-text","301","1000836","0.0-17.0-3.18","66300","List2B","white","man","","","","","{""Q0"":""Ruth is looking at Luke""}","<img src=""stim_listB/look1.gif""style=""height:400px;""></stim_listB>","is looking at","","","","","",""
"null","<div style=""font-size:60px;"">+</div>","","html-keyboard-response","302","1001337","0.0-17.0-0.19","66300","List2B","white","man","","","","null","","","","","","","","",""
"null","<img src=""stim_listB/touch4.gif""style=""height:400px;""></stim_listB>","","html-keyboard-response","303","1003339","0.0-17.0-1.19","66300","List2B","white","man","","","","null","","","","","","","","",""
"null","is being touched by","","html-keyboard-response","304","1005340","0.0-17.0-2.19","66300","List2B","white","man","","","","null","","","","","","","","",""
"5225.899999976158","","","survey-text","305","1010568","0.0-17.0-3.19","66300","List2B","white","man","","","","","{""Q0"":""Beth is being touched by Fred""}","<img src=""stim_listB/touch4.gif""style=""height:400px;""></stim_listB>","is being touched by","","","","","",""
"4302.399999976158","<img src='img/portrait_matrix_list2.jpg' style='width:900px;height:500px;''></img><p>If you have memorised all the portraits and names and are ready to start, press Continue.</p><p><strong>Please note: Your memory of these faces will be tested 4 times during this experiment.</strong></p>","0","html-button-response","306","1014871","0.0-18.0-0.0","66300","List2B","white","man","","","","","","","","","","","","",""
"1571.2000000476837","<img src=""portrait/WW2.jpg""style=""height:400px;""></img>","3","html-button-response","307","1017445","0.0-18.0-1.0","66300","List2B","white","man","","true","3","","","","","","","","","",""
"null","CORRECT","","html-keyboard-response","308","1018947","0.0-18.0-2.0-0.0","66300","List2B","white","man","","","","null","","","","","","","","",""
"1863.2999999523163","<img src=""portrait/WM1.jpg""style=""height:400px;""></img>","6","html-button-response","309","1020811","0.0-18.0-4.0","66300","List2B","white","man","","true","6","","","","","","","","","",""
"null","CORRECT","","html-keyboard-response","310","1022313","0.0-18.0-5.0-0.0","66300","List2B","white","man","","","","null","","","","","","","","",""
"1380.8000000715256","<img src=""portrait/BM2.jpg""style=""height:400px;""></img>","5","html-button-response","311","1023695","0.0-18.0-7.0","66300","List2B","white","man","","true","5","","","","","","","","","",""
"null","CORRECT","","html-keyboard-response","312","1025196","0.0-18.0-8.0-0.0","66300","List2B","white","man","","","","null","","","","","","","","",""
"1474.6000000238419","<img src=""portrait/WM2.jpg""style=""height:400px;""></img>","7","html-button-response","313","1026672","0.0-18.0-10.0","66300","List2B","white","man","","true","7","","","","","","","","","",""
"null","CORRECT","","html-keyboard-response","314","1028175","0.0-18.0-11.0-0.0","66300","List2B","white","man","","","","null","","","","","","","","",""
"1990.8000000715256","<img src=""portrait/BW2.jpg""style=""height:400px;""></img>","2","html-button-response","315","1030167","0.0-18.0-13.0","66300","List2B","white","man","","true","2","","","","","","","","","",""
"null","CORRECT","","html-keyboard-response","316","1031669","0.0-18.0-14.0-0.0","66300","List2B","white","man","","","","null","","","","","","","","",""
"2016.5","<img src=""portrait/BM1.jpg""style=""height:400px;""></img>","4","html-button-response","317","1033686","0.0-18.0-16.0","66300","List2B","white","man","","true","4","","","","","","","","","",""
"null","CORRECT","","html-keyboard-response","318","1035189","0.0-18.0-17.0-0.0","66300","List2B","white","man","","","","null","","","","","","","","",""
"2160.399999976158","<img src=""portrait/WW1.jpg""style=""height:400px;""></img>","1","html-button-response","319","1037350","0.0-18.0-19.0","66300","List2B","white","man","","true","1","","","","","","","","","",""
"null","CORRECT","","html-keyboard-response","320","1038852","0.0-18.0-20.0-0.0","66300","List2B","white","man","","","","null","","","","","","","","",""
"1678.1000000238419","<img src=""portrait/BW1.jpg""style=""height:400px;""></img>","0","html-button-response","321","1040531","0.0-18.0-22.0","66300","List2B","white","man","","true","0","","","","","","","","","",""
"null","CORRECT","","html-keyboard-response","322","1042034","0.0-18.0-23.0-0.0","66300","List2B","white","man","","","","null","","","","","","","","",""
"888.3999999761581","<p>You got 8 out of 8 right first time. Press Continue.</p>","0","html-button-response","323","1042923","0.0-18.0-25.0","66300","List2B","white","man","","","","","","","","","","","","",""
"null","<div style=""font-size:60px;"">+</div>","","html-keyboard-response","324","1044425","0.0-19.0-0.0","66300","List2B","white","man","","","","null","","","","","","","","",""
"null","<img src=""stim_listB/copy4.gif""style=""height:400px;""></stim_listB>","","html-keyboard-response","325","1046427","0.0-19.0-1.0","66300","List2B","white","man","","","","null","","","","","","","","",""
"null","is being copied by","","html-keyboard-response","326","1048428","0.0-19.0-2.0","66300","List2B","white","man","","","","null","","","","","","","","",""
"5139.5","","","survey-text","327","1053572","0.0-19.0-3.0","66300","List2B","white","man","","","","","{""Q0"":""Fred is being copied by Kate""}","<img src=""stim_listB/copy4.gif""style=""height:400px;""></stim_listB>","is being copied by","","","","","",""
"null","<div style=""font-size:60px;"">+</div>","","html-keyboard-response","328","1054075","0.0-19.0-0.1","66300","List2B","white","man","","","","null","","","","","","","","",""
"null","<img src=""stim_listB/challenge7.gif""style=""height:400px;""></stim_listB>","","html-keyboard-response","329","1056077","0.0-19.0-1.1","66300","List2B","white","man","","","","null","","","","","","","","",""
"null","is challenging","","html-keyboard-response","330","1058078","0.0-19.0-2.1","66300","List2B","white","man","","","","null","","","","","","","","",""
"6999.200000047684","","","survey-text","331","1065079","0.0-19.0-3.1","66300","List2B","white","man","","","","","{""Q0"":""Jane is challenging Beth""}","<img src=""stim_listB/challenge7.gif""style=""height:400px;""></stim_listB>","is challenging","","","","","",""
"null","<div style=""font-size:60px;"">+</div>","","html-keyboard-response","332","1065581","0.0-19.0-0.2","66300","List2B","white","man","","","","null","","","","","","","","",""
"null","<img src=""stim_listB/hug2.gif""style=""height:400px;""></stim_listB>","","html-keyboard-response","333","1067582","0.0-19.0-1.2","66300","List2B","white","man","","","","null","","","","","","","","",""
"null","is being hugged by","","html-keyboard-response","334","1069583","0.0-19.0-2.2","66300","List2B","white","man","","","","null","","","","","","","","",""
"3906.600000023842","","","survey-text","335","1073492","0.0-19.0-3.2","66300","List2B","white","man","","","","","{""Q0"":""Jane is being hugged by Dave""}","<img src=""stim_listB/hug2.gif""style=""height:400px;""></stim_listB>","is being hugged by","","","","","",""
"null","<div style=""font-size:60px;"">+</div>","","html-keyboard-response","336","1073993","0.0-19.0-0.3","66300","List2B","white","man","","","","null","","","","","","","","",""
"null","<img src=""stim_listB/seduce8.gif""style=""height:400px;""></stim_listB>","","html-keyboard-response","337","1075996","0.0-19.0-1.3","66300","List2B","white","man","","","","null","","","","","","","","",""
"null","is being seduced by","","html-keyboard-response","338","1077997","0.0-19.0-2.3","66300","List2B","white","man","","","","null","","","","","","","","",""
"5124.400000095367","","","survey-text","339","1083124","0.0-19.0-3.3","66300","List2B","white","man","","","","","{""Q0"":""Jane is being seduced by Beth""}","<img src=""stim_listB/seduce8.gif""style=""height:400px;""></stim_listB>","is being seduced by","","","","","",""
"null","<div style=""font-size:60px;"">+</div>","","html-keyboard-response","340","1083625","0.0-19.0-0.4","66300","List2B","white","man","","","","null","","","","","","","","",""
"null","<img src=""stim_listB/touch5.gif""style=""height:400px;""></stim_listB>","","html-keyboard-response","341","1085627","0.0-19.0-1.4","66300","List2B","white","man","","","","null","","","","","","","","",""
"null","is touching","","html-keyboard-response","342","1087628","0.0-19.0-2.4","66300","List2B","white","man","","","","null","","","","","","","","",""
"3246.1999999284744","","","survey-text","343","1090876","0.0-19.0-3.4","66300","List2B","white","man","","","","","{""Q0"":""Dave is touching Mike""}","<img src=""stim_listB/touch5.gif""style=""height:400px;""></stim_listB>","is touching","","","","","",""
"null","<div style=""font-size:60px;"">+</div>","","html-keyboard-response","344","1091377","0.0-19.0-0.5","66300","List2B","white","man","","","","null","","","","","","","","",""
"null","<img src=""stim_listB/copy1.gif""style=""height:400px;""></stim_listB>","","html-keyboard-response","345","1093378","0.0-19.0-1.5","66300","List2B","white","man","","","","null","","","","","","","","",""
"null","is copying","","html-keyboard-response","346","1095379","0.0-19.0-2.5","66300","List2B","white","man","","","","null","","","","","","","","",""
"5080.799999952316","","","survey-text","347","1100464","0.0-19.0-3.5","66300","List2B","white","man","","","","","{""Q0"":""Dave is copying Ruth""}","<img src=""stim_listB/copy1.gif""style=""height:400px;""></stim_listB>","is copying","","","","","",""
"null","<div style=""font-size:60px;"">+</div>","","html-keyboard-response","348","1100966","0.0-19.0-0.6","66300","List2B","white","man","","","","null","","","","","","","","",""
"null","<img src=""stim_listB/oppose4.gif""style=""height:400px;""></stim_listB>","","html-keyboard-response","349","1102969","0.0-19.0-1.6","66300","List2B","white","man","","","","null","","","","","","","","",""
"null","is being opposed by","","html-keyboard-response","350","1104971","0.0-19.0-2.6","66300","List2B","white","man","","","","null","","","","","","","","",""
"5134.900000095367","","","survey-text","351","1110108","0.0-19.0-3.6","66300","List2B","white","man","","","","","{""Q0"":""Fred is being opposed by Beth""}","<img src=""stim_listB/oppose4.gif""style=""height:400px;""></stim_listB>","is being opposed by","","","","","",""
"null","<div style=""font-size:60px;"">+</div>","","html-keyboard-response","352","1110609","0.0-19.0-0.7","66300","List2B","white","man","","","","null","","","","","","","","",""
"null","<img src=""stim_listB/kiss4.gif""style=""height:400px;""></stim_listB>","","html-keyboard-response","353","1112611","0.0-19.0-1.7","66300","List2B","white","man","","","","null","","","","","","","","",""
"null","is being kissed by","","html-keyboard-response","354","1114612","0.0-19.0-2.7","66300","List2B","white","man","","","","null","","","","","","","","",""
"4649.399999976158","","","survey-text","355","1119264","0.0-19.0-3.7","66300","List2B","white","man","","","","","{""Q0"":""Mike is being kissed by Kate""}","<img src=""stim_listB/kiss4.gif""style=""height:400px;""></stim_listB>","is being kissed by","","","","","",""
"null","<div style=""font-size:60px;"">+</div>","","html-keyboard-response","356","1119764","0.0-19.0-0.8","66300","List2B","white","man","","","","null","","","","","","","","",""
"null","<img src=""stim_listB/copy2.gif""style=""height:400px;""></stim_listB>","","html-keyboard-response","357","1121766","0.0-19.0-1.8","66300","List2B","white","man","","","","null","","","","","","","","",""
"null","is being copied by","","html-keyboard-response","358","1123767","0.0-19.0-2.8","66300","List2B","white","man","","","","null","","","","","","","","",""
"5026.5","","","survey-text","359","1128795","0.0-19.0-3.8","66300","List2B","white","man","","","","","{""Q0"":""Jane is being copied by Luke""}","<img src=""stim_listB/copy2.gif""style=""height:400px;""></stim_listB>","is being copied by","","","","","",""
"null","<div style=""font-size:60px;"">+</div>","","html-keyboard-response","360","1129296","0.0-19.0-0.9","66300","List2B","white","man","","","","null","","","","","","","","",""
"null","<img src=""stim_listB/challenge8.gif""style=""height:400px;""></stim_listB>","","html-keyboard-response","361","1131298","0.0-19.0-1.9","66300","List2B","white","man","","","","null","","","","","","","","",""
"null","is being challenged by","","html-keyboard-response","362","1133299","0.0-19.0-2.9","66300","List2B","white","man","","","","null","","","","","","","","",""
"5718.900000095367","","","survey-text","363","1139020","0.0-19.0-3.9","66300","List2B","white","man","","","","","{""Q0"":""Kate is being challenged by Ruth""}","<img src=""stim_listB/challenge8.gif""style=""height:400px;""></stim_listB>","is being challenged by","","","","","",""
"null","<div style=""font-size:60px;"">+</div>","","html-keyboard-response","364","1139521","0.0-19.0-0.10","66300","List2B","white","man","","","","null","","","","","","","","",""
"null","<img src=""stim_listB/look4.gif""style=""height:400px;""></stim_listB>","","html-keyboard-response","365","1141523","0.0-19.0-1.10","66300","List2B","white","man","","","","null","","","","","","","","",""
"null","is being looked at by","","html-keyboard-response","366","1143525","0.0-19.0-2.10","66300","List2B","white","man","","","","null","","","","","","","","",""
"6517","","","survey-text","367","1150044","0.0-19.0-3.10","66300","List2B","white","man","","","","","{""Q0"":""Kate is being looked at by Mike""}","<img src=""stim_listB/look4.gif""style=""height:400px;""></stim_listB>","is being looked at by","","","","","",""
"null","<div style=""font-size:60px;"">+</div>","","html-keyboard-response","368","1150545","0.0-19.0-0.11","66300","List2B","white","man","","","","null","","","","","","","","",""
"null","<img src=""stim_listB/greet5.gif""style=""height:400px;""></stim_listB>","","html-keyboard-response","369","1152547","0.0-19.0-1.11","66300","List2B","white","man","","","","null","","","","","","","","",""
"null","is greeting","","html-keyboard-response","370","1154549","0.0-19.0-2.11","66300","List2B","white","man","","","","null","","","","","","","","",""
"5017.700000047684","","","survey-text","371","1159571","0.0-19.0-3.11","66300","List2B","white","man","","","","","{""Q0"":""Fred is greeting Dave""}","<img src=""stim_listB/greet5.gif""style=""height:400px;""></stim_listB>","is greeting","","","","","",""
"null","<div style=""font-size:60px;"">+</div>","","html-keyboard-response","372","1160072","0.0-19.0-0.12","66300","List2B","white","man","","","","null","","","","","","","","",""
"null","<img src=""stim_listB/seduce5.gif""style=""height:400px;""></stim_listB>","","html-keyboard-response","373","1162073","0.0-19.0-1.12","66300","List2B","white","man","","","","null","","","","","","","","",""
"null","is seducing","","html-keyboard-response","374","1164075","0.0-19.0-2.12","66300","List2B","white","man","","","","null","","","","","","","","",""
"3859.7000000476837","","","survey-text","375","1167936","0.0-19.0-3.12","66300","List2B","white","man","","","","","{""Q0"":""Mike is seducing Luke""}","<img src=""stim_listB/seduce5.gif""style=""height:400px;""></stim_listB>","is seducing","","","","","",""
"null","<div style=""font-size:60px;"">+</div>","","html-keyboard-response","376","1168438","0.0-19.0-0.13","66300","List2B","white","man","","","","null","","","","","","","","",""
"null","<img src=""stim_listB/kiss8.gif""style=""height:400px;""></stim_listB>","","html-keyboard-response","377","1170440","0.0-19.0-1.13","66300","List2B","white","man","","","","null","","","","","","","","",""
"null","is being kissed by","","html-keyboard-response","378","1172441","0.0-19.0-2.13","66300","List2B","white","man","","","","null","","","","","","","","",""
"4225.400000095367","","","survey-text","379","1176668","0.0-19.0-3.13","66300","List2B","white","man","","","","","{""Q0"":""Jane is being kissed by Kate""}","<img src=""stim_listB/kiss8.gif""style=""height:400px;""></stim_listB>","is being kissed by","","","","","",""
"null","<div style=""font-size:60px;"">+</div>","","html-keyboard-response","380","1177170","0.0-19.0-0.14","66300","List2B","white","man","","","","null","","","","","","","","",""
"null","<img src=""stim_listB/greet3.gif""style=""height:400px;""></stim_listB>","","html-keyboard-response","381","1179172","0.0-19.0-1.14","66300","List2B","white","man","","","","null","","","","","","","","",""
"null","is greeting","","html-keyboard-response","382","1181172","0.0-19.0-2.14","66300","List2B","white","man","","","","null","","","","","","","","",""
"4921.399999976158","","","survey-text","383","1186096","0.0-19.0-3.14","66300","List2B","white","man","","","","","{""Q0"":""Beth is greeting Mike""}","<img src=""stim_listB/greet3.gif""style=""height:400px;""></stim_listB>","is greeting","","","","","",""
"null","<div style=""font-size:60px;"">+</div>","","html-keyboard-response","384","1186598","0.0-19.0-0.15","66300","List2B","white","man","","","","null","","","","","","","","",""
"null","<img src=""stim_listB/shout7.gif""style=""height:400px;""></stim_listB>","","html-keyboard-response","385","1188600","0.0-19.0-1.15","66300","List2B","white","man","","","","null","","","","","","","","",""
"null","is shouting at","","html-keyboard-response","386","1190602","0.0-19.0-2.15","66300","List2B","white","man","","","","null","","","","","","","","",""
"4312.899999976158","","","survey-text","387","1194920","0.0-19.0-3.15","66300","List2B","white","man","","","","","{""Q0"":""Beth is shouting at Ruth""}","<img src=""stim_listB/shout7.gif""style=""height:400px;""></stim_listB>","is shouting at","","","","","",""
"null","<div style=""font-size:60px;"">+</div>","","html-keyboard-response","388","1195421","0.0-19.0-0.16","66300","List2B","white","man","","","","null","","","","","","","","",""
"null","<img src=""stim_listB/challenge3.gif""style=""height:400px;""></stim_listB>","","html-keyboard-response","389","1197422","0.0-19.0-1.16","66300","List2B","white","man","","","","null","","","","","","","","",""
"null","is challenging","","html-keyboard-response","390","1199423","0.0-19.0-2.16","66300","List2B","white","man","","","","null","","","","","","","","",""
"4281.600000023842","","","survey-text","391","1203707","0.0-19.0-3.16","66300","List2B","white","man","","","","","{""Q0"":""Mike is challenging Beth""}","<img src=""stim_listB/challenge3.gif""style=""height:400px;""></stim_listB>","is challenging","","","","","",""
"null","<div style=""font-size:60px;"">+</div>","","html-keyboard-response","392","1204208","0.0-19.0-0.17","66300","List2B","white","man","","","","null","","","","","","","","",""
"null","<img src=""stim_listB/challenge5.gif""style=""height:400px;""></stim_listB>","","html-keyboard-response","393","1206211","0.0-19.0-1.17","66300","List2B","white","man","","","","null","","","","","","","","",""
"null","is challenging","","html-keyboard-response","394","1208212","0.0-19.0-2.17","66300","List2B","white","man","","","","null","","","","","","","","",""
"6096.799999952316","","","survey-text","395","1214312","0.0-19.0-3.17","66300","List2B","white","man","","","","","{""Q0"":""Dave is challenging Fred""}","<img src=""stim_listB/challenge5.gif""style=""height:400px;""></stim_listB>","is challenging","","","","","",""
"null","<div style=""font-size:60px;"">+</div>","","html-keyboard-response","396","1214813","0.0-19.0-0.18","66300","List2B","white","man","","","","null","","","","","","","","",""
"null","<img src=""stim_listB/oppose7.gif""style=""height:400px;""></stim_listB>","","html-keyboard-response","397","1216813","0.0-19.0-1.18","66300","List2B","white","man","","","","null","","","","","","","","",""
"null","is opposing","","html-keyboard-response","398","1218814","0.0-19.0-2.18","66300","List2B","white","man","","","","null","","","","","","","","",""
"5059.5","","","survey-text","399","1223875","0.0-19.0-3.18","66300","List2B","white","man","","","","","{""Q0"":""Jane is opposing Kate""}","<img src=""stim_listB/oppose7.gif""style=""height:400px;""></stim_listB>","is opposing","","","","","",""
"null","<div style=""font-size:60px;"">+</div>","","html-keyboard-response","400","1224376","0.0-19.0-0.19","66300","List2B","white","man","","","","null","","","","","","","","",""
"null","<img src=""stim_listB/oppose8.gif""style=""height:400px;""></stim_listB>","","html-keyboard-response","401","1226378","0.0-19.0-1.19","66300","List2B","white","man","","","","null","","","","","","","","",""
"null","is being opposed by","","html-keyboard-response","402","1228379","0.0-19.0-2.19","66300","List2B","white","man","","","","null","","","","","","","","",""
"5007.699999928474","","","survey-text","403","1233392","0.0-19.0-3.19","66300","List2B","white","man","","","","","{""Q0"":""Ruth is being opposed by Beth""}","<img src=""stim_listB/oppose8.gif""style=""height:400px;""></stim_listB>","is being opposed by","","","","","",""
"2585.3000000715256","<p>Thank you for completing that task.</p><p>The final part of this session is a questionnaire that will take about 4 minutes.</p><p>Press Continue.</p>","0","html-button-response","404","1235977","0.0-20.0","66300","List2B","white","man","","","","","","","","","","","","",""
"46833.89999997616","","","survey-text","405","1283818","0.0-21.0","66300","List2B","white","man","","","","","{""Q0"":""22"",""Q1"":""English"",""Q2"":""English"",""Q3"":""United States of America"",""Q4"":""American"",""Q5"":""White/Caucasian"",""Q6"":""Male""}","","","demographics","","","","",""
"3953.399999976158","<p>Have you lived in the USA for the last 5 years or more?</p>","0","html-button-response","406","1287773","0.0-22.0","66300","List2B","white","man","","","","","","","","fiveyears","","","","",""
"3361.6999999284744","<p>Move the slider to show the extent to which you agree with the following statements.</p>","0","html-button-response","407","1292136","0.0-23.0","66300","List2B","white","man","","","","","","","","","","","","",""
"5851.200000047684","","","html-slider-response","408","1298989","0.0-24.0-0.0-0.0","66300","List2B","white","man","","","","","","","","survey_gender","88","","","I feel committed to my gender.","committed"
"4434.599999904633","","","html-slider-response","409","1303425","0.0-24.0-0.0-0.1","66300","List2B","white","man","","","","","","","","survey_gender","100","","","Most of the friends in my life are very similar to me.","filler"
"12268.399999976158","","","html-slider-response","410","1315694","0.0-24.0-0.0-0.2","66300","List2B","white","man","","","","","","","","survey_gender","57","","","I am similar to the average person of my gender.","similar"
"2331","","","html-slider-response","411","1318026","0.0-24.0-0.0-0.3","66300","List2B","white","man","","","","","","","","survey_gender","100","","","I often think about my actions.","filler"
"2255.2000000476837","","","html-slider-response","412","1320282","0.0-24.0-0.0-0.4","66300","List2B","white","man","","","","","","","","survey_gender","100","","","My friends understand me.","filler"
"2785.899999976158","","","html-slider-response","413","1323069","0.0-24.0-0.0-0.5","66300","List2B","white","man","","","","","","","","survey_gender","100","","","I consider myself a highly empathetic person.","filler"
"2096.399999976158","","","html-slider-response","414","1325166","0.0-24.0-0.0-0.6","66300","List2B","white","man","","","","","","","","survey_gender","100","","","My friends have a lot in common with each other.","filler"
"5725","","","html-slider-response","415","1330892","0.0-24.0-0.0-0.7","66300","List2B","white","man","","","","","","","","survey_gender","84","","","It is not always easy for people to know what I am thinking.","filler"
"3179.399999976158","","","html-slider-response","416","1334072","0.0-24.0-0.0-0.8","66300","List2B","white","man","","","","","","","","survey_gender","100","","","I feel a bond with my gender.","bond"
"3487","","","html-slider-response","417","1337560","0.0-24.0-0.0-0.9","66300","List2B","white","man","","","","","","","","survey_gender","100","","","I feel solidarity with my gender.","solidarity"
"2152.0999999046326","","","html-slider-response","418","1339713","0.0-24.0-0.0-0.10","66300","List2B","white","man","","","","","","","","survey_gender","100","","","Being around my friends gives me a good feeling.","filler"
"11638.399999976158","","","html-slider-response","419","1351352","0.0-24.0-0.0-0.11","66300","List2B","white","man","","","","","","","","survey_gender","56","","","People of my gender have a lot in common with each other.","common"
"1809.6000000238419","","","html-slider-response","420","1353163","0.0-24.0-0.0-0.12","66300","List2B","white","man","","","","","","","","survey_gender","100","","","I feel solidarity with my friends.","filler"
"7121.5","","","html-slider-response","421","1360285","0.0-24.0-0.0-0.13","66300","List2B","white","man","","","","","","","","survey_gender","41","","","I often think about the fact that I am my gender.","often"
"5900.799999952316","","","html-slider-response","422","1366187","0.0-24.0-0.0-0.14","66300","List2B","white","man","","","","","","","","survey_gender","76","","","Family is not more important to me than friendship.","filler"
"7611.700000047684","","","html-slider-response","423","1373799","0.0-24.0-0.0-0.15","66300","List2B","white","man","","","","","","","","survey_gender","42","","","Routine is not important to me.","filler"
"2335","","","html-slider-response","424","1376135","0.0-24.0-0.0-0.16","66300","List2B","white","man","","","","","","","","survey_gender","100","","","I feel a bond with my friends.","filler"
"2846.2999999523163","","","html-slider-response","425","1378982","0.0-24.0-0.0-0.17","66300","List2B","white","man","","","","","","","","survey_gender","100","","","I am glad to be my gender.","glad"
"2115.2000000476837","","","html-slider-response","426","1381098","0.0-24.0-0.0-0.18","66300","List2B","white","man","","","","","","","","survey_gender","100","","","I would say I am an animal person.","filler"
"4772.900000095367","","","html-slider-response","427","1385872","0.0-24.0-0.0-0.19","66300","List2B","white","man","","","","","","","","survey_gender","75","","","I think that my gender has a lot to be proud of.","proud"
"4923","","","html-slider-response","428","1390796","0.0-24.0-0.0-0.20","66300","List2B","white","man","","","","","","","","survey_gender","86","","","The fact that I am my gender is an important part of my identity.","identity"
"3250.5","","","html-slider-response","429","1394047","0.0-24.0-0.0-0.21","66300","List2B","white","man","","","","","","","","survey_gender","100","","","I am glad to have the friends that I have.","filler"
"1909.5","","","html-slider-response","430","1395958","0.0-24.0-0.0-0.22","66300","List2B","white","man","","","","","","","","survey_gender","100","","","I have a lot in common with my friends.","filler"
"4043.899999976158","","","html-slider-response","431","1400002","0.0-24.0-0.0-0.23","66300","List2B","white","man","","","","","","","","survey_gender","80","","","Being my gender is an important part of how I see myself.","important"
"4878","","","html-slider-response","432","1404881","0.0-24.0-0.0-0.24","66300","List2B","white","man","","","","","","","","survey_gender","31","","","I have a lot in common with the average person of my gender.","average"
"3300.5","","","html-slider-response","433","1408183","0.0-24.0-0.0-0.25","66300","List2B","white","man","","","","","","","","survey_gender","63","","","Being my gender gives me a good feeling.","feeling"
"4512.799999952316","","","html-slider-response","434","1412696","0.0-24.0-0.0-0.26","66300","List2B","white","man","","","","","","","","survey_gender","79","","","It is pleasant to be my gender.","pleasant"
"5183.800000071526","","","html-slider-response","435","1417881","0.0-24.0-0.0-0.27","66300","List2B","white","man","","","","","","","","survey_gender","41","","","People of my gender are very similar to each other.","verysimilar"
"6444.100000023842","","","html-slider-response","436","1424326","0.0-24.0-1.0-0.0","66300","List2B","white","man","","","","","","","","survey_race","90","","","I consider myself an extrovert.","filler"
"4110.899999976158","","","html-slider-response","437","1428438","0.0-24.0-1.0-0.1","66300","List2B","white","man","","","","","","","","survey_race","35","","","Being my race is an important part of how I see myself.","important"
"6425.200000047684","","","html-slider-response","438","1434864","0.0-24.0-1.0-0.2","66300","List2B","white","man","","","","","","","","survey_race","42","","","I have a lot in common with the average person of my race.","average"
"4133","","","html-slider-response","439","1438997","0.0-24.0-1.0-0.3","66300","List2B","white","man","","","","","","","","survey_race","50","","","It is pleasant to be my race.","pleasant"
"5865.200000047684","","","html-slider-response","440","1444864","0.0-24.0-1.0-0.4","66300","List2B","white","man","","","","","","","","survey_race","24","","","I feel committed to my race.","committed"
"3978.899999976158","","","html-slider-response","441","1448843","0.0-24.0-1.0-0.5","66300","List2B","white","man","","","","","","","","survey_race","83","","","The older I get, the wiser I feel.","filler"
"2821.3000000715256","","","html-slider-response","442","1451666","0.0-24.0-1.0-0.6","66300","List2B","white","man","","","","","","","","survey_race","81","","","Being my age gives me a good feeling.","filler"
"1721.7999999523163","","","html-slider-response","443","1453388","0.0-24.0-1.0-0.7","66300","List2B","white","man","","","","","","","","survey_race","87","","","I am glad to be the age I am.","filler"
"5380.199999928474","","","html-slider-response","444","1458769","0.0-24.0-1.0-0.8","66300","List2B","white","man","","","","","","","","survey_race","29","","","My age is not an important part of who I am.","filler"
"2180.5","","","html-slider-response","445","1460951","0.0-24.0-1.0-0.9","66300","List2B","white","man","","","","","","","","survey_race","84","","","I am glad to be my age.","filler"
"3631.2000000476837","","","html-slider-response","446","1464583","0.0-24.0-1.0-0.10","66300","List2B","white","man","","","","","","","","survey_race","32","","","I feel solidarity with my race.","solidarity"
"6482.700000047684","","","html-slider-response","447","1471067","0.0-24.0-1.0-0.11","66300","List2B","white","man","","","","","","","","survey_race","79","","","Getting older does not worry me.","filler"
"2632.600000023842","","","html-slider-response","448","1473700","0.0-24.0-1.0-0.12","66300","List2B","white","man","","","","","","","","survey_race","39","","","Being my race gives me a good feeling.","feeling"
"7731.799999952316","","","html-slider-response","449","1481433","0.0-24.0-1.0-0.13","66300","List2B","white","man","","","","","","","","survey_race","43","","","I enjoy being in large groups.","filler"
"4262.100000023842","","","html-slider-response","450","1485696","0.0-24.0-1.0-0.14","66300","List2B","white","man","","","","","","","","survey_race","35","","","I feel a bond with people the same age as me.","filler"
"2882","","","html-slider-response","451","1488579","0.0-24.0-1.0-0.15","66300","List2B","white","man","","","","","","","","survey_race","22","","","I think that my race has a lot to be proud of.","proud"
"3467.899999976158","","","html-slider-response","452","1492048","0.0-24.0-1.0-0.16","66300","List2B","white","man","","","","","","","","survey_race","27","","","People of my race are very similar to each other.","verysimilar"
"4384.900000095367","","","html-slider-response","453","1496434","0.0-24.0-1.0-0.17","66300","List2B","white","man","","","","","","","","survey_race","37","","","I often think about the fact that I am my age.","filler"
"4250.399999976158","","","html-slider-response","454","1500685","0.0-24.0-1.0-0.18","66300","List2B","white","man","","","","","","","","survey_race","27","","","People of my race have a lot in common with each other.","common"
"3611.3000000715256","","","html-slider-response","455","1504297","0.0-24.0-1.0-0.19","66300","List2B","white","man","","","","","","","","survey_race","22","","","I feel a bond with my race.","bond"
"3445.100000023842","","","html-slider-response","456","1507743","0.0-24.0-1.0-0.20","66300","List2B","white","man","","","","","","","","survey_race","34","","","I often think about the fact that I am my race.","often"
"4544","","","html-slider-response","457","1512288","0.0-24.0-1.0-0.21","66300","List2B","white","man","","","","","","","","survey_race","81","","","People my age have a lot in common with each other.","filler"
"3489.100000023842","","","html-slider-response","458","1515778","0.0-24.0-1.0-0.22","66300","List2B","white","man","","","","","","","","survey_race","54","","","I am glad to be my race.","glad"
"3814.2000000476837","","","html-slider-response","459","1519593","0.0-24.0-1.0-0.23","66300","List2B","white","man","","","","","","","","survey_race","11","","","I consider myself an introvert.","filler"
"4200.899999976158","","","html-slider-response","460","1523795","0.0-24.0-1.0-0.24","66300","List2B","white","man","","","","","","","","survey_race","17","","","The fact that I am my race is an important part of my identity.","identity"
"2955.3000000715256","","","html-slider-response","461","1526751","0.0-24.0-1.0-0.25","66300","List2B","white","man","","","","","","","","survey_race","38","","","I am similar to the average person of my race.","similar"
"3626.5","","","html-slider-response","462","1530378","0.0-24.0-1.0-0.26","66300","List2B","white","man","","","","","","","","survey_race","30","","","I feel solidarity with people the same age as me.","filler"
"3930.5","","","html-slider-response","463","1534310","0.0-24.0-1.0-0.27","66300","List2B","white","man","","","","","","","","survey_race","18","","","I have a lot in common with people of a similar age to me.","filler"
"14339.300000071526","","","survey-text","464","1548651","0.0-25.0","66300","List2B","white","man","","","","","{""Q0"":""5fbab93e8f01f4afe6a9001b""}","","","worker_id","","","","",""
"5324.300000071526","","","external-html","465","1554298","0.0-26.0","66300","List2B","white","man","debrief.html","","","","","","","","","","","",""
