"rt","stimulus","button_pressed","trial_type","trial_index","time_elapsed","internal_node_id","subject","list","ppt_race","ppt_gender","url","first_guess","correct","key_press","responses","image_type","phrase_type","test_part","response","stimulus1","stimulus2","question_type","survey_item"
"4406.900000095367","Welcome to the experiment. Press Continue to begin.","0","html-button-response","0","4424","0.0-0.0","67207","List1A","black","man","","","","","","","","","","","","",""
"19070.10000038147","","","external-html","1","26088","0.0-1.0","67207","List1A","black","man","consent.html","","","","","","","","","","","",""
"26326.200000286102","<p>On the next page, you will see portraits of 8 people and their names.</p><p>Your first task is to take a few minutes to memorise the names of these people.</p><p>You will have to recall their names during the rest of the experiment, so it is</p><p>essential that you try to memorise these people and their names as best as you can.</p><br><p><strong>You will then be tested on your memory of these names and portraits.</strong></p><br><p>The experiment will start after you have completed this memory test.</p><br><p>Ready?</p>","0","html-button-response","2","52420","0.0-2.0","67207","List1A","black","man","","","","","","","","","","","","",""
"38261.40000009537","<img src='img/portrait_matrix_list1.jpg' style='width:900px;height:500px;''></img><p>If you have memorised all the portraits and names and are ready to start, press Continue.</p><p><strong>Please note: Your memory of these faces will be tested 4 times during this experiment.</strong></p>","0","html-button-response","3","91703","0.0-3.0-0.0","67207","List1A","black","man","","","","","","","","","","","","",""
"12037.799999713898","<img src=""portrait/BM1.jpg""style=""height:400px;""></img>","4","html-button-response","4","104767","0.0-3.0-1.0","67207","List1A","black","man","","true","4","","","","","","","","","",""
"null","CORRECT","","html-keyboard-response","5","106291","0.0-3.0-2.0-0.0","67207","List1A","black","man","","","","null","","","","","","","","",""
"9088.700000286102","<img src=""portrait/WW1.jpg""style=""height:400px;""></img>","1","html-button-response","6","115390","0.0-3.0-4.0","67207","List1A","black","man","","true","1","","","","","","","","","",""
"null","CORRECT","","html-keyboard-response","7","116915","0.0-3.0-5.0-0.0","67207","List1A","black","man","","","","null","","","","","","","","",""
"9576.200000286102","<img src=""portrait/BW1.jpg""style=""height:400px;""></img>","0","html-button-response","8","126499","0.0-3.0-7.0","67207","List1A","black","man","","true","0","","","","","","","","","",""
"null","CORRECT","","html-keyboard-response","9","128021","0.0-3.0-8.0-0.0","67207","List1A","black","man","","","","null","","","","","","","","",""
"8293.799999713898","<img src=""portrait/BM2.jpg""style=""height:400px;""></img>","5","html-button-response","10","136322","0.0-3.0-10.0","67207","List1A","black","man","","true","5","","","","","","","","","",""
"null","CORRECT","","html-keyboard-response","11","137846","0.0-3.0-11.0-0.0","67207","List1A","black","man","","","","null","","","","","","","","",""
"7506.5","<img src=""portrait/BW2.jpg""style=""height:400px;""></img>","2","html-button-response","12","145359","0.0-3.0-13.0","67207","List1A","black","man","","true","2","","","","","","","","","",""
"null","CORRECT","","html-keyboard-response","13","146883","0.0-3.0-14.0-0.0","67207","List1A","black","man","","","","null","","","","","","","","",""
"7459.400000095367","<img src=""portrait/WW2.jpg""style=""height:400px;""></img>","3","html-button-response","14","154350","0.0-3.0-16.0","67207","List1A","black","man","","true","3","","","","","","","","","",""
"null","CORRECT","","html-keyboard-response","15","155874","0.0-3.0-17.0-0.0","67207","List1A","black","man","","","","null","","","","","","","","",""
"8054.10000038147","<img src=""portrait/WM2.jpg""style=""height:400px;""></img>","7","html-button-response","16","163942","0.0-3.0-19.0","67207","List1A","black","man","","true","7","","","","","","","","","",""
"null","CORRECT","","html-keyboard-response","17","165481","0.0-3.0-20.0-0.0","67207","List1A","black","man","","","","null","","","","","","","","",""
"8855.10000038147","<img src=""portrait/WM1.jpg""style=""height:400px;""></img>","6","html-button-response","18","174344","0.0-3.0-22.0","67207","List1A","black","man","","true","6","","","","","","","","","",""
"null","CORRECT","","html-keyboard-response","19","175872","0.0-3.0-23.0-0.0","67207","List1A","black","man","","","","null","","","","","","","","",""
"6308.700000286102","<p>You got 8 out of 8 right first time. Press Continue.</p>","0","html-button-response","20","182190","0.0-3.0-25.0","67207","List1A","black","man","","","","","","","","","","","","",""
"99447.59999990463","<p>In this experiment, you will view photographs of the people from the memory game interacting.</p><p>By using the <strong>exact</strong> phrase given <i>after</i> the photograph appears and recalling the correct names of the people in the photographs, form a sentence describing the interaction. You do not need to capitalise names.</p><p>Type your answer in the space provided. Please complete every sentence before moving onto the next trial.</p><p>You will only have a few seconds to memorise each given photograph and phrase before you can respond, so try your best to focus.</p><p>An example is given below. Press 'Continue' when you are ready.</p><img src='img/speaking_example.jpg' style='width:800px;height:460px;''></img>","0","html-button-response","21","282668","0.0-4.0","67207","List1A","black","man","","","","","","","","","","","","",""
"13938.60000038147","<p>Before the experiment starts, you will watch two example trials. Press 'Continue'.</p>","0","html-button-response","22","297616","0.0-5.0","67207","List1A","black","man","","","","","","","","","","","","",""
"null","<img src='img/play_eg.gif' style='height:400px;''></img>","","html-keyboard-response","23","300660","0.0-6.0","67207","List1A","black","man","","","","null","","","","","","","","",""
"null","<p>is playing with</p>","","html-keyboard-response","24","302667","0.0-7.0","67207","List1A","black","man","","","","null","","","","","","","","",""
"156537.5","<p><b>Answer:</b> kate is playing with beth</p>","0","html-button-response","25","459209","0.0-8.0","67207","List1A","black","man","","","","","","","","","","","","",""
"null","<img src='img/dance_eg.gif' style='height:400px;''></img>","","html-keyboard-response","26","462251","0.0-9.0","67207","List1A","black","man","","","","null","","","","","","","","",""
"null","<p>is being entertained by</p>","","html-keyboard-response","27","464256","0.0-10.0","67207","List1A","black","man","","","","null","","","","","","","","",""
"6862.300000190735","<p><b>Answer:</b> luke is being entertained by dave</p>","0","html-button-response","28","471124","0.0-11.0","67207","List1A","black","man","","","","","","","","","","","","",""
"35979.199999809265","<p>Ready to start the experiment?</p><br><p><strong>Remember to describe the picture using a full sentence,</strong></p><p><strong>that combines the names of the people with the <i>exact</i> phrase given.</strong></p><p><strong>To receive full payment you must do this correctly.</strong></p><p><strong> You do not need to capitalise names or use punctuation.</strong></p><br><p>Press 'Continue' to begin.</p>","0","html-button-response","29","508125","0.0-12.0","67207","List1A","black","man","","","","","","","","","","","","",""
"null","<div style=""font-size:60px;"">+</div>","","html-keyboard-response","30","509656","0.0-13.0-0.0","67207","List1A","black","man","","","","null","","","","","","","","",""
"null","<img src=""stim_listA/oppose6.gif""style=""height:400px;""></stim_listA>","","html-keyboard-response","31","511679","0.0-13.0-1.0","67207","List1A","black","man","","","","null","","","","","","","","",""
"null","is being opposed by","","html-keyboard-response","32","513684","0.0-13.0-2.0","67207","List1A","black","man","","","","null","","","","","","","","",""
"32604.5","","","survey-text","33","546308","0.0-13.0-3.0","67207","List1A","black","man","","","","","{""Q0"":""fred is playing with luke""}","<img src=""stim_listA/oppose6.gif""style=""height:400px;""></stim_listA>","is being opposed by","","","","","",""
"null","<div style=""font-size:60px;"">+</div>","","html-keyboard-response","34","546825","0.0-13.0-0.1","67207","List1A","black","man","","","","null","","","","","","","","",""
"null","<img src=""stim_listA/shout2.gif""style=""height:400px;""></stim_listA>","","html-keyboard-response","35","548834","0.0-13.0-1.1","67207","List1A","black","man","","","","null","","","","","","","","",""
"null","is being shouted at by","","html-keyboard-response","36","550839","0.0-13.0-2.1","67207","List1A","black","man","","","","null","","","","","","","","",""
"54780.09999990463","","","survey-text","37","605631","0.0-13.0-3.1","67207","List1A","black","man","","","","","{""Q0"":""mike and kate are happy""}","<img src=""stim_listA/shout2.gif""style=""height:400px;""></stim_listA>","is being shouted at by","","","","","",""
"null","<div style=""font-size:60px;"">+</div>","","html-keyboard-response","38","606152","0.0-13.0-0.2","67207","List1A","black","man","","","","null","","","","","","","","",""
"null","<img src=""stim_listA/greet4.gif""style=""height:400px;""></stim_listA>","","html-keyboard-response","39","608171","0.0-13.0-1.2","67207","List1A","black","man","","","","null","","","","","","","","",""
"null","is being greeted by","","html-keyboard-response","40","610178","0.0-13.0-2.2","67207","List1A","black","man","","","","null","","","","","","","","",""
"37623.699999809265","","","survey-text","41","647823","0.0-13.0-3.2","67207","List1A","black","man","","","","","{""Q0"":""jane and luke greeted each other""}","<img src=""stim_listA/greet4.gif""style=""height:400px;""></stim_listA>","is being greeted by","","","","","",""
"null","<div style=""font-size:60px;"">+</div>","","html-keyboard-response","42","648333","0.0-13.0-0.3","67207","List1A","black","man","","","","null","","","","","","","","",""
"null","<img src=""stim_listA/kiss6.gif""style=""height:400px;""></stim_listA>","","html-keyboard-response","43","650363","0.0-13.0-1.3","67207","List1A","black","man","","","","null","","","","","","","","",""
"null","is being kissed by","","html-keyboard-response","44","652379","0.0-13.0-2.3","67207","List1A","black","man","","","","null","","","","","","","","",""
"29628.299999713898","","","survey-text","45","682029","0.0-13.0-3.3","67207","List1A","black","man","","","","","{""Q0"":""mike and dave want to kiss each other""}","<img src=""stim_listA/kiss6.gif""style=""height:400px;""></stim_listA>","is being kissed by","","","","","",""
"null","<div style=""font-size:60px;"">+</div>","","html-keyboard-response","46","682546","0.0-13.0-0.4","67207","List1A","black","man","","","","null","","","","","","","","",""
"null","<img src=""stim_listA/touch8.gif""style=""height:400px;""></stim_listA>","","html-keyboard-response","47","684568","0.0-13.0-1.4","67207","List1A","black","man","","","","null","","","","","","","","",""
"null","is being touched by","","html-keyboard-response","48","686573","0.0-13.0-2.4","67207","List1A","black","man","","","","null","","","","","","","","",""
"41859.7000002861","","","survey-text","49","728450","0.0-13.0-3.4","67207","List1A","black","man","","","","","{""Q0"":""beth is been touch by jane""}","<img src=""stim_listA/touch8.gif""style=""height:400px;""></stim_listA>","is being touched by","","","","","",""
"null","<div style=""font-size:60px;"">+</div>","","html-keyboard-response","50","728959","0.0-13.0-0.5","67207","List1A","black","man","","","","null","","","","","","","","",""
"null","<img src=""stim_listA/oppose5.gif""style=""height:400px;""></stim_listA>","","html-keyboard-response","51","730979","0.0-13.0-1.5","67207","List1A","black","man","","","","null","","","","","","","","",""
"null","is opposing","","html-keyboard-response","52","732986","0.0-13.0-2.5","67207","List1A","black","man","","","","null","","","","","","","","",""
"21471.39999961853","","","survey-text","53","754478","0.0-13.0-3.5","67207","List1A","black","man","","","","","{""Q0"":""mike is opposing dave""}","<img src=""stim_listA/oppose5.gif""style=""height:400px;""></stim_listA>","is opposing","","","","","",""
"null","<div style=""font-size:60px;"">+</div>","","html-keyboard-response","54","754998","0.0-13.0-0.6","67207","List1A","black","man","","","","null","","","","","","","","",""
"null","<img src=""stim_listA/hug7.gif""style=""height:400px;""></stim_listA>","","html-keyboard-response","55","757018","0.0-13.0-1.6","67207","List1A","black","man","","","","null","","","","","","","","",""
"null","is hugging","","html-keyboard-response","56","759024","0.0-13.0-2.6","67207","List1A","black","man","","","","null","","","","","","","","",""
"46042.699999809265","","","survey-text","57","805084","0.0-13.0-3.6","67207","List1A","black","man","","","","","{""Q0"":""ruth is hugging beth""}","<img src=""stim_listA/hug7.gif""style=""height:400px;""></stim_listA>","is hugging","","","","","",""
"null","<div style=""font-size:60px;"">+</div>","","html-keyboard-response","58","805591","0.0-13.0-0.7","67207","List1A","black","man","","","","null","","","","","","","","",""
"null","<img src=""stim_listA/shout4.gif""style=""height:400px;""></stim_listA>","","html-keyboard-response","59","807613","0.0-13.0-1.7","67207","List1A","black","man","","","","null","","","","","","","","",""
"null","is being shouted at by","","html-keyboard-response","60","809619","0.0-13.0-2.7","67207","List1A","black","man","","","","null","","","","","","","","",""
"41232.300000190735","","","survey-text","61","850871","0.0-13.0-3.7","67207","List1A","black","man","","","","","{""Q0"":""dave is been shouted at jane""}","<img src=""stim_listA/shout4.gif""style=""height:400px;""></stim_listA>","is being shouted at by","","","","","",""
"null","<div style=""font-size:60px;"">+</div>","","html-keyboard-response","62","851380","0.0-13.0-0.8","67207","List1A","black","man","","","","null","","","","","","","","",""
"null","<img src=""stim_listA/kiss2.gif""style=""height:400px;""></stim_listA>","","html-keyboard-response","63","853400","0.0-13.0-1.8","67207","List1A","black","man","","","","null","","","","","","","","",""
"null","is being kissed by","","html-keyboard-response","64","855405","0.0-13.0-2.8","67207","List1A","black","man","","","","null","","","","","","","","",""
"34740.699999809265","","","survey-text","65","890163","0.0-13.0-3.8","67207","List1A","black","man","","","","","{""Q0"":""mike is been kissed by kate""}","<img src=""stim_listA/kiss2.gif""style=""height:400px;""></stim_listA>","is being kissed by","","","","","",""
"null","<div style=""font-size:60px;"">+</div>","","html-keyboard-response","66","890679","0.0-13.0-0.9","67207","List1A","black","man","","","","null","","","","","","","","",""
"null","<img src=""stim_listA/touch5.gif""style=""height:400px;""></stim_listA>","","html-keyboard-response","67","892703","0.0-13.0-1.9","67207","List1A","black","man","","","","null","","","","","","","","",""
"null","is touching","","html-keyboard-response","68","894721","0.0-13.0-2.9","67207","List1A","black","man","","","","null","","","","","","","","",""
"22755.400000095367","","","survey-text","69","917494","0.0-13.0-3.9","67207","List1A","black","man","","","","","{""Q0"":""mike touched dave""}","<img src=""stim_listA/touch5.gif""style=""height:400px;""></stim_listA>","is touching","","","","","",""
"null","<div style=""font-size:60px;"">+</div>","","html-keyboard-response","70","918008","0.0-13.0-0.10","67207","List1A","black","man","","","","null","","","","","","","","",""
"null","<img src=""stim_listA/look1.gif""style=""height:400px;""></stim_listA>","","html-keyboard-response","71","920014","0.0-13.0-1.10","67207","List1A","black","man","","","","null","","","","","","","","",""
"null","is looking at","","html-keyboard-response","72","922025","0.0-13.0-2.10","67207","List1A","black","man","","","","null","","","","","","","","",""
"22911.200000286102","","","survey-text","73","944945","0.0-13.0-3.10","67207","List1A","black","man","","","","","{""Q0"":""fred is looking at beth""}","<img src=""stim_listA/look1.gif""style=""height:400px;""></stim_listA>","is looking at","","","","","",""
"null","<div style=""font-size:60px;"">+</div>","","html-keyboard-response","74","945467","0.0-13.0-0.11","67207","List1A","black","man","","","","null","","","","","","","","",""
"null","<img src=""stim_listA/shout5.gif""style=""height:400px;""></stim_listA>","","html-keyboard-response","75","947486","0.0-13.0-1.11","67207","List1A","black","man","","","","null","","","","","","","","",""
"null","is shouting at","","html-keyboard-response","76","949490","0.0-13.0-2.11","67207","List1A","black","man","","","","null","","","","","","","","",""
"37711.09999990463","","","survey-text","77","987208","0.0-13.0-3.11","67207","List1A","black","man","","","","","{""Q0"":""fred shouted at luke""}","<img src=""stim_listA/shout5.gif""style=""height:400px;""></stim_listA>","is shouting at","","","","","",""
"null","<div style=""font-size:60px;"">+</div>","","html-keyboard-response","78","987722","0.0-13.0-0.12","67207","List1A","black","man","","","","null","","","","","","","","",""
"null","<img src=""stim_listA/hug6.gif""style=""height:400px;""></stim_listA>","","html-keyboard-response","79","989746","0.0-13.0-1.12","67207","List1A","black","man","","","","null","","","","","","","","",""
"null","is being hugged by","","html-keyboard-response","80","991750","0.0-13.0-2.12","67207","List1A","black","man","","","","null","","","","","","","","",""
"36904.699999809265","","","survey-text","81","1028663","0.0-13.0-3.12","67207","List1A","black","man","","","","","{""Q0"":""dave is being hugged by mike""}","<img src=""stim_listA/hug6.gif""style=""height:400px;""></stim_listA>","is being hugged by","","","","","",""
"null","<div style=""font-size:60px;"">+</div>","","html-keyboard-response","82","1029175","0.0-13.0-0.13","67207","List1A","black","man","","","","null","","","","","","","","",""
"null","<img src=""stim_listA/look3.gif""style=""height:400px;""></stim_listA>","","html-keyboard-response","83","1031194","0.0-13.0-1.13","67207","List1A","black","man","","","","null","","","","","","","","",""
"null","is looking at","","html-keyboard-response","84","1033198","0.0-13.0-2.13","67207","List1A","black","man","","","","null","","","","","","","","",""
"16519.599999904633","","","survey-text","85","1049740","0.0-13.0-3.13","67207","List1A","black","man","","","","","{""Q0"":""luke is looking at ruth""}","<img src=""stim_listA/look3.gif""style=""height:400px;""></stim_listA>","is looking at","","","","","",""
"null","<div style=""font-size:60px;"">+</div>","","html-keyboard-response","86","1050269","0.0-13.0-0.14","67207","List1A","black","man","","","","null","","","","","","","","",""
"null","<img src=""stim_listA/seduce8.gif""style=""height:400px;""></stim_listA>","","html-keyboard-response","87","1052275","0.0-13.0-1.14","67207","List1A","black","man","","","","null","","","","","","","","",""
"null","is being seduced by","","html-keyboard-response","88","1054277","0.0-13.0-2.14","67207","List1A","black","man","","","","null","","","","","","","","",""
"32190.099999904633","","","survey-text","89","1086480","0.0-13.0-3.14","67207","List1A","black","man","","","","","{""Q0"":""kate is being seduced by ruth""}","<img src=""stim_listA/seduce8.gif""style=""height:400px;""></stim_listA>","is being seduced by","","","","","",""
"null","<div style=""font-size:60px;"">+</div>","","html-keyboard-response","90","1086991","0.0-13.0-0.15","67207","List1A","black","man","","","","null","","","","","","","","",""
"null","<img src=""stim_listA/challenge5.gif""style=""height:400px;""></stim_listA>","","html-keyboard-response","91","1089006","0.0-13.0-1.15","67207","List1A","black","man","","","","null","","","","","","","","",""
"null","is challenging","","html-keyboard-response","92","1091009","0.0-13.0-2.15","67207","List1A","black","man","","","","null","","","","","","","","",""
"19586","","","survey-text","93","1110606","0.0-13.0-3.15","67207","List1A","black","man","","","","","{""Q0"":""mike is challeged by luke""}","<img src=""stim_listA/challenge5.gif""style=""height:400px;""></stim_listA>","is challenging","","","","","",""
"null","<div style=""font-size:60px;"">+</div>","","html-keyboard-response","94","1111116","0.0-13.0-0.16","67207","List1A","black","man","","","","null","","","","","","","","",""
"null","<img src=""stim_listA/copy2.gif""style=""height:400px;""></stim_listA>","","html-keyboard-response","95","1113120","0.0-13.0-1.16","67207","List1A","black","man","","","","null","","","","","","","","",""
"null","is being copied by","","html-keyboard-response","96","1115125","0.0-13.0-2.16","67207","List1A","black","man","","","","null","","","","","","","","",""
"52337.699999809265","","","survey-text","97","1167468","0.0-13.0-3.16","67207","List1A","black","man","","","","","{""Q0"":""fred looked at kate""}","<img src=""stim_listA/copy2.gif""style=""height:400px;""></stim_listA>","is being copied by","","","","","",""
"null","<div style=""font-size:60px;"">+</div>","","html-keyboard-response","98","1167975","0.0-13.0-0.17","67207","List1A","black","man","","","","null","","","","","","","","",""
"null","<img src=""stim_listA/oppose4.gif""style=""height:400px;""></stim_listA>","","html-keyboard-response","99","1169982","0.0-13.0-1.17","67207","List1A","black","man","","","","null","","","","","","","","",""
"null","is being opposed by","","html-keyboard-response","100","1171988","0.0-13.0-2.17","67207","List1A","black","man","","","","null","","","","","","","","",""
"26929.699999809265","","","survey-text","101","1198922","0.0-13.0-3.17","67207","List1A","black","man","","","","","{""Q0"":""luke is being opposed by ruth""}","<img src=""stim_listA/oppose4.gif""style=""height:400px;""></stim_listA>","is being opposed by","","","","","",""
"null","<div style=""font-size:60px;"">+</div>","","html-keyboard-response","102","1199438","0.0-13.0-0.18","67207","List1A","black","man","","","","null","","","","","","","","",""
"null","<img src=""stim_listA/oppose8.gif""style=""height:400px;""></stim_listA>","","html-keyboard-response","103","1201458","0.0-13.0-1.18","67207","List1A","black","man","","","","null","","","","","","","","",""
"null","is being opposed by","","html-keyboard-response","104","1203461","0.0-13.0-2.18","67207","List1A","black","man","","","","null","","","","","","","","",""
"29044.300000190735","","","survey-text","105","1232511","0.0-13.0-3.18","67207","List1A","black","man","","","","","{""Q0"":""beth is being opposed by ruth""}","<img src=""stim_listA/oppose8.gif""style=""height:400px;""></stim_listA>","is being opposed by","","","","","",""
"null","<div style=""font-size:60px;"">+</div>","","html-keyboard-response","106","1233024","0.0-13.0-0.19","67207","List1A","black","man","","","","null","","","","","","","","",""
"null","<img src=""stim_listA/shout3.gif""style=""height:400px;""></stim_listA>","","html-keyboard-response","107","1235045","0.0-13.0-1.19","67207","List1A","black","man","","","","null","","","","","","","","",""
"null","is shouting at","","html-keyboard-response","108","1237049","0.0-13.0-2.19","67207","List1A","black","man","","","","null","","","","","","","","",""
"16741.400000095367","","","survey-text","109","1253807","0.0-13.0-3.19","67207","List1A","black","man","","","","","{""Q0"":""luke shouted at ruth""}","<img src=""stim_listA/shout3.gif""style=""height:400px;""></stim_listA>","is shouting at","","","","","",""
"51131.2999997139","<img src='img/portrait_matrix_list1.jpg' style='width:900px;height:500px;''></img><p>If you have memorised all the portraits and names and are ready to start, press Continue.</p><p><strong>Please note: Your memory of these faces will be tested 4 times during this experiment.</strong></p>","0","html-button-response","110","1304944","0.0-14.0-0.0","67207","List1A","black","man","","","","","","","","","","","","",""
"10206.400000095367","<img src=""portrait/WM2.jpg""style=""height:400px;""></img>","7","html-button-response","111","1316168","0.0-14.0-1.0","67207","List1A","black","man","","true","7","","","","","","","","","",""
"null","CORRECT","","html-keyboard-response","112","1317700","0.0-14.0-2.0-0.0","67207","List1A","black","man","","","","null","","","","","","","","",""
"5782.299999713898","<img src=""portrait/BW2.jpg""style=""height:400px;""></img>","2","html-button-response","113","1323490","0.0-14.0-4.0","67207","List1A","black","man","","true","2","","","","","","","","","",""
"null","CORRECT","","html-keyboard-response","114","1325016","0.0-14.0-5.0-0.0","67207","List1A","black","man","","","","null","","","","","","","","",""
"5677.900000095367","<img src=""portrait/WM1.jpg""style=""height:400px;""></img>","6","html-button-response","115","1330703","0.0-14.0-7.0","67207","List1A","black","man","","true","6","","","","","","","","","",""
"null","CORRECT","","html-keyboard-response","116","1332238","0.0-14.0-8.0-0.0","67207","List1A","black","man","","","","null","","","","","","","","",""
"5630.799999713898","<img src=""portrait/WW1.jpg""style=""height:400px;""></img>","1","html-button-response","117","1337874","0.0-14.0-10.0","67207","List1A","black","man","","true","1","","","","","","","","","",""
"null","CORRECT","","html-keyboard-response","118","1339378","0.0-14.0-11.0-0.0","67207","List1A","black","man","","","","null","","","","","","","","",""
"4124.199999809265","<img src=""portrait/BM1.jpg""style=""height:400px;""></img>","4","html-button-response","119","1343508","0.0-14.0-13.0","67207","List1A","black","man","","true","4","","","","","","","","","",""
"null","CORRECT","","html-keyboard-response","120","1345042","0.0-14.0-14.0-0.0","67207","List1A","black","man","","","","null","","","","","","","","",""
"5882.39999961853","<img src=""portrait/BM2.jpg""style=""height:400px;""></img>","5","html-button-response","121","1350932","0.0-14.0-16.0","67207","List1A","black","man","","true","5","","","","","","","","","",""
"null","CORRECT","","html-keyboard-response","122","1352474","0.0-14.0-17.0-0.0","67207","List1A","black","man","","","","null","","","","","","","","",""
"6777.099999904633","<img src=""portrait/BW1.jpg""style=""height:400px;""></img>","0","html-button-response","123","1359257","0.0-14.0-19.0","67207","List1A","black","man","","true","0","","","","","","","","","",""
"null","CORRECT","","html-keyboard-response","124","1360788","0.0-14.0-20.0-0.0","67207","List1A","black","man","","","","null","","","","","","","","",""
"5247.400000095367","<img src=""portrait/WW2.jpg""style=""height:400px;""></img>","3","html-button-response","125","1366039","0.0-14.0-22.0","67207","List1A","black","man","","true","3","","","","","","","","","",""
"null","CORRECT","","html-keyboard-response","126","1367562","0.0-14.0-23.0-0.0","67207","List1A","black","man","","","","null","","","","","","","","",""
"3167","<p>You got 8 out of 8 right first time. Press Continue.</p>","0","html-button-response","127","1370736","0.0-14.0-25.0","67207","List1A","black","man","","","","","","","","","","","","",""
"null","<div style=""font-size:60px;"">+</div>","","html-keyboard-response","128","1372259","0.0-15.0-0.0","67207","List1A","black","man","","","","null","","","","","","","","",""
"null","<img src=""stim_listA/oppose1.gif""style=""height:400px;""></stim_listA>","","html-keyboard-response","129","1374280","0.0-15.0-1.0","67207","List1A","black","man","","","","null","","","","","","","","",""
"null","is opposing","","html-keyboard-response","130","1376285","0.0-15.0-2.0","67207","List1A","black","man","","","","null","","","","","","","","",""
"17701","","","survey-text","131","1394003","0.0-15.0-3.0","67207","List1A","black","man","","","","","{""Q0"":""mike is opposing kate""}","<img src=""stim_listA/oppose1.gif""style=""height:400px;""></stim_listA>","is opposing","","","","","",""
"null","<div style=""font-size:60px;"">+</div>","","html-keyboard-response","132","1394524","0.0-15.0-0.1","67207","List1A","black","man","","","","null","","","","","","","","",""
"null","<img src=""stim_listA/look4.gif""style=""height:400px;""></stim_listA>","","html-keyboard-response","133","1396545","0.0-15.0-1.1","67207","List1A","black","man","","","","null","","","","","","","","",""
"null","is being looked at by","","html-keyboard-response","134","1398552","0.0-15.0-2.1","67207","List1A","black","man","","","","null","","","","","","","","",""
"30768.800000190735","","","survey-text","135","1429340","0.0-15.0-3.1","67207","List1A","black","man","","","","","{""Q0"":""dave is being looked at by jane""}","<img src=""stim_listA/look4.gif""style=""height:400px;""></stim_listA>","is being looked at by","","","","","",""
"null","<div style=""font-size:60px;"">+</div>","","html-keyboard-response","136","1429849","0.0-15.0-0.2","67207","List1A","black","man","","","","null","","","","","","","","",""
"null","<img src=""stim_listA/touch6.gif""style=""height:400px;""></stim_listA>","","html-keyboard-response","137","1431871","0.0-15.0-1.2","67207","List1A","black","man","","","","null","","","","","","","","",""
"null","is being touched by","","html-keyboard-response","138","1433875","0.0-15.0-2.2","67207","List1A","black","man","","","","null","","","","","","","","",""
"22968.400000095367","","","survey-text","139","1456853","0.0-15.0-3.2","67207","List1A","black","man","","","","","{""Q0"":""fred is being touched by luke""}","<img src=""stim_listA/touch6.gif""style=""height:400px;""></stim_listA>","is being touched by","","","","","",""
"null","<div style=""font-size:60px;"">+</div>","","html-keyboard-response","140","1457377","0.0-15.0-0.3","67207","List1A","black","man","","","","null","","","","","","","","",""
"null","<img src=""stim_listA/copy1.gif""style=""height:400px;""></stim_listA>","","html-keyboard-response","141","1459395","0.0-15.0-1.3","67207","List1A","black","man","","","","null","","","","","","","","",""
"null","is copying","","html-keyboard-response","142","1461416","0.0-15.0-2.3","67207","List1A","black","man","","","","null","","","","","","","","",""
"28516.300000190735","","","survey-text","143","1489946","0.0-15.0-3.3","67207","List1A","black","man","","","","","{""Q0"":""beth is copying mike""}","<img src=""stim_listA/copy1.gif""style=""height:400px;""></stim_listA>","is copying","","","","","",""
"null","<div style=""font-size:60px;"">+</div>","","html-keyboard-response","144","1490456","0.0-15.0-0.4","67207","List1A","black","man","","","","null","","","","","","","","",""
"null","<img src=""stim_listA/shout8.gif""style=""height:400px;""></stim_listA>","","html-keyboard-response","145","1492483","0.0-15.0-1.4","67207","List1A","black","man","","","","null","","","","","","","","",""
"null","is being shouted at by","","html-keyboard-response","146","1494488","0.0-15.0-2.4","67207","List1A","black","man","","","","null","","","","","","","","",""
"33875","","","survey-text","147","1528368","0.0-15.0-3.4","67207","List1A","black","man","","","","","{""Q0"":""kate is being shouted at jane""}","<img src=""stim_listA/shout8.gif""style=""height:400px;""></stim_listA>","is being shouted at by","","","","","",""
"null","<div style=""font-size:60px;"">+</div>","","html-keyboard-response","148","1528889","0.0-15.0-0.5","67207","List1A","black","man","","","","null","","","","","","","","",""
"null","<img src=""stim_listA/greet3.gif""style=""height:400px;""></stim_listA>","","html-keyboard-response","149","1530910","0.0-15.0-1.5","67207","List1A","black","man","","","","null","","","","","","","","",""
"null","is greeting","","html-keyboard-response","150","1532915","0.0-15.0-2.5","67207","List1A","black","man","","","","null","","","","","","","","",""
"46281.699999809265","","","survey-text","151","1579203","0.0-15.0-3.5","67207","List1A","black","man","","","","","{""Q0"":""ruth is greeting luke""}","<img src=""stim_listA/greet3.gif""style=""height:400px;""></stim_listA>","is greeting","","","","","",""
"null","<div style=""font-size:60px;"">+</div>","","html-keyboard-response","152","1579711","0.0-15.0-0.6","67207","List1A","black","man","","","","null","","","","","","","","",""
"null","<img src=""stim_listA/challenge1.gif""style=""height:400px;""></stim_listA>","","html-keyboard-response","153","1581731","0.0-15.0-1.6","67207","List1A","black","man","","","","null","","","","","","","","",""
"null","is challenging","","html-keyboard-response","154","1583737","0.0-15.0-2.6","67207","List1A","black","man","","","","null","","","","","","","","",""
"33545.40000009537","","","survey-text","155","1617290","0.0-15.0-3.6","67207","List1A","black","man","","","","","{""Q0"":""mike greeted beth""}","<img src=""stim_listA/challenge1.gif""style=""height:400px;""></stim_listA>","is challenging","","","","","",""
"null","<div style=""font-size:60px;"">+</div>","","html-keyboard-response","156","1617807","0.0-15.0-0.7","67207","List1A","black","man","","","","null","","","","","","","","",""
"null","<img src=""stim_listA/touch1.gif""style=""height:400px;""></stim_listA>","","html-keyboard-response","157","1619835","0.0-15.0-1.7","67207","List1A","black","man","","","","null","","","","","","","","",""
"null","is touching","","html-keyboard-response","158","1621841","0.0-15.0-2.7","67207","List1A","black","man","","","","null","","","","","","","","",""
"23661.799999713898","","","survey-text","159","1645518","0.0-15.0-3.7","67207","List1A","black","man","","","","","{""Q0"":""kate is touching mike""}","<img src=""stim_listA/touch1.gif""style=""height:400px;""></stim_listA>","is touching","","","","","",""
"null","<div style=""font-size:60px;"">+</div>","","html-keyboard-response","160","1646037","0.0-15.0-0.8","67207","List1A","black","man","","","","null","","","","","","","","",""
"null","<img src=""stim_listA/seduce7.gif""style=""height:400px;""></stim_listA>","","html-keyboard-response","161","1648057","0.0-15.0-1.8","67207","List1A","black","man","","","","null","","","","","","","","",""
"null","is seducing","","html-keyboard-response","162","1650069","0.0-15.0-2.8","67207","List1A","black","man","","","","null","","","","","","","","",""
"20730","","","survey-text","163","1670838","0.0-15.0-3.8","67207","List1A","black","man","","","","","{""Q0"":""kate is seducing jane""}","<img src=""stim_listA/seduce7.gif""style=""height:400px;""></stim_listA>","is seducing","","","","","",""
"null","<div style=""font-size:60px;"">+</div>","","html-keyboard-response","164","1671355","0.0-15.0-0.9","67207","List1A","black","man","","","","null","","","","","","","","",""
"null","<img src=""stim_listA/oppose7.gif""style=""height:400px;""></stim_listA>","","html-keyboard-response","165","1673376","0.0-15.0-1.9","67207","List1A","black","man","","","","null","","","","","","","","",""
"null","is opposing","","html-keyboard-response","166","1675394","0.0-15.0-2.9","67207","List1A","black","man","","","","null","","","","","","","","",""
"20392.599999904633","","","survey-text","167","1695820","0.0-15.0-3.9","67207","List1A","black","man","","","","","{""Q0"":""kate is opposing jane""}","<img src=""stim_listA/oppose7.gif""style=""height:400px;""></stim_listA>","is opposing","","","","","",""
"null","<div style=""font-size:60px;"">+</div>","","html-keyboard-response","168","1696335","0.0-15.0-0.10","67207","List1A","black","man","","","","null","","","","","","","","",""
"null","<img src=""stim_listA/hug5.gif""style=""height:400px;""></stim_listA>","","html-keyboard-response","169","1698355","0.0-15.0-1.10","67207","List1A","black","man","","","","null","","","","","","","","",""
"null","is hugging","","html-keyboard-response","170","1700364","0.0-15.0-2.10","67207","List1A","black","man","","","","null","","","","","","","","",""
"26925.400000095367","","","survey-text","171","1727298","0.0-15.0-3.10","67207","List1A","black","man","","","","","{""Q0"":""fred is hugging luke""}","<img src=""stim_listA/hug5.gif""style=""height:400px;""></stim_listA>","is hugging","","","","","",""
"null","<div style=""font-size:60px;"">+</div>","","html-keyboard-response","172","1727816","0.0-15.0-0.11","67207","List1A","black","man","","","","null","","","","","","","","",""
"null","<img src=""stim_listA/touch7.gif""style=""height:400px;""></stim_listA>","","html-keyboard-response","173","1729837","0.0-15.0-1.11","67207","List1A","black","man","","","","null","","","","","","","","",""
"null","is touching","","html-keyboard-response","174","1731843","0.0-15.0-2.11","67207","List1A","black","man","","","","null","","","","","","","","",""
"13856.5","","","survey-text","175","1745717","0.0-15.0-3.11","67207","List1A","black","man","","","","","{""Q0"":""kate is touching jane""}","<img src=""stim_listA/touch7.gif""style=""height:400px;""></stim_listA>","is touching","","","","","",""
"null","<div style=""font-size:60px;"">+</div>","","html-keyboard-response","176","1746238","0.0-15.0-0.12","67207","List1A","black","man","","","","null","","","","","","","","",""
"null","<img src=""stim_listA/copy3.gif""style=""height:400px;""></stim_listA>","","html-keyboard-response","177","1748256","0.0-15.0-1.12","67207","List1A","black","man","","","","null","","","","","","","","",""
"null","is copying","","html-keyboard-response","178","1750267","0.0-15.0-2.12","67207","List1A","black","man","","","","null","","","","","","","","",""
"28382.599999904633","","","survey-text","179","1778720","0.0-15.0-3.12","67207","List1A","black","man","","","","","{""Q0"":""fred is copying ruth""}","<img src=""stim_listA/copy3.gif""style=""height:400px;""></stim_listA>","is copying","","","","","",""
"null","<div style=""font-size:60px;"">+</div>","","html-keyboard-response","180","1779237","0.0-15.0-0.13","67207","List1A","black","man","","","","null","","","","","","","","",""
"null","<img src=""stim_listA/copy5.gif""style=""height:400px;""></stim_listA>","","html-keyboard-response","181","1781256","0.0-15.0-1.13","67207","List1A","black","man","","","","null","","","","","","","","",""
"null","is copying","","html-keyboard-response","182","1783264","0.0-15.0-2.13","67207","List1A","black","man","","","","null","","","","","","","","",""
"19370.599999904633","","","survey-text","183","1802682","0.0-15.0-3.13","67207","List1A","black","man","","","","","{""Q0"":""mike is copying luke""}","<img src=""stim_listA/copy5.gif""style=""height:400px;""></stim_listA>","is copying","","","","","",""
"null","<div style=""font-size:60px;"">+</div>","","html-keyboard-response","184","1803197","0.0-15.0-0.14","67207","List1A","black","man","","","","null","","","","","","","","",""
"null","<img src=""stim_listA/look7.gif""style=""height:400px;""></stim_listA>","","html-keyboard-response","185","1805202","0.0-15.0-1.14","67207","List1A","black","man","","","","null","","","","","","","","",""
"null","is looking at","","html-keyboard-response","186","1807222","0.0-15.0-2.14","67207","List1A","black","man","","","","null","","","","","","","","",""
"32237.700000286102","","","survey-text","187","1839468","0.0-15.0-3.14","67207","List1A","black","man","","","","","{""Q0"":""ruth is looking at beth""}","<img src=""stim_listA/look7.gif""style=""height:400px;""></stim_listA>","is looking at","","","","","",""
"null","<div style=""font-size:60px;"">+</div>","","html-keyboard-response","188","1839980","0.0-15.0-0.15","67207","List1A","black","man","","","","null","","","","","","","","",""
"null","<img src=""stim_listA/hug2.gif""style=""height:400px;""></stim_listA>","","html-keyboard-response","189","1841996","0.0-15.0-1.15","67207","List1A","black","man","","","","null","","","","","","","","",""
"null","is being hugged by","","html-keyboard-response","190","1844005","0.0-15.0-2.15","67207","List1A","black","man","","","","null","","","","","","","","",""
"17874.300000190735","","","survey-text","191","1861895","0.0-15.0-3.15","67207","List1A","black","man","","","","","{""Q0"":""kate is being hugged by mike""}","<img src=""stim_listA/hug2.gif""style=""height:400px;""></stim_listA>","is being hugged by","","","","","",""
"null","<div style=""font-size:60px;"">+</div>","","html-keyboard-response","192","1862412","0.0-15.0-0.16","67207","List1A","black","man","","","","null","","","","","","","","",""
"null","<img src=""stim_listA/challenge2.gif""style=""height:400px;""></stim_listA>","","html-keyboard-response","193","1864430","0.0-15.0-1.16","67207","List1A","black","man","","","","null","","","","","","","","",""
"null","is being challenged by","","html-keyboard-response","194","1866448","0.0-15.0-2.16","67207","List1A","black","man","","","","null","","","","","","","","",""
"23594.5","","","survey-text","195","1890067","0.0-15.0-3.16","67207","List1A","black","man","","","","","{""Q0"":""kate is being challeged fred""}","<img src=""stim_listA/challenge2.gif""style=""height:400px;""></stim_listA>","is being challenged by","","","","","",""
"null","<div style=""font-size:60px;"">+</div>","","html-keyboard-response","196","1890581","0.0-15.0-0.17","67207","List1A","black","man","","","","null","","","","","","","","",""
"null","<img src=""stim_listA/touch3.gif""style=""height:400px;""></stim_listA>","","html-keyboard-response","197","1892598","0.0-15.0-1.17","67207","List1A","black","man","","","","null","","","","","","","","",""
"null","is touching","","html-keyboard-response","198","1894604","0.0-15.0-2.17","67207","List1A","black","man","","","","null","","","","","","","","",""
"30564.800000190735","","","survey-text","199","1925188","0.0-15.0-3.17","67207","List1A","black","man","","","","","{""Q0"":""dave is being touched by jane""}","<img src=""stim_listA/touch3.gif""style=""height:400px;""></stim_listA>","is touching","","","","","",""
"null","<div style=""font-size:60px;"">+</div>","","html-keyboard-response","200","1925697","0.0-15.0-0.18","67207","List1A","black","man","","","","null","","","","","","","","",""
"null","<img src=""stim_listA/seduce6.gif""style=""height:400px;""></stim_listA>","","html-keyboard-response","201","1927717","0.0-15.0-1.18","67207","List1A","black","man","","","","null","","","","","","","","",""
"null","is being seduced by","","html-keyboard-response","202","1929727","0.0-15.0-2.18","67207","List1A","black","man","","","","null","","","","","","","","",""
"16748.800000190735","","","survey-text","203","1946496","0.0-15.0-3.18","67207","List1A","black","man","","","","","{""Q0"":""luke is being seduced by mike""}","<img src=""stim_listA/seduce6.gif""style=""height:400px;""></stim_listA>","is being seduced by","","","","","",""
"null","<div style=""font-size:60px;"">+</div>","","html-keyboard-response","204","1947013","0.0-15.0-0.19","67207","List1A","black","man","","","","null","","","","","","","","",""
"null","<img src=""stim_listA/greet7.gif""style=""height:400px;""></stim_listA>","","html-keyboard-response","205","1949031","0.0-15.0-1.19","67207","List1A","black","man","","","","null","","","","","","","","",""
"null","is greeting","","html-keyboard-response","206","1951037","0.0-15.0-2.19","67207","List1A","black","man","","","","null","","","","","","","","",""
"13306.900000095367","","","survey-text","207","1964376","0.0-15.0-3.19","67207","List1A","black","man","","","","","{""Q0"":""ruth is greeting kate""}","<img src=""stim_listA/greet7.gif""style=""height:400px;""></stim_listA>","is greeting","","","","","",""
"30280.599999904633","<img src='img/portrait_matrix_list1.jpg' style='width:900px;height:500px;''></img><p>If you have memorised all the portraits and names and are ready to start, press Continue.</p><p><strong>Please note: Your memory of these faces will be tested 4 times during this experiment.</strong></p>","0","html-button-response","208","1994663","0.0-16.0-0.0","67207","List1A","black","man","","","","","","","","","","","","",""
"5807.799999713898","<img src=""portrait/WW2.jpg""style=""height:400px;""></img>","3","html-button-response","209","2001495","0.0-16.0-1.0","67207","List1A","black","man","","true","3","","","","","","","","","",""
"null","CORRECT","","html-keyboard-response","210","2003004","0.0-16.0-2.0-0.0","67207","List1A","black","man","","","","null","","","","","","","","",""
"5339.700000286102","<img src=""portrait/BM2.jpg""style=""height:400px;""></img>","5","html-button-response","211","2008360","0.0-16.0-4.0","67207","List1A","black","man","","true","5","","","","","","","","","",""
"null","CORRECT","","html-keyboard-response","212","2009872","0.0-16.0-5.0-0.0","67207","List1A","black","man","","","","null","","","","","","","","",""
"6925","<img src=""portrait/WW1.jpg""style=""height:400px;""></img>","1","html-button-response","213","2016804","0.0-16.0-7.0","67207","List1A","black","man","","true","1","","","","","","","","","",""
"null","CORRECT","","html-keyboard-response","214","2018332","0.0-16.0-8.0-0.0","67207","List1A","black","man","","","","null","","","","","","","","",""
"6216.599999904633","<img src=""portrait/BW2.jpg""style=""height:400px;""></img>","2","html-button-response","215","2024556","0.0-16.0-10.0","67207","List1A","black","man","","true","2","","","","","","","","","",""
"null","CORRECT","","html-keyboard-response","216","2026081","0.0-16.0-11.0-0.0","67207","List1A","black","man","","","","null","","","","","","","","",""
"5091.700000286102","<img src=""portrait/WM2.jpg""style=""height:400px;""></img>","7","html-button-response","217","2031179","0.0-16.0-13.0","67207","List1A","black","man","","true","7","","","","","","","","","",""
"null","CORRECT","","html-keyboard-response","218","2032713","0.0-16.0-14.0-0.0","67207","List1A","black","man","","","","null","","","","","","","","",""
"5636.300000190735","<img src=""portrait/WM1.jpg""style=""height:400px;""></img>","6","html-button-response","219","2038359","0.0-16.0-16.0","67207","List1A","black","man","","true","6","","","","","","","","","",""
"null","CORRECT","","html-keyboard-response","220","2039880","0.0-16.0-17.0-0.0","67207","List1A","black","man","","","","null","","","","","","","","",""
"7473.799999713898","<img src=""portrait/BW1.jpg""style=""height:400px;""></img>","0","html-button-response","221","2047361","0.0-16.0-19.0","67207","List1A","black","man","","true","0","","","","","","","","","",""
"null","CORRECT","","html-keyboard-response","222","2048897","0.0-16.0-20.0-0.0","67207","List1A","black","man","","","","null","","","","","","","","",""
"4903.200000286102","<img src=""portrait/BM1.jpg""style=""height:400px;""></img>","4","html-button-response","223","2053809","0.0-16.0-22.0","67207","List1A","black","man","","true","4","","","","","","","","","",""
"null","CORRECT","","html-keyboard-response","224","2055331","0.0-16.0-23.0-0.0","67207","List1A","black","man","","","","null","","","","","","","","",""
"6372.5","<p>You got 8 out of 8 right first time. Press Continue.</p>","0","html-button-response","225","2061712","0.0-16.0-25.0","67207","List1A","black","man","","","","","","","","","","","","",""
"null","<div style=""font-size:60px;"">+</div>","","html-keyboard-response","226","2063246","0.0-17.0-0.0","67207","List1A","black","man","","","","null","","","","","","","","",""
"null","<img src=""stim_listA/copy7.gif""style=""height:400px;""></stim_listA>","","html-keyboard-response","227","2065263","0.0-17.0-1.0","67207","List1A","black","man","","","","null","","","","","","","","",""
"null","is copying","","html-keyboard-response","228","2067280","0.0-17.0-2.0","67207","List1A","black","man","","","","null","","","","","","","","",""
"16317.300000190735","","","survey-text","229","2083611","0.0-17.0-3.0","67207","List1A","black","man","","","","","{""Q0"":""ruth is copying kate""}","<img src=""stim_listA/copy7.gif""style=""height:400px;""></stim_listA>","is copying","","","","","",""
"null","<div style=""font-size:60px;"">+</div>","","html-keyboard-response","230","2084131","0.0-17.0-0.1","67207","List1A","black","man","","","","null","","","","","","","","",""
"null","<img src=""stim_listA/seduce1.gif""style=""height:400px;""></stim_listA>","","html-keyboard-response","231","2086146","0.0-17.0-1.1","67207","List1A","black","man","","","","null","","","","","","","","",""
"null","is seducing","","html-keyboard-response","232","2088164","0.0-17.0-2.1","67207","List1A","black","man","","","","null","","","","","","","","",""
"18191.599999904633","","","survey-text","233","2106362","0.0-17.0-3.1","67207","List1A","black","man","","","","","{""Q0"":""kate is seducing fred""}","<img src=""stim_listA/seduce1.gif""style=""height:400px;""></stim_listA>","is seducing","","","","","",""
"null","<div style=""font-size:60px;"">+</div>","","html-keyboard-response","234","2106877","0.0-17.0-0.2","67207","List1A","black","man","","","","null","","","","","","","","",""
"null","<img src=""stim_listA/hug8.gif""style=""height:400px;""></stim_listA>","","html-keyboard-response","235","2108898","0.0-17.0-1.2","67207","List1A","black","man","","","","null","","","","","","","","",""
"null","is being hugged by","","html-keyboard-response","236","2110902","0.0-17.0-2.2","67207","List1A","black","man","","","","null","","","","","","","","",""
"17253.39999961853","","","survey-text","237","2128165","0.0-17.0-3.2","67207","List1A","black","man","","","","","{""Q0"":""kate is been hugged by jane""}","<img src=""stim_listA/hug8.gif""style=""height:400px;""></stim_listA>","is being hugged by","","","","","",""
"null","<div style=""font-size:60px;"">+</div>","","html-keyboard-response","238","2128677","0.0-17.0-0.3","67207","List1A","black","man","","","","null","","","","","","","","",""
"null","<img src=""stim_listA/challenge8.gif""style=""height:400px;""></stim_listA>","","html-keyboard-response","239","2130695","0.0-17.0-1.3","67207","List1A","black","man","","","","null","","","","","","","","",""
"null","is being challenged by","","html-keyboard-response","240","2132699","0.0-17.0-2.3","67207","List1A","black","man","","","","null","","","","","","","","",""
"17555.900000095367","","","survey-text","241","2150266","0.0-17.0-3.3","67207","List1A","black","man","","","","","{""Q0"":""beth is being challeged by jane""}","<img src=""stim_listA/challenge8.gif""style=""height:400px;""></stim_listA>","is being challenged by","","","","","",""
"null","<div style=""font-size:60px;"">+</div>","","html-keyboard-response","242","2150779","0.0-17.0-0.4","67207","List1A","black","man","","","","null","","","","","","","","",""
"null","<img src=""stim_listA/kiss8.gif""style=""height:400px;""></stim_listA>","","html-keyboard-response","243","2152791","0.0-17.0-1.4","67207","List1A","black","man","","","","null","","","","","","","","",""
"null","is being kissed by","","html-keyboard-response","244","2154795","0.0-17.0-2.4","67207","List1A","black","man","","","","null","","","","","","","","",""
"15203.800000190735","","","survey-text","245","2170030","0.0-17.0-3.4","67207","List1A","black","man","","","","","{""Q0"":""kate is being kissed by jane""}","<img src=""stim_listA/kiss8.gif""style=""height:400px;""></stim_listA>","is being kissed by","","","","","",""
"null","<div style=""font-size:60px;"">+</div>","","html-keyboard-response","246","2170543","0.0-17.0-0.5","67207","List1A","black","man","","","","null","","","","","","","","",""
"null","<img src=""stim_listA/shout6.gif""style=""height:400px;""></stim_listA>","","html-keyboard-response","247","2172562","0.0-17.0-1.5","67207","List1A","black","man","","","","null","","","","","","","","",""
"null","is being shouted at by","","html-keyboard-response","248","2174567","0.0-17.0-2.5","67207","List1A","black","man","","","","null","","","","","","","","",""
"22712.400000095367","","","survey-text","249","2197294","0.0-17.0-3.5","67207","List1A","black","man","","","","","{""Q0"":""dave is being shouted at mike""}","<img src=""stim_listA/shout6.gif""style=""height:400px;""></stim_listA>","is being shouted at by","","","","","",""
"null","<div style=""font-size:60px;"">+</div>","","html-keyboard-response","250","2197809","0.0-17.0-0.6","67207","List1A","black","man","","","","null","","","","","","","","",""
"null","<img src=""stim_listA/touch4.gif""style=""height:400px;""></stim_listA>","","html-keyboard-response","251","2199828","0.0-17.0-1.6","67207","List1A","black","man","","","","null","","","","","","","","",""
"null","is being touched by","","html-keyboard-response","252","2201845","0.0-17.0-2.6","67207","List1A","black","man","","","","null","","","","","","","","",""
"20317.300000190735","","","survey-text","253","2222231","0.0-17.0-3.6","67207","List1A","black","man","","","","","{""Q0"":""ruth is being touched by ruth""}","<img src=""stim_listA/touch4.gif""style=""height:400px;""></stim_listA>","is being touched by","","","","","",""
"null","<div style=""font-size:60px;"">+</div>","","html-keyboard-response","254","2222743","0.0-17.0-0.7","67207","List1A","black","man","","","","null","","","","","","","","",""
"null","<img src=""stim_listA/touch2.gif""style=""height:400px;""></stim_listA>","","html-keyboard-response","255","2224760","0.0-17.0-1.7","67207","List1A","black","man","","","","null","","","","","","","","",""
"null","is being touched by","","html-keyboard-response","256","2226778","0.0-17.0-2.7","67207","List1A","black","man","","","","null","","","","","","","","",""
"17499.700000286102","","","survey-text","257","2244296","0.0-17.0-3.7","67207","List1A","black","man","","","","","{""Q0"":""fred is being touched by fred""}","<img src=""stim_listA/touch2.gif""style=""height:400px;""></stim_listA>","is being touched by","","","","","",""
"null","<div style=""font-size:60px;"">+</div>","","html-keyboard-response","258","2244809","0.0-17.0-0.8","67207","List1A","black","man","","","","null","","","","","","","","",""
"null","<img src=""stim_listA/copy4.gif""style=""height:400px;""></stim_listA>","","html-keyboard-response","259","2246827","0.0-17.0-1.8","67207","List1A","black","man","","","","null","","","","","","","","",""
"null","is being copied by","","html-keyboard-response","260","2248832","0.0-17.0-2.8","67207","List1A","black","man","","","","null","","","","","","","","",""
"20468.300000190735","","","survey-text","261","2269316","0.0-17.0-3.8","67207","List1A","black","man","","","","","{""Q0"":""luke is being copied by jane""}","<img src=""stim_listA/copy4.gif""style=""height:400px;""></stim_listA>","is being copied by","","","","","",""
"null","<div style=""font-size:60px;"">+</div>","","html-keyboard-response","262","2269825","0.0-17.0-0.9","67207","List1A","black","man","","","","null","","","","","","","","",""
"null","<img src=""stim_listA/kiss5.gif""style=""height:400px;""></stim_listA>","","html-keyboard-response","263","2271841","0.0-17.0-1.9","67207","List1A","black","man","","","","null","","","","","","","","",""
"null","is kissing","","html-keyboard-response","264","2273846","0.0-17.0-2.9","67207","List1A","black","man","","","","null","","","","","","","","",""
"12571","","","survey-text","265","2286441","0.0-17.0-3.9","67207","List1A","black","man","","","","","{""Q0"":""fred is kissing luke""}","<img src=""stim_listA/kiss5.gif""style=""height:400px;""></stim_listA>","is kissing","","","","","",""
"null","<div style=""font-size:60px;"">+</div>","","html-keyboard-response","266","2286959","0.0-17.0-0.10","67207","List1A","black","man","","","","null","","","","","","","","",""
"null","<img src=""stim_listA/shout1.gif""style=""height:400px;""></stim_listA>","","html-keyboard-response","267","2288975","0.0-17.0-1.10","67207","List1A","black","man","","","","null","","","","","","","","",""
"null","is shouting at","","html-keyboard-response","268","2290977","0.0-17.0-2.10","67207","List1A","black","man","","","","null","","","","","","","","",""
"13113.700000286102","","","survey-text","269","2304097","0.0-17.0-3.10","67207","List1A","black","man","","","","","{""Q0"":""fred is shouting at beth""}","<img src=""stim_listA/shout1.gif""style=""height:400px;""></stim_listA>","is shouting at","","","","","",""
"null","<div style=""font-size:60px;"">+</div>","","html-keyboard-response","270","2304610","0.0-17.0-0.11","67207","List1A","black","man","","","","null","","","","","","","","",""
"null","<img src=""stim_listA/copy8.gif""style=""height:400px;""></stim_listA>","","html-keyboard-response","271","2306626","0.0-17.0-1.11","67207","List1A","black","man","","","","null","","","","","","","","",""
"null","is being copied by","","html-keyboard-response","272","2308630","0.0-17.0-2.11","67207","List1A","black","man","","","","null","","","","","","","","",""
"18212.5","","","survey-text","273","2326849","0.0-17.0-3.11","67207","List1A","black","man","","","","","{""Q0"":""jane is being copied by beth""}","<img src=""stim_listA/copy8.gif""style=""height:400px;""></stim_listA>","is being copied by","","","","","",""
"null","<div style=""font-size:60px;"">+</div>","","html-keyboard-response","274","2327359","0.0-17.0-0.12","67207","List1A","black","man","","","","null","","","","","","","","",""
"null","<img src=""stim_listA/seduce2.gif""style=""height:400px;""></stim_listA>","","html-keyboard-response","275","2329375","0.0-17.0-1.12","67207","List1A","black","man","","","","null","","","","","","","","",""
"null","is being seduced by","","html-keyboard-response","276","2331381","0.0-17.0-2.12","67207","List1A","black","man","","","","null","","","","","","","","",""
"15562.400000095367","","","survey-text","277","2346957","0.0-17.0-3.12","67207","List1A","black","man","","","","","{""Q0"":""beth is being seduced by mike""}","<img src=""stim_listA/seduce2.gif""style=""height:400px;""></stim_listA>","is being seduced by","","","","","",""
"null","<div style=""font-size:60px;"">+</div>","","html-keyboard-response","278","2347474","0.0-17.0-0.13","67207","List1A","black","man","","","","null","","","","","","","","",""
"null","<img src=""stim_listA/copy6.gif""style=""height:400px;""></stim_listA>","","html-keyboard-response","279","2349493","0.0-17.0-1.13","67207","List1A","black","man","","","","null","","","","","","","","",""
"null","is being copied by","","html-keyboard-response","280","2351497","0.0-17.0-2.13","67207","List1A","black","man","","","","null","","","","","","","","",""
"14954.299999713898","","","survey-text","281","2366461","0.0-17.0-3.13","67207","List1A","black","man","","","","","{""Q0"":""fred is being copied by dave""}","<img src=""stim_listA/copy6.gif""style=""height:400px;""></stim_listA>","is being copied by","","","","","",""
"null","<div style=""font-size:60px;"">+</div>","","html-keyboard-response","282","2366973","0.0-17.0-0.14","67207","List1A","black","man","","","","null","","","","","","","","",""
"null","<img src=""stim_listA/challenge6.gif""style=""height:400px;""></stim_listA>","","html-keyboard-response","283","2368986","0.0-17.0-1.14","67207","List1A","black","man","","","","null","","","","","","","","",""
"null","is being challenged by","","html-keyboard-response","284","2371006","0.0-17.0-2.14","67207","List1A","black","man","","","","null","","","","","","","","",""
"15537.5","","","survey-text","285","2386573","0.0-17.0-3.14","67207","List1A","black","man","","","","","{""Q0"":""dave is being challeged by fred""}","<img src=""stim_listA/challenge6.gif""style=""height:400px;""></stim_listA>","is being challenged by","","","","","",""
"null","<div style=""font-size:60px;"">+</div>","","html-keyboard-response","286","2387089","0.0-17.0-0.15","67207","List1A","black","man","","","","null","","","","","","","","",""
"null","<img src=""stim_listA/look8.gif""style=""height:400px;""></stim_listA>","","html-keyboard-response","287","2389108","0.0-17.0-1.15","67207","List1A","black","man","","","","null","","","","","","","","",""
"null","is being looked at by","","html-keyboard-response","288","2391123","0.0-17.0-2.15","67207","List1A","black","man","","","","null","","","","","","","","",""
"27823.5","","","survey-text","289","2418967","0.0-17.0-3.15","67207","List1A","black","man","","","","","{""Q0"":""kate is being looked by jane""}","<img src=""stim_listA/look8.gif""style=""height:400px;""></stim_listA>","is being looked at by","","","","","",""
"null","<div style=""font-size:60px;"">+</div>","","html-keyboard-response","290","2419474","0.0-17.0-0.16","67207","List1A","black","man","","","","null","","","","","","","","",""
"null","<img src=""stim_listA/greet1.gif""style=""height:400px;""></stim_listA>","","html-keyboard-response","291","2421490","0.0-17.0-1.16","67207","List1A","black","man","","","","null","","","","","","","","",""
"null","is greeting","","html-keyboard-response","292","2423493","0.0-17.0-2.16","67207","List1A","black","man","","","","null","","","","","","","","",""
"13928.5","","","survey-text","293","2437430","0.0-17.0-3.16","67207","List1A","black","man","","","","","{""Q0"":""beth is greeting mike""}","<img src=""stim_listA/greet1.gif""style=""height:400px;""></stim_listA>","is greeting","","","","","",""
"null","<div style=""font-size:60px;"">+</div>","","html-keyboard-response","294","2437940","0.0-17.0-0.17","67207","List1A","black","man","","","","null","","","","","","","","",""
"null","<img src=""stim_listA/seduce5.gif""style=""height:400px;""></stim_listA>","","html-keyboard-response","295","2439957","0.0-17.0-1.17","67207","List1A","black","man","","","","null","","","","","","","","",""
"null","is seducing","","html-keyboard-response","296","2441962","0.0-17.0-2.17","67207","List1A","black","man","","","","null","","","","","","","","",""
"12615.299999713898","","","survey-text","297","2454591","0.0-17.0-3.17","67207","List1A","black","man","","","","","{""Q0"":""beth is seducing dave""}","<img src=""stim_listA/seduce5.gif""style=""height:400px;""></stim_listA>","is seducing","","","","","",""
"null","<div style=""font-size:60px;"">+</div>","","html-keyboard-response","298","2455106","0.0-17.0-0.18","67207","List1A","black","man","","","","null","","","","","","","","",""
"null","<img src=""stim_listA/seduce3.gif""style=""height:400px;""></stim_listA>","","html-keyboard-response","299","2457125","0.0-17.0-1.18","67207","List1A","black","man","","","","null","","","","","","","","",""
"null","is seducing","","html-keyboard-response","300","2459137","0.0-17.0-2.18","67207","List1A","black","man","","","","null","","","","","","","","",""
"12657.5","","","survey-text","301","2471805","0.0-17.0-3.18","67207","List1A","black","man","","","","","{""Q0"":""luke is seducing jane""}","<img src=""stim_listA/seduce3.gif""style=""height:400px;""></stim_listA>","is seducing","","","","","",""
"null","<div style=""font-size:60px;"">+</div>","","html-keyboard-response","302","2472323","0.0-17.0-0.19","67207","List1A","black","man","","","","null","","","","","","","","",""
"null","<img src=""stim_listA/greet5.gif""style=""height:400px;""></stim_listA>","","html-keyboard-response","303","2474340","0.0-17.0-1.19","67207","List1A","black","man","","","","null","","","","","","","","",""
"null","is greeting","","html-keyboard-response","304","2476355","0.0-17.0-2.19","67207","List1A","black","man","","","","null","","","","","","","","",""
"12531.599999904633","","","survey-text","305","2488905","0.0-17.0-3.19","67207","List1A","black","man","","","","","{""Q0"":""mike is greeting luke""}","<img src=""stim_listA/greet5.gif""style=""height:400px;""></stim_listA>","is greeting","","","","","",""
"38943.699999809265","<img src='img/portrait_matrix_list1.jpg' style='width:900px;height:500px;''></img><p>If you have memorised all the portraits and names and are ready to start, press Continue.</p><p><strong>Please note: Your memory of these faces will be tested 4 times during this experiment.</strong></p>","0","html-button-response","306","2527854","0.0-18.0-0.0","67207","List1A","black","man","","","","","","","","","","","","",""
"7962.599999904633","<img src=""portrait/BW2.jpg""style=""height:400px;""></img>","2","html-button-response","307","2536844","0.0-18.0-1.0","67207","List1A","black","man","","true","2","","","","","","","","","",""
"null","CORRECT","","html-keyboard-response","308","2538382","0.0-18.0-2.0-0.0","67207","List1A","black","man","","","","null","","","","","","","","",""
"4991.400000095367","<img src=""portrait/WW2.jpg""style=""height:400px;""></img>","3","html-button-response","309","2543380","0.0-18.0-4.0","67207","List1A","black","man","","true","3","","","","","","","","","",""
"null","CORRECT","","html-keyboard-response","310","2544906","0.0-18.0-5.0-0.0","67207","List1A","black","man","","","","null","","","","","","","","",""
"5707.199999809265","<img src=""portrait/BM2.jpg""style=""height:400px;""></img>","5","html-button-response","311","2550621","0.0-18.0-7.0","67207","List1A","black","man","","true","5","","","","","","","","","",""
"null","CORRECT","","html-keyboard-response","312","2552156","0.0-18.0-8.0-0.0","67207","List1A","black","man","","","","null","","","","","","","","",""
"6445.300000190735","<img src=""portrait/WM2.jpg""style=""height:400px;""></img>","7","html-button-response","313","2558609","0.0-18.0-10.0","67207","List1A","black","man","","true","7","","","","","","","","","",""
"null","CORRECT","","html-keyboard-response","314","2560138","0.0-18.0-11.0-0.0","67207","List1A","black","man","","","","null","","","","","","","","",""
"9849.10000038147","<img src=""portrait/BW1.jpg""style=""height:400px;""></img>","0","html-button-response","315","2569994","0.0-18.0-13.0","67207","List1A","black","man","","true","0","","","","","","","","","",""
"null","CORRECT","","html-keyboard-response","316","2571507","0.0-18.0-14.0-0.0","67207","List1A","black","man","","","","null","","","","","","","","",""
"6026.299999713898","<img src=""portrait/WM1.jpg""style=""height:400px;""></img>","6","html-button-response","317","2577541","0.0-18.0-16.0","67207","List1A","black","man","","true","6","","","","","","","","","",""
"null","CORRECT","","html-keyboard-response","318","2579072","0.0-18.0-17.0-0.0","67207","List1A","black","man","","","","null","","","","","","","","",""
"7998.900000095367","<img src=""portrait/WW1.jpg""style=""height:400px;""></img>","1","html-button-response","319","2587078","0.0-18.0-19.0","67207","List1A","black","man","","true","1","","","","","","","","","",""
"null","CORRECT","","html-keyboard-response","320","2588606","0.0-18.0-20.0-0.0","67207","List1A","black","man","","","","null","","","","","","","","",""
"5926.10000038147","<img src=""portrait/BM1.jpg""style=""height:400px;""></img>","4","html-button-response","321","2594540","0.0-18.0-22.0","67207","List1A","black","man","","true","4","","","","","","","","","",""
"null","CORRECT","","html-keyboard-response","322","2596072","0.0-18.0-23.0-0.0","67207","List1A","black","man","","","","null","","","","","","","","",""
"25814.599999904633","<p>You got 8 out of 8 right first time. Press Continue.</p>","0","html-button-response","323","2621896","0.0-18.0-25.0","67207","List1A","black","man","","","","","","","","","","","","",""
"null","<div style=""font-size:60px;"">+</div>","","html-keyboard-response","324","2623419","0.0-19.0-0.0","67207","List1A","black","man","","","","null","","","","","","","","",""
"null","<img src=""stim_listA/oppose2.gif""style=""height:400px;""></stim_listA>","","html-keyboard-response","325","2625438","0.0-19.0-1.0","67207","List1A","black","man","","","","null","","","","","","","","",""
"null","is being opposed by","","html-keyboard-response","326","2627443","0.0-19.0-2.0","67207","List1A","black","man","","","","null","","","","","","","","",""
"16160.700000286102","","","survey-text","327","2643620","0.0-19.0-3.0","67207","List1A","black","man","","","","","{""Q0"":""fred is being opposed by beth""}","<img src=""stim_listA/oppose2.gif""style=""height:400px;""></stim_listA>","is being opposed by","","","","","",""
"null","<div style=""font-size:60px;"">+</div>","","html-keyboard-response","328","2644138","0.0-19.0-0.1","67207","List1A","black","man","","","","null","","","","","","","","",""
"null","<img src=""stim_listA/kiss1.gif""style=""height:400px;""></stim_listA>","","html-keyboard-response","329","2646154","0.0-19.0-1.1","67207","List1A","black","man","","","","null","","","","","","","","",""
"null","is kissing","","html-keyboard-response","330","2648160","0.0-19.0-2.1","67207","List1A","black","man","","","","null","","","","","","","","",""
"11282.099999904633","","","survey-text","331","2659452","0.0-19.0-3.1","67207","List1A","black","man","","","","","{""Q0"":""fred is kissing beth""}","<img src=""stim_listA/kiss1.gif""style=""height:400px;""></stim_listA>","is kissing","","","","","",""
"null","<div style=""font-size:60px;"">+</div>","","html-keyboard-response","332","2659971","0.0-19.0-0.2","67207","List1A","black","man","","","","null","","","","","","","","",""
"null","<img src=""stim_listA/greet8.gif""style=""height:400px;""></stim_listA>","","html-keyboard-response","333","2661990","0.0-19.0-1.2","67207","List1A","black","man","","","","null","","","","","","","","",""
"null","is being greeted by","","html-keyboard-response","334","2663994","0.0-19.0-2.2","67207","List1A","black","man","","","","null","","","","","","","","",""
"17310.5","","","survey-text","335","2681313","0.0-19.0-3.2","67207","List1A","black","man","","","","","{""Q0"":""beth is being greeted by jane""}","<img src=""stim_listA/greet8.gif""style=""height:400px;""></stim_listA>","is being greeted by","","","","","",""
"null","<div style=""font-size:60px;"">+</div>","","html-keyboard-response","336","2681837","0.0-19.0-0.3","67207","List1A","black","man","","","","null","","","","","","","","",""
"null","<img src=""stim_listA/look2.gif""style=""height:400px;""></stim_listA>","","html-keyboard-response","337","2683853","0.0-19.0-1.3","67207","List1A","black","man","","","","null","","","","","","","","",""
"null","is being looked at by","","html-keyboard-response","338","2685858","0.0-19.0-2.3","67207","List1A","black","man","","","","null","","","","","","","","",""
"17037.199999809265","","","survey-text","339","2702919","0.0-19.0-3.3","67207","List1A","black","man","","","","","{""Q0"":""jane is being looked at by mike""}","<img src=""stim_listA/look2.gif""style=""height:400px;""></stim_listA>","is being looked at by","","","","","",""
"null","<div style=""font-size:60px;"">+</div>","","html-keyboard-response","340","2703436","0.0-19.0-0.4","67207","List1A","black","man","","","","null","","","","","","","","",""
"null","<img src=""stim_listA/greet6.gif""style=""height:400px;""></stim_listA>","","html-keyboard-response","341","2705450","0.0-19.0-1.4","67207","List1A","black","man","","","","null","","","","","","","","",""
"null","is being greeted by","","html-keyboard-response","342","2707455","0.0-19.0-2.4","67207","List1A","black","man","","","","null","","","","","","","","",""
"27010.799999713898","","","survey-text","343","2734471","0.0-19.0-3.4","67207","List1A","black","man","","","","","{""Q0"":""fred is being greeted by dave""}","<img src=""stim_listA/greet6.gif""style=""height:400px;""></stim_listA>","is being greeted by","","","","","",""
"null","<div style=""font-size:60px;"">+</div>","","html-keyboard-response","344","2734987","0.0-19.0-0.5","67207","List1A","black","man","","","","null","","","","","","","","",""
"null","<img src=""stim_listA/shout7.gif""style=""height:400px;""></stim_listA>","","html-keyboard-response","345","2737004","0.0-19.0-1.5","67207","List1A","black","man","","","","null","","","","","","","","",""
"null","is shouting at","","html-keyboard-response","346","2739041","0.0-19.0-2.5","67207","List1A","black","man","","","","null","","","","","","","","",""
"17310.099999904633","","","survey-text","347","2756357","0.0-19.0-3.5","67207","List1A","black","man","","","","","{""Q0"":""ruth is shouting at beth""}","<img src=""stim_listA/shout7.gif""style=""height:400px;""></stim_listA>","is shouting at","","","","","",""
"null","<div style=""font-size:60px;"">+</div>","","html-keyboard-response","348","2756870","0.0-19.0-0.6","67207","List1A","black","man","","","","null","","","","","","","","",""
"null","<img src=""stim_listA/challenge3.gif""style=""height:400px;""></stim_listA>","","html-keyboard-response","349","2758884","0.0-19.0-1.6","67207","List1A","black","man","","","","null","","","","","","","","",""
"null","is challenging","","html-keyboard-response","350","2760893","0.0-19.0-2.6","67207","List1A","black","man","","","","null","","","","","","","","",""
"19306.099999904633","","","survey-text","351","2780206","0.0-19.0-3.6","67207","List1A","black","man","","","","","{""Q0"":""ruth is challenging dave""}","<img src=""stim_listA/challenge3.gif""style=""height:400px;""></stim_listA>","is challenging","","","","","",""
"null","<div style=""font-size:60px;"">+</div>","","html-keyboard-response","352","2780719","0.0-19.0-0.7","67207","List1A","black","man","","","","null","","","","","","","","",""
"null","<img src=""stim_listA/hug3.gif""style=""height:400px;""></stim_listA>","","html-keyboard-response","353","2782735","0.0-19.0-1.7","67207","List1A","black","man","","","","null","","","","","","","","",""
"null","is hugging","","html-keyboard-response","354","2784739","0.0-19.0-2.7","67207","List1A","black","man","","","","null","","","","","","","","",""
"35367.90000009537","","","survey-text","355","2820141","0.0-19.0-3.7","67207","List1A","black","man","","","","","{""Q0"":""ruth is hugging liuke""}","<img src=""stim_listA/hug3.gif""style=""height:400px;""></stim_listA>","is hugging","","","","","",""
"null","<div style=""font-size:60px;"">+</div>","","html-keyboard-response","356","2820654","0.0-19.0-0.8","67207","List1A","black","man","","","","null","","","","","","","","",""
"null","<img src=""stim_listA/oppose3.gif""style=""height:400px;""></stim_listA>","","html-keyboard-response","357","2822668","0.0-19.0-1.8","67207","List1A","black","man","","","","null","","","","","","","","",""
"null","is opposing","","html-keyboard-response","358","2824674","0.0-19.0-2.8","67207","List1A","black","man","","","","null","","","","","","","","",""
"12822.199999809265","","","survey-text","359","2837518","0.0-19.0-3.8","67207","List1A","black","man","","","","","{""Q0"":""dave is opposing jane""}","<img src=""stim_listA/oppose3.gif""style=""height:400px;""></stim_listA>","is opposing","","","","","",""
"null","<div style=""font-size:60px;"">+</div>","","html-keyboard-response","360","2838033","0.0-19.0-0.9","67207","List1A","black","man","","","","null","","","","","","","","",""
"null","<img src=""stim_listA/hug4.gif""style=""height:400px;""></stim_listA>","","html-keyboard-response","361","2840052","0.0-19.0-1.9","67207","List1A","black","man","","","","null","","","","","","","","",""
"null","is being hugged by","","html-keyboard-response","362","2842138","0.0-19.0-2.9","67207","List1A","black","man","","","","null","","","","","","","","",""
"15816.400000095367","","","survey-text","363","2857961","0.0-19.0-3.9","67207","List1A","black","man","","","","","{""Q0"":""dave is being hugged by jane""}","<img src=""stim_listA/hug4.gif""style=""height:400px;""></stim_listA>","is being hugged by","","","","","",""
"null","<div style=""font-size:60px;"">+</div>","","html-keyboard-response","364","2858468","0.0-19.0-0.10","67207","List1A","black","man","","","","null","","","","","","","","",""
"null","<img src=""stim_listA/hug1.gif""style=""height:400px;""></stim_listA>","","html-keyboard-response","365","2860487","0.0-19.0-1.10","67207","List1A","black","man","","","","null","","","","","","","","",""
"null","is hugging","","html-keyboard-response","366","2862504","0.0-19.0-2.10","67207","List1A","black","man","","","","null","","","","","","","","",""
"14723.400000095367","","","survey-text","367","2877243","0.0-19.0-3.10","67207","List1A","black","man","","","","","{""Q0"":""fred is hugging beth""}","<img src=""stim_listA/hug1.gif""style=""height:400px;""></stim_listA>","is hugging","","","","","",""
"null","<div style=""font-size:60px;"">+</div>","","html-keyboard-response","368","2877752","0.0-19.0-0.11","67207","List1A","black","man","","","","null","","","","","","","","",""
"null","<img src=""stim_listA/look6.gif""style=""height:400px;""></stim_listA>","","html-keyboard-response","369","2879770","0.0-19.0-1.11","67207","List1A","black","man","","","","null","","","","","","","","",""
"null","is being looked at by","","html-keyboard-response","370","2881785","0.0-19.0-2.11","67207","List1A","black","man","","","","null","","","","","","","","",""
"18864.799999713898","","","survey-text","371","2900666","0.0-19.0-3.11","67207","List1A","black","man","","","","","{""Q0"":""dave is being looked at by mike""}","<img src=""stim_listA/look6.gif""style=""height:400px;""></stim_listA>","is being looked at by","","","","","",""
"null","<div style=""font-size:60px;"">+</div>","","html-keyboard-response","372","2901184","0.0-19.0-0.12","67207","List1A","black","man","","","","null","","","","","","","","",""
"null","<img src=""stim_listA/challenge7.gif""style=""height:400px;""></stim_listA>","","html-keyboard-response","373","2903202","0.0-19.0-1.12","67207","List1A","black","man","","","","null","","","","","","","","",""
"null","is challenging","","html-keyboard-response","374","2905223","0.0-19.0-2.12","67207","List1A","black","man","","","","null","","","","","","","","",""
"21901.200000286102","","","survey-text","375","2927142","0.0-19.0-3.12","67207","List1A","black","man","","","","","{""Q0"":""ruth is challenging kate""}","<img src=""stim_listA/challenge7.gif""style=""height:400px;""></stim_listA>","is challenging","","","","","",""
"null","<div style=""font-size:60px;"">+</div>","","html-keyboard-response","376","2927666","0.0-19.0-0.13","67207","List1A","black","man","","","","null","","","","","","","","",""
"null","<img src=""stim_listA/seduce4.gif""style=""height:400px;""></stim_listA>","","html-keyboard-response","377","2929684","0.0-19.0-1.13","67207","List1A","black","man","","","","null","","","","","","","","",""
"null","is being seduced by","","html-keyboard-response","378","2931703","0.0-19.0-2.13","67207","List1A","black","man","","","","null","","","","","","","","",""
"18976.700000286102","","","survey-text","379","2950698","0.0-19.0-3.13","67207","List1A","black","man","","","","","{""Q0"":""dave is being seduced by ruth""}","<img src=""stim_listA/seduce4.gif""style=""height:400px;""></stim_listA>","is being seduced by","","","","","",""
"null","<div style=""font-size:60px;"">+</div>","","html-keyboard-response","380","2951216","0.0-19.0-0.14","67207","List1A","black","man","","","","null","","","","","","","","",""
"null","<img src=""stim_listA/greet2.gif""style=""height:400px;""></stim_listA>","","html-keyboard-response","381","2953234","0.0-19.0-1.14","67207","List1A","black","man","","","","null","","","","","","","","",""
"null","is being greeted by","","html-keyboard-response","382","2955239","0.0-19.0-2.14","67207","List1A","black","man","","","","null","","","","","","","","",""
"14771.5","","","survey-text","383","2970016","0.0-19.0-3.14","67207","List1A","black","man","","","","","{""Q0"":""fred is being greeted by kate""}","<img src=""stim_listA/greet2.gif""style=""height:400px;""></stim_listA>","is being greeted by","","","","","",""
"null","<div style=""font-size:60px;"">+</div>","","html-keyboard-response","384","2970532","0.0-19.0-0.15","67207","List1A","black","man","","","","null","","","","","","","","",""
"null","<img src=""stim_listA/kiss3.gif""style=""height:400px;""></stim_listA>","","html-keyboard-response","385","2972548","0.0-19.0-1.15","67207","List1A","black","man","","","","null","","","","","","","","",""
"null","is kissing","","html-keyboard-response","386","2974557","0.0-19.0-2.15","67207","List1A","black","man","","","","null","","","","","","","","",""
"15475.5","","","survey-text","387","2990048","0.0-19.0-3.15","67207","List1A","black","man","","","","","{""Q0"":""luke is kissing ruth""}","<img src=""stim_listA/kiss3.gif""style=""height:400px;""></stim_listA>","is kissing","","","","","",""
"null","<div style=""font-size:60px;"">+</div>","","html-keyboard-response","388","2990581","0.0-19.0-0.16","67207","List1A","black","man","","","","null","","","","","","","","",""
"null","<img src=""stim_listA/challenge4.gif""style=""height:400px;""></stim_listA>","","html-keyboard-response","389","2992598","0.0-19.0-1.16","67207","List1A","black","man","","","","null","","","","","","","","",""
"null","is being challenged by","","html-keyboard-response","390","2994617","0.0-19.0-2.16","67207","List1A","black","man","","","","null","","","","","","","","",""
"31424.400000095367","","","survey-text","391","3026098","0.0-19.0-3.16","67207","List1A","black","man","","","","","{""Q0"":""jane is being challenged by luke""}","<img src=""stim_listA/challenge4.gif""style=""height:400px;""></stim_listA>","is being challenged by","","","","","",""
"null","<div style=""font-size:60px;"">+</div>","","html-keyboard-response","392","3026617","0.0-19.0-0.17","67207","List1A","black","man","","","","null","","","","","","","","",""
"null","<img src=""stim_listA/look5.gif""style=""height:400px;""></stim_listA>","","html-keyboard-response","393","3028631","0.0-19.0-1.17","67207","List1A","black","man","","","","null","","","","","","","","",""
"null","is looking at","","html-keyboard-response","394","3030650","0.0-19.0-2.17","67207","List1A","black","man","","","","null","","","","","","","","",""
"14506.900000095367","","","survey-text","395","3045181","0.0-19.0-3.17","67207","List1A","black","man","","","","","{""Q0"":""fred is looking at ruth""}","<img src=""stim_listA/look5.gif""style=""height:400px;""></stim_listA>","is looking at","","","","","",""
"null","<div style=""font-size:60px;"">+</div>","","html-keyboard-response","396","3045698","0.0-19.0-0.18","67207","List1A","black","man","","","","null","","","","","","","","",""
"null","<img src=""stim_listA/kiss7.gif""style=""height:400px;""></stim_listA>","","html-keyboard-response","397","3047716","0.0-19.0-1.18","67207","List1A","black","man","","","","null","","","","","","","","",""
"null","is kissing","","html-keyboard-response","398","3049730","0.0-19.0-2.18","67207","List1A","black","man","","","","null","","","","","","","","",""
"10930.10000038147","","","survey-text","399","3060667","0.0-19.0-3.18","67207","List1A","black","man","","","","","{""Q0"":""ruth is kissing beth""}","<img src=""stim_listA/kiss7.gif""style=""height:400px;""></stim_listA>","is kissing","","","","","",""
"null","<div style=""font-size:60px;"">+</div>","","html-keyboard-response","400","3061182","0.0-19.0-0.19","67207","List1A","black","man","","","","null","","","","","","","","",""
"null","<img src=""stim_listA/kiss4.gif""style=""height:400px;""></stim_listA>","","html-keyboard-response","401","3063200","0.0-19.0-1.19","67207","List1A","black","man","","","","null","","","","","","","","",""
"null","is being kissed by","","html-keyboard-response","402","3065214","0.0-19.0-2.19","67207","List1A","black","man","","","","null","","","","","","","","",""
"19804.099999904633","","","survey-text","403","3085064","0.0-19.0-3.19","67207","List1A","black","man","","","","","{""Q0"":""dave is being kissed by jane""}","<img src=""stim_listA/kiss4.gif""style=""height:400px;""></stim_listA>","is being kissed by","","","","","",""
"6001.800000190735","<p>Thank you for completing that task.</p><p>The final part of this session is a questionnaire that will take about 4 minutes.</p><p>Press Continue.</p>","0","html-button-response","404","3091071","0.0-20.0","67207","List1A","black","man","","","","","","","","","","","","",""
"88998","","","survey-text","405","3181116","0.0-21.0","67207","List1A","black","man","","","","","{""Q0"":""34"",""Q1"":""English"",""Q2"":""English"",""Q3"":""United State Of America"",""Q4"":""American"",""Q5"":""black america"",""Q6"":""male""}","","","demographics","","","","",""
"6629.60000038147","<p>Have you lived in the USA for the last 5 years or more?</p>","0","html-button-response","406","3187760","0.0-22.0","67207","List1A","black","man","","","","","","","","fiveyears","","","","",""
"7825.89999961853","<p>Move the slider to show the extent to which you agree with the following statements.</p>","0","html-button-response","407","3196594","0.0-23.0","67207","List1A","black","man","","","","","","","","","","","","",""
"10037.099999904633","","","html-slider-response","408","3207652","0.0-24.0-0.0-0.0","67207","List1A","black","man","","","","","","","","survey_race","79","","","I feel committed to my race.","committed"
"5572.89999961853","","","html-slider-response","409","3213235","0.0-24.0-0.0-0.1","67207","List1A","black","man","","","","","","","","survey_race","76","","","I am glad to be my race.","glad"
"7087.699999809265","","","html-slider-response","410","3220330","0.0-24.0-0.0-0.2","67207","List1A","black","man","","","","","","","","survey_race","83","","","I feel a bond with my race.","bond"
"9440.800000190735","","","html-slider-response","411","3229778","0.0-24.0-0.0-0.3","67207","List1A","black","man","","","","","","","","survey_race","63","","","I consider myself an extrovert.","filler"
"6375.39999961853","","","html-slider-response","412","3236160","0.0-24.0-0.0-0.4","67207","List1A","black","man","","","","","","","","survey_race","85","","","I am similar to the average person of my race.","similar"
"10135.099999904633","","","html-slider-response","413","3246302","0.0-24.0-0.0-0.5","67207","List1A","black","man","","","","","","","","survey_race","96","","","I feel solidarity with people the same age as me.","filler"
"5199.900000095367","","","html-slider-response","414","3251511","0.0-24.0-0.0-0.6","67207","List1A","black","man","","","","","","","","survey_race","73","","","I am glad to be my age.","filler"
"4132.299999713898","","","html-slider-response","415","3255649","0.0-24.0-0.0-0.7","67207","List1A","black","man","","","","","","","","survey_race","83","","","I feel solidarity with my race.","solidarity"
"6493.199999809265","","","html-slider-response","416","3262148","0.0-24.0-0.0-0.8","67207","List1A","black","man","","","","","","","","survey_race","46","","","I consider myself an introvert.","filler"
"5980.89999961853","","","html-slider-response","417","3268135","0.0-24.0-0.0-0.9","67207","List1A","black","man","","","","","","","","survey_race","93","","","The older I get, the wiser I feel.","filler"
"5328.800000190735","","","html-slider-response","418","3273475","0.0-24.0-0.0-0.10","67207","List1A","black","man","","","","","","","","survey_race","82","","","People of my race are very similar to each other.","verysimilar"
"7047.199999809265","","","html-slider-response","419","3280528","0.0-24.0-0.0-0.11","67207","List1A","black","man","","","","","","","","survey_race","73","","","Being my race is an important part of how I see myself.","important"
"4354.299999713898","","","html-slider-response","420","3284892","0.0-24.0-0.0-0.12","67207","List1A","black","man","","","","","","","","survey_race","74","","","I enjoy being in large groups.","filler"
"3869.9000000953674","","","html-slider-response","421","3288769","0.0-24.0-0.0-0.13","67207","List1A","black","man","","","","","","","","survey_race","86","","","Being my age gives me a good feeling.","filler"
"5833.199999809265","","","html-slider-response","422","3294611","0.0-24.0-0.0-0.14","67207","List1A","black","man","","","","","","","","survey_race","74","","","I have a lot in common with the average person of my race.","average"
"5292.5","","","html-slider-response","423","3299911","0.0-24.0-0.0-0.15","67207","List1A","black","man","","","","","","","","survey_race","30","","","My age is not an important part of who I am.","filler"
"6002.5","","","html-slider-response","424","3305920","0.0-24.0-0.0-0.16","67207","List1A","black","man","","","","","","","","survey_race","78","","","I often think about the fact that I am my age.","filler"
"6260.400000095367","","","html-slider-response","425","3312192","0.0-24.0-0.0-0.17","67207","List1A","black","man","","","","","","","","survey_race","76","","","I have a lot in common with people of a similar age to me.","filler"
"3664.199999809265","","","html-slider-response","426","3315862","0.0-24.0-0.0-0.18","67207","List1A","black","man","","","","","","","","survey_race","80","","","I feel a bond with people the same age as me.","filler"
"4257.300000190735","","","html-slider-response","427","3320125","0.0-24.0-0.0-0.19","67207","List1A","black","man","","","","","","","","survey_race","74","","","I am glad to be the age I am.","filler"
"5215.700000286102","","","html-slider-response","428","3325347","0.0-24.0-0.0-0.20","67207","List1A","black","man","","","","","","","","survey_race","69","","","People of my race have a lot in common with each other.","common"
"5484.400000095367","","","html-slider-response","429","3330839","0.0-24.0-0.0-0.21","67207","List1A","black","man","","","","","","","","survey_race","72","","","Being my race gives me a good feeling.","feeling"
"4030.2999997138977","","","html-slider-response","430","3334878","0.0-24.0-0.0-0.22","67207","List1A","black","man","","","","","","","","survey_race","80","","","I think that my race has a lot to be proud of.","proud"
"5797.400000095367","","","html-slider-response","431","3340681","0.0-24.0-0.0-0.23","67207","List1A","black","man","","","","","","","","survey_race","100","","","Getting older does not worry me.","filler"
"3972.5","","","html-slider-response","432","3344660","0.0-24.0-0.0-0.24","67207","List1A","black","man","","","","","","","","survey_race","80","","","It is pleasant to be my race.","pleasant"
"4683.5","","","html-slider-response","433","3349349","0.0-24.0-0.0-0.25","67207","List1A","black","man","","","","","","","","survey_race","75","","","The fact that I am my race is an important part of my identity.","identity"
"4658.800000190735","","","html-slider-response","434","3354015","0.0-24.0-0.0-0.26","67207","List1A","black","man","","","","","","","","survey_race","73","","","People my age have a lot in common with each other.","filler"
"5323.60000038147","","","html-slider-response","435","3359346","0.0-24.0-0.0-0.27","67207","List1A","black","man","","","","","","","","survey_race","71","","","I often think about the fact that I am my race.","often"
"3528.5","","","html-slider-response","436","3362881","0.0-24.0-1.0-0.0","67207","List1A","black","man","","","","","","","","survey_gender","77","","","I feel a bond with my friends.","filler"
"3658.300000190735","","","html-slider-response","437","3366546","0.0-24.0-1.0-0.1","67207","List1A","black","man","","","","","","","","survey_gender","75","","","I have a lot in common with my friends.","filler"
"3264.0999999046326","","","html-slider-response","438","3369815","0.0-24.0-1.0-0.2","67207","List1A","black","man","","","","","","","","survey_gender","73","","","Being my gender gives me a good feeling.","feeling"
"3849.8999996185303","","","html-slider-response","439","3373671","0.0-24.0-1.0-0.3","67207","List1A","black","man","","","","","","","","survey_gender","61","","","I often think about my actions.","filler"
"3221.699999809265","","","html-slider-response","440","3376901","0.0-24.0-1.0-0.4","67207","List1A","black","man","","","","","","","","survey_gender","66","","","My friends have a lot in common with each other.","filler"
"3470.3999996185303","","","html-slider-response","441","3380383","0.0-24.0-1.0-0.5","67207","List1A","black","man","","","","","","","","survey_gender","65","","","I consider myself a highly empathetic person.","filler"
"3095.4000000953674","","","html-slider-response","442","3383485","0.0-24.0-1.0-0.6","67207","List1A","black","man","","","","","","","","survey_gender","72","","","Most of the friends in my life are very similar to me.","filler"
"3115.9000000953674","","","html-slider-response","443","3386609","0.0-24.0-1.0-0.7","67207","List1A","black","man","","","","","","","","survey_gender","73","","","I am similar to the average person of my gender.","similar"
"3361","","","html-slider-response","444","3389975","0.0-24.0-1.0-0.8","67207","List1A","black","man","","","","","","","","survey_gender","71","","","It is not always easy for people to know what I am thinking.","filler"
"3573.9000000953674","","","html-slider-response","445","3393559","0.0-24.0-1.0-0.9","67207","List1A","black","man","","","","","","","","survey_gender","64","","","Routine is not important to me.","filler"
"4848.099999904633","","","html-slider-response","446","3398413","0.0-24.0-1.0-0.10","67207","List1A","black","man","","","","","","","","survey_gender","72","","","I think that my gender has a lot to be proud of.","proud"
"3445.1000003814697","","","html-slider-response","447","3401864","0.0-24.0-1.0-0.11","67207","List1A","black","man","","","","","","","","survey_gender","77","","","It is pleasant to be my gender.","pleasant"
"3009.5999999046326","","","html-slider-response","448","3404881","0.0-24.0-1.0-0.12","67207","List1A","black","man","","","","","","","","survey_gender","69","","","I often think about the fact that I am my gender.","often"
"4583.10000038147","","","html-slider-response","449","3409469","0.0-24.0-1.0-0.13","67207","List1A","black","man","","","","","","","","survey_gender","65","","","Being my gender is an important part of how I see myself.","important"
"4865.10000038147","","","html-slider-response","450","3414342","0.0-24.0-1.0-0.14","67207","List1A","black","man","","","","","","","","survey_gender","77","","","I am glad to be my gender.","glad"
"3483.5","","","html-slider-response","451","3417831","0.0-24.0-1.0-0.15","67207","List1A","black","man","","","","","","","","survey_gender","75","","","The fact that I am my gender is an important part of my identity.","identity"
"3422.5999999046326","","","html-slider-response","452","3421261","0.0-24.0-1.0-0.16","67207","List1A","black","man","","","","","","","","survey_gender","72","","","I have a lot in common with the average person of my gender.","average"
"3230.699999809265","","","html-slider-response","453","3424497","0.0-24.0-1.0-0.17","67207","List1A","black","man","","","","","","","","survey_gender","66","","","I feel solidarity with my friends.","filler"
"3188.2999997138977","","","html-slider-response","454","3427692","0.0-24.0-1.0-0.18","67207","List1A","black","man","","","","","","","","survey_gender","67","","","Family is not more important to me than friendship.","filler"
"2838.5","","","html-slider-response","455","3430537","0.0-24.0-1.0-0.19","67207","List1A","black","man","","","","","","","","survey_gender","70","","","People of my gender have a lot in common with each other.","common"
"3521.1000003814697","","","html-slider-response","456","3434066","0.0-24.0-1.0-0.20","67207","List1A","black","man","","","","","","","","survey_gender","76","","","I feel a bond with my gender.","bond"
"3595.5","","","html-slider-response","457","3437670","0.0-24.0-1.0-0.21","67207","List1A","black","man","","","","","","","","survey_gender","73","","","I am glad to have the friends that I have.","filler"
"5688.400000095367","","","html-slider-response","458","3443367","0.0-24.0-1.0-0.22","67207","List1A","black","man","","","","","","","","survey_gender","10","","","I would say I am an animal person.","filler"
"5404","","","html-slider-response","459","3448780","0.0-24.0-1.0-0.23","67207","List1A","black","man","","","","","","","","survey_gender","68","","","I feel committed to my gender.","committed"
"4839.900000095367","","","html-slider-response","460","3453628","0.0-24.0-1.0-0.24","67207","List1A","black","man","","","","","","","","survey_gender","49","","","I feel solidarity with my gender.","solidarity"
"3658.7999997138977","","","html-slider-response","461","3457293","0.0-24.0-1.0-0.25","67207","List1A","black","man","","","","","","","","survey_gender","82","","","My friends understand me.","filler"
"3422.300000190735","","","html-slider-response","462","3460724","0.0-24.0-1.0-0.26","67207","List1A","black","man","","","","","","","","survey_gender","82","","","People of my gender are very similar to each other.","verysimilar"
"3408.800000190735","","","html-slider-response","463","3464141","0.0-24.0-1.0-0.27","67207","List1A","black","man","","","","","","","","survey_gender","69","","","Being around my friends gives me a good feeling.","filler"
"16698.099999904633","","","survey-text","464","3480858","0.0-25.0","67207","List1A","black","man","","","","","{""Q0"":""61540e9cca3bce219b9f5c69""}","","","worker_id","","","","",""
"9194","","","external-html","465","3493640","0.0-26.0","67207","List1A","black","man","debrief.html","","","","","","","","","","","",""
