rt,stimulus,button_pressed,trial_type,trial_index,time_elapsed,internal_node_id,subject,list,ppt_race,ppt_gender,url,first_guess,correct,key_press,responses,image_type,phrase_type,test_part,response,stimulus1,stimulus2,question_type,survey_item
20061.6,Welcome to the experiment. Press Continue to begin.,0,html-button-response,0,20068,0.0-0.0,67363,List2A,black,man,,,,,,,,,,,,,
5214,,,external-html,1,42969,0.0-1.0,67363,List2A,black,man,consent.html,,,,,,,,,,,,
10292.1,"<p>On the next page, you will see portraits of 8 people and their names.</p><p>Your first task is to take a few minutes to memorise the names of these people.</p><p>You will have to recall their names during the rest of the experiment, so it is</p><p>essential that you try to memorise these people and their names as best as you can.</p><br><p><strong>You will then be tested on your memory of these names and portraits.</strong></p><br><p>The experiment will start after you have completed this memory test.</p><br><p>Ready?</p>",0,html-button-response,2,53264,0.0-2.0,67363,List2A,black,man,,,,,,,,,,,,,
67566.4,"<img src='img/portrait_matrix_list2.jpg' style='width:900px;height:500px;''></img><p>If you have memorised all the portraits and names and are ready to start, press Continue.</p><p><strong>Please note: Your memory of these faces will be tested 4 times during this experiment.</strong></p>",0,html-button-response,3,121840,0.0-3.0-0.0,67363,List2A,black,man,,,,,,,,,,,,,
8105.8,"<img src=""portrait/BM2.jpg""style=""height:400px;""></img>",5,html-button-response,4,130962,0.0-3.0-1.0,67363,List2A,black,man,,TRUE,5,,,,,,,,,,
null,CORRECT,,html-keyboard-response,5,132495,0.0-3.0-2.0-0.0,67363,List2A,black,man,,,,null,,,,,,,,,
13294.9,"<img src=""portrait/BM1.jpg""style=""height:400px;""></img>",4,html-button-response,6,145795,0.0-3.0-4.0,67363,List2A,black,man,,TRUE,4,,,,,,,,,,
null,CORRECT,,html-keyboard-response,7,147313,0.0-3.0-5.0-0.0,67363,List2A,black,man,,,,null,,,,,,,,,
9476.5,"<img src=""portrait/WM1.jpg""style=""height:400px;""></img>",6,html-button-response,8,156793,0.0-3.0-7.0,67363,List2A,black,man,,TRUE,6,,,,,,,,,,
null,CORRECT,,html-keyboard-response,9,158301,0.0-3.0-8.0-0.0,67363,List2A,black,man,,,,null,,,,,,,,,
40386.5,"<img src=""portrait/WW1.jpg""style=""height:400px;""></img>",1,html-button-response,10,198683,0.0-3.0-10.0,67363,List2A,black,man,,TRUE,1,,,,,,,,,,
null,CORRECT,,html-keyboard-response,11,200193,0.0-3.0-11.0-0.0,67363,List2A,black,man,,,,null,,,,,,,,,
12251.8,"<img src=""portrait/WW2.jpg""style=""height:400px;""></img>",3,html-button-response,12,212449,0.0-3.0-13.0,67363,List2A,black,man,,TRUE,3,,,,,,,,,,
null,CORRECT,,html-keyboard-response,13,213972,0.0-3.0-14.0-0.0,67363,List2A,black,man,,,,null,,,,,,,,,
12552.4,"<img src=""portrait/WM2.jpg""style=""height:400px;""></img>",7,html-button-response,14,226528,0.0-3.0-16.0,67363,List2A,black,man,,TRUE,7,,,,,,,,,,
null,CORRECT,,html-keyboard-response,15,228058,0.0-3.0-17.0-0.0,67363,List2A,black,man,,,,null,,,,,,,,,
20001.8,"<img src=""portrait/BW1.jpg""style=""height:400px;""></img>",0,html-button-response,16,248063,0.0-3.0-19.0,67363,List2A,black,man,,TRUE,0,,,,,,,,,,
null,CORRECT,,html-keyboard-response,17,249594,0.0-3.0-20.0-0.0,67363,List2A,black,man,,,,null,,,,,,,,,
29915.6,"<img src=""portrait/BW2.jpg""style=""height:400px;""></img>",2,html-button-response,18,279514,0.0-3.0-22.0,67363,List2A,black,man,,TRUE,2,,,,,,,,,,
null,CORRECT,,html-keyboard-response,19,281047,0.0-3.0-23.0-0.0,67363,List2A,black,man,,,,null,,,,,,,,,
17871.3,<p>You got 8 out of 8 right first time. Press Continue.</p>,0,html-button-response,20,298922,0.0-3.0-25.0,67363,List2A,black,man,,,,,,,,,,,,,
527786.5,"<p>In this experiment, you will view photographs of the people from the memory game interacting.</p><p>By using the <strong>exact</strong> phrase given <i>after</i> the photograph appears and recalling the correct names of the people in the photographs, form a sentence describing the interaction. You do not need to capitalise names.</p><p>Type your answer in the space provided. Please complete every sentence before moving onto the next trial.</p><p>You will only have a few seconds to memorise each given photograph and phrase before you can respond, so try your best to focus.</p><p>An example is given below. Press 'Continue' when you are ready.</p><img src='img/speaking_example.jpg' style='width:800px;height:460px;''></img>",0,html-button-response,21,827729,0.0-4.0,67363,List2A,black,man,,,,,,,,,,,,,
3072.9,"<p>Before the experiment starts, you will watch two example trials. Press 'Continue'.</p>",0,html-button-response,22,831813,0.0-5.0,67363,List2A,black,man,,,,,,,,,,,,,
null,<img src='img/play_eg.gif' style='height:400px;''></img>,,html-keyboard-response,23,834826,0.0-6.0,67363,List2A,black,man,,,,null,,,,,,,,,
null,<p>is playing with</p>,,html-keyboard-response,24,836837,0.0-7.0,67363,List2A,black,man,,,,null,,,,,,,,,
3130.6,<p><b>Answer:</b> jane is playing with ruth</p>,0,html-button-response,25,839969,0.0-8.0,67363,List2A,black,man,,,,,,,,,,,,,
null,<img src='img/dance_eg.gif' style='height:400px;''></img>,,html-keyboard-response,26,842996,0.0-9.0,67363,List2A,black,man,,,,null,,,,,,,,,
null,<p>is being entertained by</p>,,html-keyboard-response,27,845011,0.0-10.0,67363,List2A,black,man,,,,null,,,,,,,,,
5876.7,<p><b>Answer:</b> fred is being entertained by mike</p>,0,html-button-response,28,850890,0.0-11.0,67363,List2A,black,man,,,,,,,,,,,,,
2518.4,"<p>Ready to start the experiment?</p><br><p><strong>Remember to describe the picture using a full sentence,</strong></p><p><strong>that combines the names of the people with the <i>exact</i> phrase given.</strong></p><p><strong>To receive full payment you must do this correctly.</strong></p><p><strong> You do not need to capitalise names or use punctuation.</strong></p><br><p>Press 'Continue' to begin.</p>",0,html-button-response,29,854427,0.0-12.0,67363,List2A,black,man,,,,,,,,,,,,,
null,"<div style=""font-size:60px;"">+</div>",,html-keyboard-response,30,855949,0.0-13.0-0.0,67363,List2A,black,man,,,,null,,,,,,,,,
null,"<img src=""stim_listA/greet5.gif""style=""height:400px;""></stim_listA>",,html-keyboard-response,31,857967,0.0-13.0-1.0,67363,List2A,black,man,,,,null,,,,,,,,,
null,is greeting,,html-keyboard-response,32,859975,0.0-13.0-2.0,67363,List2A,black,man,,,,null,,,,,,,,,
20228.3,,,survey-text,33,880213,0.0-13.0-3.0,67363,List2A,black,man,,,,,"{""Q0"":""dave is greeting mike""}","<img src=""stim_listA/greet5.gif""style=""height:400px;""></stim_listA>",is greeting,,,,,,
null,"<div style=""font-size:60px;"">+</div>",,html-keyboard-response,34,880725,0.0-13.0-0.1,67363,List2A,black,man,,,,null,,,,,,,,,
null,"<img src=""stim_listA/seduce3.gif""style=""height:400px;""></stim_listA>",,html-keyboard-response,35,882740,0.0-13.0-1.1,67363,List2A,black,man,,,,null,,,,,,,,,
null,is seducing,,html-keyboard-response,36,884757,0.0-13.0-2.1,67363,List2A,black,man,,,,null,,,,,,,,,
11556.1,,,survey-text,37,896319,0.0-13.0-3.1,67363,List2A,black,man,,,,,"{""Q0"":""fred is seducing kate""}","<img src=""stim_listA/seduce3.gif""style=""height:400px;""></stim_listA>",is seducing,,,,,,
null,"<div style=""font-size:60px;"">+</div>",,html-keyboard-response,38,896829,0.0-13.0-0.2,67363,List2A,black,man,,,,null,,,,,,,,,
null,"<img src=""stim_listA/seduce5.gif""style=""height:400px;""></stim_listA>",,html-keyboard-response,39,898842,0.0-13.0-1.2,67363,List2A,black,man,,,,null,,,,,,,,,
null,is seducing,,html-keyboard-response,40,900859,0.0-13.0-2.2,67363,List2A,black,man,,,,null,,,,,,,,,
16310.9,,,survey-text,41,917175,0.0-13.0-3.2,67363,List2A,black,man,,,,,"{""Q0"":""mike is seducing luke""}","<img src=""stim_listA/seduce5.gif""style=""height:400px;""></stim_listA>",is seducing,,,,,,
null,"<div style=""font-size:60px;"">+</div>",,html-keyboard-response,42,917689,0.0-13.0-0.3,67363,List2A,black,man,,,,null,,,,,,,,,
null,"<img src=""stim_listA/kiss2.gif""style=""height:400px;""></stim_listA>",,html-keyboard-response,43,919704,0.0-13.0-1.3,67363,List2A,black,man,,,,null,,,,,,,,,
null,is being kissed by,,html-keyboard-response,44,921721,0.0-13.0-2.3,67363,List2A,black,man,,,,null,,,,,,,,,
10621.7,,,survey-text,45,932347,0.0-13.0-3.3,67363,List2A,black,man,,,,,"{""Q0"":""jane kissed dave""}","<img src=""stim_listA/kiss2.gif""style=""height:400px;""></stim_listA>",is being kissed by,,,,,,
null,"<div style=""font-size:60px;"">+</div>",,html-keyboard-response,46,932857,0.0-13.0-0.4,67363,List2A,black,man,,,,null,,,,,,,,,
null,"<img src=""stim_listA/look4.gif""style=""height:400px;""></stim_listA>",,html-keyboard-response,47,934866,0.0-13.0-1.4,67363,List2A,black,man,,,,null,,,,,,,,,
null,is being looked at by,,html-keyboard-response,48,936868,0.0-13.0-2.4,67363,List2A,black,man,,,,null,,,,,,,,,
24464.9,,,survey-text,49,961338,0.0-13.0-3.4,67363,List2A,black,man,,,,,"{""Q0"":""kate is being looked at by fred""}","<img src=""stim_listA/look4.gif""style=""height:400px;""></stim_listA>",is being looked at by,,,,,,
null,"<div style=""font-size:60px;"">+</div>",,html-keyboard-response,50,961846,0.0-13.0-0.5,67363,List2A,black,man,,,,null,,,,,,,,,
null,"<img src=""stim_listA/touch3.gif""style=""height:400px;""></stim_listA>",,html-keyboard-response,51,963860,0.0-13.0-1.5,67363,List2A,black,man,,,,null,,,,,,,,,
null,is touching,,html-keyboard-response,52,965877,0.0-13.0-2.5,67363,List2A,black,man,,,,null,,,,,,,,,
9937.7,,,survey-text,53,975820,0.0-13.0-3.5,67363,List2A,black,man,,,,,"{""Q0"":""mike and kate""}","<img src=""stim_listA/touch3.gif""style=""height:400px;""></stim_listA>",is touching,,,,,,
null,"<div style=""font-size:60px;"">+</div>",,html-keyboard-response,54,976331,0.0-13.0-0.6,67363,List2A,black,man,,,,null,,,,,,,,,
null,"<img src=""stim_listA/shout3.gif""style=""height:400px;""></stim_listA>",,html-keyboard-response,55,978347,0.0-13.0-1.6,67363,List2A,black,man,,,,null,,,,,,,,,
null,is shouting at,,html-keyboard-response,56,980351,0.0-13.0-2.6,67363,List2A,black,man,,,,null,,,,,,,,,
18375.9,,,survey-text,57,998733,0.0-13.0-3.6,67363,List2A,black,man,,,,,"{""Q0"":""beth is shouting at fred""}","<img src=""stim_listA/shout3.gif""style=""height:400px;""></stim_listA>",is shouting at,,,,,,
null,"<div style=""font-size:60px;"">+</div>",,html-keyboard-response,58,999243,0.0-13.0-0.7,67363,List2A,black,man,,,,null,,,,,,,,,
null,"<img src=""stim_listA/challenge4.gif""style=""height:400px;""></stim_listA>",,html-keyboard-response,59,1001259,0.0-13.0-1.7,67363,List2A,black,man,,,,null,,,,,,,,,
null,is being challenged by,,html-keyboard-response,60,1003268,0.0-13.0-2.7,67363,List2A,black,man,,,,null,,,,,,,,,
25044.7,,,survey-text,61,1028317,0.0-13.0-3.7,67363,List2A,black,man,,,,,"{""Q0"":""kate is being challenged by fred""}","<img src=""stim_listA/challenge4.gif""style=""height:400px;""></stim_listA>",is being challenged by,,,,,,
null,"<div style=""font-size:60px;"">+</div>",,html-keyboard-response,62,1028819,0.0-13.0-0.8,67363,List2A,black,man,,,,null,,,,,,,,,
null,"<img src=""stim_listA/look2.gif""style=""height:400px;""></stim_listA>",,html-keyboard-response,63,1030830,0.0-13.0-1.8,67363,List2A,black,man,,,,null,,,,,,,,,
null,is being looked at by,,html-keyboard-response,64,1032844,0.0-13.0-2.8,67363,List2A,black,man,,,,null,,,,,,,,,
16996.8,,,survey-text,65,1049853,0.0-13.0-3.8,67363,List2A,black,man,,,,,"{""Q0"":""jane is being looked at by dave""}","<img src=""stim_listA/look2.gif""style=""height:400px;""></stim_listA>",is being looked at by,,,,,,
null,"<div style=""font-size:60px;"">+</div>",,html-keyboard-response,66,1050365,0.0-13.0-0.9,67363,List2A,black,man,,,,null,,,,,,,,,
null,"<img src=""stim_listA/hug1.gif""style=""height:400px;""></stim_listA>",,html-keyboard-response,67,1052376,0.0-13.0-1.9,67363,List2A,black,man,,,,null,,,,,,,,,
null,is hugging,,html-keyboard-response,68,1054391,0.0-13.0-2.9,67363,List2A,black,man,,,,null,,,,,,,,,
15833.5,,,survey-text,69,1070230,0.0-13.0-3.9,67363,List2A,black,man,,,,,"{""Q0"":""luke is hugging ruth""}","<img src=""stim_listA/hug1.gif""style=""height:400px;""></stim_listA>",is hugging,,,,,,
null,"<div style=""font-size:60px;"">+</div>",,html-keyboard-response,70,1070739,0.0-13.0-0.10,67363,List2A,black,man,,,,null,,,,,,,,,
null,"<img src=""stim_listA/touch1.gif""style=""height:400px;""></stim_listA>",,html-keyboard-response,71,1072755,0.0-13.0-1.10,67363,List2A,black,man,,,,null,,,,,,,,,
null,is touching,,html-keyboard-response,72,1074771,0.0-13.0-2.10,67363,List2A,black,man,,,,null,,,,,,,,,
27864.3,,,survey-text,73,1102640,0.0-13.0-3.10,67363,List2A,black,man,,,,,"{""Q0"":""jane is touching dave""}","<img src=""stim_listA/touch1.gif""style=""height:400px;""></stim_listA>",is touching,,,,,,
null,"<div style=""font-size:60px;"">+</div>",,html-keyboard-response,74,1103142,0.0-13.0-0.11,67363,List2A,black,man,,,,null,,,,,,,,,
null,"<img src=""stim_listA/kiss5.gif""style=""height:400px;""></stim_listA>",,html-keyboard-response,75,1105157,0.0-13.0-1.11,67363,List2A,black,man,,,,null,,,,,,,,,
null,is kissing,,html-keyboard-response,76,1107166,0.0-13.0-2.11,67363,List2A,black,man,,,,null,,,,,,,,,
9838.4,,,survey-text,77,1117010,0.0-13.0-3.11,67363,List2A,black,man,,,,,"{""Q0"":""fred is kissing luke""}","<img src=""stim_listA/kiss5.gif""style=""height:400px;""></stim_listA>",is kissing,,,,,,
null,"<div style=""font-size:60px;"">+</div>",,html-keyboard-response,78,1117527,0.0-13.0-0.12,67363,List2A,black,man,,,,null,,,,,,,,,
null,"<img src=""stim_listA/copy4.gif""style=""height:400px;""></stim_listA>",,html-keyboard-response,79,1119542,0.0-13.0-1.12,67363,List2A,black,man,,,,null,,,,,,,,,
null,is being copied by,,html-keyboard-response,80,1121553,0.0-13.0-2.12,67363,List2A,black,man,,,,null,,,,,,,,,
5873,,,survey-text,81,1127431,0.0-13.0-3.12,67363,List2A,black,man,,,,,"{""Q0"":""fred and kate""}","<img src=""stim_listA/copy4.gif""style=""height:400px;""></stim_listA>",is being copied by,,,,,,
null,"<div style=""font-size:60px;"">+</div>",,html-keyboard-response,82,1127935,0.0-13.0-0.13,67363,List2A,black,man,,,,null,,,,,,,,,
null,"<img src=""stim_listA/greet3.gif""style=""height:400px;""></stim_listA>",,html-keyboard-response,83,1129941,0.0-13.0-1.13,67363,List2A,black,man,,,,null,,,,,,,,,
null,is greeting,,html-keyboard-response,84,1131950,0.0-13.0-2.13,67363,List2A,black,man,,,,null,,,,,,,,,
10832.1,,,survey-text,85,1142788,0.0-13.0-3.13,67363,List2A,black,man,,,,,"{""Q0"":""mike is greeting beth""}","<img src=""stim_listA/greet3.gif""style=""height:400px;""></stim_listA>",is greeting,,,,,,
null,"<div style=""font-size:60px;"">+</div>",,html-keyboard-response,86,1143302,0.0-13.0-0.14,67363,List2A,black,man,,,,null,,,,,,,,,
null,"<img src=""stim_listA/touch8.gif""style=""height:400px;""></stim_listA>",,html-keyboard-response,87,1145317,0.0-13.0-1.14,67363,List2A,black,man,,,,null,,,,,,,,,
null,is being touched by,,html-keyboard-response,88,1147321,0.0-13.0-2.14,67363,List2A,black,man,,,,null,,,,,,,,,
55752.3,,,survey-text,89,1203080,0.0-13.0-3.14,67363,List2A,black,man,,,,,"{""Q0"":""ruth is getting touched by fred""}","<img src=""stim_listA/touch8.gif""style=""height:400px;""></stim_listA>",is being touched by,,,,,,
null,"<div style=""font-size:60px;"">+</div>",,html-keyboard-response,90,1203593,0.0-13.0-0.15,67363,List2A,black,man,,,,null,,,,,,,,,
null,"<img src=""stim_listA/look8.gif""style=""height:400px;""></stim_listA>",,html-keyboard-response,91,1205610,0.0-13.0-1.15,67363,List2A,black,man,,,,null,,,,,,,,,
null,is being looked at by,,html-keyboard-response,92,1207624,0.0-13.0-2.15,67363,List2A,black,man,,,,null,,,,,,,,,
24353.3,,,survey-text,93,1231983,0.0-13.0-3.15,67363,List2A,black,man,,,,,"{""Q0"":""kate is being looked at by jane""}","<img src=""stim_listA/look8.gif""style=""height:400px;""></stim_listA>",is being looked at by,,,,,,
null,"<div style=""font-size:60px;"">+</div>",,html-keyboard-response,94,1232500,0.0-13.0-0.16,67363,List2A,black,man,,,,null,,,,,,,,,
null,"<img src=""stim_listA/seduce4.gif""style=""height:400px;""></stim_listA>",,html-keyboard-response,95,1234515,0.0-13.0-1.16,67363,List2A,black,man,,,,null,,,,,,,,,
null,is being seduced by,,html-keyboard-response,96,1236530,0.0-13.0-2.16,67363,List2A,black,man,,,,null,,,,,,,,,
12232.8,,,survey-text,97,1248768,0.0-13.0-3.16,67363,List2A,black,man,,,,,"{""Q0"":""mike is being seduced by beth""}","<img src=""stim_listA/seduce4.gif""style=""height:400px;""></stim_listA>",is being seduced by,,,,,,
null,"<div style=""font-size:60px;"">+</div>",,html-keyboard-response,98,1249282,0.0-13.0-0.17,67363,List2A,black,man,,,,null,,,,,,,,,
null,"<img src=""stim_listA/greet2.gif""style=""height:400px;""></stim_listA>",,html-keyboard-response,99,1251297,0.0-13.0-1.17,67363,List2A,black,man,,,,null,,,,,,,,,
null,is being greeted by,,html-keyboard-response,100,1253313,0.0-13.0-2.17,67363,List2A,black,man,,,,null,,,,,,,,,
11474.1,,,survey-text,101,1264793,0.0-13.0-3.17,67363,List2A,black,man,,,,,"{""Q0"":""luke is being greeted by ruth""}","<img src=""stim_listA/greet2.gif""style=""height:400px;""></stim_listA>",is being greeted by,,,,,,
null,"<div style=""font-size:60px;"">+</div>",,html-keyboard-response,102,1265302,0.0-13.0-0.18,67363,List2A,black,man,,,,null,,,,,,,,,
null,"<img src=""stim_listA/shout2.gif""style=""height:400px;""></stim_listA>",,html-keyboard-response,103,1267313,0.0-13.0-1.18,67363,List2A,black,man,,,,null,,,,,,,,,
null,is being shouted at by,,html-keyboard-response,104,1269319,0.0-13.0-2.18,67363,List2A,black,man,,,,null,,,,,,,,,
19442.2,,,survey-text,105,1288767,0.0-13.0-3.18,67363,List2A,black,man,,,,,"{""Q0"":""dave is being shouted at by jane""}","<img src=""stim_listA/shout2.gif""style=""height:400px;""></stim_listA>",is being shouted at by,,,,,,
null,"<div style=""font-size:60px;"">+</div>",,html-keyboard-response,106,1289282,0.0-13.0-0.19,67363,List2A,black,man,,,,null,,,,,,,,,
null,"<img src=""stim_listA/oppose6.gif""style=""height:400px;""></stim_listA>",,html-keyboard-response,107,1291292,0.0-13.0-1.19,67363,List2A,black,man,,,,null,,,,,,,,,
null,is being opposed by,,html-keyboard-response,108,1293307,0.0-13.0-2.19,67363,List2A,black,man,,,,null,,,,,,,,,
35832.5,,,survey-text,109,1329145,0.0-13.0-3.19,67363,List2A,black,man,,,,,"{""Q0"":""luke is being opposed by fred""}","<img src=""stim_listA/oppose6.gif""style=""height:400px;""></stim_listA>",is being opposed by,,,,,,
13362,"<img src='img/portrait_matrix_list2.jpg' style='width:900px;height:500px;''></img><p>If you have memorised all the portraits and names and are ready to start, press Continue.</p><p><strong>Please note: Your memory of these faces will be tested 4 times during this experiment.</strong></p>",0,html-button-response,110,1342510,0.0-14.0-0.0,67363,List2A,black,man,,,,,,,,,,,,,
9119,"<img src=""portrait/BM1.jpg""style=""height:400px;""></img>",4,html-button-response,111,1352633,0.0-14.0-1.0,67363,List2A,black,man,,TRUE,4,,,,,,,,,,
null,CORRECT,,html-keyboard-response,112,1354161,0.0-14.0-2.0-0.0,67363,List2A,black,man,,,,null,,,,,,,,,
3978.2,"<img src=""portrait/WM1.jpg""style=""height:400px;""></img>",6,html-button-response,113,1358143,0.0-14.0-4.0,67363,List2A,black,man,,TRUE,6,,,,,,,,,,
null,CORRECT,,html-keyboard-response,114,1359673,0.0-14.0-5.0-0.0,67363,List2A,black,man,,,,null,,,,,,,,,
4909.9,"<img src=""portrait/BW2.jpg""style=""height:400px;""></img>",2,html-button-response,115,1364586,0.0-14.0-7.0,67363,List2A,black,man,,TRUE,2,,,,,,,,,,
null,CORRECT,,html-keyboard-response,116,1366100,0.0-14.0-8.0-0.0,67363,List2A,black,man,,,,null,,,,,,,,,
4871,"<img src=""portrait/WW2.jpg""style=""height:400px;""></img>",3,html-button-response,117,1370975,0.0-14.0-10.0,67363,List2A,black,man,,TRUE,3,,,,,,,,,,
null,CORRECT,,html-keyboard-response,118,1372495,0.0-14.0-11.0-0.0,67363,List2A,black,man,,,,null,,,,,,,,,
3264.3,"<img src=""portrait/BW1.jpg""style=""height:400px;""></img>",0,html-button-response,119,1375763,0.0-14.0-13.0,67363,List2A,black,man,,TRUE,0,,,,,,,,,,
null,CORRECT,,html-keyboard-response,120,1377289,0.0-14.0-14.0-0.0,67363,List2A,black,man,,,,null,,,,,,,,,
4261.2,"<img src=""portrait/WW1.jpg""style=""height:400px;""></img>",1,html-button-response,121,1381554,0.0-14.0-16.0,67363,List2A,black,man,,TRUE,1,,,,,,,,,,
null,CORRECT,,html-keyboard-response,122,1383083,0.0-14.0-17.0-0.0,67363,List2A,black,man,,,,null,,,,,,,,,
4076.4,"<img src=""portrait/WM2.jpg""style=""height:400px;""></img>",7,html-button-response,123,1387163,0.0-14.0-19.0,67363,List2A,black,man,,TRUE,7,,,,,,,,,,
null,CORRECT,,html-keyboard-response,124,1388694,0.0-14.0-20.0-0.0,67363,List2A,black,man,,,,null,,,,,,,,,
3219.7,"<img src=""portrait/BM2.jpg""style=""height:400px;""></img>",5,html-button-response,125,1391917,0.0-14.0-22.0,67363,List2A,black,man,,TRUE,5,,,,,,,,,,
null,CORRECT,,html-keyboard-response,126,1393443,0.0-14.0-23.0-0.0,67363,List2A,black,man,,,,null,,,,,,,,,
1415.5,<p>You got 8 out of 8 right first time. Press Continue.</p>,0,html-button-response,127,1394862,0.0-14.0-25.0,67363,List2A,black,man,,,,,,,,,,,,,
null,"<div style=""font-size:60px;"">+</div>",,html-keyboard-response,128,1396386,0.0-15.0-0.0,67363,List2A,black,man,,,,null,,,,,,,,,
null,"<img src=""stim_listA/touch7.gif""style=""height:400px;""></stim_listA>",,html-keyboard-response,129,1398403,0.0-15.0-1.0,67363,List2A,black,man,,,,null,,,,,,,,,
null,is touching,,html-keyboard-response,130,1400417,0.0-15.0-2.0,67363,List2A,black,man,,,,null,,,,,,,,,
11804.3,,,survey-text,131,1412226,0.0-15.0-3.0,67363,List2A,black,man,,,,,"{""Q0"":""kate is touching jane""}","<img src=""stim_listA/touch7.gif""style=""height:400px;""></stim_listA>",is touching,,,,,,
null,"<div style=""font-size:60px;"">+</div>",,html-keyboard-response,132,1412738,0.0-15.0-0.1,67363,List2A,black,man,,,,null,,,,,,,,,
null,"<img src=""stim_listA/shout7.gif""style=""height:400px;""></stim_listA>",,html-keyboard-response,133,1414752,0.0-15.0-1.1,67363,List2A,black,man,,,,null,,,,,,,,,
null,is shouting at,,html-keyboard-response,134,1416760,0.0-15.0-2.1,67363,List2A,black,man,,,,null,,,,,,,,,
16443.9,,,survey-text,135,1433209,0.0-15.0-3.1,67363,List2A,black,man,,,,,"{""Q0"":""beth is shouting at ruth""}","<img src=""stim_listA/shout7.gif""style=""height:400px;""></stim_listA>",is shouting at,,,,,,
null,"<div style=""font-size:60px;"">+</div>",,html-keyboard-response,136,1433717,0.0-15.0-0.2,67363,List2A,black,man,,,,null,,,,,,,,,
null,"<img src=""stim_listA/hug5.gif""style=""height:400px;""></stim_listA>",,html-keyboard-response,137,1435734,0.0-15.0-1.2,67363,List2A,black,man,,,,null,,,,,,,,,
null,is hugging,,html-keyboard-response,138,1437747,0.0-15.0-2.2,67363,List2A,black,man,,,,null,,,,,,,,,
23765.7,,,survey-text,139,1461518,0.0-15.0-3.2,67363,List2A,black,man,,,,,"{""Q0"":""fred is hugging dave""}","<img src=""stim_listA/hug5.gif""style=""height:400px;""></stim_listA>",is hugging,,,,,,
null,"<div style=""font-size:60px;"">+</div>",,html-keyboard-response,140,1462024,0.0-15.0-0.3,67363,List2A,black,man,,,,null,,,,,,,,,
null,"<img src=""stim_listA/greet7.gif""style=""height:400px;""></stim_listA>",,html-keyboard-response,141,1464040,0.0-15.0-1.3,67363,List2A,black,man,,,,null,,,,,,,,,
null,is greeting,,html-keyboard-response,142,1466057,0.0-15.0-2.3,67363,List2A,black,man,,,,null,,,,,,,,,
18036.6,,,survey-text,143,1484099,0.0-15.0-3.3,67363,List2A,black,man,,,,,"{""Q0"":""jane is hugging beth""}","<img src=""stim_listA/greet7.gif""style=""height:400px;""></stim_listA>",is greeting,,,,,,
null,"<div style=""font-size:60px;"">+</div>",,html-keyboard-response,144,1484602,0.0-15.0-0.4,67363,List2A,black,man,,,,null,,,,,,,,,
null,"<img src=""stim_listA/oppose5.gif""style=""height:400px;""></stim_listA>",,html-keyboard-response,145,1486615,0.0-15.0-1.4,67363,List2A,black,man,,,,null,,,,,,,,,
null,is opposing,,html-keyboard-response,146,1488631,0.0-15.0-2.4,67363,List2A,black,man,,,,null,,,,,,,,,
267309.1,,,survey-text,147,1755946,0.0-15.0-3.4,67363,List2A,black,man,,,,,"{""Q0"":""dave and fred""}","<img src=""stim_listA/oppose5.gif""style=""height:400px;""></stim_listA>",is opposing,,,,,,
null,"<div style=""font-size:60px;"">+</div>",,html-keyboard-response,148,1756452,0.0-15.0-0.5,67363,List2A,black,man,,,,null,,,,,,,,,
null,"<img src=""stim_listA/look3.gif""style=""height:400px;""></stim_listA>",,html-keyboard-response,149,1758465,0.0-15.0-1.5,67363,List2A,black,man,,,,null,,,,,,,,,
null,is looking at,,html-keyboard-response,150,1760470,0.0-15.0-2.5,67363,List2A,black,man,,,,null,,,,,,,,,
27722.6,,,survey-text,151,1788198,0.0-15.0-3.5,67363,List2A,black,man,,,,,"{""Q0"":""fred is looking at beth""}","<img src=""stim_listA/look3.gif""style=""height:400px;""></stim_listA>",is looking at,,,,,,
null,"<div style=""font-size:60px;"">+</div>",,html-keyboard-response,152,1788704,0.0-15.0-0.6,67363,List2A,black,man,,,,null,,,,,,,,,
null,"<img src=""stim_listA/kiss4.gif""style=""height:400px;""></stim_listA>",,html-keyboard-response,153,1790718,0.0-15.0-1.6,67363,List2A,black,man,,,,null,,,,,,,,,
null,is being kissed by,,html-keyboard-response,154,1792733,0.0-15.0-2.6,67363,List2A,black,man,,,,null,,,,,,,,,
13064.8,,,survey-text,155,1805803,0.0-15.0-3.6,67363,List2A,black,man,,,,,"{""Q0"":""mike is being kissed by kate""}","<img src=""stim_listA/kiss4.gif""style=""height:400px;""></stim_listA>",is being kissed by,,,,,,
null,"<div style=""font-size:60px;"">+</div>",,html-keyboard-response,156,1806305,0.0-15.0-0.7,67363,List2A,black,man,,,,null,,,,,,,,,
null,"<img src=""stim_listA/greet4.gif""style=""height:400px;""></stim_listA>",,html-keyboard-response,157,1808316,0.0-15.0-1.7,67363,List2A,black,man,,,,null,,,,,,,,,
null,is being greeted by,,html-keyboard-response,158,1810332,0.0-15.0-2.7,67363,List2A,black,man,,,,null,,,,,,,,,
41671.9,,,survey-text,159,1852009,0.0-15.0-3.7,67363,List2A,black,man,,,,,"{""Q0"":""fred is being greeted by kate""}","<img src=""stim_listA/greet4.gif""style=""height:400px;""></stim_listA>",is being greeted by,,,,,,
null,"<div style=""font-size:60px;"">+</div>",,html-keyboard-response,160,1852523,0.0-15.0-0.8,67363,List2A,black,man,,,,null,,,,,,,,,
null,"<img src=""stim_listA/greet8.gif""style=""height:400px;""></stim_listA>",,html-keyboard-response,161,1854537,0.0-15.0-1.8,67363,List2A,black,man,,,,null,,,,,,,,,
null,is being greeted by,,html-keyboard-response,162,1856554,0.0-15.0-2.8,67363,List2A,black,man,,,,null,,,,,,,,,
16969.1,,,survey-text,163,1873528,0.0-15.0-3.8,67363,List2A,black,man,,,,,"{""Q0"":""ruth is being greeted by kate""}","<img src=""stim_listA/greet8.gif""style=""height:400px;""></stim_listA>",is being greeted by,,,,,,
null,"<div style=""font-size:60px;"">+</div>",,html-keyboard-response,164,1874036,0.0-15.0-0.9,67363,List2A,black,man,,,,null,,,,,,,,,
null,"<img src=""stim_listA/shout8.gif""style=""height:400px;""></stim_listA>",,html-keyboard-response,165,1876051,0.0-15.0-1.9,67363,List2A,black,man,,,,null,,,,,,,,,
null,is being shouted at by,,html-keyboard-response,166,1878066,0.0-15.0-2.9,67363,List2A,black,man,,,,null,,,,,,,,,
15711.4,,,survey-text,167,1893782,0.0-15.0-3.9,67363,List2A,black,man,,,,,"{""Q0"":""kate is being shouted at by jane""}","<img src=""stim_listA/shout8.gif""style=""height:400px;""></stim_listA>",is being shouted at by,,,,,,
null,"<div style=""font-size:60px;"">+</div>",,html-keyboard-response,168,1894285,0.0-15.0-0.10,67363,List2A,black,man,,,,null,,,,,,,,,
null,"<img src=""stim_listA/challenge2.gif""style=""height:400px;""></stim_listA>",,html-keyboard-response,169,1896300,0.0-15.0-1.10,67363,List2A,black,man,,,,null,,,,,,,,,
null,is being challenged by,,html-keyboard-response,170,1898313,0.0-15.0-2.10,67363,List2A,black,man,,,,null,,,,,,,,,
13222.4,,,survey-text,171,1911540,0.0-15.0-3.10,67363,List2A,black,man,,,,,"{""Q0"":""jane is being challenged by luke""}","<img src=""stim_listA/challenge2.gif""style=""height:400px;""></stim_listA>",is being challenged by,,,,,,
null,"<div style=""font-size:60px;"">+</div>",,html-keyboard-response,172,1912049,0.0-15.0-0.11,67363,List2A,black,man,,,,null,,,,,,,,,
null,"<img src=""stim_listA/challenge8.gif""style=""height:400px;""></stim_listA>",,html-keyboard-response,173,1914064,0.0-15.0-1.11,67363,List2A,black,man,,,,null,,,,,,,,,
null,is being challenged by,,html-keyboard-response,174,1916066,0.0-15.0-2.11,67363,List2A,black,man,,,,null,,,,,,,,,
290411.7,,,survey-text,175,2206482,0.0-15.0-3.11,67363,List2A,black,man,,,,,"{""Q0"":""ruth is being challenged by kate""}","<img src=""stim_listA/challenge8.gif""style=""height:400px;""></stim_listA>",is being challenged by,,,,,,
null,"<div style=""font-size:60px;"">+</div>",,html-keyboard-response,176,2206993,0.0-15.0-0.12,67363,List2A,black,man,,,,null,,,,,,,,,
null,"<img src=""stim_listA/copy7.gif""style=""height:400px;""></stim_listA>",,html-keyboard-response,177,2209009,0.0-15.0-1.12,67363,List2A,black,man,,,,null,,,,,,,,,
null,is copying,,html-keyboard-response,178,2211020,0.0-15.0-2.12,67363,List2A,black,man,,,,null,,,,,,,,,
22459.2,,,survey-text,179,2233484,0.0-15.0-3.12,67363,List2A,black,man,,,,,"{""Q0"":""kate is copying jane""}","<img src=""stim_listA/copy7.gif""style=""height:400px;""></stim_listA>",is copying,,,,,,
null,"<div style=""font-size:60px;"">+</div>",,html-keyboard-response,180,2233990,0.0-15.0-0.13,67363,List2A,black,man,,,,null,,,,,,,,,
null,"<img src=""stim_listA/challenge3.gif""style=""height:400px;""></stim_listA>",,html-keyboard-response,181,2235999,0.0-15.0-1.13,67363,List2A,black,man,,,,null,,,,,,,,,
null,is challenging,,html-keyboard-response,182,2238014,0.0-15.0-2.13,67363,List2A,black,man,,,,null,,,,,,,,,
14283.9,,,survey-text,183,2252303,0.0-15.0-3.13,67363,List2A,black,man,,,,,"{""Q0"":""mike is challenging beth""}","<img src=""stim_listA/challenge3.gif""style=""height:400px;""></stim_listA>",is challenging,,,,,,
null,"<div style=""font-size:60px;"">+</div>",,html-keyboard-response,184,2252815,0.0-15.0-0.14,67363,List2A,black,man,,,,null,,,,,,,,,
null,"<img src=""stim_listA/greet6.gif""style=""height:400px;""></stim_listA>",,html-keyboard-response,185,2254832,0.0-15.0-1.14,67363,List2A,black,man,,,,null,,,,,,,,,
null,is being greeted by,,html-keyboard-response,186,2256844,0.0-15.0-2.14,67363,List2A,black,man,,,,null,,,,,,,,,
12350.6,,,survey-text,187,2269200,0.0-15.0-3.14,67363,List2A,black,man,,,,,"{""Q0"":""mike is being greeted by luke""}","<img src=""stim_listA/greet6.gif""style=""height:400px;""></stim_listA>",is being greeted by,,,,,,
null,"<div style=""font-size:60px;"">+</div>",,html-keyboard-response,188,2269715,0.0-15.0-0.15,67363,List2A,black,man,,,,null,,,,,,,,,
null,"<img src=""stim_listA/challenge6.gif""style=""height:400px;""></stim_listA>",,html-keyboard-response,189,2271730,0.0-15.0-1.15,67363,List2A,black,man,,,,null,,,,,,,,,
null,is being challenged by,,html-keyboard-response,190,2273745,0.0-15.0-2.15,67363,List2A,black,man,,,,null,,,,,,,,,
10821.8,,,survey-text,191,2284571,0.0-15.0-3.15,67363,List2A,black,man,,,,,"{""Q0"":""mike is being challenged by luke""}","<img src=""stim_listA/challenge6.gif""style=""height:400px;""></stim_listA>",is being challenged by,,,,,,
null,"<div style=""font-size:60px;"">+</div>",,html-keyboard-response,192,2285077,0.0-15.0-0.16,67363,List2A,black,man,,,,null,,,,,,,,,
null,"<img src=""stim_listA/hug3.gif""style=""height:400px;""></stim_listA>",,html-keyboard-response,193,2287082,0.0-15.0-1.16,67363,List2A,black,man,,,,null,,,,,,,,,
null,is hugging,,html-keyboard-response,194,2289096,0.0-15.0-2.16,67363,List2A,black,man,,,,null,,,,,,,,,
9184.3,,,survey-text,195,2298286,0.0-15.0-3.16,67363,List2A,black,man,,,,,"{""Q0"":""beth is hugging fred""}","<img src=""stim_listA/hug3.gif""style=""height:400px;""></stim_listA>",is hugging,,,,,,
null,"<div style=""font-size:60px;"">+</div>",,html-keyboard-response,196,2298788,0.0-15.0-0.17,67363,List2A,black,man,,,,null,,,,,,,,,
null,"<img src=""stim_listA/kiss1.gif""style=""height:400px;""></stim_listA>",,html-keyboard-response,197,2300802,0.0-15.0-1.17,67363,List2A,black,man,,,,null,,,,,,,,,
null,is kissing,,html-keyboard-response,198,2302817,0.0-15.0-2.17,67363,List2A,black,man,,,,null,,,,,,,,,
15389.2,,,survey-text,199,2318211,0.0-15.0-3.17,67363,List2A,black,man,,,,,"{""Q0"":""luke is kissing ruth""}","<img src=""stim_listA/kiss1.gif""style=""height:400px;""></stim_listA>",is kissing,,,,,,
null,"<div style=""font-size:60px;"">+</div>",,html-keyboard-response,200,2318720,0.0-15.0-0.18,67363,List2A,black,man,,,,null,,,,,,,,,
null,"<img src=""stim_listA/copy2.gif""style=""height:400px;""></stim_listA>",,html-keyboard-response,201,2320734,0.0-15.0-1.18,67363,List2A,black,man,,,,null,,,,,,,,,
null,is being copied by,,html-keyboard-response,202,2322746,0.0-15.0-2.18,67363,List2A,black,man,,,,null,,,,,,,,,
15471.1,,,survey-text,203,2338222,0.0-15.0-3.18,67363,List2A,black,man,,,,,"{""Q0"":""luke is copied by jane""}","<img src=""stim_listA/copy2.gif""style=""height:400px;""></stim_listA>",is being copied by,,,,,,
null,"<div style=""font-size:60px;"">+</div>",,html-keyboard-response,204,2338729,0.0-15.0-0.19,67363,List2A,black,man,,,,null,,,,,,,,,
null,"<img src=""stim_listA/challenge7.gif""style=""height:400px;""></stim_listA>",,html-keyboard-response,205,2340749,0.0-15.0-1.19,67363,List2A,black,man,,,,null,,,,,,,,,
null,is challenging,,html-keyboard-response,206,2342762,0.0-15.0-2.19,67363,List2A,black,man,,,,null,,,,,,,,,
7252.3,,,survey-text,207,2350020,0.0-15.0-3.19,67363,List2A,black,man,,,,,"{""Q0"":""jane is challenging beth""}","<img src=""stim_listA/challenge7.gif""style=""height:400px;""></stim_listA>",is challenging,,,,,,
3057.3,"<img src='img/portrait_matrix_list2.jpg' style='width:900px;height:500px;''></img><p>If you have memorised all the portraits and names and are ready to start, press Continue.</p><p><strong>Please note: Your memory of these faces will be tested 4 times during this experiment.</strong></p>",0,html-button-response,208,2353080,0.0-16.0-0.0,67363,List2A,black,man,,,,,,,,,,,,,
2712.1,"<img src=""portrait/BM2.jpg""style=""height:400px;""></img>",5,html-button-response,209,2356803,0.0-16.0-1.0,67363,List2A,black,man,,TRUE,5,,,,,,,,,,
null,CORRECT,,html-keyboard-response,210,2358329,0.0-16.0-2.0-0.0,67363,List2A,black,man,,,,null,,,,,,,,,
2039.7,"<img src=""portrait/WW2.jpg""style=""height:400px;""></img>",3,html-button-response,211,2360371,0.0-16.0-4.0,67363,List2A,black,man,,TRUE,3,,,,,,,,,,
null,CORRECT,,html-keyboard-response,212,2361892,0.0-16.0-5.0-0.0,67363,List2A,black,man,,,,null,,,,,,,,,
7213.1,"<img src=""portrait/BW2.jpg""style=""height:400px;""></img>",2,html-button-response,213,2369109,0.0-16.0-7.0,67363,List2A,black,man,,TRUE,2,,,,,,,,,,
null,CORRECT,,html-keyboard-response,214,2370633,0.0-16.0-8.0-0.0,67363,List2A,black,man,,,,null,,,,,,,,,
4704.6,"<img src=""portrait/WM2.jpg""style=""height:400px;""></img>",7,html-button-response,215,2375340,0.0-16.0-10.0,67363,List2A,black,man,,TRUE,7,,,,,,,,,,
null,CORRECT,,html-keyboard-response,216,2376861,0.0-16.0-11.0-0.0,67363,List2A,black,man,,,,null,,,,,,,,,
4222.8,"<img src=""portrait/WM1.jpg""style=""height:400px;""></img>",6,html-button-response,217,2381088,0.0-16.0-13.0,67363,List2A,black,man,,TRUE,6,,,,,,,,,,
null,CORRECT,,html-keyboard-response,218,2382605,0.0-16.0-14.0-0.0,67363,List2A,black,man,,,,null,,,,,,,,,
3277.2,"<img src=""portrait/WW1.jpg""style=""height:400px;""></img>",1,html-button-response,219,2385885,0.0-16.0-16.0,67363,List2A,black,man,,TRUE,1,,,,,,,,,,
null,CORRECT,,html-keyboard-response,220,2387402,0.0-16.0-17.0-0.0,67363,List2A,black,man,,,,null,,,,,,,,,
2449.7,"<img src=""portrait/BM1.jpg""style=""height:400px;""></img>",4,html-button-response,221,2389856,0.0-16.0-19.0,67363,List2A,black,man,,TRUE,4,,,,,,,,,,
null,CORRECT,,html-keyboard-response,222,2391379,0.0-16.0-20.0-0.0,67363,List2A,black,man,,,,null,,,,,,,,,
4696,"<img src=""portrait/BW1.jpg""style=""height:400px;""></img>",0,html-button-response,223,2396079,0.0-16.0-22.0,67363,List2A,black,man,,TRUE,0,,,,,,,,,,
null,CORRECT,,html-keyboard-response,224,2397592,0.0-16.0-23.0-0.0,67363,List2A,black,man,,,,null,,,,,,,,,
207483,<p>You got 8 out of 8 right first time. Press Continue.</p>,0,html-button-response,225,2605079,0.0-16.0-25.0,67363,List2A,black,man,,,,,,,,,,,,,
null,"<div style=""font-size:60px;"">+</div>",,html-keyboard-response,226,2606596,0.0-17.0-0.0,67363,List2A,black,man,,,,null,,,,,,,,,
null,"<img src=""stim_listA/seduce7.gif""style=""height:400px;""></stim_listA>",,html-keyboard-response,227,2608601,0.0-17.0-1.0,67363,List2A,black,man,,,,null,,,,,,,,,
null,is seducing,,html-keyboard-response,228,2610605,0.0-17.0-2.0,67363,List2A,black,man,,,,null,,,,,,,,,
17837.1,,,survey-text,229,2628447,0.0-17.0-3.0,67363,List2A,black,man,,,,,"{""Q0"":""ruth is seducing beth""}","<img src=""stim_listA/seduce7.gif""style=""height:400px;""></stim_listA>",is seducing,,,,,,
null,"<div style=""font-size:60px;"">+</div>",,html-keyboard-response,230,2628963,0.0-17.0-0.1,67363,List2A,black,man,,,,null,,,,,,,,,
null,"<img src=""stim_listA/touch4.gif""style=""height:400px;""></stim_listA>",,html-keyboard-response,231,2630977,0.0-17.0-1.1,67363,List2A,black,man,,,,null,,,,,,,,,
null,is being touched by,,html-keyboard-response,232,2632994,0.0-17.0-2.1,67363,List2A,black,man,,,,null,,,,,,,,,
25419.5,,,survey-text,233,2658417,0.0-17.0-3.1,67363,List2A,black,man,,,,,"{""Q0"":""beth is being touched by fred""}","<img src=""stim_listA/touch4.gif""style=""height:400px;""></stim_listA>",is being touched by,,,,,,
null,"<div style=""font-size:60px;"">+</div>",,html-keyboard-response,234,2658920,0.0-17.0-0.2,67363,List2A,black,man,,,,null,,,,,,,,,
null,"<img src=""stim_listA/challenge1.gif""style=""height:400px;""></stim_listA>",,html-keyboard-response,235,2660932,0.0-17.0-1.2,67363,List2A,black,man,,,,null,,,,,,,,,
null,is challenging,,html-keyboard-response,236,2662947,0.0-17.0-2.2,67363,List2A,black,man,,,,null,,,,,,,,,
12509.5,,,survey-text,237,2675462,0.0-17.0-3.2,67363,List2A,black,man,,,,,"{""Q0"":""dave is challenging ruth""}","<img src=""stim_listA/challenge1.gif""style=""height:400px;""></stim_listA>",is challenging,,,,,,
null,"<div style=""font-size:60px;"">+</div>",,html-keyboard-response,238,2675972,0.0-17.0-0.3,67363,List2A,black,man,,,,null,,,,,,,,,
null,"<img src=""stim_listA/oppose7.gif""style=""height:400px;""></stim_listA>",,html-keyboard-response,239,2677984,0.0-17.0-1.3,67363,List2A,black,man,,,,null,,,,,,,,,
null,is opposing,,html-keyboard-response,240,2679997,0.0-17.0-2.3,67363,List2A,black,man,,,,null,,,,,,,,,
12822,,,survey-text,241,2692822,0.0-17.0-3.3,67363,List2A,black,man,,,,,"{""Q0"":""kate is opposing jane""}","<img src=""stim_listA/oppose7.gif""style=""height:400px;""></stim_listA>",is opposing,,,,,,
null,"<div style=""font-size:60px;"">+</div>",,html-keyboard-response,242,2693333,0.0-17.0-0.4,67363,List2A,black,man,,,,null,,,,,,,,,
null,"<img src=""stim_listA/copy5.gif""style=""height:400px;""></stim_listA>",,html-keyboard-response,243,2695348,0.0-17.0-1.4,67363,List2A,black,man,,,,null,,,,,,,,,
null,is copying,,html-keyboard-response,244,2697364,0.0-17.0-2.4,67363,List2A,black,man,,,,null,,,,,,,,,
8247.8,,,survey-text,245,2705616,0.0-17.0-3.4,67363,List2A,black,man,,,,,"{""Q0"":""dave is copying fred""}","<img src=""stim_listA/copy5.gif""style=""height:400px;""></stim_listA>",is copying,,,,,,
null,"<div style=""font-size:60px;"">+</div>",,html-keyboard-response,246,2706122,0.0-17.0-0.5,67363,List2A,black,man,,,,null,,,,,,,,,
null,"<img src=""stim_listA/seduce8.gif""style=""height:400px;""></stim_listA>",,html-keyboard-response,247,2708136,0.0-17.0-1.5,67363,List2A,black,man,,,,null,,,,,,,,,
null,is being seduced by,,html-keyboard-response,248,2710144,0.0-17.0-2.5,67363,List2A,black,man,,,,null,,,,,,,,,
13724.4,,,survey-text,249,2723873,0.0-17.0-3.5,67363,List2A,black,man,,,,,"{""Q0"":""jane is being seduced by beth""}","<img src=""stim_listA/seduce8.gif""style=""height:400px;""></stim_listA>",is being seduced by,,,,,,
null,"<div style=""font-size:60px;"">+</div>",,html-keyboard-response,250,2724387,0.0-17.0-0.6,67363,List2A,black,man,,,,null,,,,,,,,,
null,"<img src=""stim_listA/shout1.gif""style=""height:400px;""></stim_listA>",,html-keyboard-response,251,2726393,0.0-17.0-1.6,67363,List2A,black,man,,,,null,,,,,,,,,
null,is shouting at,,html-keyboard-response,252,2728401,0.0-17.0-2.6,67363,List2A,black,man,,,,null,,,,,,,,,
8435,,,survey-text,253,2736841,0.0-17.0-3.6,67363,List2A,black,man,,,,,"{""Q0"":""ruth is shouting at luke""}","<img src=""stim_listA/shout1.gif""style=""height:400px;""></stim_listA>",is shouting at,,,,,,
null,"<div style=""font-size:60px;"">+</div>",,html-keyboard-response,254,2737357,0.0-17.0-0.7,67363,List2A,black,man,,,,null,,,,,,,,,
null,"<img src=""stim_listA/copy6.gif""style=""height:400px;""></stim_listA>",,html-keyboard-response,255,2739372,0.0-17.0-1.7,67363,List2A,black,man,,,,null,,,,,,,,,
null,is being copied by,,html-keyboard-response,256,2741382,0.0-17.0-2.7,67363,List2A,black,man,,,,null,,,,,,,,,
11159.5,,,survey-text,257,2752548,0.0-17.0-3.7,67363,List2A,black,man,,,,,"{""Q0"":""luke is being copied by mike""}","<img src=""stim_listA/copy6.gif""style=""height:400px;""></stim_listA>",is being copied by,,,,,,
null,"<div style=""font-size:60px;"">+</div>",,html-keyboard-response,258,2753058,0.0-17.0-0.8,67363,List2A,black,man,,,,null,,,,,,,,,
null,"<img src=""stim_listA/hug6.gif""style=""height:400px;""></stim_listA>",,html-keyboard-response,259,2755074,0.0-17.0-1.8,67363,List2A,black,man,,,,null,,,,,,,,,
null,is being hugged by,,html-keyboard-response,260,2757088,0.0-17.0-2.8,67363,List2A,black,man,,,,null,,,,,,,,,
7711.7,,,survey-text,261,2764805,0.0-17.0-3.8,67363,List2A,black,man,,,,,"{""Q0"":""is being hugged by dave""}","<img src=""stim_listA/hug6.gif""style=""height:400px;""></stim_listA>",is being hugged by,,,,,,
null,"<div style=""font-size:60px;"">+</div>",,html-keyboard-response,262,2765321,0.0-17.0-0.9,67363,List2A,black,man,,,,null,,,,,,,,,
null,"<img src=""stim_listA/shout4.gif""style=""height:400px;""></stim_listA>",,html-keyboard-response,263,2767333,0.0-17.0-1.9,67363,List2A,black,man,,,,null,,,,,,,,,
null,is being shouted at by,,html-keyboard-response,264,2769343,0.0-17.0-2.9,67363,List2A,black,man,,,,null,,,,,,,,,
19292.2,,,survey-text,265,2788640,0.0-17.0-3.9,67363,List2A,black,man,,,,,"{""Q0"":""mike is being hugged by kate""}","<img src=""stim_listA/shout4.gif""style=""height:400px;""></stim_listA>",is being shouted at by,,,,,,
null,"<div style=""font-size:60px;"">+</div>",,html-keyboard-response,266,2789156,0.0-17.0-0.10,67363,List2A,black,man,,,,null,,,,,,,,,
null,"<img src=""stim_listA/oppose8.gif""style=""height:400px;""></stim_listA>",,html-keyboard-response,267,2791163,0.0-17.0-1.10,67363,List2A,black,man,,,,null,,,,,,,,,
null,is being opposed by,,html-keyboard-response,268,2793171,0.0-17.0-2.10,67363,List2A,black,man,,,,null,,,,,,,,,
10123.5,,,survey-text,269,2803300,0.0-17.0-3.10,67363,List2A,black,man,,,,,"{""Q0"":""beth is being opposed by ruth""}","<img src=""stim_listA/oppose8.gif""style=""height:400px;""></stim_listA>",is being opposed by,,,,,,
null,"<div style=""font-size:60px;"">+</div>",,html-keyboard-response,270,2803809,0.0-17.0-0.11,67363,List2A,black,man,,,,null,,,,,,,,,
null,"<img src=""stim_listA/kiss8.gif""style=""height:400px;""></stim_listA>",,html-keyboard-response,271,2805824,0.0-17.0-1.11,67363,List2A,black,man,,,,null,,,,,,,,,
null,is being kissed by,,html-keyboard-response,272,2807827,0.0-17.0-2.11,67363,List2A,black,man,,,,null,,,,,,,,,
9020.1,,,survey-text,273,2816852,0.0-17.0-3.11,67363,List2A,black,man,,,,,"{""Q0"":""jane is kissed by kate""}","<img src=""stim_listA/kiss8.gif""style=""height:400px;""></stim_listA>",is being kissed by,,,,,,
null,"<div style=""font-size:60px;"">+</div>",,html-keyboard-response,274,2817362,0.0-17.0-0.12,67363,List2A,black,man,,,,null,,,,,,,,,
null,"<img src=""stim_listA/kiss6.gif""style=""height:400px;""></stim_listA>",,html-keyboard-response,275,2819378,0.0-17.0-1.12,67363,List2A,black,man,,,,null,,,,,,,,,
null,is being kissed by,,html-keyboard-response,276,2821390,0.0-17.0-2.12,67363,List2A,black,man,,,,null,,,,,,,,,
8982.7,,,survey-text,277,2830378,0.0-17.0-3.12,67363,List2A,black,man,,,,,"{""Q0"":""mike is being kissed by dave""}","<img src=""stim_listA/kiss6.gif""style=""height:400px;""></stim_listA>",is being kissed by,,,,,,
null,"<div style=""font-size:60px;"">+</div>",,html-keyboard-response,278,2830889,0.0-17.0-0.13,67363,List2A,black,man,,,,null,,,,,,,,,
null,"<img src=""stim_listA/seduce2.gif""style=""height:400px;""></stim_listA>",,html-keyboard-response,279,2832897,0.0-17.0-1.13,67363,List2A,black,man,,,,null,,,,,,,,,
null,is being seduced by,,html-keyboard-response,280,2834913,0.0-17.0-2.13,67363,List2A,black,man,,,,null,,,,,,,,,
8091,,,survey-text,281,2843010,0.0-17.0-3.13,67363,List2A,black,man,,,,,"{""Q0"":""ruth is being seduced by dave""}","<img src=""stim_listA/seduce2.gif""style=""height:400px;""></stim_listA>",is being seduced by,,,,,,
null,"<div style=""font-size:60px;"">+</div>",,html-keyboard-response,282,2843519,0.0-17.0-0.14,67363,List2A,black,man,,,,null,,,,,,,,,
null,"<img src=""stim_listA/oppose1.gif""style=""height:400px;""></stim_listA>",,html-keyboard-response,283,2845535,0.0-17.0-1.14,67363,List2A,black,man,,,,null,,,,,,,,,
null,is opposing,,html-keyboard-response,284,2847550,0.0-17.0-2.14,67363,List2A,black,man,,,,null,,,,,,,,,
7813.6,,,survey-text,285,2855368,0.0-17.0-3.14,67363,List2A,black,man,,,,,"{""Q0"":""dave is opposing jane""}","<img src=""stim_listA/oppose1.gif""style=""height:400px;""></stim_listA>",is opposing,,,,,,
null,"<div style=""font-size:60px;"">+</div>",,html-keyboard-response,286,2855875,0.0-17.0-0.15,67363,List2A,black,man,,,,null,,,,,,,,,
null,"<img src=""stim_listA/look1.gif""style=""height:400px;""></stim_listA>",,html-keyboard-response,287,2857889,0.0-17.0-1.15,67363,List2A,black,man,,,,null,,,,,,,,,
null,is looking at,,html-keyboard-response,288,2859904,0.0-17.0-2.15,67363,List2A,black,man,,,,null,,,,,,,,,
8922.2,,,survey-text,289,2868832,0.0-17.0-3.15,67363,List2A,black,man,,,,,"{""Q0"":""mike is looking at ruth""}","<img src=""stim_listA/look1.gif""style=""height:400px;""></stim_listA>",is looking at,,,,,,
null,"<div style=""font-size:60px;"">+</div>",,html-keyboard-response,290,2869344,0.0-17.0-0.16,67363,List2A,black,man,,,,null,,,,,,,,,
null,"<img src=""stim_listA/oppose3.gif""style=""height:400px;""></stim_listA>",,html-keyboard-response,291,2871359,0.0-17.0-1.16,67363,List2A,black,man,,,,null,,,,,,,,,
null,is opposing,,html-keyboard-response,292,2873374,0.0-17.0-2.16,67363,List2A,black,man,,,,null,,,,,,,,,
6829.6,,,survey-text,293,2880209,0.0-17.0-3.16,67363,List2A,black,man,,,,,"{""Q0"":""mike is opposing kate""}","<img src=""stim_listA/oppose3.gif""style=""height:400px;""></stim_listA>",is opposing,,,,,,
null,"<div style=""font-size:60px;"">+</div>",,html-keyboard-response,294,2880718,0.0-17.0-0.17,67363,List2A,black,man,,,,null,,,,,,,,,
null,"<img src=""stim_listA/seduce6.gif""style=""height:400px;""></stim_listA>",,html-keyboard-response,295,2882731,0.0-17.0-1.17,67363,List2A,black,man,,,,null,,,,,,,,,
null,is being seduced by,,html-keyboard-response,296,2884738,0.0-17.0-2.17,67363,List2A,black,man,,,,null,,,,,,,,,
7470.2,,,survey-text,297,2892214,0.0-17.0-3.17,67363,List2A,black,man,,,,,"{""Q0"":""fred is being seduced by dave""}","<img src=""stim_listA/seduce6.gif""style=""height:400px;""></stim_listA>",is being seduced by,,,,,,
null,"<div style=""font-size:60px;"">+</div>",,html-keyboard-response,298,2892723,0.0-17.0-0.18,67363,List2A,black,man,,,,null,,,,,,,,,
null,"<img src=""stim_listA/touch6.gif""style=""height:400px;""></stim_listA>",,html-keyboard-response,299,2894736,0.0-17.0-1.18,67363,List2A,black,man,,,,null,,,,,,,,,
null,is being touched by,,html-keyboard-response,300,2896751,0.0-17.0-2.18,67363,List2A,black,man,,,,null,,,,,,,,,
8594.8,,,survey-text,301,2905353,0.0-17.0-3.18,67363,List2A,black,man,,,,,"{""Q0"":""fred is being touched by luke""}","<img src=""stim_listA/touch6.gif""style=""height:400px;""></stim_listA>",is being touched by,,,,,,
null,"<div style=""font-size:60px;"">+</div>",,html-keyboard-response,302,2905857,0.0-17.0-0.19,67363,List2A,black,man,,,,null,,,,,,,,,
null,"<img src=""stim_listA/shout5.gif""style=""height:400px;""></stim_listA>",,html-keyboard-response,303,2907874,0.0-17.0-1.19,67363,List2A,black,man,,,,null,,,,,,,,,
null,is shouting at,,html-keyboard-response,304,2909879,0.0-17.0-2.19,67363,List2A,black,man,,,,null,,,,,,,,,
9497,,,survey-text,305,2919382,0.0-17.0-3.19,67363,List2A,black,man,,,,,"{""Q0"":""fred is shouting at luke""}","<img src=""stim_listA/shout5.gif""style=""height:400px;""></stim_listA>",is shouting at,,,,,,
5500,"<img src='img/portrait_matrix_list2.jpg' style='width:900px;height:500px;''></img><p>If you have memorised all the portraits and names and are ready to start, press Continue.</p><p><strong>Please note: Your memory of these faces will be tested 4 times during this experiment.</strong></p>",0,html-button-response,306,2924885,0.0-18.0-0.0,67363,List2A,black,man,,,,,,,,,,,,,
2300.3,"<img src=""portrait/WW1.jpg""style=""height:400px;""></img>",1,html-button-response,307,2928193,0.0-18.0-1.0,67363,List2A,black,man,,TRUE,1,,,,,,,,,,
null,CORRECT,,html-keyboard-response,308,2929709,0.0-18.0-2.0-0.0,67363,List2A,black,man,,,,null,,,,,,,,,
4435.7,"<img src=""portrait/BW2.jpg""style=""height:400px;""></img>",2,html-button-response,309,2934148,0.0-18.0-4.0,67363,List2A,black,man,,TRUE,2,,,,,,,,,,
null,CORRECT,,html-keyboard-response,310,2935663,0.0-18.0-5.0-0.0,67363,List2A,black,man,,,,null,,,,,,,,,
2392.5,"<img src=""portrait/BM1.jpg""style=""height:400px;""></img>",4,html-button-response,311,2938058,0.0-18.0-7.0,67363,List2A,black,man,,TRUE,4,,,,,,,,,,
null,CORRECT,,html-keyboard-response,312,2939575,0.0-18.0-8.0-0.0,67363,List2A,black,man,,,,null,,,,,,,,,
3636.9,"<img src=""portrait/WW2.jpg""style=""height:400px;""></img>",3,html-button-response,313,2943215,0.0-18.0-10.0,67363,List2A,black,man,,TRUE,3,,,,,,,,,,
null,CORRECT,,html-keyboard-response,314,2944739,0.0-18.0-11.0-0.0,67363,List2A,black,man,,,,null,,,,,,,,,
2109.8,"<img src=""portrait/WM2.jpg""style=""height:400px;""></img>",7,html-button-response,315,2946852,0.0-18.0-13.0,67363,List2A,black,man,,TRUE,7,,,,,,,,,,
null,CORRECT,,html-keyboard-response,316,2948383,0.0-18.0-14.0-0.0,67363,List2A,black,man,,,,null,,,,,,,,,
5639.6,"<img src=""portrait/BM2.jpg""style=""height:400px;""></img>",5,html-button-response,317,2954027,0.0-18.0-16.0,67363,List2A,black,man,,TRUE,5,,,,,,,,,,
null,CORRECT,,html-keyboard-response,318,2955545,0.0-18.0-17.0-0.0,67363,List2A,black,man,,,,null,,,,,,,,,
3002.5,"<img src=""portrait/BW1.jpg""style=""height:400px;""></img>",0,html-button-response,319,2958551,0.0-18.0-19.0,67363,List2A,black,man,,TRUE,0,,,,,,,,,,
null,CORRECT,,html-keyboard-response,320,2960073,0.0-18.0-20.0-0.0,67363,List2A,black,man,,,,null,,,,,,,,,
2776.7,"<img src=""portrait/WM1.jpg""style=""height:400px;""></img>",5,html-button-response,321,2962853,0.0-18.0-22.0,67363,List2A,black,man,,TRUE,6,,,,,,,,,,
4422.7,"<img src=""portrait/WM1.jpg""style=""height:400px;""></img>",6,html-button-response,322,2968296,0.0-18.0-24.0-0.0,67363,List2A,black,man,,FALSE,6,,,,,,,,,,
null,CORRECT,,html-keyboard-response,323,2969812,0.0-18.0-24.0-1.0-0.0,67363,List2A,black,man,,,,null,,,,,,,,,
1828.6,<p>You got 7 out of 8 right first time. Press Continue.</p>,0,html-button-response,324,2971644,0.0-18.0-25.0,67363,List2A,black,man,,,,,,,,,,,,,
3489.8,"As you did not score 100%, the memory game will repeat. Press Continue.",0,html-button-response,325,2976143,0.0-18.0-26.0-0.0,67363,List2A,black,man,,,,,,,,,,,,,
2190.1,"<img src='img/portrait_matrix_list2.jpg' style='width:900px;height:500px;''></img><p>If you have memorised all the portraits and names and are ready to start, press Continue.</p><p><strong>Please note: Your memory of these faces will be tested 4 times during this experiment.</strong></p>",0,html-button-response,326,2979352,0.0-18.1-0.1,67363,List2A,black,man,,,,,,,,,,,,,
3952.6,"<img src=""portrait/WW1.jpg""style=""height:400px;""></img>",1,html-button-response,327,2984321,0.0-18.1-1.1,67363,List2A,black,man,,TRUE,1,,,,,,,,,,
null,CORRECT,,html-keyboard-response,328,2985847,0.0-18.1-2.1-0.1,67363,List2A,black,man,,,,null,,,,,,,,,
4222.2,"<img src=""portrait/BW2.jpg""style=""height:400px;""></img>",2,html-button-response,329,2990074,0.0-18.1-4.1,67363,List2A,black,man,,TRUE,2,,,,,,,,,,
null,CORRECT,,html-keyboard-response,330,2991593,0.0-18.1-5.1-0.1,67363,List2A,black,man,,,,null,,,,,,,,,
2560.8,"<img src=""portrait/BM1.jpg""style=""height:400px;""></img>",4,html-button-response,331,2994157,0.0-18.1-7.1,67363,List2A,black,man,,TRUE,4,,,,,,,,,,
null,CORRECT,,html-keyboard-response,332,2995675,0.0-18.1-8.1-0.1,67363,List2A,black,man,,,,null,,,,,,,,,
3151.2,"<img src=""portrait/WW2.jpg""style=""height:400px;""></img>",3,html-button-response,333,2998831,0.0-18.1-10.1,67363,List2A,black,man,,TRUE,3,,,,,,,,,,
null,CORRECT,,html-keyboard-response,334,3000350,0.0-18.1-11.1-0.1,67363,List2A,black,man,,,,null,,,,,,,,,
1826.1,"<img src=""portrait/WM2.jpg""style=""height:400px;""></img>",7,html-button-response,335,3002181,0.0-18.1-13.1,67363,List2A,black,man,,TRUE,7,,,,,,,,,,
null,CORRECT,,html-keyboard-response,336,3003699,0.0-18.1-14.1-0.1,67363,List2A,black,man,,,,null,,,,,,,,,
1938.6,"<img src=""portrait/BM2.jpg""style=""height:400px;""></img>",5,html-button-response,337,3005642,0.0-18.1-16.1,67363,List2A,black,man,,TRUE,5,,,,,,,,,,
null,CORRECT,,html-keyboard-response,338,3007159,0.0-18.1-17.1-0.1,67363,List2A,black,man,,,,null,,,,,,,,,
2591.9,"<img src=""portrait/BW1.jpg""style=""height:400px;""></img>",0,html-button-response,339,3009755,0.0-18.1-19.1,67363,List2A,black,man,,TRUE,0,,,,,,,,,,
null,CORRECT,,html-keyboard-response,340,3011289,0.0-18.1-20.1-0.1,67363,List2A,black,man,,,,null,,,,,,,,,
10034.6,"<img src=""portrait/WM1.jpg""style=""height:400px;""></img>",6,html-button-response,341,3021328,0.0-18.1-22.1,67363,List2A,black,man,,TRUE,6,,,,,,,,,,
null,CORRECT,,html-keyboard-response,342,3022845,0.0-18.1-23.1-0.1,67363,List2A,black,man,,,,null,,,,,,,,,
1458.6,<p>You got 8 out of 8 right first time. Press Continue.</p>,0,html-button-response,343,3024308,0.0-18.1-25.1,67363,List2A,black,man,,,,,,,,,,,,,
null,"<div style=""font-size:60px;"">+</div>",,html-keyboard-response,344,3025825,0.0-19.0-0.0,67363,List2A,black,man,,,,null,,,,,,,,,
null,"<img src=""stim_listA/kiss7.gif""style=""height:400px;""></stim_listA>",,html-keyboard-response,345,3027839,0.0-19.0-1.0,67363,List2A,black,man,,,,null,,,,,,,,,
null,is kissing,,html-keyboard-response,346,3029855,0.0-19.0-2.0,67363,List2A,black,man,,,,null,,,,,,,,,
313279.8,,,survey-text,347,3343139,0.0-19.0-3.0,67363,List2A,black,man,,,,,"{""Q0"":""ruth is kissing beth""}","<img src=""stim_listA/kiss7.gif""style=""height:400px;""></stim_listA>",is kissing,,,,,,
null,"<div style=""font-size:60px;"">+</div>",,html-keyboard-response,348,3343655,0.0-19.0-0.1,67363,List2A,black,man,,,,null,,,,,,,,,
null,"<img src=""stim_listA/copy8.gif""style=""height:400px;""></stim_listA>",,html-keyboard-response,349,3345672,0.0-19.0-1.1,67363,List2A,black,man,,,,null,,,,,,,,,
null,is being copied by,,html-keyboard-response,350,3347684,0.0-19.0-2.1,67363,List2A,black,man,,,,null,,,,,,,,,
32829.1,,,survey-text,351,3380518,0.0-19.0-3.1,67363,List2A,black,man,,,,,"{""Q0"":""ruth is being copied by kate""}","<img src=""stim_listA/copy8.gif""style=""height:400px;""></stim_listA>",is being copied by,,,,,,
null,"<div style=""font-size:60px;"">+</div>",,html-keyboard-response,352,3381020,0.0-19.0-0.2,67363,List2A,black,man,,,,null,,,,,,,,,
null,"<img src=""stim_listA/challenge5.gif""style=""height:400px;""></stim_listA>",,html-keyboard-response,353,3383025,0.0-19.0-1.2,67363,List2A,black,man,,,,null,,,,,,,,,
null,is challenging,,html-keyboard-response,354,3385031,0.0-19.0-2.2,67363,List2A,black,man,,,,null,,,,,,,,,
8108.3,,,survey-text,355,3393144,0.0-19.0-3.2,67363,List2A,black,man,,,,,"{""Q0"":""dave is challenging fred""}","<img src=""stim_listA/challenge5.gif""style=""height:400px;""></stim_listA>",is challenging,,,,,,
null,"<div style=""font-size:60px;"">+</div>",,html-keyboard-response,356,3393652,0.0-19.0-0.3,67363,List2A,black,man,,,,null,,,,,,,,,
null,"<img src=""stim_listA/shout6.gif""style=""height:400px;""></stim_listA>",,html-keyboard-response,357,3395657,0.0-19.0-1.3,67363,List2A,black,man,,,,null,,,,,,,,,
null,is being shouted at by,,html-keyboard-response,358,3397662,0.0-19.0-2.3,67363,List2A,black,man,,,,null,,,,,,,,,
14338.4,,,survey-text,359,3412006,0.0-19.0-3.3,67363,List2A,black,man,,,,,"{""Q0"":""dave is being shouted at by mike""}","<img src=""stim_listA/shout6.gif""style=""height:400px;""></stim_listA>",is being shouted at by,,,,,,
null,"<div style=""font-size:60px;"">+</div>",,html-keyboard-response,360,3412514,0.0-19.0-0.4,67363,List2A,black,man,,,,null,,,,,,,,,
null,"<img src=""stim_listA/look6.gif""style=""height:400px;""></stim_listA>",,html-keyboard-response,361,3414524,0.0-19.0-1.4,67363,List2A,black,man,,,,null,,,,,,,,,
null,is being looked at by,,html-keyboard-response,362,3416528,0.0-19.0-2.4,67363,List2A,black,man,,,,null,,,,,,,,,
12685.7,,,survey-text,363,3429219,0.0-19.0-3.4,67363,List2A,black,man,,,,,"{""Q0"":"" mike is being looked at by dave""}","<img src=""stim_listA/look6.gif""style=""height:400px;""></stim_listA>",is being looked at by,,,,,,
null,"<div style=""font-size:60px;"">+</div>",,html-keyboard-response,364,3429731,0.0-19.0-0.5,67363,List2A,black,man,,,,null,,,,,,,,,
null,"<img src=""stim_listA/seduce1.gif""style=""height:400px;""></stim_listA>",,html-keyboard-response,365,3431743,0.0-19.0-1.5,67363,List2A,black,man,,,,null,,,,,,,,,
null,is seducing,,html-keyboard-response,366,3433746,0.0-19.0-2.5,67363,List2A,black,man,,,,null,,,,,,,,,
8957.2,,,survey-text,367,3442709,0.0-19.0-3.5,67363,List2A,black,man,,,,,"{""Q0"":""luke is seducing jane""}","<img src=""stim_listA/seduce1.gif""style=""height:400px;""></stim_listA>",is seducing,,,,,,
null,"<div style=""font-size:60px;"">+</div>",,html-keyboard-response,368,3443217,0.0-19.0-0.6,67363,List2A,black,man,,,,null,,,,,,,,,
null,"<img src=""stim_listA/copy3.gif""style=""height:400px;""></stim_listA>",,html-keyboard-response,369,3445231,0.0-19.0-1.6,67363,List2A,black,man,,,,null,,,,,,,,,
null,is copying,,html-keyboard-response,370,3447244,0.0-19.0-2.6,67363,List2A,black,man,,,,null,,,,,,,,,
6424.4,,,survey-text,371,3453674,0.0-19.0-3.6,67363,List2A,black,man,,,,,"{""Q0"":""mike is copying beth""}","<img src=""stim_listA/copy3.gif""style=""height:400px;""></stim_listA>",is copying,,,,,,
null,"<div style=""font-size:60px;"">+</div>",,html-keyboard-response,372,3454189,0.0-19.0-0.7,67363,List2A,black,man,,,,null,,,,,,,,,
null,"<img src=""stim_listA/touch2.gif""style=""height:400px;""></stim_listA>",,html-keyboard-response,373,3456203,0.0-19.0-1.7,67363,List2A,black,man,,,,null,,,,,,,,,
null,is being touched by,,html-keyboard-response,374,3458220,0.0-19.0-2.7,67363,List2A,black,man,,,,null,,,,,,,,,
12854.3,,,survey-text,375,3471079,0.0-19.0-3.7,67363,List2A,black,man,,,,,"{""Q0"":""luke is being touched by ruth""}","<img src=""stim_listA/touch2.gif""style=""height:400px;""></stim_listA>",is being touched by,,,,,,
null,"<div style=""font-size:60px;"">+</div>",,html-keyboard-response,376,3471585,0.0-19.0-0.8,67363,List2A,black,man,,,,null,,,,,,,,,
null,"<img src=""stim_listA/hug2.gif""style=""height:400px;""></stim_listA>",,html-keyboard-response,377,3473595,0.0-19.0-1.8,67363,List2A,black,man,,,,null,,,,,,,,,
null,is being hugged by,,html-keyboard-response,378,3475605,0.0-19.0-2.8,67363,List2A,black,man,,,,null,,,,,,,,,
11332.5,,,survey-text,379,3486942,0.0-19.0-3.8,67363,List2A,black,man,,,,,"{""Q0"":""jane is being hugged by dave""}","<img src=""stim_listA/hug2.gif""style=""height:400px;""></stim_listA>",is being hugged by,,,,,,
null,"<div style=""font-size:60px;"">+</div>",,html-keyboard-response,380,3487450,0.0-19.0-0.9,67363,List2A,black,man,,,,null,,,,,,,,,
null,"<img src=""stim_listA/greet1.gif""style=""height:400px;""></stim_listA>",,html-keyboard-response,381,3489455,0.0-19.0-1.9,67363,List2A,black,man,,,,null,,,,,,,,,
null,is greeting,,html-keyboard-response,382,3491459,0.0-19.0-2.9,67363,List2A,black,man,,,,null,,,,,,,,,
16124,,,survey-text,383,3507589,0.0-19.0-3.9,67363,List2A,black,man,,,,,"{""Q0"":""dave is greeting ruth""}","<img src=""stim_listA/greet1.gif""style=""height:400px;""></stim_listA>",is greeting,,,,,,
null,"<div style=""font-size:60px;"">+</div>",,html-keyboard-response,384,3508102,0.0-19.0-0.10,67363,List2A,black,man,,,,null,,,,,,,,,
null,"<img src=""stim_listA/look7.gif""style=""height:400px;""></stim_listA>",,html-keyboard-response,385,3510118,0.0-19.0-1.10,67363,List2A,black,man,,,,null,,,,,,,,,
null,is looking at,,html-keyboard-response,386,3512127,0.0-19.0-2.10,67363,List2A,black,man,,,,null,,,,,,,,,
8428.6,,,survey-text,387,3520566,0.0-19.0-3.10,67363,List2A,black,man,,,,,"{""Q0"":""beth is looking at ruth""}","<img src=""stim_listA/look7.gif""style=""height:400px;""></stim_listA>",is looking at,,,,,,
null,"<div style=""font-size:60px;"">+</div>",,html-keyboard-response,388,3521074,0.0-19.0-0.11,67363,List2A,black,man,,,,null,,,,,,,,,
null,"<img src=""stim_listA/hug7.gif""style=""height:400px;""></stim_listA>",,html-keyboard-response,389,3523088,0.0-19.0-1.11,67363,List2A,black,man,,,,null,,,,,,,,,
null,is hugging,,html-keyboard-response,390,3525103,0.0-19.0-2.11,67363,List2A,black,man,,,,null,,,,,,,,,
8071,,,survey-text,391,3533179,0.0-19.0-3.11,67363,List2A,black,man,,,,,"{""Q0"":""ruth is hugging beth""}","<img src=""stim_listA/hug7.gif""style=""height:400px;""></stim_listA>",is hugging,,,,,,
null,"<div style=""font-size:60px;"">+</div>",,html-keyboard-response,392,3533694,0.0-19.0-0.12,67363,List2A,black,man,,,,null,,,,,,,,,
null,"<img src=""stim_listA/oppose4.gif""style=""height:400px;""></stim_listA>",,html-keyboard-response,393,3535706,0.0-19.0-1.12,67363,List2A,black,man,,,,null,,,,,,,,,
null,is being opposed by,,html-keyboard-response,394,3537709,0.0-19.0-2.12,67363,List2A,black,man,,,,null,,,,,,,,,
10381.8,,,survey-text,395,3548097,0.0-19.0-3.12,67363,List2A,black,man,,,,,"{""Q0"":""beth is being opposed by fred ""}","<img src=""stim_listA/oppose4.gif""style=""height:400px;""></stim_listA>",is being opposed by,,,,,,
null,"<div style=""font-size:60px;"">+</div>",,html-keyboard-response,396,3548613,0.0-19.0-0.13,67363,List2A,black,man,,,,null,,,,,,,,,
null,"<img src=""stim_listA/touch5.gif""style=""height:400px;""></stim_listA>",,html-keyboard-response,397,3550628,0.0-19.0-1.13,67363,List2A,black,man,,,,null,,,,,,,,,
null,is touching,,html-keyboard-response,398,3552642,0.0-19.0-2.13,67363,List2A,black,man,,,,null,,,,,,,,,
8760.1,,,survey-text,399,3561408,0.0-19.0-3.13,67363,List2A,black,man,,,,,"{""Q0"":""dave is touching mike""}","<img src=""stim_listA/touch5.gif""style=""height:400px;""></stim_listA>",is touching,,,,,,
null,"<div style=""font-size:60px;"">+</div>",,html-keyboard-response,400,3561916,0.0-19.0-0.14,67363,List2A,black,man,,,,null,,,,,,,,,
null,"<img src=""stim_listA/hug4.gif""style=""height:400px;""></stim_listA>",,html-keyboard-response,401,3563931,0.0-19.0-1.14,67363,List2A,black,man,,,,null,,,,,,,,,
null,is being hugged by,,html-keyboard-response,402,3565938,0.0-19.0-2.14,67363,List2A,black,man,,,,null,,,,,,,,,
19990.9,,,survey-text,403,3585935,0.0-19.0-3.14,67363,List2A,black,man,,,,,"{""Q0"":""mike is being hugged by kate""}","<img src=""stim_listA/hug4.gif""style=""height:400px;""></stim_listA>",is being hugged by,,,,,,
null,"<div style=""font-size:60px;"">+</div>",,html-keyboard-response,404,3586443,0.0-19.0-0.15,67363,List2A,black,man,,,,null,,,,,,,,,
null,"<img src=""stim_listA/look5.gif""style=""height:400px;""></stim_listA>",,html-keyboard-response,405,3588458,0.0-19.0-1.15,67363,List2A,black,man,,,,null,,,,,,,,,
null,is looking at,,html-keyboard-response,406,3590471,0.0-19.0-2.15,67363,List2A,black,man,,,,null,,,,,,,,,
7432.9,,,survey-text,407,3597910,0.0-19.0-3.15,67363,List2A,black,man,,,,,"{""Q0"":""luke is looking at fred""}","<img src=""stim_listA/look5.gif""style=""height:400px;""></stim_listA>",is looking at,,,,,,
null,"<div style=""font-size:60px;"">+</div>",,html-keyboard-response,408,3598414,0.0-19.0-0.16,67363,List2A,black,man,,,,null,,,,,,,,,
null,"<img src=""stim_listA/kiss3.gif""style=""height:400px;""></stim_listA>",,html-keyboard-response,409,3600430,0.0-19.0-1.16,67363,List2A,black,man,,,,null,,,,,,,,,
null,is kissing,,html-keyboard-response,410,3602440,0.0-19.0-2.16,67363,List2A,black,man,,,,null,,,,,,,,,
8642.2,,,survey-text,411,3611088,0.0-19.0-3.16,67363,List2A,black,man,,,,,"{""Q0"":""fred is kissing beth""}","<img src=""stim_listA/kiss3.gif""style=""height:400px;""></stim_listA>",is kissing,,,,,,
null,"<div style=""font-size:60px;"">+</div>",,html-keyboard-response,412,3611601,0.0-19.0-0.17,67363,List2A,black,man,,,,null,,,,,,,,,
null,"<img src=""stim_listA/hug8.gif""style=""height:400px;""></stim_listA>",,html-keyboard-response,413,3613616,0.0-19.0-1.17,67363,List2A,black,man,,,,null,,,,,,,,,
null,is being hugged by,,html-keyboard-response,414,3615619,0.0-19.0-2.17,67363,List2A,black,man,,,,null,,,,,,,,,
39021.2,,,survey-text,415,3654646,0.0-19.0-3.17,67363,List2A,black,man,,,,,"{""Q0"":""kate is being hugged by jane""}","<img src=""stim_listA/hug8.gif""style=""height:400px;""></stim_listA>",is being hugged by,,,,,,
null,"<div style=""font-size:60px;"">+</div>",,html-keyboard-response,416,3655158,0.0-19.0-0.18,67363,List2A,black,man,,,,null,,,,,,,,,
null,"<img src=""stim_listA/oppose2.gif""style=""height:400px;""></stim_listA>",,html-keyboard-response,417,3657174,0.0-19.0-1.18,67363,List2A,black,man,,,,null,,,,,,,,,
null,is being opposed by,,html-keyboard-response,418,3659176,0.0-19.0-2.18,67363,List2A,black,man,,,,null,,,,,,,,,
10553.3,,,survey-text,419,3669735,0.0-19.0-3.18,67363,List2A,black,man,,,,,"{""Q0"":""luke is being opposed by ruth""}","<img src=""stim_listA/oppose2.gif""style=""height:400px;""></stim_listA>",is being opposed by,,,,,,
null,"<div style=""font-size:60px;"">+</div>",,html-keyboard-response,420,3670244,0.0-19.0-0.19,67363,List2A,black,man,,,,null,,,,,,,,,
null,"<img src=""stim_listA/copy1.gif""style=""height:400px;""></stim_listA>",,html-keyboard-response,421,3672260,0.0-19.0-1.19,67363,List2A,black,man,,,,null,,,,,,,,,
null,is copying,,html-keyboard-response,422,3674270,0.0-19.0-2.19,67363,List2A,black,man,,,,null,,,,,,,,,
6958.1,,,survey-text,423,3681234,0.0-19.0-3.19,67363,List2A,black,man,,,,,"{""Q0"":""ruth is copying dave""}","<img src=""stim_listA/copy1.gif""style=""height:400px;""></stim_listA>",is copying,,,,,,
1844.8,<p>Thank you for completing that task.</p><p>The final part of this session is a questionnaire that will take about 4 minutes.</p><p>Press Continue.</p>,0,html-button-response,424,3683082,0.0-20.0,67363,List2A,black,man,,,,,,,,,,,,,
48150.5,,,survey-text,425,3732258,0.0-21.0,67363,List2A,black,man,,,,,"{""Q0"":""28"",""Q1"":""english"",""Q2"":""english"",""Q3"":""America "",""Q4"":""American"",""Q5"":""Black"",""Q6"":""male""}",,,demographics,,,,,
6639.7,<p>Have you lived in the USA for the last 5 years or more?</p>,0,html-button-response,426,3738905,0.0-22.0,67363,List2A,black,man,,,,,,,,fiveyears,,,,,
6804.1,<p>Move the slider to show the extent to which you agree with the following statements.</p>,0,html-button-response,427,3746718,0.0-23.0,67363,List2A,black,man,,,,,,,,,,,,,
6675.3,,,html-slider-response,428,3754452,0.0-24.0-0.0-0.0,67363,List2A,black,man,,,,,,,,survey_gender,39,,,Routine is not important to me.,filler
2888.3,,,html-slider-response,429,3757345,0.0-24.0-0.0-0.1,67363,List2A,black,man,,,,,,,,survey_gender,79,,,I feel solidarity with my gender.,solidarity
8076.3,,,html-slider-response,430,3765425,0.0-24.0-0.0-0.2,67363,List2A,black,man,,,,,,,,survey_gender,16,,,Family is not more important to me than friendship.,filler
3413.9,,,html-slider-response,431,3768844,0.0-24.0-0.0-0.3,67363,List2A,black,man,,,,,,,,survey_gender,71,,,I feel committed to my gender.,committed
23792.6,,,html-slider-response,432,3792641,0.0-24.0-0.0-0.4,67363,List2A,black,man,,,,,,,,survey_gender,61,,,I am glad to be my gender.,glad
3289.7,,,html-slider-response,433,3795937,0.0-24.0-0.0-0.5,67363,List2A,black,man,,,,,,,,survey_gender,68,,,I often think about my actions.,filler
2702.9,,,html-slider-response,434,3798643,0.0-24.0-0.0-0.6,67363,List2A,black,man,,,,,,,,survey_gender,52,,,People of my gender have a lot in common with each other.,common
3122.5,,,html-slider-response,435,3801769,0.0-24.0-0.0-0.7,67363,List2A,black,man,,,,,,,,survey_gender,62,,,I would say I am an animal person.,filler
1884.4,,,html-slider-response,436,3803658,0.0-24.0-0.0-0.8,67363,List2A,black,man,,,,,,,,survey_gender,51,,,People of my gender are very similar to each other.,verysimilar
5663.6,,,html-slider-response,437,3809325,0.0-24.0-0.0-0.9,67363,List2A,black,man,,,,,,,,survey_gender,51,,,I have a lot in common with the average person of my gender.,average
2192.6,,,html-slider-response,438,3811520,0.0-24.0-0.0-0.10,67363,List2A,black,man,,,,,,,,survey_gender,51,,,I feel a bond with my gender.,bond
2585.5,,,html-slider-response,439,3814109,0.0-24.0-0.0-0.11,67363,List2A,black,man,,,,,,,,survey_gender,51,,,Being around my friends gives me a good feeling.,filler
2256.4,,,html-slider-response,440,3816369,0.0-24.0-0.0-0.12,67363,List2A,black,man,,,,,,,,survey_gender,53,,,I feel solidarity with my friends.,filler
3690.3,,,html-slider-response,441,3820063,0.0-24.0-0.0-0.13,67363,List2A,black,man,,,,,,,,survey_gender,53,,,The fact that I am my gender is an important part of my identity.,identity
1776.4,,,html-slider-response,442,3821845,0.0-24.0-0.0-0.14,67363,List2A,black,man,,,,,,,,survey_gender,53,,,Being my gender gives me a good feeling.,feeling
2182.8,,,html-slider-response,443,3824032,0.0-24.0-0.0-0.15,67363,List2A,black,man,,,,,,,,survey_gender,54,,,I am glad to have the friends that I have.,filler
1845.1,,,html-slider-response,444,3825881,0.0-24.0-0.0-0.16,67363,List2A,black,man,,,,,,,,survey_gender,52,,,I have a lot in common with my friends.,filler
1941.6,,,html-slider-response,445,3827826,0.0-24.0-0.0-0.17,67363,List2A,black,man,,,,,,,,survey_gender,52,,,I think that my gender has a lot to be proud of.,proud
1528.4,,,html-slider-response,446,3829358,0.0-24.0-0.0-0.18,67363,List2A,black,man,,,,,,,,survey_gender,52,,,I consider myself a highly empathetic person.,filler
1828,,,html-slider-response,447,3831190,0.0-24.0-0.0-0.19,67363,List2A,black,man,,,,,,,,survey_gender,52,,,I am similar to the average person of my gender.,similar
1887.2,,,html-slider-response,448,3833081,0.0-24.0-0.0-0.20,67363,List2A,black,man,,,,,,,,survey_gender,52,,,Being my gender is an important part of how I see myself.,important
3268,,,html-slider-response,449,3836352,0.0-24.0-0.0-0.21,67363,List2A,black,man,,,,,,,,survey_gender,52,,,I often think about the fact that I am my gender.,often
2448.3,,,html-slider-response,450,3838802,0.0-24.0-0.0-0.22,67363,List2A,black,man,,,,,,,,survey_gender,63,,,I feel a bond with my friends.,filler
6024.1,,,html-slider-response,451,3844830,0.0-24.0-0.0-0.23,67363,List2A,black,man,,,,,,,,survey_gender,48,,,It is not always easy for people to know what I am thinking.,filler
1668,,,html-slider-response,452,3846503,0.0-24.0-0.0-0.24,67363,List2A,black,man,,,,,,,,survey_gender,52,,,It is pleasant to be my gender.,pleasant
1801,,,html-slider-response,453,3848308,0.0-24.0-0.0-0.25,67363,List2A,black,man,,,,,,,,survey_gender,52,,,Most of the friends in my life are very similar to me.,filler
1588.9,,,html-slider-response,454,3849900,0.0-24.0-0.0-0.26,67363,List2A,black,man,,,,,,,,survey_gender,53,,,My friends have a lot in common with each other.,filler
2159.5,,,html-slider-response,455,3852063,0.0-24.0-0.0-0.27,67363,List2A,black,man,,,,,,,,survey_gender,59,,,My friends understand me.,filler
3028.6,,,html-slider-response,456,3855095,0.0-24.0-1.0-0.0,67363,List2A,black,man,,,,,,,,survey_race,61,,,I consider myself an extrovert.,filler
2094.1,,,html-slider-response,457,3857195,0.0-24.0-1.0-0.1,67363,List2A,black,man,,,,,,,,survey_race,51,,,I am similar to the average person of my race.,similar
3161,,,html-slider-response,458,3860359,0.0-24.0-1.0-0.2,67363,List2A,black,man,,,,,,,,survey_race,47,,,Getting older does not worry me.,filler
2487.2,,,html-slider-response,459,3862850,0.0-24.0-1.0-0.3,67363,List2A,black,man,,,,,,,,survey_race,67,,,I feel committed to my race.,committed
1842,,,html-slider-response,460,3864696,0.0-24.0-1.0-0.4,67363,List2A,black,man,,,,,,,,survey_race,57,,,I feel solidarity with people the same age as me.,filler
4131.2,,,html-slider-response,461,3868831,0.0-24.0-1.0-0.5,67363,List2A,black,man,,,,,,,,survey_race,43,,,My age is not an important part of who I am.,filler
2928.3,,,html-slider-response,462,3871764,0.0-24.0-1.0-0.6,67363,List2A,black,man,,,,,,,,survey_race,63,,,People of my race are very similar to each other.,verysimilar
5726.6,,,html-slider-response,463,3877496,0.0-24.0-1.0-0.7,67363,List2A,black,man,,,,,,,,survey_race,100,,,I feel a bond with my race.,bond
5242.4,,,html-slider-response,464,3882744,0.0-24.0-1.0-0.8,67363,List2A,black,man,,,,,,,,survey_race,61,,,I often think about the fact that I am my age.,filler
3117.7,,,html-slider-response,465,3885869,0.0-24.0-1.0-0.9,67363,List2A,black,man,,,,,,,,survey_race,57,,,I have a lot in common with people of a similar age to me.,filler
3518.4,,,html-slider-response,466,3889394,0.0-24.0-1.0-0.10,67363,List2A,black,man,,,,,,,,survey_race,100,,,People of my race have a lot in common with each other.,common
4038.1,,,html-slider-response,467,3893437,0.0-24.0-1.0-0.11,67363,List2A,black,man,,,,,,,,survey_race,58,,,People my age have a lot in common with each other.,filler
3989.4,,,html-slider-response,468,3897432,0.0-24.0-1.0-0.12,67363,List2A,black,man,,,,,,,,survey_race,39,,,I enjoy being in large groups.,filler
3984.3,,,html-slider-response,469,3901421,0.0-24.0-1.0-0.13,67363,List2A,black,man,,,,,,,,survey_race,98,,,The fact that I am my race is an important part of my identity.,identity
5242.5,,,html-slider-response,470,3906669,0.0-24.0-1.0-0.14,67363,List2A,black,man,,,,,,,,survey_race,61,,,Being my race gives me a good feeling.,feeling
3665.5,,,html-slider-response,471,3910339,0.0-24.0-1.0-0.15,67363,List2A,black,man,,,,,,,,survey_race,56,,,I am glad to be the age I am.,filler
3007.7,,,html-slider-response,472,3913352,0.0-24.0-1.0-0.16,67363,List2A,black,man,,,,,,,,survey_race,56,,,Being my race is an important part of how I see myself.,important
4494.8,,,html-slider-response,473,3917852,0.0-24.0-1.0-0.17,67363,List2A,black,man,,,,,,,,survey_race,46,,,Being my age gives me a good feeling.,filler
129310.9,,,html-slider-response,474,4047167,0.0-24.0-1.0-0.18,67363,List2A,black,man,,,,,,,,survey_race,51,,,I consider myself an introvert.,filler
2460.6,,,html-slider-response,475,4049634,0.0-24.0-1.0-0.19,67363,List2A,black,man,,,,,,,,survey_race,59,,,I am glad to be my race.,glad
3202.8,,,html-slider-response,476,4052840,0.0-24.0-1.0-0.20,67363,List2A,black,man,,,,,,,,survey_race,66,,,I often think about the fact that I am my race.,often
31963.2,,,html-slider-response,477,4084807,0.0-24.0-1.0-0.21,67363,List2A,black,man,,,,,,,,survey_race,51,,,I am glad to be my age.,filler
2834.8,,,html-slider-response,478,4087647,0.0-24.0-1.0-0.22,67363,List2A,black,man,,,,,,,,survey_race,68,,,I think that my race has a lot to be proud of.,proud
1652.9,,,html-slider-response,479,4089304,0.0-24.0-1.0-0.23,67363,List2A,black,man,,,,,,,,survey_race,51,,,I feel a bond with people the same age as me.,filler
3018.7,,,html-slider-response,480,4092327,0.0-24.0-1.0-0.24,67363,List2A,black,man,,,,,,,,survey_race,76,,,It is pleasant to be my race.,pleasant
3782.1,,,html-slider-response,481,4096113,0.0-24.0-1.0-0.25,67363,List2A,black,man,,,,,,,,survey_race,79,,,I feel solidarity with my race.,solidarity
3217.5,,,html-slider-response,482,4099334,0.0-24.0-1.0-0.26,67363,List2A,black,man,,,,,,,,survey_race,75,,,I have a lot in common with the average person of my race.,average
1813,,,html-slider-response,483,4101149,0.0-24.0-1.0-0.27,67363,List2A,black,man,,,,,,,,survey_race,51,,,"The older I get, the wiser I feel.",filler
7568.5,,,survey-text,484,4108727,0.0-25.0,67363,List2A,black,man,,,,,"{""Q0"":""ccc""}",,,worker_id,,,,,
2806.1,,,external-html,485,4113117,0.0-26.0,67363,List2A,black,man,debrief.html,,,,,,,,,,,,
