rt,stimulus,button_pressed,trial_type,trial_index,time_elapsed,internal_node_id,subject,list,ppt_race,ppt_gender,url,first_guess,correct,key_press,responses,image_type,phrase_type,test_part,response,stimulus1,stimulus2,question_type,survey_item
198872.4,Welcome to the experiment. Press Continue to begin.,0,html-button-response,0,198937,0.0-0.0,67440,List2B,black,woman,,,,,,,,,,,,,
15602.7,,,external-html,1,218449,0.0-1.0,67440,List2B,black,woman,consent.html,,,,,,,,,,,,
19627.7,"<p>On the next page, you will see portraits of 8 people and their names.</p><p>Your first task is to take a few minutes to memorise the names of these people.</p><p>You will have to recall their names during the rest of the experiment, so it is</p><p>essential that you try to memorise these people and their names as best as you can.</p><br><p><strong>You will then be tested on your memory of these names and portraits.</strong></p><br><p>The experiment will start after you have completed this memory test.</p><br><p>Ready?</p>",0,html-button-response,2,238080,0.0-2.0,67440,List2B,black,woman,,,,,,,,,,,,,
39610.3,"<img src='img/portrait_matrix_list2.jpg' style='width:900px;height:500px;''></img><p>If you have memorised all the portraits and names and are ready to start, press Continue.</p><p><strong>Please note: Your memory of these faces will be tested 4 times during this experiment.</strong></p>",0,html-button-response,3,278705,0.0-3.0-0.0,67440,List2B,black,woman,,,,,,,,,,,,,
7513.1,"<img src=""portrait/WW2.jpg""style=""height:400px;""></img>",3,html-button-response,4,287226,0.0-3.0-1.0,67440,List2B,black,woman,,TRUE,3,,,,,,,,,,
null,CORRECT,,html-keyboard-response,5,288737,0.0-3.0-2.0-0.0,67440,List2B,black,woman,,,,null,,,,,,,,,
10717.5,"<img src=""portrait/BW1.jpg""style=""height:400px;""></img>",0,html-button-response,6,299458,0.0-3.0-4.0,67440,List2B,black,woman,,TRUE,0,,,,,,,,,,
null,CORRECT,,html-keyboard-response,7,300983,0.0-3.0-5.0-0.0,67440,List2B,black,woman,,,,null,,,,,,,,,
12207.1,"<img src=""portrait/WW1.jpg""style=""height:400px;""></img>",1,html-button-response,8,313193,0.0-3.0-7.0,67440,List2B,black,woman,,TRUE,1,,,,,,,,,,
null,CORRECT,,html-keyboard-response,9,314714,0.0-3.0-8.0-0.0,67440,List2B,black,woman,,,,null,,,,,,,,,
9060.8,"<img src=""portrait/BW2.jpg""style=""height:400px;""></img>",2,html-button-response,10,323777,0.0-3.0-10.0,67440,List2B,black,woman,,TRUE,2,,,,,,,,,,
null,CORRECT,,html-keyboard-response,11,325287,0.0-3.0-11.0-0.0,67440,List2B,black,woman,,,,null,,,,,,,,,
6038.9,"<img src=""portrait/BM1.jpg""style=""height:400px;""></img>",4,html-button-response,12,331328,0.0-3.0-13.0,67440,List2B,black,woman,,TRUE,4,,,,,,,,,,
null,CORRECT,,html-keyboard-response,13,332839,0.0-3.0-14.0-0.0,67440,List2B,black,woman,,,,null,,,,,,,,,
8423,"<img src=""portrait/WM2.jpg""style=""height:400px;""></img>",7,html-button-response,14,341264,0.0-3.0-16.0,67440,List2B,black,woman,,TRUE,7,,,,,,,,,,
null,CORRECT,,html-keyboard-response,15,342779,0.0-3.0-17.0-0.0,67440,List2B,black,woman,,,,null,,,,,,,,,
12499.4,"<img src=""portrait/BM2.jpg""style=""height:400px;""></img>",5,html-button-response,16,355281,0.0-3.0-19.0,67440,List2B,black,woman,,TRUE,5,,,,,,,,,,
null,CORRECT,,html-keyboard-response,17,356787,0.0-3.0-20.0-0.0,67440,List2B,black,woman,,,,null,,,,,,,,,
4195.4,"<img src=""portrait/WM1.jpg""style=""height:400px;""></img>",6,html-button-response,18,360984,0.0-3.0-22.0,67440,List2B,black,woman,,TRUE,6,,,,,,,,,,
null,CORRECT,,html-keyboard-response,19,362489,0.0-3.0-23.0-0.0,67440,List2B,black,woman,,,,null,,,,,,,,,
3060.7,<p>You got 8 out of 8 right first time. Press Continue.</p>,0,html-button-response,20,365552,0.0-3.0-25.0,67440,List2B,black,woman,,,,,,,,,,,,,
46625.7,"<p>In this experiment, you will view photographs of the people from the memory game interacting.</p><p>By using the <strong>exact</strong> phrase given <i>after</i> the photograph appears and recalling the correct names of the people in the photographs, form a sentence describing the interaction. You do not need to capitalise names.</p><p>Type your answer in the space provided. Please complete every sentence before moving onto the next trial.</p><p>You will only have a few seconds to memorise each given photograph and phrase before you can respond, so try your best to focus.</p><p>An example is given below. Press 'Continue' when you are ready.</p><img src='img/speaking_example.jpg' style='width:800px;height:460px;''></img>",0,html-button-response,21,413184,0.0-4.0,67440,List2B,black,woman,,,,,,,,,,,,,
4093.4,"<p>Before the experiment starts, you will watch two example trials. Press 'Continue'.</p>",0,html-button-response,22,418288,0.0-5.0,67440,List2B,black,woman,,,,,,,,,,,,,
null,<img src='img/play_eg.gif' style='height:400px;''></img>,,html-keyboard-response,23,421304,0.0-6.0,67440,List2B,black,woman,,,,null,,,,,,,,,
null,<p>is playing with</p>,,html-keyboard-response,24,423305,0.0-7.0,67440,List2B,black,woman,,,,null,,,,,,,,,
11813.8,<p><b>Answer:</b> jane is playing with ruth</p>,0,html-button-response,25,435120,0.0-8.0,67440,List2B,black,woman,,,,,,,,,,,,,
null,<img src='img/dance_eg.gif' style='height:400px;''></img>,,html-keyboard-response,26,438132,0.0-9.0,67440,List2B,black,woman,,,,null,,,,,,,,,
null,<p>is being entertained by</p>,,html-keyboard-response,27,440138,0.0-10.0,67440,List2B,black,woman,,,,null,,,,,,,,,
3132.7,<p><b>Answer:</b> fred is being entertained by mike</p>,0,html-button-response,28,443272,0.0-11.0,67440,List2B,black,woman,,,,,,,,,,,,,
13629,"<p>Ready to start the experiment?</p><br><p><strong>Remember to describe the picture using a full sentence,</strong></p><p><strong>that combines the names of the people with the <i>exact</i> phrase given.</strong></p><p><strong>To receive full payment you must do this correctly.</strong></p><p><strong> You do not need to capitalise names or use punctuation.</strong></p><br><p>Press 'Continue' to begin.</p>",0,html-button-response,29,457904,0.0-12.0,67440,List2B,black,woman,,,,,,,,,,,,,
null,"<div style=""font-size:60px;"">+</div>",,html-keyboard-response,30,459432,0.0-13.0-0.0,67440,List2B,black,woman,,,,null,,,,,,,,,
null,"<img src=""stim_listB/kiss4.gif""style=""height:400px;""></stim_listB>",,html-keyboard-response,31,461436,0.0-13.0-1.0,67440,List2B,black,woman,,,,null,,,,,,,,,
null,is being kissed by,,html-keyboard-response,32,463438,0.0-13.0-2.0,67440,List2B,black,woman,,,,null,,,,,,,,,
37447.1,,,survey-text,33,500889,0.0-13.0-3.0,67440,List2B,black,woman,,,,,"{""Q0"":""mike is being kissed by Kate""}","<img src=""stim_listB/kiss4.gif""style=""height:400px;""></stim_listB>",is being kissed by,,,,,,
null,"<div style=""font-size:60px;"">+</div>",,html-keyboard-response,34,501408,0.0-13.0-0.1,67440,List2B,black,woman,,,,null,,,,,,,,,
null,"<img src=""stim_listB/seduce4.gif""style=""height:400px;""></stim_listB>",,html-keyboard-response,35,503410,0.0-13.0-1.1,67440,List2B,black,woman,,,,null,,,,,,,,,
null,is being seduced by,,html-keyboard-response,36,505424,0.0-13.0-2.1,67440,List2B,black,woman,,,,null,,,,,,,,,
39348.1,,,survey-text,37,544777,0.0-13.0-3.1,67440,List2B,black,woman,,,,,"{""Q0"":""Beth is ""}","<img src=""stim_listB/seduce4.gif""style=""height:400px;""></stim_listB>",is being seduced by,,,,,,
null,"<div style=""font-size:60px;"">+</div>",,html-keyboard-response,38,545291,0.0-13.0-0.2,67440,List2B,black,woman,,,,null,,,,,,,,,
null,"<img src=""stim_listB/greet8.gif""style=""height:400px;""></stim_listB>",,html-keyboard-response,39,547294,0.0-13.0-1.2,67440,List2B,black,woman,,,,null,,,,,,,,,
null,is being greeted by,,html-keyboard-response,40,549296,0.0-13.0-2.2,67440,List2B,black,woman,,,,null,,,,,,,,,
21749.1,,,survey-text,41,571049,0.0-13.0-3.2,67440,List2B,black,woman,,,,,"{""Q0"":""kate is being greeted by ruth""}","<img src=""stim_listB/greet8.gif""style=""height:400px;""></stim_listB>",is being greeted by,,,,,,
null,"<div style=""font-size:60px;"">+</div>",,html-keyboard-response,42,571557,0.0-13.0-0.3,67440,List2B,black,woman,,,,null,,,,,,,,,
null,"<img src=""stim_listB/look3.gif""style=""height:400px;""></stim_listB>",,html-keyboard-response,43,573562,0.0-13.0-1.3,67440,List2B,black,woman,,,,null,,,,,,,,,
null,is looking at,,html-keyboard-response,44,575564,0.0-13.0-2.3,67440,List2B,black,woman,,,,null,,,,,,,,,
16129.1,,,survey-text,45,591697,0.0-13.0-3.3,67440,List2B,black,woman,,,,,"{""Q0"":""beth is looking at fred""}","<img src=""stim_listB/look3.gif""style=""height:400px;""></stim_listB>",is looking at,,,,,,
null,"<div style=""font-size:60px;"">+</div>",,html-keyboard-response,46,592206,0.0-13.0-0.4,67440,List2B,black,woman,,,,null,,,,,,,,,
null,"<img src=""stim_listB/shout5.gif""style=""height:400px;""></stim_listB>",,html-keyboard-response,47,594223,0.0-13.0-1.4,67440,List2B,black,woman,,,,null,,,,,,,,,
null,is shouting at,,html-keyboard-response,48,596225,0.0-13.0-2.4,67440,List2B,black,woman,,,,null,,,,,,,,,
36077.1,,,survey-text,49,632305,0.0-13.0-3.4,67440,List2B,black,woman,,,,,"{""Q0"":""luke is shouting at fred""}","<img src=""stim_listB/shout5.gif""style=""height:400px;""></stim_listB>",is shouting at,,,,,,
null,"<div style=""font-size:60px;"">+</div>",,html-keyboard-response,50,632808,0.0-13.0-0.5,67440,List2B,black,woman,,,,null,,,,,,,,,
null,"<img src=""stim_listB/oppose4.gif""style=""height:400px;""></stim_listB>",,html-keyboard-response,51,634812,0.0-13.0-1.5,67440,List2B,black,woman,,,,null,,,,,,,,,
null,is being opposed by,,html-keyboard-response,52,636828,0.0-13.0-2.5,67440,List2B,black,woman,,,,null,,,,,,,,,
17913,,,survey-text,53,654745,0.0-13.0-3.5,67440,List2B,black,woman,,,,,"{""Q0"":""beth is being opposed by fred""}","<img src=""stim_listB/oppose4.gif""style=""height:400px;""></stim_listB>",is being opposed by,,,,,,
null,"<div style=""font-size:60px;"">+</div>",,html-keyboard-response,54,655252,0.0-13.0-0.6,67440,List2B,black,woman,,,,null,,,,,,,,,
null,"<img src=""stim_listB/copy1.gif""style=""height:400px;""></stim_listB>",,html-keyboard-response,55,657256,0.0-13.0-1.6,67440,List2B,black,woman,,,,null,,,,,,,,,
null,is copying,,html-keyboard-response,56,659258,0.0-13.0-2.6,67440,List2B,black,woman,,,,null,,,,,,,,,
23403.3,,,survey-text,57,682664,0.0-13.0-3.6,67440,List2B,black,woman,,,,,"{""Q0"":""ruth is being copied by Dave""}","<img src=""stim_listB/copy1.gif""style=""height:400px;""></stim_listB>",is copying,,,,,,
null,"<div style=""font-size:60px;"">+</div>",,html-keyboard-response,58,683173,0.0-13.0-0.7,67440,List2B,black,woman,,,,null,,,,,,,,,
null,"<img src=""stim_listB/shout6.gif""style=""height:400px;""></stim_listB>",,html-keyboard-response,59,685176,0.0-13.0-1.7,67440,List2B,black,woman,,,,null,,,,,,,,,
null,is being shouted at by,,html-keyboard-response,60,687178,0.0-13.0-2.7,67440,List2B,black,woman,,,,null,,,,,,,,,
25298.8,,,survey-text,61,712481,0.0-13.0-3.7,67440,List2B,black,woman,,,,,"{""Q0"":""Mike is being shouted at by Dave""}","<img src=""stim_listB/shout6.gif""style=""height:400px;""></stim_listB>",is being shouted at by,,,,,,
null,"<div style=""font-size:60px;"">+</div>",,html-keyboard-response,62,712986,0.0-13.0-0.8,67440,List2B,black,woman,,,,null,,,,,,,,,
null,"<img src=""stim_listB/copy5.gif""style=""height:400px;""></stim_listB>",,html-keyboard-response,63,714988,0.0-13.0-1.8,67440,List2B,black,woman,,,,null,,,,,,,,,
null,is copying,,html-keyboard-response,64,716989,0.0-13.0-2.8,67440,List2B,black,woman,,,,null,,,,,,,,,
13705.2,,,survey-text,65,730699,0.0-13.0-3.8,67440,List2B,black,woman,,,,,"{""Q0"":""fred is copying Dave""}","<img src=""stim_listB/copy5.gif""style=""height:400px;""></stim_listB>",is copying,,,,,,
null,"<div style=""font-size:60px;"">+</div>",,html-keyboard-response,66,731206,0.0-13.0-0.9,67440,List2B,black,woman,,,,null,,,,,,,,,
null,"<img src=""stim_listB/seduce7.gif""style=""height:400px;""></stim_listB>",,html-keyboard-response,67,733210,0.0-13.0-1.9,67440,List2B,black,woman,,,,null,,,,,,,,,
null,is seducing,,html-keyboard-response,68,735215,0.0-13.0-2.9,67440,List2B,black,woman,,,,null,,,,,,,,,
18193,,,survey-text,69,753411,0.0-13.0-3.9,67440,List2B,black,woman,,,,,"{""Q0"":""ruth is seducing kate""}","<img src=""stim_listB/seduce7.gif""style=""height:400px;""></stim_listB>",is seducing,,,,,,
null,"<div style=""font-size:60px;"">+</div>",,html-keyboard-response,70,753919,0.0-13.0-0.10,67440,List2B,black,woman,,,,null,,,,,,,,,
null,"<img src=""stim_listB/challenge4.gif""style=""height:400px;""></stim_listB>",,html-keyboard-response,71,755922,0.0-13.0-1.10,67440,List2B,black,woman,,,,null,,,,,,,,,
null,is being challenged by,,html-keyboard-response,72,757935,0.0-13.0-2.10,67440,List2B,black,woman,,,,null,,,,,,,,,
20104.4,,,survey-text,73,778043,0.0-13.0-3.10,67440,List2B,black,woman,,,,,"{""Q0"":""beth is being challenged byDave""}","<img src=""stim_listB/challenge4.gif""style=""height:400px;""></stim_listB>",is being challenged by,,,,,,
null,"<div style=""font-size:60px;"">+</div>",,html-keyboard-response,74,778545,0.0-13.0-0.11,67440,List2B,black,woman,,,,null,,,,,,,,,
null,"<img src=""stim_listB/oppose8.gif""style=""height:400px;""></stim_listB>",,html-keyboard-response,75,780551,0.0-13.0-1.11,67440,List2B,black,woman,,,,null,,,,,,,,,
null,is being opposed by,,html-keyboard-response,76,782553,0.0-13.0-2.11,67440,List2B,black,woman,,,,null,,,,,,,,,
30396.3,,,survey-text,77,812952,0.0-13.0-3.11,67440,List2B,black,woman,,,,,"{""Q0"":""ruth is being opposed by beth""}","<img src=""stim_listB/oppose8.gif""style=""height:400px;""></stim_listB>",is being opposed by,,,,,,
null,"<div style=""font-size:60px;"">+</div>",,html-keyboard-response,78,813457,0.0-13.0-0.12,67440,List2B,black,woman,,,,null,,,,,,,,,
null,"<img src=""stim_listB/shout1.gif""style=""height:400px;""></stim_listB>",,html-keyboard-response,79,815460,0.0-13.0-1.12,67440,List2B,black,woman,,,,null,,,,,,,,,
null,is shouting at,,html-keyboard-response,80,817461,0.0-13.0-2.12,67440,List2B,black,woman,,,,null,,,,,,,,,
23184.2,,,survey-text,81,840649,0.0-13.0-3.12,67440,List2B,black,woman,,,,,"{""Q0"":""luke is shouting at ruth""}","<img src=""stim_listB/shout1.gif""style=""height:400px;""></stim_listB>",is shouting at,,,,,,
null,"<div style=""font-size:60px;"">+</div>",,html-keyboard-response,82,841152,0.0-13.0-0.13,67440,List2B,black,woman,,,,null,,,,,,,,,
null,"<img src=""stim_listB/touch5.gif""style=""height:400px;""></stim_listB>",,html-keyboard-response,83,843158,0.0-13.0-1.13,67440,List2B,black,woman,,,,null,,,,,,,,,
null,is touching,,html-keyboard-response,84,845173,0.0-13.0-2.13,67440,List2B,black,woman,,,,null,,,,,,,,,
19535.4,,,survey-text,85,864713,0.0-13.0-3.13,67440,List2B,black,woman,,,,,"{""Q0"":""dave is touching mike""}","<img src=""stim_listB/touch5.gif""style=""height:400px;""></stim_listB>",is touching,,,,,,
null,"<div style=""font-size:60px;"">+</div>",,html-keyboard-response,86,865217,0.0-13.0-0.14,67440,List2B,black,woman,,,,null,,,,,,,,,
null,"<img src=""stim_listB/look8.gif""style=""height:400px;""></stim_listB>",,html-keyboard-response,87,867220,0.0-13.0-1.14,67440,List2B,black,woman,,,,null,,,,,,,,,
null,is being looked at by,,html-keyboard-response,88,869223,0.0-13.0-2.14,67440,List2B,black,woman,,,,null,,,,,,,,,
27637.6,,,survey-text,89,896864,0.0-13.0-3.14,67440,List2B,black,woman,,,,,"{""Q0"":""jane is being looked at by kate""}","<img src=""stim_listB/look8.gif""style=""height:400px;""></stim_listB>",is being looked at by,,,,,,
null,"<div style=""font-size:60px;"">+</div>",,html-keyboard-response,90,897370,0.0-13.0-0.15,67440,List2B,black,woman,,,,null,,,,,,,,,
null,"<img src=""stim_listB/shout4.gif""style=""height:400px;""></stim_listB>",,html-keyboard-response,91,899373,0.0-13.0-1.15,67440,List2B,black,woman,,,,null,,,,,,,,,
null,is being shouted at by,,html-keyboard-response,92,901374,0.0-13.0-2.15,67440,List2B,black,woman,,,,null,,,,,,,,,
39766.6,,,survey-text,93,941145,0.0-13.0-3.15,67440,List2B,black,woman,,,,,"{""Q0"":""Mike is being shouted at by Kate""}","<img src=""stim_listB/shout4.gif""style=""height:400px;""></stim_listB>",is being shouted at by,,,,,,
null,"<div style=""font-size:60px;"">+</div>",,html-keyboard-response,94,941653,0.0-13.0-0.16,67440,List2B,black,woman,,,,null,,,,,,,,,
null,"<img src=""stim_listB/shout7.gif""style=""height:400px;""></stim_listB>",,html-keyboard-response,95,943666,0.0-13.0-1.16,67440,List2B,black,woman,,,,null,,,,,,,,,
null,is shouting at,,html-keyboard-response,96,945667,0.0-13.0-2.16,67440,List2B,black,woman,,,,null,,,,,,,,,
26227.9,,,survey-text,97,971899,0.0-13.0-3.16,67440,List2B,black,woman,,,,,"{""Q0"":"" ruth is shouting at beth""}","<img src=""stim_listB/shout7.gif""style=""height:400px;""></stim_listB>",is shouting at,,,,,,
null,"<div style=""font-size:60px;"">+</div>",,html-keyboard-response,98,972412,0.0-13.0-0.17,67440,List2B,black,woman,,,,null,,,,,,,,,
null,"<img src=""stim_listB/oppose1.gif""style=""height:400px;""></stim_listB>",,html-keyboard-response,99,974419,0.0-13.0-1.17,67440,List2B,black,woman,,,,null,,,,,,,,,
null,is opposing,,html-keyboard-response,100,976424,0.0-13.0-2.17,67440,List2B,black,woman,,,,null,,,,,,,,,
7573.9,,,survey-text,101,984002,0.0-13.0-3.17,67440,List2B,black,woman,,,,,"{""Q0"":""is opposing jane""}","<img src=""stim_listB/oppose1.gif""style=""height:400px;""></stim_listB>",is opposing,,,,,,
null,"<div style=""font-size:60px;"">+</div>",,html-keyboard-response,102,984506,0.0-13.0-0.18,67440,List2B,black,woman,,,,null,,,,,,,,,
null,"<img src=""stim_listB/copy2.gif""style=""height:400px;""></stim_listB>",,html-keyboard-response,103,986514,0.0-13.0-1.18,67440,List2B,black,woman,,,,null,,,,,,,,,
null,is being copied by,,html-keyboard-response,104,988516,0.0-13.0-2.18,67440,List2B,black,woman,,,,null,,,,,,,,,
24321.9,,,survey-text,105,1012841,0.0-13.0-3.18,67440,List2B,black,woman,,,,,"{""Q0"":""jane is opposing mike""}","<img src=""stim_listB/copy2.gif""style=""height:400px;""></stim_listB>",is being copied by,,,,,,
null,"<div style=""font-size:60px;"">+</div>",,html-keyboard-response,106,1013351,0.0-13.0-0.19,67440,List2B,black,woman,,,,null,,,,,,,,,
null,"<img src=""stim_listB/challenge7.gif""style=""height:400px;""></stim_listB>",,html-keyboard-response,107,1015356,0.0-13.0-1.19,67440,List2B,black,woman,,,,null,,,,,,,,,
null,is challenging,,html-keyboard-response,108,1017364,0.0-13.0-2.19,67440,List2B,black,woman,,,,null,,,,,,,,,
16162.7,,,survey-text,109,1033531,0.0-13.0-3.19,67440,List2B,black,woman,,,,,"{""Q0"":""beth is challenging jane""}","<img src=""stim_listB/challenge7.gif""style=""height:400px;""></stim_listB>",is challenging,,,,,,
11834.6,"<img src='img/portrait_matrix_list2.jpg' style='width:900px;height:500px;''></img><p>If you have memorised all the portraits and names and are ready to start, press Continue.</p><p><strong>Please note: Your memory of these faces will be tested 4 times during this experiment.</strong></p>",0,html-button-response,110,1045369,0.0-14.0-0.0,67440,List2B,black,woman,,,,,,,,,,,,,
3886.9,"<img src=""portrait/WW2.jpg""style=""height:400px;""></img>",3,html-button-response,111,1050265,0.0-14.0-1.0,67440,List2B,black,woman,,TRUE,3,,,,,,,,,,
null,CORRECT,,html-keyboard-response,112,1051776,0.0-14.0-2.0-0.0,67440,List2B,black,woman,,,,null,,,,,,,,,
5646.3,"<img src=""portrait/WM2.jpg""style=""height:400px;""></img>",7,html-button-response,113,1057425,0.0-14.0-4.0,67440,List2B,black,woman,,TRUE,7,,,,,,,,,,
null,CORRECT,,html-keyboard-response,114,1058951,0.0-14.0-5.0-0.0,67440,List2B,black,woman,,,,null,,,,,,,,,
5575.6,"<img src=""portrait/BW2.jpg""style=""height:400px;""></img>",2,html-button-response,115,1064528,0.0-14.0-7.0,67440,List2B,black,woman,,TRUE,2,,,,,,,,,,
null,CORRECT,,html-keyboard-response,116,1066060,0.0-14.0-8.0-0.0,67440,List2B,black,woman,,,,null,,,,,,,,,
3746.6,"<img src=""portrait/BM2.jpg""style=""height:400px;""></img>",5,html-button-response,117,1069809,0.0-14.0-10.0,67440,List2B,black,woman,,TRUE,5,,,,,,,,,,
null,CORRECT,,html-keyboard-response,118,1071314,0.0-14.0-11.0-0.0,67440,List2B,black,woman,,,,null,,,,,,,,,
2676.3,"<img src=""portrait/BM1.jpg""style=""height:400px;""></img>",4,html-button-response,119,1073993,0.0-14.0-13.0,67440,List2B,black,woman,,TRUE,4,,,,,,,,,,
null,CORRECT,,html-keyboard-response,120,1075504,0.0-14.0-14.0-0.0,67440,List2B,black,woman,,,,null,,,,,,,,,
3806.6,"<img src=""portrait/WM1.jpg""style=""height:400px;""></img>",6,html-button-response,121,1079313,0.0-14.0-16.0,67440,List2B,black,woman,,TRUE,6,,,,,,,,,,
null,CORRECT,,html-keyboard-response,122,1080834,0.0-14.0-17.0-0.0,67440,List2B,black,woman,,,,null,,,,,,,,,
4444.6,"<img src=""portrait/WW1.jpg""style=""height:400px;""></img>",1,html-button-response,123,1085281,0.0-14.0-19.0,67440,List2B,black,woman,,TRUE,1,,,,,,,,,,
null,CORRECT,,html-keyboard-response,124,1086797,0.0-14.0-20.0-0.0,67440,List2B,black,woman,,,,null,,,,,,,,,
3424.9,"<img src=""portrait/BW1.jpg""style=""height:400px;""></img>",0,html-button-response,125,1090224,0.0-14.0-22.0,67440,List2B,black,woman,,TRUE,0,,,,,,,,,,
null,CORRECT,,html-keyboard-response,126,1091746,0.0-14.0-23.0-0.0,67440,List2B,black,woman,,,,null,,,,,,,,,
1451.2,<p>You got 8 out of 8 right first time. Press Continue.</p>,0,html-button-response,127,1093200,0.0-14.0-25.0,67440,List2B,black,woman,,,,,,,,,,,,,
null,"<div style=""font-size:60px;"">+</div>",,html-keyboard-response,128,1094720,0.0-15.0-0.0,67440,List2B,black,woman,,,,null,,,,,,,,,
null,"<img src=""stim_listB/touch1.gif""style=""height:400px;""></stim_listB>",,html-keyboard-response,129,1096724,0.0-15.0-1.0,67440,List2B,black,woman,,,,null,,,,,,,,,
null,is touching,,html-keyboard-response,130,1098726,0.0-15.0-2.0,67440,List2B,black,woman,,,,null,,,,,,,,,
17894.7,,,survey-text,131,1116624,0.0-15.0-3.0,67440,List2B,black,woman,,,,,"{""Q0"":""jane is touching dave""}","<img src=""stim_listB/touch1.gif""style=""height:400px;""></stim_listB>",is touching,,,,,,
null,"<div style=""font-size:60px;"">+</div>",,html-keyboard-response,132,1117126,0.0-15.0-0.1,67440,List2B,black,woman,,,,null,,,,,,,,,
null,"<img src=""stim_listB/hug7.gif""style=""height:400px;""></stim_listB>",,html-keyboard-response,133,1119130,0.0-15.0-1.1,67440,List2B,black,woman,,,,null,,,,,,,,,
null,is hugging,,html-keyboard-response,134,1121132,0.0-15.0-2.1,67440,List2B,black,woman,,,,null,,,,,,,,,
18361.2,,,survey-text,135,1139496,0.0-15.0-3.1,67440,List2B,black,woman,,,,,"{""Q0"":"" beth is hugging ruth""}","<img src=""stim_listB/hug7.gif""style=""height:400px;""></stim_listB>",is hugging,,,,,,
null,"<div style=""font-size:60px;"">+</div>",,html-keyboard-response,136,1139999,0.0-15.0-0.2,67440,List2B,black,woman,,,,null,,,,,,,,,
null,"<img src=""stim_listB/challenge3.gif""style=""height:400px;""></stim_listB>",,html-keyboard-response,137,1142002,0.0-15.0-1.2,67440,List2B,black,woman,,,,null,,,,,,,,,
null,is challenging,,html-keyboard-response,138,1144007,0.0-15.0-2.2,67440,List2B,black,woman,,,,null,,,,,,,,,
15797.7,,,survey-text,139,1159808,0.0-15.0-3.2,67440,List2B,black,woman,,,,,"{""Q0"":"" beth is challenging mike""}","<img src=""stim_listB/challenge3.gif""style=""height:400px;""></stim_listB>",is challenging,,,,,,
null,"<div style=""font-size:60px;"">+</div>",,html-keyboard-response,140,1160314,0.0-15.0-0.3,67440,List2B,black,woman,,,,null,,,,,,,,,
null,"<img src=""stim_listB/oppose7.gif""style=""height:400px;""></stim_listB>",,html-keyboard-response,141,1162318,0.0-15.0-1.3,67440,List2B,black,woman,,,,null,,,,,,,,,
null,is opposing,,html-keyboard-response,142,1164320,0.0-15.0-2.3,67440,List2B,black,woman,,,,null,,,,,,,,,
24556.2,,,survey-text,143,1188880,0.0-15.0-3.3,67440,List2B,black,woman,,,,,"{""Q0"":""kate is opposing jane""}","<img src=""stim_listB/oppose7.gif""style=""height:400px;""></stim_listB>",is opposing,,,,,,
null,"<div style=""font-size:60px;"">+</div>",,html-keyboard-response,144,1189389,0.0-15.0-0.4,67440,List2B,black,woman,,,,null,,,,,,,,,
null,"<img src=""stim_listB/challenge5.gif""style=""height:400px;""></stim_listB>",,html-keyboard-response,145,1191392,0.0-15.0-1.4,67440,List2B,black,woman,,,,null,,,,,,,,,
null,is challenging,,html-keyboard-response,146,1193399,0.0-15.0-2.4,67440,List2B,black,woman,,,,null,,,,,,,,,
13782.9,,,survey-text,147,1207185,0.0-15.0-3.4,67440,List2B,black,woman,,,,,"{""Q0"":""fred is challenging dave""}","<img src=""stim_listB/challenge5.gif""style=""height:400px;""></stim_listB>",is challenging,,,,,,
null,"<div style=""font-size:60px;"">+</div>",,html-keyboard-response,148,1207688,0.0-15.0-0.5,67440,List2B,black,woman,,,,null,,,,,,,,,
null,"<img src=""stim_listB/kiss3.gif""style=""height:400px;""></stim_listB>",,html-keyboard-response,149,1209690,0.0-15.0-1.5,67440,List2B,black,woman,,,,null,,,,,,,,,
null,is kissing,,html-keyboard-response,150,1211698,0.0-15.0-2.5,67440,List2B,black,woman,,,,null,,,,,,,,,
13083.1,,,survey-text,151,1224785,0.0-15.0-3.5,67440,List2B,black,woman,,,,,"{""Q0"":""fred is kissing beth""}","<img src=""stim_listB/kiss3.gif""style=""height:400px;""></stim_listB>",is kissing,,,,,,
null,"<div style=""font-size:60px;"">+</div>",,html-keyboard-response,152,1225298,0.0-15.0-0.6,67440,List2B,black,woman,,,,null,,,,,,,,,
null,"<img src=""stim_listB/look5.gif""style=""height:400px;""></stim_listB>",,html-keyboard-response,153,1227306,0.0-15.0-1.6,67440,List2B,black,woman,,,,null,,,,,,,,,
null,is looking at,,html-keyboard-response,154,1229308,0.0-15.0-2.6,67440,List2B,black,woman,,,,null,,,,,,,,,
13705.8,,,survey-text,155,1243018,0.0-15.0-3.6,67440,List2B,black,woman,,,,,"{""Q0"":""Luke is looking at fred""}","<img src=""stim_listB/look5.gif""style=""height:400px;""></stim_listB>",is looking at,,,,,,
null,"<div style=""font-size:60px;"">+</div>",,html-keyboard-response,156,1243520,0.0-15.0-0.7,67440,List2B,black,woman,,,,null,,,,,,,,,
null,"<img src=""stim_listB/greet5.gif""style=""height:400px;""></stim_listB>",,html-keyboard-response,157,1245523,0.0-15.0-1.7,67440,List2B,black,woman,,,,null,,,,,,,,,
null,is greeting,,html-keyboard-response,158,1247532,0.0-15.0-2.7,67440,List2B,black,woman,,,,null,,,,,,,,,
13872.9,,,survey-text,159,1261409,0.0-15.0-3.7,67440,List2B,black,woman,,,,,"{""Q0"":""fred is greeting dave""}","<img src=""stim_listB/greet5.gif""style=""height:400px;""></stim_listB>",is greeting,,,,,,
null,"<div style=""font-size:60px;"">+</div>",,html-keyboard-response,160,1261913,0.0-15.0-0.8,67440,List2B,black,woman,,,,null,,,,,,,,,
null,"<img src=""stim_listB/kiss1.gif""style=""height:400px;""></stim_listB>",,html-keyboard-response,161,1263922,0.0-15.0-1.8,67440,List2B,black,woman,,,,null,,,,,,,,,
null,is kissing,,html-keyboard-response,162,1265924,0.0-15.0-2.8,67440,List2B,black,woman,,,,null,,,,,,,,,
11170.1,,,survey-text,163,1277097,0.0-15.0-3.8,67440,List2B,black,woman,,,,,"{""Q0"":""Luke is kissing ruth""}","<img src=""stim_listB/kiss1.gif""style=""height:400px;""></stim_listB>",is kissing,,,,,,
null,"<div style=""font-size:60px;"">+</div>",,html-keyboard-response,164,1277604,0.0-15.0-0.9,67440,List2B,black,woman,,,,null,,,,,,,,,
null,"<img src=""stim_listB/seduce8.gif""style=""height:400px;""></stim_listB>",,html-keyboard-response,165,1279616,0.0-15.0-1.9,67440,List2B,black,woman,,,,null,,,,,,,,,
null,is being seduced by,,html-keyboard-response,166,1281617,0.0-15.0-2.9,67440,List2B,black,woman,,,,null,,,,,,,,,
20916.9,,,survey-text,167,1302536,0.0-15.0-3.9,67440,List2B,black,woman,,,,,"{""Q0"":""jane is being seduced by beth""}","<img src=""stim_listB/seduce8.gif""style=""height:400px;""></stim_listB>",is being seduced by,,,,,,
null,"<div style=""font-size:60px;"">+</div>",,html-keyboard-response,168,1303040,0.0-15.0-0.10,67440,List2B,black,woman,,,,null,,,,,,,,,
null,"<img src=""stim_listB/copy8.gif""style=""height:400px;""></stim_listB>",,html-keyboard-response,169,1305043,0.0-15.0-1.10,67440,List2B,black,woman,,,,null,,,,,,,,,
null,is being copied by,,html-keyboard-response,170,1307046,0.0-15.0-2.10,67440,List2B,black,woman,,,,null,,,,,,,,,
18831,,,survey-text,171,1325881,0.0-15.0-3.10,67440,List2B,black,woman,,,,,"{""Q0"":""beth is being copied by ruth""}","<img src=""stim_listB/copy8.gif""style=""height:400px;""></stim_listB>",is being copied by,,,,,,
null,"<div style=""font-size:60px;"">+</div>",,html-keyboard-response,172,1326389,0.0-15.0-0.11,67440,List2B,black,woman,,,,null,,,,,,,,,
null,"<img src=""stim_listB/seduce1.gif""style=""height:400px;""></stim_listB>",,html-keyboard-response,173,1328399,0.0-15.0-1.11,67440,List2B,black,woman,,,,null,,,,,,,,,
null,is seducing,,html-keyboard-response,174,1330401,0.0-15.0-2.11,67440,List2B,black,woman,,,,null,,,,,,,,,
9636.8,,,survey-text,175,1340041,0.0-15.0-3.11,67440,List2B,black,woman,,,,,"{""Q0"":""luke is seducing jane""}","<img src=""stim_listB/seduce1.gif""style=""height:400px;""></stim_listB>",is seducing,,,,,,
null,"<div style=""font-size:60px;"">+</div>",,html-keyboard-response,176,1340544,0.0-15.0-0.12,67440,List2B,black,woman,,,,null,,,,,,,,,
null,"<img src=""stim_listB/kiss2.gif""style=""height:400px;""></stim_listB>",,html-keyboard-response,177,1342552,0.0-15.0-1.12,67440,List2B,black,woman,,,,null,,,,,,,,,
null,is being kissed by,,html-keyboard-response,178,1344568,0.0-15.0-2.12,67440,List2B,black,woman,,,,null,,,,,,,,,
14691.9,,,survey-text,179,1359265,0.0-15.0-3.12,67440,List2B,black,woman,,,,,"{""Q0"":""Dave is being kissed by Jane""}","<img src=""stim_listB/kiss2.gif""style=""height:400px;""></stim_listB>",is being kissed by,,,,,,
null,"<div style=""font-size:60px;"">+</div>",,html-keyboard-response,180,1359782,0.0-15.0-0.13,67440,List2B,black,woman,,,,null,,,,,,,,,
null,"<img src=""stim_listB/greet1.gif""style=""height:400px;""></stim_listB>",,html-keyboard-response,181,1361787,0.0-15.0-1.13,67440,List2B,black,woman,,,,null,,,,,,,,,
null,is greeting,,html-keyboard-response,182,1363789,0.0-15.0-2.13,67440,List2B,black,woman,,,,null,,,,,,,,,
21056.1,,,survey-text,183,1384849,0.0-15.0-3.13,67440,List2B,black,woman,,,,,"{""Q0"":""ruth is greeting dave""}","<img src=""stim_listB/greet1.gif""style=""height:400px;""></stim_listB>",is greeting,,,,,,
null,"<div style=""font-size:60px;"">+</div>",,html-keyboard-response,184,1385352,0.0-15.0-0.14,67440,List2B,black,woman,,,,null,,,,,,,,,
null,"<img src=""stim_listB/seduce6.gif""style=""height:400px;""></stim_listB>",,html-keyboard-response,185,1387368,0.0-15.0-1.14,67440,List2B,black,woman,,,,null,,,,,,,,,
null,is being seduced by,,html-keyboard-response,186,1389371,0.0-15.0-2.14,67440,List2B,black,woman,,,,null,,,,,,,,,
14641.2,,,survey-text,187,1404017,0.0-15.0-3.14,67440,List2B,black,woman,,,,,"{""Q0"":""fred is being seduced by dave""}","<img src=""stim_listB/seduce6.gif""style=""height:400px;""></stim_listB>",is being seduced by,,,,,,
null,"<div style=""font-size:60px;"">+</div>",,html-keyboard-response,188,1404529,0.0-15.0-0.15,67440,List2B,black,woman,,,,null,,,,,,,,,
null,"<img src=""stim_listB/shout2.gif""style=""height:400px;""></stim_listB>",,html-keyboard-response,189,1406538,0.0-15.0-1.15,67440,List2B,black,woman,,,,null,,,,,,,,,
null,is being shouted at by,,html-keyboard-response,190,1408544,0.0-15.0-2.15,67440,List2B,black,woman,,,,null,,,,,,,,,
26087.1,,,survey-text,191,1434635,0.0-15.0-3.15,67440,List2B,black,woman,,,,,"{""Q0"":""jane is being shouted at by dave""}","<img src=""stim_listB/shout2.gif""style=""height:400px;""></stim_listB>",is being shouted at by,,,,,,
null,"<div style=""font-size:60px;"">+</div>",,html-keyboard-response,192,1435147,0.0-15.0-0.16,67440,List2B,black,woman,,,,null,,,,,,,,,
null,"<img src=""stim_listB/hug4.gif""style=""height:400px;""></stim_listB>",,html-keyboard-response,193,1437163,0.0-15.0-1.16,67440,List2B,black,woman,,,,null,,,,,,,,,
null,is being hugged by,,html-keyboard-response,194,1439174,0.0-15.0-2.16,67440,List2B,black,woman,,,,null,,,,,,,,,
24849.7,,,survey-text,195,1464027,0.0-15.0-3.16,67440,List2B,black,woman,,,,,"{""Q0"":""Mike is being hugged by beth""}","<img src=""stim_listB/hug4.gif""style=""height:400px;""></stim_listB>",is being hugged by,,,,,,
null,"<div style=""font-size:60px;"">+</div>",,html-keyboard-response,196,1464536,0.0-15.0-0.17,67440,List2B,black,woman,,,,null,,,,,,,,,
null,"<img src=""stim_listB/greet4.gif""style=""height:400px;""></stim_listB>",,html-keyboard-response,197,1466541,0.0-15.0-1.17,67440,List2B,black,woman,,,,null,,,,,,,,,
null,is being greeted by,,html-keyboard-response,198,1468554,0.0-15.0-2.17,67440,List2B,black,woman,,,,null,,,,,,,,,
15395.7,,,survey-text,199,1483953,0.0-15.0-3.17,67440,List2B,black,woman,,,,,"{""Q0"":""fred is being greeted by kate""}","<img src=""stim_listB/greet4.gif""style=""height:400px;""></stim_listB>",is being greeted by,,,,,,
null,"<div style=""font-size:60px;"">+</div>",,html-keyboard-response,200,1484468,0.0-15.0-0.18,67440,List2B,black,woman,,,,null,,,,,,,,,
null,"<img src=""stim_listB/oppose6.gif""style=""height:400px;""></stim_listB>",,html-keyboard-response,201,1486471,0.0-15.0-1.18,67440,List2B,black,woman,,,,null,,,,,,,,,
null,is being opposed by,,html-keyboard-response,202,1488475,0.0-15.0-2.18,67440,List2B,black,woman,,,,null,,,,,,,,,
13237,,,survey-text,203,1501715,0.0-15.0-3.18,67440,List2B,black,woman,,,,,"{""Q0"":""fred is being opposed by Luke""}","<img src=""stim_listB/oppose6.gif""style=""height:400px;""></stim_listB>",is being opposed by,,,,,,
null,"<div style=""font-size:60px;"">+</div>",,html-keyboard-response,204,1502225,0.0-15.0-0.19,67440,List2B,black,woman,,,,null,,,,,,,,,
null,"<img src=""stim_listB/touch3.gif""style=""height:400px;""></stim_listB>",,html-keyboard-response,205,1504239,0.0-15.0-1.19,67440,List2B,black,woman,,,,null,,,,,,,,,
null,is touching,,html-keyboard-response,206,1506245,0.0-15.0-2.19,67440,List2B,black,woman,,,,null,,,,,,,,,
25680.8,,,survey-text,207,1531929,0.0-15.0-3.19,67440,List2B,black,woman,,,,,"{""Q0"":""Mike is touching beth""}","<img src=""stim_listB/touch3.gif""style=""height:400px;""></stim_listB>",is touching,,,,,,
5140.5,"<img src='img/portrait_matrix_list2.jpg' style='width:900px;height:500px;''></img><p>If you have memorised all the portraits and names and are ready to start, press Continue.</p><p><strong>Please note: Your memory of these faces will be tested 4 times during this experiment.</strong></p>",0,html-button-response,208,1537072,0.0-16.0-0.0,67440,List2B,black,woman,,,,,,,,,,,,,
3893,"<img src=""portrait/BW1.jpg""style=""height:400px;""></img>",0,html-button-response,209,1541968,0.0-16.0-1.0,67440,List2B,black,woman,,TRUE,0,,,,,,,,,,
null,CORRECT,,html-keyboard-response,210,1543495,0.0-16.0-2.0-0.0,67440,List2B,black,woman,,,,null,,,,,,,,,
5262.3,"<img src=""portrait/WW1.jpg""style=""height:400px;""></img>",1,html-button-response,211,1548761,0.0-16.0-4.0,67440,List2B,black,woman,,TRUE,1,,,,,,,,,,
null,CORRECT,,html-keyboard-response,212,1550276,0.0-16.0-5.0-0.0,67440,List2B,black,woman,,,,null,,,,,,,,,
3265.3,"<img src=""portrait/BM1.jpg""style=""height:400px;""></img>",4,html-button-response,213,1553545,0.0-16.0-7.0,67440,List2B,black,woman,,TRUE,4,,,,,,,,,,
null,CORRECT,,html-keyboard-response,214,1555064,0.0-16.0-8.0-0.0,67440,List2B,black,woman,,,,null,,,,,,,,,
1461.6,"<img src=""portrait/WW2.jpg""style=""height:400px;""></img>",3,html-button-response,215,1556529,0.0-16.0-10.0,67440,List2B,black,woman,,TRUE,3,,,,,,,,,,
null,CORRECT,,html-keyboard-response,216,1558047,0.0-16.0-11.0-0.0,67440,List2B,black,woman,,,,null,,,,,,,,,
1542.5,"<img src=""portrait/BM2.jpg""style=""height:400px;""></img>",5,html-button-response,217,1559593,0.0-16.0-13.0,67440,List2B,black,woman,,TRUE,5,,,,,,,,,,
null,CORRECT,,html-keyboard-response,218,1561115,0.0-16.0-14.0-0.0,67440,List2B,black,woman,,,,null,,,,,,,,,
1571.2,"<img src=""portrait/WM1.jpg""style=""height:400px;""></img>",6,html-button-response,219,1562689,0.0-16.0-16.0,67440,List2B,black,woman,,TRUE,6,,,,,,,,,,
null,CORRECT,,html-keyboard-response,220,1564205,0.0-16.0-17.0-0.0,67440,List2B,black,woman,,,,null,,,,,,,,,
2960.4,"<img src=""portrait/WM2.jpg""style=""height:400px;""></img>",7,html-button-response,221,1567168,0.0-16.0-19.0,67440,List2B,black,woman,,TRUE,7,,,,,,,,,,
null,CORRECT,,html-keyboard-response,222,1568675,0.0-16.0-20.0-0.0,67440,List2B,black,woman,,,,null,,,,,,,,,
4642.7,"<img src=""portrait/BW2.jpg""style=""height:400px;""></img>",2,html-button-response,223,1573320,0.0-16.0-22.0,67440,List2B,black,woman,,TRUE,2,,,,,,,,,,
null,CORRECT,,html-keyboard-response,224,1574849,0.0-16.0-23.0-0.0,67440,List2B,black,woman,,,,null,,,,,,,,,
1516.4,<p>You got 8 out of 8 right first time. Press Continue.</p>,0,html-button-response,225,1576368,0.0-16.0-25.0,67440,List2B,black,woman,,,,,,,,,,,,,
null,"<div style=""font-size:60px;"">+</div>",,html-keyboard-response,226,1577885,0.0-17.0-0.0,67440,List2B,black,woman,,,,null,,,,,,,,,
null,"<img src=""stim_listB/seduce3.gif""style=""height:400px;""></stim_listB>",,html-keyboard-response,227,1579901,0.0-17.0-1.0,67440,List2B,black,woman,,,,null,,,,,,,,,
null,is seducing,,html-keyboard-response,228,1581909,0.0-17.0-2.0,67440,List2B,black,woman,,,,null,,,,,,,,,
12922.5,,,survey-text,229,1594835,0.0-17.0-3.0,67440,List2B,black,woman,,,,,"{""Q0"":""Kate is seducing fred""}","<img src=""stim_listB/seduce3.gif""style=""height:400px;""></stim_listB>",is seducing,,,,,,
null,"<div style=""font-size:60px;"">+</div>",,html-keyboard-response,230,1595337,0.0-17.0-0.1,67440,List2B,black,woman,,,,null,,,,,,,,,
null,"<img src=""stim_listB/hug1.gif""style=""height:400px;""></stim_listB>",,html-keyboard-response,231,1597354,0.0-17.0-1.1,67440,List2B,black,woman,,,,null,,,,,,,,,
null,is hugging,,html-keyboard-response,232,1599367,0.0-17.0-2.1,67440,List2B,black,woman,,,,null,,,,,,,,,
13854.1,,,survey-text,233,1613227,0.0-17.0-3.1,67440,List2B,black,woman,,,,,"{""Q0"":""luke is hugging ruth""}","<img src=""stim_listB/hug1.gif""style=""height:400px;""></stim_listB>",is hugging,,,,,,
null,"<div style=""font-size:60px;"">+</div>",,html-keyboard-response,234,1613729,0.0-17.0-0.2,67440,List2B,black,woman,,,,null,,,,,,,,,
null,"<img src=""stim_listB/greet2.gif""style=""height:400px;""></stim_listB>",,html-keyboard-response,235,1615737,0.0-17.0-1.2,67440,List2B,black,woman,,,,null,,,,,,,,,
null,is being greeted by,,html-keyboard-response,236,1617739,0.0-17.0-2.2,67440,List2B,black,woman,,,,null,,,,,,,,,
8339,,,survey-text,237,1626082,0.0-17.0-3.2,67440,List2B,black,woman,,,,,"{""Q0"":""Luke is being greeted by jane""}","<img src=""stim_listB/greet2.gif""style=""height:400px;""></stim_listB>",is being greeted by,,,,,,
null,"<div style=""font-size:60px;"">+</div>",,html-keyboard-response,238,1626592,0.0-17.0-0.3,67440,List2B,black,woman,,,,null,,,,,,,,,
null,"<img src=""stim_listB/oppose2.gif""style=""height:400px;""></stim_listB>",,html-keyboard-response,239,1628608,0.0-17.0-1.3,67440,List2B,black,woman,,,,null,,,,,,,,,
null,is being opposed by,,html-keyboard-response,240,1630624,0.0-17.0-2.3,67440,List2B,black,woman,,,,null,,,,,,,,,
10726.5,,,survey-text,241,1641355,0.0-17.0-3.3,67440,List2B,black,woman,,,,,"{""Q0"":""luke is being opposed by ruth""}","<img src=""stim_listB/oppose2.gif""style=""height:400px;""></stim_listB>",is being opposed by,,,,,,
null,"<div style=""font-size:60px;"">+</div>",,html-keyboard-response,242,1641860,0.0-17.0-0.4,67440,List2B,black,woman,,,,null,,,,,,,,,
null,"<img src=""stim_listB/greet7.gif""style=""height:400px;""></stim_listB>",,html-keyboard-response,243,1643877,0.0-17.0-1.4,67440,List2B,black,woman,,,,null,,,,,,,,,
null,is greeting,,html-keyboard-response,244,1645886,0.0-17.0-2.4,67440,List2B,black,woman,,,,null,,,,,,,,,
16096.2,,,survey-text,245,1661987,0.0-17.0-3.4,67440,List2B,black,woman,,,,,"{""Q0"":""beth is greeting jane""}","<img src=""stim_listB/greet7.gif""style=""height:400px;""></stim_listB>",is greeting,,,,,,
null,"<div style=""font-size:60px;"">+</div>",,html-keyboard-response,246,1662493,0.0-17.0-0.5,67440,List2B,black,woman,,,,null,,,,,,,,,
null,"<img src=""stim_listB/greet3.gif""style=""height:400px;""></stim_listB>",,html-keyboard-response,247,1664497,0.0-17.0-1.5,67440,List2B,black,woman,,,,null,,,,,,,,,
null,is greeting,,html-keyboard-response,248,1666501,0.0-17.0-2.5,67440,List2B,black,woman,,,,null,,,,,,,,,
9849.7,,,survey-text,249,1676355,0.0-17.0-3.5,67440,List2B,black,woman,,,,,"{""Q0"":""mike is greeting beth""}","<img src=""stim_listB/greet3.gif""style=""height:400px;""></stim_listB>",is greeting,,,,,,
null,"<div style=""font-size:60px;"">+</div>",,html-keyboard-response,250,1676866,0.0-17.0-0.6,67440,List2B,black,woman,,,,null,,,,,,,,,
null,"<img src=""stim_listB/challenge6.gif""style=""height:400px;""></stim_listB>",,html-keyboard-response,251,1678880,0.0-17.0-1.6,67440,List2B,black,woman,,,,null,,,,,,,,,
null,is being challenged by,,html-keyboard-response,252,1680883,0.0-17.0-2.6,67440,List2B,black,woman,,,,null,,,,,,,,,
37306.3,,,survey-text,253,1718192,0.0-17.0-3.6,67440,List2B,black,woman,,,,,"{""Q0"":""Mike is being challenged by luke""}","<img src=""stim_listB/challenge6.gif""style=""height:400px;""></stim_listB>",is being challenged by,,,,,,
null,"<div style=""font-size:60px;"">+</div>",,html-keyboard-response,254,1718697,0.0-17.0-0.7,67440,List2B,black,woman,,,,null,,,,,,,,,
null,"<img src=""stim_listB/look7.gif""style=""height:400px;""></stim_listB>",,html-keyboard-response,255,1720701,0.0-17.0-1.7,67440,List2B,black,woman,,,,null,,,,,,,,,
null,is looking at,,html-keyboard-response,256,1722714,0.0-17.0-2.7,67440,List2B,black,woman,,,,null,,,,,,,,,
15938.4,,,survey-text,257,1738656,0.0-17.0-3.7,67440,List2B,black,woman,,,,,"{""Q0"":""Beth is looking at ruth""}","<img src=""stim_listB/look7.gif""style=""height:400px;""></stim_listB>",is looking at,,,,,,
null,"<div style=""font-size:60px;"">+</div>",,html-keyboard-response,258,1739159,0.0-17.0-0.8,67440,List2B,black,woman,,,,null,,,,,,,,,
null,"<img src=""stim_listB/challenge1.gif""style=""height:400px;""></stim_listB>",,html-keyboard-response,259,1741170,0.0-17.0-1.8,67440,List2B,black,woman,,,,null,,,,,,,,,
null,is challenging,,html-keyboard-response,260,1743176,0.0-17.0-2.8,67440,List2B,black,woman,,,,null,,,,,,,,,
33260.7,,,survey-text,261,1776440,0.0-17.0-3.8,67440,List2B,black,woman,,,,,"{""Q0"":""Ruth is challenging dave""}","<img src=""stim_listB/challenge1.gif""style=""height:400px;""></stim_listB>",is challenging,,,,,,
null,"<div style=""font-size:60px;"">+</div>",,html-keyboard-response,262,1776941,0.0-17.0-0.9,67440,List2B,black,woman,,,,null,,,,,,,,,
null,"<img src=""stim_listB/challenge2.gif""style=""height:400px;""></stim_listB>",,html-keyboard-response,263,1778950,0.0-17.0-1.9,67440,List2B,black,woman,,,,null,,,,,,,,,
null,is being challenged by,,html-keyboard-response,264,1780961,0.0-17.0-2.9,67440,List2B,black,woman,,,,null,,,,,,,,,
11510.2,,,survey-text,265,1792475,0.0-17.0-3.9,67440,List2B,black,woman,,,,,"{""Q0"":""Luke is being challenged by jane""}","<img src=""stim_listB/challenge2.gif""style=""height:400px;""></stim_listB>",is being challenged by,,,,,,
null,"<div style=""font-size:60px;"">+</div>",,html-keyboard-response,266,1792983,0.0-17.0-0.10,67440,List2B,black,woman,,,,null,,,,,,,,,
null,"<img src=""stim_listB/hug8.gif""style=""height:400px;""></stim_listB>",,html-keyboard-response,267,1794992,0.0-17.0-1.10,67440,List2B,black,woman,,,,null,,,,,,,,,
null,is being hugged by,,html-keyboard-response,268,1797001,0.0-17.0-2.10,67440,List2B,black,woman,,,,null,,,,,,,,,
25203.6,,,survey-text,269,1822208,0.0-17.0-3.10,67440,List2B,black,woman,,,,,"{""Q0"":"" kate is being hugged by maroon jane""}","<img src=""stim_listB/hug8.gif""style=""height:400px;""></stim_listB>",is being hugged by,,,,,,
null,"<div style=""font-size:60px;"">+</div>",,html-keyboard-response,270,1822715,0.0-17.0-0.11,67440,List2B,black,woman,,,,null,,,,,,,,,
null,"<img src=""stim_listB/copy7.gif""style=""height:400px;""></stim_listB>",,html-keyboard-response,271,1824720,0.0-17.0-1.11,67440,List2B,black,woman,,,,null,,,,,,,,,
null,is copying,,html-keyboard-response,272,1826728,0.0-17.0-2.11,67440,List2B,black,woman,,,,null,,,,,,,,,
19237.2,,,survey-text,273,1845969,0.0-17.0-3.11,67440,List2B,black,woman,,,,,"{""Q0"":""jane is copying kate""}","<img src=""stim_listB/copy7.gif""style=""height:400px;""></stim_listB>",is copying,,,,,,
null,"<div style=""font-size:60px;"">+</div>",,html-keyboard-response,274,1846477,0.0-17.0-0.12,67440,List2B,black,woman,,,,null,,,,,,,,,
null,"<img src=""stim_listB/kiss8.gif""style=""height:400px;""></stim_listB>",,html-keyboard-response,275,1848481,0.0-17.0-1.12,67440,List2B,black,woman,,,,null,,,,,,,,,
null,is being kissed by,,html-keyboard-response,276,1850494,0.0-17.0-2.12,67440,List2B,black,woman,,,,null,,,,,,,,,
11920,,,survey-text,277,1862418,0.0-17.0-3.12,67440,List2B,black,woman,,,,,"{""Q0"":""jane is being kissed by kate""}","<img src=""stim_listB/kiss8.gif""style=""height:400px;""></stim_listB>",is being kissed by,,,,,,
null,"<div style=""font-size:60px;"">+</div>",,html-keyboard-response,278,1862927,0.0-17.0-0.13,67440,List2B,black,woman,,,,null,,,,,,,,,
null,"<img src=""stim_listB/touch2.gif""style=""height:400px;""></stim_listB>",,html-keyboard-response,279,1864942,0.0-17.0-1.13,67440,List2B,black,woman,,,,null,,,,,,,,,
null,is being touched by,,html-keyboard-response,280,1866953,0.0-17.0-2.13,67440,List2B,black,woman,,,,null,,,,,,,,,
19923.6,,,survey-text,281,1886881,0.0-17.0-3.13,67440,List2B,black,woman,,,,,"{""Q0"":""Luke is being touched by ruth""}","<img src=""stim_listB/touch2.gif""style=""height:400px;""></stim_listB>",is being touched by,,,,,,
null,"<div style=""font-size:60px;"">+</div>",,html-keyboard-response,282,1887384,0.0-17.0-0.14,67440,List2B,black,woman,,,,null,,,,,,,,,
null,"<img src=""stim_listB/greet6.gif""style=""height:400px;""></stim_listB>",,html-keyboard-response,283,1889391,0.0-17.0-1.14,67440,List2B,black,woman,,,,null,,,,,,,,,
null,is being greeted by,,html-keyboard-response,284,1891397,0.0-17.0-2.14,67440,List2B,black,woman,,,,null,,,,,,,,,
19386.3,,,survey-text,285,1910787,0.0-17.0-3.14,67440,List2B,black,woman,,,,,"{""Q0"":""Luke is being greeted by Mike""}","<img src=""stim_listB/greet6.gif""style=""height:400px;""></stim_listB>",is being greeted by,,,,,,
null,"<div style=""font-size:60px;"">+</div>",,html-keyboard-response,286,1911299,0.0-17.0-0.15,67440,List2B,black,woman,,,,null,,,,,,,,,
null,"<img src=""stim_listB/copy3.gif""style=""height:400px;""></stim_listB>",,html-keyboard-response,287,1913314,0.0-17.0-1.15,67440,List2B,black,woman,,,,null,,,,,,,,,
null,is copying,,html-keyboard-response,288,1915318,0.0-17.0-2.15,67440,List2B,black,woman,,,,null,,,,,,,,,
18103.2,,,survey-text,289,1933425,0.0-17.0-3.15,67440,List2B,black,woman,,,,,"{""Q0"":""Mike is copying Beth""}","<img src=""stim_listB/copy3.gif""style=""height:400px;""></stim_listB>",is copying,,,,,,
null,"<div style=""font-size:60px;"">+</div>",,html-keyboard-response,290,1933929,0.0-17.0-0.16,67440,List2B,black,woman,,,,null,,,,,,,,,
null,"<img src=""stim_listB/look4.gif""style=""height:400px;""></stim_listB>",,html-keyboard-response,291,1935935,0.0-17.0-1.16,67440,List2B,black,woman,,,,null,,,,,,,,,
null,is being looked at by,,html-keyboard-response,292,1937937,0.0-17.0-2.16,67440,List2B,black,woman,,,,null,,,,,,,,,
11741.4,,,survey-text,293,1949683,0.0-17.0-3.16,67440,List2B,black,woman,,,,,"{""Q0"":""Mike is being looked at by kate""}","<img src=""stim_listB/look4.gif""style=""height:400px;""></stim_listB>",is being looked at by,,,,,,
null,"<div style=""font-size:60px;"">+</div>",,html-keyboard-response,294,1950188,0.0-17.0-0.17,67440,List2B,black,woman,,,,null,,,,,,,,,
null,"<img src=""stim_listB/hug5.gif""style=""height:400px;""></stim_listB>",,html-keyboard-response,295,1952204,0.0-17.0-1.17,67440,List2B,black,woman,,,,null,,,,,,,,,
null,is hugging,,html-keyboard-response,296,1954205,0.0-17.0-2.17,67440,List2B,black,woman,,,,null,,,,,,,,,
20537.8,,,survey-text,297,1974747,0.0-17.0-3.17,67440,List2B,black,woman,,,,,"{""Q0"":""Luke is being hugged by fred""}","<img src=""stim_listB/hug5.gif""style=""height:400px;""></stim_listB>",is hugging,,,,,,
null,"<div style=""font-size:60px;"">+</div>",,html-keyboard-response,298,1975258,0.0-17.0-0.18,67440,List2B,black,woman,,,,null,,,,,,,,,
null,"<img src=""stim_listB/hug6.gif""style=""height:400px;""></stim_listB>",,html-keyboard-response,299,1977267,0.0-17.0-1.18,67440,List2B,black,woman,,,,null,,,,,,,,,
null,is being hugged by,,html-keyboard-response,300,1979275,0.0-17.0-2.18,67440,List2B,black,woman,,,,null,,,,,,,,,
12196.4,,,survey-text,301,1991475,0.0-17.0-3.18,67440,List2B,black,woman,,,,,"{""Q0"":""Mike is being hugged by Dave""}","<img src=""stim_listB/hug6.gif""style=""height:400px;""></stim_listB>",is being hugged by,,,,,,
null,"<div style=""font-size:60px;"">+</div>",,html-keyboard-response,302,1991979,0.0-17.0-0.19,67440,List2B,black,woman,,,,null,,,,,,,,,
null,"<img src=""stim_listB/kiss7.gif""style=""height:400px;""></stim_listB>",,html-keyboard-response,303,1993995,0.0-17.0-1.19,67440,List2B,black,woman,,,,null,,,,,,,,,
null,is kissing,,html-keyboard-response,304,1995997,0.0-17.0-2.19,67440,List2B,black,woman,,,,null,,,,,,,,,
15945.2,,,survey-text,305,2011947,0.0-17.0-3.19,67440,List2B,black,woman,,,,,"{""Q0"":""Beth is kissing ruth ""}","<img src=""stim_listB/kiss7.gif""style=""height:400px;""></stim_listB>",is kissing,,,,,,
4538.8,"<img src='img/portrait_matrix_list2.jpg' style='width:900px;height:500px;''></img><p>If you have memorised all the portraits and names and are ready to start, press Continue.</p><p><strong>Please note: Your memory of these faces will be tested 4 times during this experiment.</strong></p>",0,html-button-response,306,2016488,0.0-18.0-0.0,67440,List2B,black,woman,,,,,,,,,,,,,
4844.5,"<img src=""portrait/WW2.jpg""style=""height:400px;""></img>",3,html-button-response,307,2022337,0.0-18.0-1.0,67440,List2B,black,woman,,TRUE,3,,,,,,,,,,
null,CORRECT,,html-keyboard-response,308,2023852,0.0-18.0-2.0-0.0,67440,List2B,black,woman,,,,null,,,,,,,,,
1937.9,"<img src=""portrait/BM2.jpg""style=""height:400px;""></img>",5,html-button-response,309,2025793,0.0-18.0-4.0,67440,List2B,black,woman,,TRUE,5,,,,,,,,,,
null,CORRECT,,html-keyboard-response,310,2027303,0.0-18.0-5.0-0.0,67440,List2B,black,woman,,,,null,,,,,,,,,
5942.5,"<img src=""portrait/WW1.jpg""style=""height:400px;""></img>",1,html-button-response,311,2033249,0.0-18.0-7.0,67440,List2B,black,woman,,TRUE,1,,,,,,,,,,
null,CORRECT,,html-keyboard-response,312,2034766,0.0-18.0-8.0-0.0,67440,List2B,black,woman,,,,null,,,,,,,,,
3135.8,"<img src=""portrait/WM2.jpg""style=""height:400px;""></img>",7,html-button-response,313,2037905,0.0-18.0-10.0,67440,List2B,black,woman,,TRUE,7,,,,,,,,,,
null,CORRECT,,html-keyboard-response,314,2039410,0.0-18.0-11.0-0.0,67440,List2B,black,woman,,,,null,,,,,,,,,
5099.7,"<img src=""portrait/BW1.jpg""style=""height:400px;""></img>",0,html-button-response,315,2044513,0.0-18.0-13.0,67440,List2B,black,woman,,TRUE,0,,,,,,,,,,
null,CORRECT,,html-keyboard-response,316,2046031,0.0-18.0-14.0-0.0,67440,List2B,black,woman,,,,null,,,,,,,,,
2031.3,"<img src=""portrait/BM1.jpg""style=""height:400px;""></img>",4,html-button-response,317,2048065,0.0-18.0-16.0,67440,List2B,black,woman,,TRUE,4,,,,,,,,,,
null,CORRECT,,html-keyboard-response,318,2049580,0.0-18.0-17.0-0.0,67440,List2B,black,woman,,,,null,,,,,,,,,
2793.4,"<img src=""portrait/BW2.jpg""style=""height:400px;""></img>",2,html-button-response,319,2052377,0.0-18.0-19.0,67440,List2B,black,woman,,TRUE,2,,,,,,,,,,
null,CORRECT,,html-keyboard-response,320,2053884,0.0-18.0-20.0-0.0,67440,List2B,black,woman,,,,null,,,,,,,,,
2466.8,"<img src=""portrait/WM1.jpg""style=""height:400px;""></img>",6,html-button-response,321,2056353,0.0-18.0-22.0,67440,List2B,black,woman,,TRUE,6,,,,,,,,,,
null,CORRECT,,html-keyboard-response,322,2057869,0.0-18.0-23.0-0.0,67440,List2B,black,woman,,,,null,,,,,,,,,
2376.6,<p>You got 8 out of 8 right first time. Press Continue.</p>,0,html-button-response,323,2060248,0.0-18.0-25.0,67440,List2B,black,woman,,,,,,,,,,,,,
null,"<div style=""font-size:60px;"">+</div>",,html-keyboard-response,324,2061770,0.0-19.0-0.0,67440,List2B,black,woman,,,,null,,,,,,,,,
null,"<img src=""stim_listB/look6.gif""style=""height:400px;""></stim_listB>",,html-keyboard-response,325,2063773,0.0-19.0-1.0,67440,List2B,black,woman,,,,null,,,,,,,,,
null,is being looked at by,,html-keyboard-response,326,2065781,0.0-19.0-2.0,67440,List2B,black,woman,,,,null,,,,,,,,,
11114.6,,,survey-text,327,2076900,0.0-19.0-3.0,67440,List2B,black,woman,,,,,"{""Q0"":""Dave is being looked at by Mike""}","<img src=""stim_listB/look6.gif""style=""height:400px;""></stim_listB>",is being looked at by,,,,,,
null,"<div style=""font-size:60px;"">+</div>",,html-keyboard-response,328,2077407,0.0-19.0-0.1,67440,List2B,black,woman,,,,null,,,,,,,,,
null,"<img src=""stim_listB/kiss6.gif""style=""height:400px;""></stim_listB>",,html-keyboard-response,329,2079423,0.0-19.0-1.1,67440,List2B,black,woman,,,,null,,,,,,,,,
null,is being kissed by,,html-keyboard-response,330,2081426,0.0-19.0-2.1,67440,List2B,black,woman,,,,null,,,,,,,,,
21675.4,,,survey-text,331,2103105,0.0-19.0-3.1,67440,List2B,black,woman,,,,,"{""Q0"":""Mike is being kissed by Dave""}","<img src=""stim_listB/kiss6.gif""style=""height:400px;""></stim_listB>",is being kissed by,,,,,,
null,"<div style=""font-size:60px;"">+</div>",,html-keyboard-response,332,2103614,0.0-19.0-0.2,67440,List2B,black,woman,,,,null,,,,,,,,,
null,"<img src=""stim_listB/touch4.gif""style=""height:400px;""></stim_listB>",,html-keyboard-response,333,2105620,0.0-19.0-1.2,67440,List2B,black,woman,,,,null,,,,,,,,,
null,is being touched by,,html-keyboard-response,334,2107627,0.0-19.0-2.2,67440,List2B,black,woman,,,,null,,,,,,,,,
21322.2,,,survey-text,335,2128953,0.0-19.0-3.2,67440,List2B,black,woman,,,,,"{""Q0"":""Fred is being touched by beth""}","<img src=""stim_listB/touch4.gif""style=""height:400px;""></stim_listB>",is being touched by,,,,,,
null,"<div style=""font-size:60px;"">+</div>",,html-keyboard-response,336,2129456,0.0-19.0-0.3,67440,List2B,black,woman,,,,null,,,,,,,,,
null,"<img src=""stim_listB/copy4.gif""style=""height:400px;""></stim_listB>",,html-keyboard-response,337,2131459,0.0-19.0-1.3,67440,List2B,black,woman,,,,null,,,,,,,,,
null,is being copied by,,html-keyboard-response,338,2133468,0.0-19.0-2.3,67440,List2B,black,woman,,,,null,,,,,,,,,
9659.5,,,survey-text,339,2143132,0.0-19.0-3.3,67440,List2B,black,woman,,,,,"{""Q0"":""Fred is being copied by kate""}","<img src=""stim_listB/copy4.gif""style=""height:400px;""></stim_listB>",is being copied by,,,,,,
null,"<div style=""font-size:60px;"">+</div>",,html-keyboard-response,340,2143648,0.0-19.0-0.4,67440,List2B,black,woman,,,,null,,,,,,,,,
null,"<img src=""stim_listB/touch8.gif""style=""height:400px;""></stim_listB>",,html-keyboard-response,341,2145665,0.0-19.0-1.4,67440,List2B,black,woman,,,,null,,,,,,,,,
null,is being touched by,,html-keyboard-response,342,2147676,0.0-19.0-2.4,67440,List2B,black,woman,,,,null,,,,,,,,,
19234.9,,,survey-text,343,2166916,0.0-19.0-3.4,67440,List2B,black,woman,,,,,"{""Q0"":""Ruth is being touched by beth""}","<img src=""stim_listB/touch8.gif""style=""height:400px;""></stim_listB>",is being touched by,,,,,,
null,"<div style=""font-size:60px;"">+</div>",,html-keyboard-response,344,2167421,0.0-19.0-0.5,67440,List2B,black,woman,,,,null,,,,,,,,,
null,"<img src=""stim_listB/seduce5.gif""style=""height:400px;""></stim_listB>",,html-keyboard-response,345,2169436,0.0-19.0-1.5,67440,List2B,black,woman,,,,null,,,,,,,,,
null,is seducing,,html-keyboard-response,346,2171453,0.0-19.0-2.5,67440,List2B,black,woman,,,,null,,,,,,,,,
10386.3,,,survey-text,347,2181843,0.0-19.0-3.5,67440,List2B,black,woman,,,,,"{""Q0"":""Mike is seducing Luke""}","<img src=""stim_listB/seduce5.gif""style=""height:400px;""></stim_listB>",is seducing,,,,,,
null,"<div style=""font-size:60px;"">+</div>",,html-keyboard-response,348,2182355,0.0-19.0-0.6,67440,List2B,black,woman,,,,null,,,,,,,,,
null,"<img src=""stim_listB/touch6.gif""style=""height:400px;""></stim_listB>",,html-keyboard-response,349,2184371,0.0-19.0-1.6,67440,List2B,black,woman,,,,null,,,,,,,,,
null,is being touched by,,html-keyboard-response,350,2186376,0.0-19.0-2.6,67440,List2B,black,woman,,,,null,,,,,,,,,
19069.2,,,survey-text,351,2205451,0.0-19.0-3.6,67440,List2B,black,woman,,,,,"{""Q0"":""fred is being touched by luke""}","<img src=""stim_listB/touch6.gif""style=""height:400px;""></stim_listB>",is being touched by,,,,,,
null,"<div style=""font-size:60px;"">+</div>",,html-keyboard-response,352,2205959,0.0-19.0-0.7,67440,List2B,black,woman,,,,null,,,,,,,,,
null,"<img src=""stim_listB/touch7.gif""style=""height:400px;""></stim_listB>",,html-keyboard-response,353,2207975,0.0-19.0-1.7,67440,List2B,black,woman,,,,null,,,,,,,,,
null,is touching,,html-keyboard-response,354,2209978,0.0-19.0-2.7,67440,List2B,black,woman,,,,null,,,,,,,,,
8212.7,,,survey-text,355,2218195,0.0-19.0-3.7,67440,List2B,black,woman,,,,,"{""Q0"":""jane is touching kate""}","<img src=""stim_listB/touch7.gif""style=""height:400px;""></stim_listB>",is touching,,,,,,
null,"<div style=""font-size:60px;"">+</div>",,html-keyboard-response,356,2218699,0.0-19.0-0.8,67440,List2B,black,woman,,,,null,,,,,,,,,
null,"<img src=""stim_listB/look2.gif""style=""height:400px;""></stim_listB>",,html-keyboard-response,357,2220709,0.0-19.0-1.8,67440,List2B,black,woman,,,,null,,,,,,,,,
null,is being looked at by,,html-keyboard-response,358,2222712,0.0-19.0-2.8,67440,List2B,black,woman,,,,null,,,,,,,,,
12135,,,survey-text,359,2234851,0.0-19.0-3.8,67440,List2B,black,woman,,,,,"{""Q0"":""Dave is being looked at by Jane""}","<img src=""stim_listB/look2.gif""style=""height:400px;""></stim_listB>",is being looked at by,,,,,,
null,"<div style=""font-size:60px;"">+</div>",,html-keyboard-response,360,2235363,0.0-19.0-0.9,67440,List2B,black,woman,,,,null,,,,,,,,,
null,"<img src=""stim_listB/hug2.gif""style=""height:400px;""></stim_listB>",,html-keyboard-response,361,2237379,0.0-19.0-1.9,67440,List2B,black,woman,,,,null,,,,,,,,,
null,is being hugged by,,html-keyboard-response,362,2239396,0.0-19.0-2.9,67440,List2B,black,woman,,,,null,,,,,,,,,
10138,,,survey-text,363,2249539,0.0-19.0-3.9,67440,List2B,black,woman,,,,,"{""Q0"":""Jane is being hugged by Dave""}","<img src=""stim_listB/hug2.gif""style=""height:400px;""></stim_listB>",is being hugged by,,,,,,
null,"<div style=""font-size:60px;"">+</div>",,html-keyboard-response,364,2250055,0.0-19.0-0.10,67440,List2B,black,woman,,,,null,,,,,,,,,
null,"<img src=""stim_listB/shout8.gif""style=""height:400px;""></stim_listB>",,html-keyboard-response,365,2252065,0.0-19.0-1.10,67440,List2B,black,woman,,,,null,,,,,,,,,
null,is being shouted at by,,html-keyboard-response,366,2254081,0.0-19.0-2.10,67440,List2B,black,woman,,,,null,,,,,,,,,
14221,,,survey-text,367,2268307,0.0-19.0-3.10,67440,List2B,black,woman,,,,,"{""Q0"":""Kate is being shouted at by Jane""}","<img src=""stim_listB/shout8.gif""style=""height:400px;""></stim_listB>",is being shouted at by,,,,,,
null,"<div style=""font-size:60px;"">+</div>",,html-keyboard-response,368,2268819,0.0-19.0-0.11,67440,List2B,black,woman,,,,null,,,,,,,,,
null,"<img src=""stim_listB/kiss5.gif""style=""height:400px;""></stim_listB>",,html-keyboard-response,369,2270832,0.0-19.0-1.11,67440,List2B,black,woman,,,,null,,,,,,,,,
null,is kissing,,html-keyboard-response,370,2272838,0.0-19.0-2.11,67440,List2B,black,woman,,,,null,,,,,,,,,
9488.4,,,survey-text,371,2282331,0.0-19.0-3.11,67440,List2B,black,woman,,,,,"{""Q0"":""Luke is kissing fred""}","<img src=""stim_listB/kiss5.gif""style=""height:400px;""></stim_listB>",is kissing,,,,,,
null,"<div style=""font-size:60px;"">+</div>",,html-keyboard-response,372,2282837,0.0-19.0-0.12,67440,List2B,black,woman,,,,null,,,,,,,,,
null,"<img src=""stim_listB/oppose5.gif""style=""height:400px;""></stim_listB>",,html-keyboard-response,373,2284851,0.0-19.0-1.12,67440,List2B,black,woman,,,,null,,,,,,,,,
null,is opposing,,html-keyboard-response,374,2286854,0.0-19.0-2.12,67440,List2B,black,woman,,,,null,,,,,,,,,
9385.1,,,survey-text,375,2296243,0.0-19.0-3.12,67440,List2B,black,woman,,,,,"{""Q0"":""Mike is opposing dave""}","<img src=""stim_listB/oppose5.gif""style=""height:400px;""></stim_listB>",is opposing,,,,,,
null,"<div style=""font-size:60px;"">+</div>",,html-keyboard-response,376,2296754,0.0-19.0-0.13,67440,List2B,black,woman,,,,null,,,,,,,,,
null,"<img src=""stim_listB/oppose3.gif""style=""height:400px;""></stim_listB>",,html-keyboard-response,377,2298770,0.0-19.0-1.13,67440,List2B,black,woman,,,,null,,,,,,,,,
null,is opposing,,html-keyboard-response,378,2300774,0.0-19.0-2.13,67440,List2B,black,woman,,,,null,,,,,,,,,
10665,,,survey-text,379,2311443,0.0-19.0-3.13,67440,List2B,black,woman,,,,,"{""Q0"":""Mike is opposing kate""}","<img src=""stim_listB/oppose3.gif""style=""height:400px;""></stim_listB>",is opposing,,,,,,
null,"<div style=""font-size:60px;"">+</div>",,html-keyboard-response,380,2311957,0.0-19.0-0.14,67440,List2B,black,woman,,,,null,,,,,,,,,
null,"<img src=""stim_listB/shout3.gif""style=""height:400px;""></stim_listB>",,html-keyboard-response,381,2313973,0.0-19.0-1.14,67440,List2B,black,woman,,,,null,,,,,,,,,
null,is shouting at,,html-keyboard-response,382,2315990,0.0-19.0-2.14,67440,List2B,black,woman,,,,null,,,,,,,,,
16113,,,survey-text,383,2332107,0.0-19.0-3.14,67440,List2B,black,woman,,,,,"{""Q0"":""fred is shouting at beth""}","<img src=""stim_listB/shout3.gif""style=""height:400px;""></stim_listB>",is shouting at,,,,,,
null,"<div style=""font-size:60px;"">+</div>",,html-keyboard-response,384,2332611,0.0-19.0-0.15,67440,List2B,black,woman,,,,null,,,,,,,,,
null,"<img src=""stim_listB/look1.gif""style=""height:400px;""></stim_listB>",,html-keyboard-response,385,2334627,0.0-19.0-1.15,67440,List2B,black,woman,,,,null,,,,,,,,,
null,is looking at,,html-keyboard-response,386,2336642,0.0-19.0-2.15,67440,List2B,black,woman,,,,null,,,,,,,,,
9868.6,,,survey-text,387,2346515,0.0-19.0-3.15,67440,List2B,black,woman,,,,,"{""Q0"":""Luke is looking at ruth""}","<img src=""stim_listB/look1.gif""style=""height:400px;""></stim_listB>",is looking at,,,,,,
null,"<div style=""font-size:60px;"">+</div>",,html-keyboard-response,388,2347028,0.0-19.0-0.16,67440,List2B,black,woman,,,,null,,,,,,,,,
null,"<img src=""stim_listB/challenge8.gif""style=""height:400px;""></stim_listB>",,html-keyboard-response,389,2349044,0.0-19.0-1.16,67440,List2B,black,woman,,,,null,,,,,,,,,
null,is being challenged by,,html-keyboard-response,390,2351048,0.0-19.0-2.16,67440,List2B,black,woman,,,,null,,,,,,,,,
23807.1,,,survey-text,391,2374859,0.0-19.0-3.16,67440,List2B,black,woman,,,,,"{""Q0"":""Ruth is being challenged by Kate""}","<img src=""stim_listB/challenge8.gif""style=""height:400px;""></stim_listB>",is being challenged by,,,,,,
null,"<div style=""font-size:60px;"">+</div>",,html-keyboard-response,392,2375368,0.0-19.0-0.17,67440,List2B,black,woman,,,,null,,,,,,,,,
null,"<img src=""stim_listB/copy6.gif""style=""height:400px;""></stim_listB>",,html-keyboard-response,393,2377383,0.0-19.0-1.17,67440,List2B,black,woman,,,,null,,,,,,,,,
null,is being copied by,,html-keyboard-response,394,2379398,0.0-19.0-2.17,67440,List2B,black,woman,,,,null,,,,,,,,,
26679.4,,,survey-text,395,2406084,0.0-19.0-3.17,67440,List2B,black,woman,,,,,"{""Q0"":""Luke is being copied by Mike""}","<img src=""stim_listB/copy6.gif""style=""height:400px;""></stim_listB>",is being copied by,,,,,,
null,"<div style=""font-size:60px;"">+</div>",,html-keyboard-response,396,2406589,0.0-19.0-0.18,67440,List2B,black,woman,,,,null,,,,,,,,,
null,"<img src=""stim_listB/hug3.gif""style=""height:400px;""></stim_listB>",,html-keyboard-response,397,2408594,0.0-19.0-1.18,67440,List2B,black,woman,,,,null,,,,,,,,,
null,is hugging,,html-keyboard-response,398,2410604,0.0-19.0-2.18,67440,List2B,black,woman,,,,null,,,,,,,,,
11251.2,,,survey-text,399,2421860,0.0-19.0-3.18,67440,List2B,black,woman,,,,,"{""Q0"":""fred is hugging beth""}","<img src=""stim_listB/hug3.gif""style=""height:400px;""></stim_listB>",is hugging,,,,,,
null,"<div style=""font-size:60px;"">+</div>",,html-keyboard-response,400,2422374,0.0-19.0-0.19,67440,List2B,black,woman,,,,null,,,,,,,,,
null,"<img src=""stim_listB/seduce2.gif""style=""height:400px;""></stim_listB>",,html-keyboard-response,401,2424389,0.0-19.0-1.19,67440,List2B,black,woman,,,,null,,,,,,,,,
null,is being seduced by,,html-keyboard-response,402,2426404,0.0-19.0-2.19,67440,List2B,black,woman,,,,null,,,,,,,,,
10427.8,,,survey-text,403,2436835,0.0-19.0-3.19,67440,List2B,black,woman,,,,,"{""Q0"":""Dave is being seduced by ruth""}","<img src=""stim_listB/seduce2.gif""style=""height:400px;""></stim_listB>",is being seduced by,,,,,,
5898.9,<p>Thank you for completing that task.</p><p>The final part of this session is a questionnaire that will take about 4 minutes.</p><p>Press Continue.</p>,0,html-button-response,404,2442736,0.0-20.0,67440,List2B,black,woman,,,,,,,,,,,,,
62847.6,,,survey-text,405,2506594,0.0-21.0,67440,List2B,black,woman,,,,,"{""Q0"":""29"",""Q1"":""English"",""Q2"":""English"",""Q3"":""United Sates of America"",""Q4"":""Ghanaian"",""Q5"":""black"",""Q6"":""Female""}",,,demographics,,,,,
5800.7,<p>Have you lived in the USA for the last 5 years or more?</p>,0,html-button-response,406,2512401,0.0-22.0,67440,List2B,black,woman,,,,,,,,fiveyears,,,,,
2622.7,<p>Move the slider to show the extent to which you agree with the following statements.</p>,0,html-button-response,407,2516032,0.0-23.0,67440,List2B,black,woman,,,,,,,,,,,,,
3642.8,,,html-slider-response,408,2520680,0.0-24.0-0.0-0.0,67440,List2B,black,woman,,,,,,,,survey_gender,100,,,I feel committed to my gender.,committed
3453.5,,,html-slider-response,409,2524136,0.0-24.0-0.0-0.1,67440,List2B,black,woman,,,,,,,,survey_gender,100,,,I think that my gender has a lot to be proud of.,proud
5853.7,,,html-slider-response,410,2529993,0.0-24.0-0.0-0.2,67440,List2B,black,woman,,,,,,,,survey_gender,43,,,People of my gender are very similar to each other.,verysimilar
3403.7,,,html-slider-response,411,2533400,0.0-24.0-0.0-0.3,67440,List2B,black,woman,,,,,,,,survey_gender,82,,,Routine is not important to me.,filler
2859.2,,,html-slider-response,412,2536264,0.0-24.0-0.0-0.4,67440,List2B,black,woman,,,,,,,,survey_gender,87,,,I feel solidarity with my friends.,filler
4589.5,,,html-slider-response,413,2540856,0.0-24.0-0.0-0.5,67440,List2B,black,woman,,,,,,,,survey_gender,69,,,People of my gender have a lot in common with each other.,common
4788.2,,,html-slider-response,414,2545648,0.0-24.0-0.0-0.6,67440,List2B,black,woman,,,,,,,,survey_gender,74,,,Being my gender is an important part of how I see myself.,important
3268.3,,,html-slider-response,415,2548921,0.0-24.0-0.0-0.7,67440,List2B,black,woman,,,,,,,,survey_gender,49,,,I often think about my actions.,filler
3437,,,html-slider-response,416,2552361,0.0-24.0-0.0-0.8,67440,List2B,black,woman,,,,,,,,survey_gender,87,,,My friends understand me.,filler
3356.1,,,html-slider-response,417,2555721,0.0-24.0-0.0-0.9,67440,List2B,black,woman,,,,,,,,survey_gender,94,,,I have a lot in common with the average person of my gender.,average
3532.2,,,html-slider-response,418,2559258,0.0-24.0-0.0-0.10,67440,List2B,black,woman,,,,,,,,survey_gender,90,,,My friends have a lot in common with each other.,filler
3036.1,,,html-slider-response,419,2562297,0.0-24.0-0.0-0.11,67440,List2B,black,woman,,,,,,,,survey_gender,92,,,I have a lot in common with my friends.,filler
3332.7,,,html-slider-response,420,2565633,0.0-24.0-0.0-0.12,67440,List2B,black,woman,,,,,,,,survey_gender,95,,,I am similar to the average person of my gender.,similar
3693.1,,,html-slider-response,421,2569329,0.0-24.0-0.0-0.13,67440,List2B,black,woman,,,,,,,,survey_gender,34,,,The fact that I am my gender is an important part of my identity.,identity
2668.2,,,html-slider-response,422,2572001,0.0-24.0-0.0-0.14,67440,List2B,black,woman,,,,,,,,survey_gender,99,,,I am glad to be my gender.,glad
3109.5,,,html-slider-response,423,2575112,0.0-24.0-0.0-0.15,67440,List2B,black,woman,,,,,,,,survey_gender,91,,,It is pleasant to be my gender.,pleasant
3869.9,,,html-slider-response,424,2578985,0.0-24.0-0.0-0.16,67440,List2B,black,woman,,,,,,,,survey_gender,43,,,I often think about the fact that I am my gender.,often
4516.5,,,html-slider-response,425,2583505,0.0-24.0-0.0-0.17,67440,List2B,black,woman,,,,,,,,survey_gender,53,,,It is not always easy for people to know what I am thinking.,filler
3964.3,,,html-slider-response,426,2587473,0.0-24.0-0.0-0.18,67440,List2B,black,woman,,,,,,,,survey_gender,67,,,Most of the friends in my life are very similar to me.,filler
3196.3,,,html-slider-response,427,2590673,0.0-24.0-0.0-0.19,67440,List2B,black,woman,,,,,,,,survey_gender,94,,,I am glad to have the friends that I have.,filler
5701.4,,,html-slider-response,428,2596377,0.0-24.0-0.0-0.20,67440,List2B,black,woman,,,,,,,,survey_gender,48,,,I consider myself a highly empathetic person.,filler
4434.5,,,html-slider-response,429,2600817,0.0-24.0-0.0-0.21,67440,List2B,black,woman,,,,,,,,survey_gender,78,,,Family is not more important to me than friendship.,filler
2708.3,,,html-slider-response,430,2603529,0.0-24.0-0.0-0.22,67440,List2B,black,woman,,,,,,,,survey_gender,95,,,I feel a bond with my friends.,filler
4371.8,,,html-slider-response,431,2607905,0.0-24.0-0.0-0.23,67440,List2B,black,woman,,,,,,,,survey_gender,53,,,Being my gender gives me a good feeling.,feeling
3573.1,,,html-slider-response,432,2611481,0.0-24.0-0.0-0.24,67440,List2B,black,woman,,,,,,,,survey_gender,85,,,Being around my friends gives me a good feeling.,filler
2708.5,,,html-slider-response,433,2614193,0.0-24.0-0.0-0.25,67440,List2B,black,woman,,,,,,,,survey_gender,86,,,I feel a bond with my gender.,bond
2557.5,,,html-slider-response,434,2616753,0.0-24.0-0.0-0.26,67440,List2B,black,woman,,,,,,,,survey_gender,83,,,I feel solidarity with my gender.,solidarity
2365.5,,,html-slider-response,435,2619121,0.0-24.0-0.0-0.27,67440,List2B,black,woman,,,,,,,,survey_gender,76,,,I would say I am an animal person.,filler
2278,,,html-slider-response,436,2621401,0.0-24.0-1.0-0.0,67440,List2B,black,woman,,,,,,,,survey_race,98,,,I feel solidarity with my race.,solidarity
3028.7,,,html-slider-response,437,2624433,0.0-24.0-1.0-0.1,67440,List2B,black,woman,,,,,,,,survey_race,65,,,I feel a bond with people the same age as me.,filler
2285,,,html-slider-response,438,2626721,0.0-24.0-1.0-0.2,67440,List2B,black,woman,,,,,,,,survey_race,61,,,It is pleasant to be my race.,pleasant
3397,,,html-slider-response,439,2630120,0.0-24.0-1.0-0.3,67440,List2B,black,woman,,,,,,,,survey_race,97,,,I often think about the fact that I am my race.,often
3028.8,,,html-slider-response,440,2633153,0.0-24.0-1.0-0.4,67440,List2B,black,woman,,,,,,,,survey_race,57,,,People my age have a lot in common with each other.,filler
2597.4,,,html-slider-response,441,2635753,0.0-24.0-1.0-0.5,67440,List2B,black,woman,,,,,,,,survey_race,74,,,I am glad to be the age I am.,filler
3972.3,,,html-slider-response,442,2639729,0.0-24.0-1.0-0.6,67440,List2B,black,woman,,,,,,,,survey_race,88,,,People of my race are very similar to each other.,verysimilar
5251.9,,,html-slider-response,443,2644984,0.0-24.0-1.0-0.7,67440,List2B,black,woman,,,,,,,,survey_race,62,,,I often think about the fact that I am my age.,filler
2284.3,,,html-slider-response,444,2647272,0.0-24.0-1.0-0.8,67440,List2B,black,woman,,,,,,,,survey_race,61,,,I enjoy being in large groups.,filler
4180.7,,,html-slider-response,445,2651456,0.0-24.0-1.0-0.9,67440,List2B,black,woman,,,,,,,,survey_race,58,,,I have a lot in common with the average person of my race.,average
2252.7,,,html-slider-response,446,2653712,0.0-24.0-1.0-0.10,67440,List2B,black,woman,,,,,,,,survey_race,100,,,I am glad to be my race.,glad
4101.9,,,html-slider-response,447,2657817,0.0-24.0-1.0-0.11,67440,List2B,black,woman,,,,,,,,survey_race,65,,,Getting older does not worry me.,filler
3180.3,,,html-slider-response,448,2661000,0.0-24.0-1.0-0.12,67440,List2B,black,woman,,,,,,,,survey_race,100,,,Being my race is an important part of how I see myself.,important
2589.6,,,html-slider-response,449,2663593,0.0-24.0-1.0-0.13,67440,List2B,black,woman,,,,,,,,survey_race,64,,,I consider myself an extrovert.,filler
2660.2,,,html-slider-response,450,2666257,0.0-24.0-1.0-0.14,67440,List2B,black,woman,,,,,,,,survey_race,87,,,I feel a bond with my race.,bond
2837.9,,,html-slider-response,451,2669097,0.0-24.0-1.0-0.15,67440,List2B,black,woman,,,,,,,,survey_race,80,,,"The older I get, the wiser I feel.",filler
2837.1,,,html-slider-response,452,2671937,0.0-24.0-1.0-0.16,67440,List2B,black,woman,,,,,,,,survey_race,75,,,I have a lot in common with people of a similar age to me.,filler
3731.7,,,html-slider-response,453,2675673,0.0-24.0-1.0-0.17,67440,List2B,black,woman,,,,,,,,survey_race,62,,,Being my age gives me a good feeling.,filler
2860,,,html-slider-response,454,2678537,0.0-24.0-1.0-0.18,67440,List2B,black,woman,,,,,,,,survey_race,66,,,My age is not an important part of who I am.,filler
3029.3,,,html-slider-response,455,2681569,0.0-24.0-1.0-0.19,67440,List2B,black,woman,,,,,,,,survey_race,58,,,I feel solidarity with people the same age as me.,filler
2307.2,,,html-slider-response,456,2683881,0.0-24.0-1.0-0.20,67440,List2B,black,woman,,,,,,,,survey_race,79,,,I am glad to be my age.,filler
2333.4,,,html-slider-response,457,2686217,0.0-24.0-1.0-0.21,67440,List2B,black,woman,,,,,,,,survey_race,92,,,I feel committed to my race.,committed
4781.6,,,html-slider-response,458,2691001,0.0-24.0-1.0-0.22,67440,List2B,black,woman,,,,,,,,survey_race,30,,,I consider myself an introvert.,filler
2917.1,,,html-slider-response,459,2693921,0.0-24.0-1.0-0.23,67440,List2B,black,woman,,,,,,,,survey_race,60,,,People of my race have a lot in common with each other.,common
2732.3,,,html-slider-response,460,2696657,0.0-24.0-1.0-0.24,67440,List2B,black,woman,,,,,,,,survey_race,60,,,The fact that I am my race is an important part of my identity.,identity
2637.6,,,html-slider-response,461,2699297,0.0-24.0-1.0-0.25,67440,List2B,black,woman,,,,,,,,survey_race,69,,,I am similar to the average person of my race.,similar
2669.5,,,html-slider-response,462,2701969,0.0-24.0-1.0-0.26,67440,List2B,black,woman,,,,,,,,survey_race,75,,,Being my race gives me a good feeling.,feeling
2244.8,,,html-slider-response,463,2704217,0.0-24.0-1.0-0.27,67440,List2B,black,woman,,,,,,,,survey_race,71,,,I think that my race has a lot to be proud of.,proud
11353,,,survey-text,464,2715578,0.0-25.0,67440,List2B,black,woman,,,,,"{""Q0"":""ccc""}",,,worker_id,,,,,
11528.4,,,external-html,465,2729001,0.0-26.0,67440,List2B,black,woman,debrief.html,,,,,,,,,,,,
