rt,stimulus,button_pressed,trial_type,trial_index,time_elapsed,internal_node_id,subject,list,ppt_race,ppt_gender,url,first_guess,correct,key_press,responses,image_type,phrase_type,test_part,response,stimulus1,stimulus2,question_type,survey_item
11880.5,Welcome to the experiment. Press Continue to begin.,0,html-button-response,0,11883,0.0-0.0,68155,List2A,white,man,,,,,,,,,,,,,
32357.6,,,external-html,1,46406,0.0-1.0,68155,List2A,white,man,consent.html,,,,,,,,,,,,
43697.7,"<p>On the next page, you will see portraits of 8 people and their names.</p><p>Your first task is to take a few minutes to memorise the names of these people.</p><p>You will have to recall their names during the rest of the experiment, so it is</p><p>essential that you try to memorise these people and their names as best as you can.</p><br><p><strong>You will then be tested on your memory of these names and portraits.</strong></p><br><p>The experiment will start after you have completed this memory test.</p><br><p>Ready?</p>",0,html-button-response,2,90105,0.0-2.0,68155,List2A,white,man,,,,,,,,,,,,,
19518.7,"<img src='img/portrait_matrix_list2.jpg' style='width:900px;height:500px;''></img><p>If you have memorised all the portraits and names and are ready to start, press Continue.</p><p><strong>Please note: Your memory of these faces will be tested 4 times during this experiment.</strong></p>",0,html-button-response,3,110633,0.0-3.0-0.0,68155,List2A,white,man,,,,,,,,,,,,,
8113.7,"<img src=""portrait/BM2.jpg""style=""height:400px;""></img>",5,html-button-response,4,119761,0.0-3.0-1.0,68155,List2A,white,man,,TRUE,5,,,,,,,,,,
null,CORRECT,,html-keyboard-response,5,121281,0.0-3.0-2.0-0.0,68155,List2A,white,man,,,,null,,,,,,,,,
101437,"<img src=""portrait/BW1.jpg""style=""height:400px;""></img>",0,html-button-response,6,222719,0.0-3.0-4.0,68155,List2A,white,man,,TRUE,0,,,,,,,,,,
null,CORRECT,,html-keyboard-response,7,224221,0.0-3.0-5.0-0.0,68155,List2A,white,man,,,,null,,,,,,,,,
4193,"<img src=""portrait/WM1.jpg""style=""height:400px;""></img>",6,html-button-response,8,228415,0.0-3.0-7.0,68155,List2A,white,man,,TRUE,6,,,,,,,,,,
null,CORRECT,,html-keyboard-response,9,229933,0.0-3.0-8.0-0.0,68155,List2A,white,man,,,,null,,,,,,,,,
9049.1,"<img src=""portrait/WW2.jpg""style=""height:400px;""></img>",2,html-button-response,10,238983,0.0-3.0-10.0,68155,List2A,white,man,,TRUE,3,,,,,,,,,,
41246,"<img src=""portrait/WW2.jpg""style=""height:400px;""></img>",3,html-button-response,11,281235,0.0-3.0-12.0-0.0,68155,List2A,white,man,,FALSE,3,,,,,,,,,,
null,CORRECT,,html-keyboard-response,12,282742,0.0-3.0-12.0-1.0-0.0,68155,List2A,white,man,,,,null,,,,,,,,,
3555.3,"<img src=""portrait/BM1.jpg""style=""height:400px;""></img>",4,html-button-response,13,286298,0.0-3.0-13.0,68155,List2A,white,man,,TRUE,4,,,,,,,,,,
null,CORRECT,,html-keyboard-response,14,287801,0.0-3.0-14.0-0.0,68155,List2A,white,man,,,,null,,,,,,,,,
2096.6,"<img src=""portrait/BW2.jpg""style=""height:400px;""></img>",1,html-button-response,15,289898,0.0-3.0-16.0,68155,List2A,white,man,,TRUE,2,,,,,,,,,,
1375.6,"<img src=""portrait/BW2.jpg""style=""height:400px;""></img>",2,html-button-response,16,292290,0.0-3.0-18.0-0.0,68155,List2A,white,man,,FALSE,2,,,,,,,,,,
null,CORRECT,,html-keyboard-response,17,293808,0.0-3.0-18.0-1.0-0.0,68155,List2A,white,man,,,,null,,,,,,,,,
4721.4,"<img src=""portrait/WM2.jpg""style=""height:400px;""></img>",4,html-button-response,18,298530,0.0-3.0-19.0,68155,List2A,white,man,,TRUE,7,,,,,,,,,,
2413.2,"<img src=""portrait/WM2.jpg""style=""height:400px;""></img>",7,html-button-response,19,301946,0.0-3.0-21.0-0.0,68155,List2A,white,man,,FALSE,7,,,,,,,,,,
null,CORRECT,,html-keyboard-response,20,303477,0.0-3.0-21.0-1.0-0.0,68155,List2A,white,man,,,,null,,,,,,,,,
5804.3,"<img src=""portrait/WW1.jpg""style=""height:400px;""></img>",0,html-button-response,21,309282,0.0-3.0-22.0,68155,List2A,white,man,,TRUE,1,,,,,,,,,,
1587.5,"<img src=""portrait/WW1.jpg""style=""height:400px;""></img>",1,html-button-response,22,311874,0.0-3.0-24.0-0.0,68155,List2A,white,man,,FALSE,1,,,,,,,,,,
null,CORRECT,,html-keyboard-response,23,313407,0.0-3.0-24.0-1.0-0.0,68155,List2A,white,man,,,,null,,,,,,,,,
2149.5,<p>You got 4 out of 8 right first time. Press Continue.</p>,0,html-button-response,24,315558,0.0-3.0-25.0,68155,List2A,white,man,,,,,,,,,,,,,
3366.4,"As you did not score 100%, the memory game will repeat. Press Continue.",0,html-button-response,25,319926,0.0-3.0-26.0-0.0,68155,List2A,white,man,,,,,,,,,,,,,
2386.3,"<img src='img/portrait_matrix_list2.jpg' style='width:900px;height:500px;''></img><p>If you have memorised all the portraits and names and are ready to start, press Continue.</p><p><strong>Please note: Your memory of these faces will be tested 4 times during this experiment.</strong></p>",0,html-button-response,26,323330,0.0-3.1-0.1,68155,List2A,white,man,,,,,,,,,,,,,
6473.7,"<img src=""portrait/BM2.jpg""style=""height:400px;""></img>",5,html-button-response,27,330814,0.0-3.1-1.1,68155,List2A,white,man,,TRUE,5,,,,,,,,,,
null,CORRECT,,html-keyboard-response,28,332329,0.0-3.1-2.1-0.1,68155,List2A,white,man,,,,null,,,,,,,,,
3443.9,"<img src=""portrait/BW1.jpg""style=""height:400px;""></img>",0,html-button-response,29,335774,0.0-3.1-4.1,68155,List2A,white,man,,TRUE,0,,,,,,,,,,
null,CORRECT,,html-keyboard-response,30,337275,0.0-3.1-5.1-0.1,68155,List2A,white,man,,,,null,,,,,,,,,
6261.2,"<img src=""portrait/WM1.jpg""style=""height:400px;""></img>",6,html-button-response,31,343538,0.0-3.1-7.1,68155,List2A,white,man,,TRUE,6,,,,,,,,,,
null,CORRECT,,html-keyboard-response,32,345051,0.0-3.1-8.1-0.1,68155,List2A,white,man,,,,null,,,,,,,,,
3233.8,"<img src=""portrait/WW2.jpg""style=""height:400px;""></img>",3,html-button-response,33,348286,0.0-3.1-10.1,68155,List2A,white,man,,TRUE,3,,,,,,,,,,
null,CORRECT,,html-keyboard-response,34,349800,0.0-3.1-11.1-0.1,68155,List2A,white,man,,,,null,,,,,,,,,
5420.5,"<img src=""portrait/BM1.jpg""style=""height:400px;""></img>",4,html-button-response,35,355222,0.0-3.1-13.1,68155,List2A,white,man,,TRUE,4,,,,,,,,,,
null,CORRECT,,html-keyboard-response,36,356739,0.0-3.1-14.1-0.1,68155,List2A,white,man,,,,null,,,,,,,,,
2985.4,"<img src=""portrait/BW2.jpg""style=""height:400px;""></img>",2,html-button-response,37,359725,0.0-3.1-16.1,68155,List2A,white,man,,TRUE,2,,,,,,,,,,
null,CORRECT,,html-keyboard-response,38,361251,0.0-3.1-17.1-0.1,68155,List2A,white,man,,,,null,,,,,,,,,
7777.4,"<img src=""portrait/WM2.jpg""style=""height:400px;""></img>",7,html-button-response,39,369029,0.0-3.1-19.1,68155,List2A,white,man,,TRUE,7,,,,,,,,,,
null,CORRECT,,html-keyboard-response,40,370542,0.0-3.1-20.1-0.1,68155,List2A,white,man,,,,null,,,,,,,,,
4602.2,"<img src=""portrait/WW1.jpg""style=""height:400px;""></img>",1,html-button-response,41,375145,0.0-3.1-22.1,68155,List2A,white,man,,TRUE,1,,,,,,,,,,
null,CORRECT,,html-keyboard-response,42,376670,0.0-3.1-23.1-0.1,68155,List2A,white,man,,,,null,,,,,,,,,
1181.7,<p>You got 8 out of 8 right first time. Press Continue.</p>,0,html-button-response,43,377853,0.0-3.1-25.1,68155,List2A,white,man,,,,,,,,,,,,,
107496.6,"<p>In this experiment, you will view photographs of the people from the memory game interacting.</p><p>By using the <strong>exact</strong> phrase given <i>after</i> the photograph appears and recalling the correct names of the people in the photographs, form a sentence describing the interaction. You do not need to capitalise names.</p><p>Type your answer in the space provided. Please complete every sentence before moving onto the next trial.</p><p>You will only have a few seconds to memorise each given photograph and phrase before you can respond, so try your best to focus.</p><p>An example is given below. Press 'Continue' when you are ready.</p><img src='img/speaking_example.jpg' style='width:800px;height:460px;''></img>",0,html-button-response,44,486364,0.0-4.0,68155,List2A,white,man,,,,,,,,,,,,,
1760.2,"<p>Before the experiment starts, you will watch two example trials. Press 'Continue'.</p>",0,html-button-response,45,489132,0.0-5.0,68155,List2A,white,man,,,,,,,,,,,,,
null,<img src='img/play_eg.gif' style='height:400px;''></img>,,html-keyboard-response,46,492150,0.0-6.0,68155,List2A,white,man,,,,null,,,,,,,,,
null,<p>is playing with</p>,,html-keyboard-response,47,494155,0.0-7.0,68155,List2A,white,man,,,,null,,,,,,,,,
1847.9,<p><b>Answer:</b> jane is playing with ruth</p>,0,html-button-response,48,496004,0.0-8.0,68155,List2A,white,man,,,,,,,,,,,,,
null,<img src='img/dance_eg.gif' style='height:400px;''></img>,,html-keyboard-response,49,499012,0.0-9.0,68155,List2A,white,man,,,,null,,,,,,,,,
null,<p>is being entertained by</p>,,html-keyboard-response,50,501013,0.0-10.0,68155,List2A,white,man,,,,null,,,,,,,,,
1149.9,<p><b>Answer:</b> fred is being entertained by mike</p>,0,html-button-response,51,502164,0.0-11.0,68155,List2A,white,man,,,,,,,,,,,,,
10628.9,"<p>Ready to start the experiment?</p><br><p><strong>Remember to describe the picture using a full sentence,</strong></p><p><strong>that combines the names of the people with the <i>exact</i> phrase given.</strong></p><p><strong>To receive full payment you must do this correctly.</strong></p><p><strong> You do not need to capitalise names or use punctuation.</strong></p><br><p>Press 'Continue' to begin.</p>",0,html-button-response,52,513804,0.0-12.0,68155,List2A,white,man,,,,,,,,,,,,,
null,"<div style=""font-size:60px;"">+</div>",,html-keyboard-response,53,515329,0.0-13.0-0.0,68155,List2A,white,man,,,,null,,,,,,,,,
null,"<img src=""stim_listA/seduce2.gif""style=""height:400px;""></stim_listA>",,html-keyboard-response,54,517335,0.0-13.0-1.0,68155,List2A,white,man,,,,null,,,,,,,,,
null,is being seduced by,,html-keyboard-response,55,519340,0.0-13.0-2.0,68155,List2A,white,man,,,,null,,,,,,,,,
17709.2,,,survey-text,56,537051,0.0-13.0-3.0,68155,List2A,white,man,,,,,"{""Q0"":""luke is being seduced by jane""}","<img src=""stim_listA/seduce2.gif""style=""height:400px;""></stim_listA>",is being seduced by,,,,,,
null,"<div style=""font-size:60px;"">+</div>",,html-keyboard-response,57,537552,0.0-13.0-0.1,68155,List2A,white,man,,,,null,,,,,,,,,
null,"<img src=""stim_listA/kiss5.gif""style=""height:400px;""></stim_listA>",,html-keyboard-response,58,539568,0.0-13.0-1.1,68155,List2A,white,man,,,,null,,,,,,,,,
null,is kissing,,html-keyboard-response,59,541573,0.0-13.0-2.1,68155,List2A,white,man,,,,null,,,,,,,,,
18959.8,,,survey-text,60,560535,0.0-13.0-3.1,68155,List2A,white,man,,,,,"{""Q0"":""luke is kissing fred""}","<img src=""stim_listA/kiss5.gif""style=""height:400px;""></stim_listA>",is kissing,,,,,,
null,"<div style=""font-size:60px;"">+</div>",,html-keyboard-response,61,561041,0.0-13.0-0.2,68155,List2A,white,man,,,,null,,,,,,,,,
null,"<img src=""stim_listA/touch8.gif""style=""height:400px;""></stim_listA>",,html-keyboard-response,62,563044,0.0-13.0-1.2,68155,List2A,white,man,,,,null,,,,,,,,,
null,is being touched by,,html-keyboard-response,63,565048,0.0-13.0-2.2,68155,List2A,white,man,,,,null,,,,,,,,,
15069.2,,,survey-text,64,580118,0.0-13.0-3.2,68155,List2A,white,man,,,,,"{""Q0"":""beth is being touched by ruth""}","<img src=""stim_listA/touch8.gif""style=""height:400px;""></stim_listA>",is being touched by,,,,,,
null,"<div style=""font-size:60px;"">+</div>",,html-keyboard-response,65,580633,0.0-13.0-0.3,68155,List2A,white,man,,,,null,,,,,,,,,
null,"<img src=""stim_listA/kiss4.gif""style=""height:400px;""></stim_listA>",,html-keyboard-response,66,582637,0.0-13.0-1.3,68155,List2A,white,man,,,,null,,,,,,,,,
null,is being kissed by,,html-keyboard-response,67,584642,0.0-13.0-2.3,68155,List2A,white,man,,,,null,,,,,,,,,
11822.3,,,survey-text,68,596466,0.0-13.0-3.3,68155,List2A,white,man,,,,,"{""Q0"":""mike is being kissed by kate""}","<img src=""stim_listA/kiss4.gif""style=""height:400px;""></stim_listA>",is being kissed by,,,,,,
null,"<div style=""font-size:60px;"">+</div>",,html-keyboard-response,69,596968,0.0-13.0-0.4,68155,List2A,white,man,,,,null,,,,,,,,,
null,"<img src=""stim_listA/look8.gif""style=""height:400px;""></stim_listA>",,html-keyboard-response,70,598974,0.0-13.0-1.4,68155,List2A,white,man,,,,null,,,,,,,,,
null,is being looked at by,,html-keyboard-response,71,600979,0.0-13.0-2.4,68155,List2A,white,man,,,,null,,,,,,,,,
10213.9,,,survey-text,72,611194,0.0-13.0-3.4,68155,List2A,white,man,,,,,"{""Q0"":""jane is being looked at by kate""}","<img src=""stim_listA/look8.gif""style=""height:400px;""></stim_listA>",is being looked at by,,,,,,
null,"<div style=""font-size:60px;"">+</div>",,html-keyboard-response,73,611703,0.0-13.0-0.5,68155,List2A,white,man,,,,null,,,,,,,,,
null,"<img src=""stim_listA/hug3.gif""style=""height:400px;""></stim_listA>",,html-keyboard-response,74,613708,0.0-13.0-1.5,68155,List2A,white,man,,,,null,,,,,,,,,
null,is hugging,,html-keyboard-response,75,615712,0.0-13.0-2.5,68155,List2A,white,man,,,,null,,,,,,,,,
7968.4,,,survey-text,76,623682,0.0-13.0-3.5,68155,List2A,white,man,,,,,"{""Q0"":""fred is hugging  beth""}","<img src=""stim_listA/hug3.gif""style=""height:400px;""></stim_listA>",is hugging,,,,,,
null,"<div style=""font-size:60px;"">+</div>",,html-keyboard-response,77,624190,0.0-13.0-0.6,68155,List2A,white,man,,,,null,,,,,,,,,
null,"<img src=""stim_listA/greet8.gif""style=""height:400px;""></stim_listA>",,html-keyboard-response,78,626194,0.0-13.0-1.6,68155,List2A,white,man,,,,null,,,,,,,,,
null,is being greeted by,,html-keyboard-response,79,628204,0.0-13.0-2.6,68155,List2A,white,man,,,,null,,,,,,,,,
11171.8,,,survey-text,80,639378,0.0-13.0-3.6,68155,List2A,white,man,,,,,"{""Q0"":""kate is being greeted by ruth""}","<img src=""stim_listA/greet8.gif""style=""height:400px;""></stim_listA>",is being greeted by,,,,,,
null,"<div style=""font-size:60px;"">+</div>",,html-keyboard-response,81,639888,0.0-13.0-0.7,68155,List2A,white,man,,,,null,,,,,,,,,
null,"<img src=""stim_listA/shout6.gif""style=""height:400px;""></stim_listA>",,html-keyboard-response,82,641895,0.0-13.0-1.7,68155,List2A,white,man,,,,null,,,,,,,,,
null,is being shouted at by,,html-keyboard-response,83,643899,0.0-13.0-2.7,68155,List2A,white,man,,,,null,,,,,,,,,
14281,,,survey-text,84,658182,0.0-13.0-3.7,68155,List2A,white,man,,,,,"{""Q0"":""dave is being shouted at by fred""}","<img src=""stim_listA/shout6.gif""style=""height:400px;""></stim_listA>",is being shouted at by,,,,,,
null,"<div style=""font-size:60px;"">+</div>",,html-keyboard-response,85,658696,0.0-13.0-0.8,68155,List2A,white,man,,,,null,,,,,,,,,
null,"<img src=""stim_listA/copy7.gif""style=""height:400px;""></stim_listA>",,html-keyboard-response,86,660711,0.0-13.0-1.8,68155,List2A,white,man,,,,null,,,,,,,,,
null,is copying,,html-keyboard-response,87,662722,0.0-13.0-2.8,68155,List2A,white,man,,,,null,,,,,,,,,
26841.4,,,survey-text,88,689565,0.0-13.0-3.8,68155,List2A,white,man,,,,,"{""Q0"":""beth is copying kate""}","<img src=""stim_listA/copy7.gif""style=""height:400px;""></stim_listA>",is copying,,,,,,
null,"<div style=""font-size:60px;"">+</div>",,html-keyboard-response,89,690070,0.0-13.0-0.9,68155,List2A,white,man,,,,null,,,,,,,,,
null,"<img src=""stim_listA/touch1.gif""style=""height:400px;""></stim_listA>",,html-keyboard-response,90,692078,0.0-13.0-1.9,68155,List2A,white,man,,,,null,,,,,,,,,
null,is touching,,html-keyboard-response,91,694093,0.0-13.0-2.9,68155,List2A,white,man,,,,null,,,,,,,,,
24394.4,,,survey-text,92,718489,0.0-13.0-3.9,68155,List2A,white,man,,,,,"{""Q0"":""jane is touching dave""}","<img src=""stim_listA/touch1.gif""style=""height:400px;""></stim_listA>",is touching,,,,,,
null,"<div style=""font-size:60px;"">+</div>",,html-keyboard-response,93,718998,0.0-13.0-0.10,68155,List2A,white,man,,,,null,,,,,,,,,
null,"<img src=""stim_listA/touch2.gif""style=""height:400px;""></stim_listA>",,html-keyboard-response,94,721000,0.0-13.0-1.10,68155,List2A,white,man,,,,null,,,,,,,,,
null,is being touched by,,html-keyboard-response,95,723006,0.0-13.0-2.10,68155,List2A,white,man,,,,null,,,,,,,,,
18241,,,survey-text,96,741249,0.0-13.0-3.10,68155,List2A,white,man,,,,,"{""Q0"":""luke is being touched by ruth""}","<img src=""stim_listA/touch2.gif""style=""height:400px;""></stim_listA>",is being touched by,,,,,,
null,"<div style=""font-size:60px;"">+</div>",,html-keyboard-response,97,741769,0.0-13.0-0.11,68155,List2A,white,man,,,,null,,,,,,,,,
null,"<img src=""stim_listA/challenge8.gif""style=""height:400px;""></stim_listA>",,html-keyboard-response,98,743771,0.0-13.0-1.11,68155,List2A,white,man,,,,null,,,,,,,,,
null,is being challenged by,,html-keyboard-response,99,745774,0.0-13.0-2.11,68155,List2A,white,man,,,,null,,,,,,,,,
15968.9,,,survey-text,100,761745,0.0-13.0-3.11,68155,List2A,white,man,,,,,"{""Q0"":""ruth is being challenged by kate""}","<img src=""stim_listA/challenge8.gif""style=""height:400px;""></stim_listA>",is being challenged by,,,,,,
null,"<div style=""font-size:60px;"">+</div>",,html-keyboard-response,101,762260,0.0-13.0-0.12,68155,List2A,white,man,,,,null,,,,,,,,,
null,"<img src=""stim_listA/look4.gif""style=""height:400px;""></stim_listA>",,html-keyboard-response,102,764266,0.0-13.0-1.12,68155,List2A,white,man,,,,null,,,,,,,,,
null,is being looked at by,,html-keyboard-response,103,766282,0.0-13.0-2.12,68155,List2A,white,man,,,,null,,,,,,,,,
35656.4,,,survey-text,104,801940,0.0-13.0-3.12,68155,List2A,white,man,,,,,"{""Q0"":""mike is being looked at by kate""}","<img src=""stim_listA/look4.gif""style=""height:400px;""></stim_listA>",is being looked at by,,,,,,
null,"<div style=""font-size:60px;"">+</div>",,html-keyboard-response,105,802446,0.0-13.0-0.13,68155,List2A,white,man,,,,null,,,,,,,,,
null,"<img src=""stim_listA/hug7.gif""style=""height:400px;""></stim_listA>",,html-keyboard-response,106,804451,0.0-13.0-1.13,68155,List2A,white,man,,,,null,,,,,,,,,
null,is hugging,,html-keyboard-response,107,806456,0.0-13.0-2.13,68155,List2A,white,man,,,,null,,,,,,,,,
25749.8,,,survey-text,108,832208,0.0-13.0-3.13,68155,List2A,white,man,,,,,"{""Q0"":""beth is hugging ruth""}","<img src=""stim_listA/hug7.gif""style=""height:400px;""></stim_listA>",is hugging,,,,,,
null,"<div style=""font-size:60px;"">+</div>",,html-keyboard-response,109,832722,0.0-13.0-0.14,68155,List2A,white,man,,,,null,,,,,,,,,
null,"<img src=""stim_listA/hug5.gif""style=""height:400px;""></stim_listA>",,html-keyboard-response,110,834725,0.0-13.0-1.14,68155,List2A,white,man,,,,null,,,,,,,,,
null,is hugging,,html-keyboard-response,111,836730,0.0-13.0-2.14,68155,List2A,white,man,,,,null,,,,,,,,,
45879.5,,,survey-text,112,882611,0.0-13.0-3.14,68155,List2A,white,man,,,,,"{""Q0"":""dave is hugging luke""}","<img src=""stim_listA/hug5.gif""style=""height:400px;""></stim_listA>",is hugging,,,,,,
null,"<div style=""font-size:60px;"">+</div>",,html-keyboard-response,113,883121,0.0-13.0-0.15,68155,List2A,white,man,,,,null,,,,,,,,,
null,"<img src=""stim_listA/touch5.gif""style=""height:400px;""></stim_listA>",,html-keyboard-response,114,885125,0.0-13.0-1.15,68155,List2A,white,man,,,,null,,,,,,,,,
null,is touching,,html-keyboard-response,115,887130,0.0-13.0-2.15,68155,List2A,white,man,,,,null,,,,,,,,,
28546.8,,,survey-text,116,915678,0.0-13.0-3.15,68155,List2A,white,man,,,,,"{""Q0"":""mike is touching dave""}","<img src=""stim_listA/touch5.gif""style=""height:400px;""></stim_listA>",is touching,,,,,,
null,"<div style=""font-size:60px;"">+</div>",,html-keyboard-response,117,916179,0.0-13.0-0.16,68155,List2A,white,man,,,,null,,,,,,,,,
null,"<img src=""stim_listA/seduce4.gif""style=""height:400px;""></stim_listA>",,html-keyboard-response,118,918183,0.0-13.0-1.16,68155,List2A,white,man,,,,null,,,,,,,,,
null,is being seduced by,,html-keyboard-response,119,920187,0.0-13.0-2.16,68155,List2A,white,man,,,,null,,,,,,,,,
33229.3,,,survey-text,120,953418,0.0-13.0-3.16,68155,List2A,white,man,,,,,"{""Q0"":""mike is being seduced by kate""}","<img src=""stim_listA/seduce4.gif""style=""height:400px;""></stim_listA>",is being seduced by,,,,,,
null,"<div style=""font-size:60px;"">+</div>",,html-keyboard-response,121,953929,0.0-13.0-0.17,68155,List2A,white,man,,,,null,,,,,,,,,
null,"<img src=""stim_listA/look2.gif""style=""height:400px;""></stim_listA>",,html-keyboard-response,122,955953,0.0-13.0-1.17,68155,List2A,white,man,,,,null,,,,,,,,,
null,is being looked at by,,html-keyboard-response,123,957968,0.0-13.0-2.17,68155,List2A,white,man,,,,null,,,,,,,,,
83847.3,,,survey-text,124,1041817,0.0-13.0-3.17,68155,List2A,white,man,,,,,"{""Q0"":""dave is being looked at by jane""}","<img src=""stim_listA/look2.gif""style=""height:400px;""></stim_listA>",is being looked at by,,,,,,
null,"<div style=""font-size:60px;"">+</div>",,html-keyboard-response,125,1042319,0.0-13.0-0.18,68155,List2A,white,man,,,,null,,,,,,,,,
null,"<img src=""stim_listA/shout8.gif""style=""height:400px;""></stim_listA>",,html-keyboard-response,126,1044323,0.0-13.0-1.18,68155,List2A,white,man,,,,null,,,,,,,,,
null,is being shouted at by,,html-keyboard-response,127,1046328,0.0-13.0-2.18,68155,List2A,white,man,,,,null,,,,,,,,,
15519.2,,,survey-text,128,1061849,0.0-13.0-3.18,68155,List2A,white,man,,,,,"{""Q0"":""jane is being shouted at by kate""}","<img src=""stim_listA/shout8.gif""style=""height:400px;""></stim_listA>",is being shouted at by,,,,,,
null,"<div style=""font-size:60px;"">+</div>",,html-keyboard-response,129,1062350,0.0-13.0-0.19,68155,List2A,white,man,,,,null,,,,,,,,,
null,"<img src=""stim_listA/kiss6.gif""style=""height:400px;""></stim_listA>",,html-keyboard-response,130,1064360,0.0-13.0-1.19,68155,List2A,white,man,,,,null,,,,,,,,,
null,is being kissed by,,html-keyboard-response,131,1066366,0.0-13.0-2.19,68155,List2A,white,man,,,,null,,,,,,,,,
15537.4,,,survey-text,132,1081905,0.0-13.0-3.19,68155,List2A,white,man,,,,,"{""Q0"":""luke is being kissed by fred""}","<img src=""stim_listA/kiss6.gif""style=""height:400px;""></stim_listA>",is being kissed by,,,,,,
4630.1,"<img src='img/portrait_matrix_list2.jpg' style='width:900px;height:500px;''></img><p>If you have memorised all the portraits and names and are ready to start, press Continue.</p><p><strong>Please note: Your memory of these faces will be tested 4 times during this experiment.</strong></p>",0,html-button-response,133,1086536,0.0-14.0-0.0,68155,List2A,white,man,,,,,,,,,,,,,
7051.6,"<img src=""portrait/WW1.jpg""style=""height:400px;""></img>",1,html-button-response,134,1094604,0.0-14.0-1.0,68155,List2A,white,man,,TRUE,1,,,,,,,,,,
null,CORRECT,,html-keyboard-response,135,1096106,0.0-14.0-2.0-0.0,68155,List2A,white,man,,,,null,,,,,,,,,
3248.6,"<img src=""portrait/BW1.jpg""style=""height:400px;""></img>",4,html-button-response,136,1099356,0.0-14.0-4.0,68155,List2A,white,man,,TRUE,0,,,,,,,,,,
7069,"<img src=""portrait/BW1.jpg""style=""height:400px;""></img>",0,html-button-response,137,1107436,0.0-14.0-6.0-0.0,68155,List2A,white,man,,FALSE,0,,,,,,,,,,
null,CORRECT,,html-keyboard-response,138,1108957,0.0-14.0-6.0-1.0-0.0,68155,List2A,white,man,,,,null,,,,,,,,,
3117.7,"<img src=""portrait/BM1.jpg""style=""height:400px;""></img>",4,html-button-response,139,1112076,0.0-14.0-7.0,68155,List2A,white,man,,TRUE,4,,,,,,,,,,
null,CORRECT,,html-keyboard-response,140,1113606,0.0-14.0-8.0-0.0,68155,List2A,white,man,,,,null,,,,,,,,,
5220.4,"<img src=""portrait/WM1.jpg""style=""height:400px;""></img>",6,html-button-response,141,1118828,0.0-14.0-10.0,68155,List2A,white,man,,TRUE,6,,,,,,,,,,
null,CORRECT,,html-keyboard-response,142,1120335,0.0-14.0-11.0-0.0,68155,List2A,white,man,,,,null,,,,,,,,,
2987.5,"<img src=""portrait/BM2.jpg""style=""height:400px;""></img>",5,html-button-response,143,1123323,0.0-14.0-13.0,68155,List2A,white,man,,TRUE,5,,,,,,,,,,
null,CORRECT,,html-keyboard-response,144,1124827,0.0-14.0-14.0-0.0,68155,List2A,white,man,,,,null,,,,,,,,,
3231.2,"<img src=""portrait/BW2.jpg""style=""height:400px;""></img>",2,html-button-response,145,1128060,0.0-14.0-16.0,68155,List2A,white,man,,TRUE,2,,,,,,,,,,
null,CORRECT,,html-keyboard-response,146,1129576,0.0-14.0-17.0-0.0,68155,List2A,white,man,,,,null,,,,,,,,,
4634.4,"<img src=""portrait/WM2.jpg""style=""height:400px;""></img>",7,html-button-response,147,1134212,0.0-14.0-19.0,68155,List2A,white,man,,TRUE,7,,,,,,,,,,
null,CORRECT,,html-keyboard-response,148,1135713,0.0-14.0-20.0-0.0,68155,List2A,white,man,,,,null,,,,,,,,,
3929.6,"<img src=""portrait/WW2.jpg""style=""height:400px;""></img>",3,html-button-response,149,1139643,0.0-14.0-22.0,68155,List2A,white,man,,TRUE,3,,,,,,,,,,
null,CORRECT,,html-keyboard-response,150,1141179,0.0-14.0-23.0-0.0,68155,List2A,white,man,,,,null,,,,,,,,,
1839.2,<p>You got 7 out of 8 right first time. Press Continue.</p>,0,html-button-response,151,1143019,0.0-14.0-25.0,68155,List2A,white,man,,,,,,,,,,,,,
2163.1,"As you did not score 100%, the memory game will repeat. Press Continue.",0,html-button-response,152,1146183,0.0-14.0-26.0-0.0,68155,List2A,white,man,,,,,,,,,,,,,
1546,"<img src='img/portrait_matrix_list2.jpg' style='width:900px;height:500px;''></img><p>If you have memorised all the portraits and names and are ready to start, press Continue.</p><p><strong>Please note: Your memory of these faces will be tested 4 times during this experiment.</strong></p>",0,html-button-response,153,1148731,0.0-14.1-0.1,68155,List2A,white,man,,,,,,,,,,,,,
3942.3,"<img src=""portrait/WW1.jpg""style=""height:400px;""></img>",1,html-button-response,154,1153675,0.0-14.1-1.1,68155,List2A,white,man,,TRUE,1,,,,,,,,,,
null,CORRECT,,html-keyboard-response,155,1155177,0.0-14.1-2.1-0.1,68155,List2A,white,man,,,,null,,,,,,,,,
3917.3,"<img src=""portrait/BW1.jpg""style=""height:400px;""></img>",0,html-button-response,156,1159095,0.0-14.1-4.1,68155,List2A,white,man,,TRUE,0,,,,,,,,,,
null,CORRECT,,html-keyboard-response,157,1160607,0.0-14.1-5.1-0.1,68155,List2A,white,man,,,,null,,,,,,,,,
3319.1,"<img src=""portrait/BM1.jpg""style=""height:400px;""></img>",4,html-button-response,158,1163927,0.0-14.1-7.1,68155,List2A,white,man,,TRUE,4,,,,,,,,,,
null,CORRECT,,html-keyboard-response,159,1165452,0.0-14.1-8.1-0.1,68155,List2A,white,man,,,,null,,,,,,,,,
3682,"<img src=""portrait/WM1.jpg""style=""height:400px;""></img>",6,html-button-response,160,1169135,0.0-14.1-10.1,68155,List2A,white,man,,TRUE,6,,,,,,,,,,
null,CORRECT,,html-keyboard-response,161,1170654,0.0-14.1-11.1-0.1,68155,List2A,white,man,,,,null,,,,,,,,,
2487.4,"<img src=""portrait/BM2.jpg""style=""height:400px;""></img>",5,html-button-response,162,1173143,0.0-14.1-13.1,68155,List2A,white,man,,TRUE,5,,,,,,,,,,
null,CORRECT,,html-keyboard-response,163,1174644,0.0-14.1-14.1-0.1,68155,List2A,white,man,,,,null,,,,,,,,,
3617.3,"<img src=""portrait/BW2.jpg""style=""height:400px;""></img>",2,html-button-response,164,1178263,0.0-14.1-16.1,68155,List2A,white,man,,TRUE,2,,,,,,,,,,
null,CORRECT,,html-keyboard-response,165,1179790,0.0-14.1-17.1-0.1,68155,List2A,white,man,,,,null,,,,,,,,,
3343.4,"<img src=""portrait/WM2.jpg""style=""height:400px;""></img>",7,html-button-response,166,1183135,0.0-14.1-19.1,68155,List2A,white,man,,TRUE,7,,,,,,,,,,
null,CORRECT,,html-keyboard-response,167,1184658,0.0-14.1-20.1-0.1,68155,List2A,white,man,,,,null,,,,,,,,,
2935.8,"<img src=""portrait/WW2.jpg""style=""height:400px;""></img>",3,html-button-response,168,1187595,0.0-14.1-22.1,68155,List2A,white,man,,TRUE,3,,,,,,,,,,
null,CORRECT,,html-keyboard-response,169,1189114,0.0-14.1-23.1-0.1,68155,List2A,white,man,,,,null,,,,,,,,,
1026.9,<p>You got 8 out of 8 right first time. Press Continue.</p>,0,html-button-response,170,1190142,0.0-14.1-25.1,68155,List2A,white,man,,,,,,,,,,,,,
null,"<div style=""font-size:60px;"">+</div>",,html-keyboard-response,171,1191670,0.0-15.0-0.0,68155,List2A,white,man,,,,null,,,,,,,,,
null,"<img src=""stim_listA/hug1.gif""style=""height:400px;""></stim_listA>",,html-keyboard-response,172,1193673,0.0-15.0-1.0,68155,List2A,white,man,,,,null,,,,,,,,,
null,is hugging,,html-keyboard-response,173,1195677,0.0-15.0-2.0,68155,List2A,white,man,,,,null,,,,,,,,,
9315.6,,,survey-text,174,1204995,0.0-15.0-3.0,68155,List2A,white,man,,,,,"{""Q0"":""luke is hugging ruth""}","<img src=""stim_listA/hug1.gif""style=""height:400px;""></stim_listA>",is hugging,,,,,,
null,"<div style=""font-size:60px;"">+</div>",,html-keyboard-response,175,1205498,0.0-15.0-0.1,68155,List2A,white,man,,,,null,,,,,,,,,
null,"<img src=""stim_listA/greet4.gif""style=""height:400px;""></stim_listA>",,html-keyboard-response,176,1207501,0.0-15.0-1.1,68155,List2A,white,man,,,,null,,,,,,,,,
null,is being greeted by,,html-keyboard-response,177,1209506,0.0-15.0-2.1,68155,List2A,white,man,,,,null,,,,,,,,,
12990.6,,,survey-text,178,1222498,0.0-15.0-3.1,68155,List2A,white,man,,,,,"{""Q0"":""fred is being greeted by beth""}","<img src=""stim_listA/greet4.gif""style=""height:400px;""></stim_listA>",is being greeted by,,,,,,
null,"<div style=""font-size:60px;"">+</div>",,html-keyboard-response,179,1223005,0.0-15.0-0.2,68155,List2A,white,man,,,,null,,,,,,,,,
null,"<img src=""stim_listA/challenge2.gif""style=""height:400px;""></stim_listA>",,html-keyboard-response,180,1225007,0.0-15.0-1.2,68155,List2A,white,man,,,,null,,,,,,,,,
null,is being challenged by,,html-keyboard-response,181,1227018,0.0-15.0-2.2,68155,List2A,white,man,,,,null,,,,,,,,,
26207.3,,,survey-text,182,1253227,0.0-15.0-3.2,68155,List2A,white,man,,,,,"{""Q0"":""luke is being challenged by dave""}","<img src=""stim_listA/challenge2.gif""style=""height:400px;""></stim_listA>",is being challenged by,,,,,,
null,"<div style=""font-size:60px;"">+</div>",,html-keyboard-response,183,1253740,0.0-15.0-0.3,68155,List2A,white,man,,,,null,,,,,,,,,
null,"<img src=""stim_listA/look5.gif""style=""height:400px;""></stim_listA>",,html-keyboard-response,184,1255744,0.0-15.0-1.3,68155,List2A,white,man,,,,null,,,,,,,,,
null,is looking at,,html-keyboard-response,185,1257749,0.0-15.0-2.3,68155,List2A,white,man,,,,null,,,,,,,,,
12714.9,,,survey-text,186,1270466,0.0-15.0-3.3,68155,List2A,white,man,,,,,"{""Q0"":""fred is being looked at by luke""}","<img src=""stim_listA/look5.gif""style=""height:400px;""></stim_listA>",is looking at,,,,,,
null,"<div style=""font-size:60px;"">+</div>",,html-keyboard-response,187,1270975,0.0-15.0-0.4,68155,List2A,white,man,,,,null,,,,,,,,,
null,"<img src=""stim_listA/copy8.gif""style=""height:400px;""></stim_listA>",,html-keyboard-response,188,1272978,0.0-15.0-1.4,68155,List2A,white,man,,,,null,,,,,,,,,
null,is being copied by,,html-keyboard-response,189,1274984,0.0-15.0-2.4,68155,List2A,white,man,,,,null,,,,,,,,,
23872.2,,,survey-text,190,1298858,0.0-15.0-3.4,68155,List2A,white,man,,,,,"{""Q0"":""kate is being copied by beth""}","<img src=""stim_listA/copy8.gif""style=""height:400px;""></stim_listA>",is being copied by,,,,,,
null,"<div style=""font-size:60px;"">+</div>",,html-keyboard-response,191,1299363,0.0-15.0-0.5,68155,List2A,white,man,,,,null,,,,,,,,,
null,"<img src=""stim_listA/challenge5.gif""style=""height:400px;""></stim_listA>",,html-keyboard-response,192,1301365,0.0-15.0-1.5,68155,List2A,white,man,,,,null,,,,,,,,,
null,is challenging,,html-keyboard-response,193,1303376,0.0-15.0-2.5,68155,List2A,white,man,,,,null,,,,,,,,,
7043.8,,,survey-text,194,1310421,0.0-15.0-3.5,68155,List2A,white,man,,,,,"{""Q0"":""dave is challenging fred""}","<img src=""stim_listA/challenge5.gif""style=""height:400px;""></stim_listA>",is challenging,,,,,,
null,"<div style=""font-size:60px;"">+</div>",,html-keyboard-response,195,1310931,0.0-15.0-0.6,68155,List2A,white,man,,,,null,,,,,,,,,
null,"<img src=""stim_listA/greet6.gif""style=""height:400px;""></stim_listA>",,html-keyboard-response,196,1312933,0.0-15.0-1.6,68155,List2A,white,man,,,,null,,,,,,,,,
null,is being greeted by,,html-keyboard-response,197,1314940,0.0-15.0-2.6,68155,List2A,white,man,,,,null,,,,,,,,,
9151,,,survey-text,198,1324093,0.0-15.0-3.6,68155,List2A,white,man,,,,,"{""Q0"":""luke is being greeted by mike""}","<img src=""stim_listA/greet6.gif""style=""height:400px;""></stim_listA>",is being greeted by,,,,,,
null,"<div style=""font-size:60px;"">+</div>",,html-keyboard-response,199,1324599,0.0-15.0-0.7,68155,List2A,white,man,,,,null,,,,,,,,,
null,"<img src=""stim_listA/oppose2.gif""style=""height:400px;""></stim_listA>",,html-keyboard-response,200,1326604,0.0-15.0-1.7,68155,List2A,white,man,,,,null,,,,,,,,,
null,is being opposed by,,html-keyboard-response,201,1328604,0.0-15.0-2.7,68155,List2A,white,man,,,,null,,,,,,,,,
36899.5,,,survey-text,202,1365505,0.0-15.0-3.7,68155,List2A,white,man,,,,,"{""Q0"":""luke is being opposed by ruth""}","<img src=""stim_listA/oppose2.gif""style=""height:400px;""></stim_listA>",is being opposed by,,,,,,
null,"<div style=""font-size:60px;"">+</div>",,html-keyboard-response,203,1366015,0.0-15.0-0.8,68155,List2A,white,man,,,,null,,,,,,,,,
null,"<img src=""stim_listA/kiss8.gif""style=""height:400px;""></stim_listA>",,html-keyboard-response,204,1368026,0.0-15.0-1.8,68155,List2A,white,man,,,,null,,,,,,,,,
null,is being kissed by,,html-keyboard-response,205,1370031,0.0-15.0-2.8,68155,List2A,white,man,,,,null,,,,,,,,,
19236.6,,,survey-text,206,1389268,0.0-15.0-3.8,68155,List2A,white,man,,,,,"{""Q0"":""kate is being kissed by jane""}","<img src=""stim_listA/kiss8.gif""style=""height:400px;""></stim_listA>",is being kissed by,,,,,,
null,"<div style=""font-size:60px;"">+</div>",,html-keyboard-response,207,1389770,0.0-15.0-0.9,68155,List2A,white,man,,,,null,,,,,,,,,
null,"<img src=""stim_listA/seduce6.gif""style=""height:400px;""></stim_listA>",,html-keyboard-response,208,1391775,0.0-15.0-1.9,68155,List2A,white,man,,,,null,,,,,,,,,
null,is being seduced by,,html-keyboard-response,209,1393780,0.0-15.0-2.9,68155,List2A,white,man,,,,null,,,,,,,,,
13670.6,,,survey-text,210,1407452,0.0-15.0-3.9,68155,List2A,white,man,,,,,"{""Q0"":""fred is being seduced by dave""}","<img src=""stim_listA/seduce6.gif""style=""height:400px;""></stim_listA>",is being seduced by,,,,,,
null,"<div style=""font-size:60px;"">+</div>",,html-keyboard-response,211,1407961,0.0-15.0-0.10,68155,List2A,white,man,,,,null,,,,,,,,,
null,"<img src=""stim_listA/oppose5.gif""style=""height:400px;""></stim_listA>",,html-keyboard-response,212,1409967,0.0-15.0-1.10,68155,List2A,white,man,,,,null,,,,,,,,,
null,is opposing,,html-keyboard-response,213,1411982,0.0-15.0-2.10,68155,List2A,white,man,,,,null,,,,,,,,,
8267.8,,,survey-text,214,1420252,0.0-15.0-3.10,68155,List2A,white,man,,,,,"{""Q0"":""mike is opposing dave""}","<img src=""stim_listA/oppose5.gif""style=""height:400px;""></stim_listA>",is opposing,,,,,,
null,"<div style=""font-size:60px;"">+</div>",,html-keyboard-response,215,1420754,0.0-15.0-0.11,68155,List2A,white,man,,,,null,,,,,,,,,
null,"<img src=""stim_listA/kiss3.gif""style=""height:400px;""></stim_listA>",,html-keyboard-response,216,1422759,0.0-15.0-1.11,68155,List2A,white,man,,,,null,,,,,,,,,
null,is kissing,,html-keyboard-response,217,1424764,0.0-15.0-2.11,68155,List2A,white,man,,,,null,,,,,,,,,
8102.3,,,survey-text,218,1432868,0.0-15.0-3.11,68155,List2A,white,man,,,,,"{""Q0"":""fred is kissing beth""}","<img src=""stim_listA/kiss3.gif""style=""height:400px;""></stim_listA>",is kissing,,,,,,
null,"<div style=""font-size:60px;"">+</div>",,html-keyboard-response,219,1433381,0.0-15.0-0.12,68155,List2A,white,man,,,,null,,,,,,,,,
null,"<img src=""stim_listA/kiss1.gif""style=""height:400px;""></stim_listA>",,html-keyboard-response,220,1435384,0.0-15.0-1.12,68155,List2A,white,man,,,,null,,,,,,,,,
null,is kissing,,html-keyboard-response,221,1437392,0.0-15.0-2.12,68155,List2A,white,man,,,,null,,,,,,,,,
6526.7,,,survey-text,222,1443920,0.0-15.0-3.12,68155,List2A,white,man,,,,,"{""Q0"":""luke is kissing ruth""}","<img src=""stim_listA/kiss1.gif""style=""height:400px;""></stim_listA>",is kissing,,,,,,
null,"<div style=""font-size:60px;"">+</div>",,html-keyboard-response,223,1444434,0.0-15.0-0.13,68155,List2A,white,man,,,,null,,,,,,,,,
null,"<img src=""stim_listA/shout4.gif""style=""height:400px;""></stim_listA>",,html-keyboard-response,224,1446438,0.0-15.0-1.13,68155,List2A,white,man,,,,null,,,,,,,,,
null,is being shouted at by,,html-keyboard-response,225,1448442,0.0-15.0-2.13,68155,List2A,white,man,,,,null,,,,,,,,,
10519.6,,,survey-text,226,1458963,0.0-15.0-3.13,68155,List2A,white,man,,,,,"{""Q0"":""mike is being shouted at by kate""}","<img src=""stim_listA/shout4.gif""style=""height:400px;""></stim_listA>",is being shouted at by,,,,,,
null,"<div style=""font-size:60px;"">+</div>",,html-keyboard-response,227,1459477,0.0-15.0-0.14,68155,List2A,white,man,,,,null,,,,,,,,,
null,"<img src=""stim_listA/seduce3.gif""style=""height:400px;""></stim_listA>",,html-keyboard-response,228,1461488,0.0-15.0-1.14,68155,List2A,white,man,,,,null,,,,,,,,,
null,is seducing,,html-keyboard-response,229,1463490,0.0-15.0-2.14,68155,List2A,white,man,,,,null,,,,,,,,,
4563.9,,,survey-text,230,1468055,0.0-15.0-3.14,68155,List2A,white,man,,,,,"{""Q0"":""kate is seducing fred""}","<img src=""stim_listA/seduce3.gif""style=""height:400px;""></stim_listA>",is seducing,,,,,,
null,"<div style=""font-size:60px;"">+</div>",,html-keyboard-response,231,1468556,0.0-15.0-0.15,68155,List2A,white,man,,,,null,,,,,,,,,
null,"<img src=""stim_listA/shout7.gif""style=""height:400px;""></stim_listA>",,html-keyboard-response,232,1470561,0.0-15.0-1.15,68155,List2A,white,man,,,,null,,,,,,,,,
null,is shouting at,,html-keyboard-response,233,1472562,0.0-15.0-2.15,68155,List2A,white,man,,,,null,,,,,,,,,
16707.2,,,survey-text,234,1489271,0.0-15.0-3.15,68155,List2A,white,man,,,,,"{""Q0"":""ruth is shouting at beth""}","<img src=""stim_listA/shout7.gif""style=""height:400px;""></stim_listA>",is shouting at,,,,,,
null,"<div style=""font-size:60px;"">+</div>",,html-keyboard-response,235,1489786,0.0-15.0-0.16,68155,List2A,white,man,,,,null,,,,,,,,,
null,"<img src=""stim_listA/greet3.gif""style=""height:400px;""></stim_listA>",,html-keyboard-response,236,1491790,0.0-15.0-1.16,68155,List2A,white,man,,,,null,,,,,,,,,
null,is greeting,,html-keyboard-response,237,1493795,0.0-15.0-2.16,68155,List2A,white,man,,,,null,,,,,,,,,
20178.2,,,survey-text,238,1513975,0.0-15.0-3.16,68155,List2A,white,man,,,,,"{""Q0"":""beth is greeting mike""}","<img src=""stim_listA/greet3.gif""style=""height:400px;""></stim_listA>",is greeting,,,,,,
null,"<div style=""font-size:60px;"">+</div>",,html-keyboard-response,239,1514477,0.0-15.0-0.17,68155,List2A,white,man,,,,null,,,,,,,,,
null,"<img src=""stim_listA/shout5.gif""style=""height:400px;""></stim_listA>",,html-keyboard-response,240,1516483,0.0-15.0-1.17,68155,List2A,white,man,,,,null,,,,,,,,,
null,is shouting at,,html-keyboard-response,241,1518493,0.0-15.0-2.17,68155,List2A,white,man,,,,null,,,,,,,,,
14500,,,survey-text,242,1532995,0.0-15.0-3.17,68155,List2A,white,man,,,,,"{""Q0"":""luke is shouting at fred""}","<img src=""stim_listA/shout5.gif""style=""height:400px;""></stim_listA>",is shouting at,,,,,,
null,"<div style=""font-size:60px;"">+</div>",,html-keyboard-response,243,1533508,0.0-15.0-0.18,68155,List2A,white,man,,,,null,,,,,,,,,
null,"<img src=""stim_listA/oppose7.gif""style=""height:400px;""></stim_listA>",,html-keyboard-response,244,1535513,0.0-15.0-1.18,68155,List2A,white,man,,,,null,,,,,,,,,
null,is opposing,,html-keyboard-response,245,1537530,0.0-15.0-2.18,68155,List2A,white,man,,,,null,,,,,,,,,
4903.1,,,survey-text,246,1542435,0.0-15.0-3.18,68155,List2A,white,man,,,,,"{""Q0"":""kate is opposing beth""}","<img src=""stim_listA/oppose7.gif""style=""height:400px;""></stim_listA>",is opposing,,,,,,
null,"<div style=""font-size:60px;"">+</div>",,html-keyboard-response,247,1542945,0.0-15.0-0.19,68155,List2A,white,man,,,,null,,,,,,,,,
null,"<img src=""stim_listA/challenge4.gif""style=""height:400px;""></stim_listA>",,html-keyboard-response,248,1544946,0.0-15.0-1.19,68155,List2A,white,man,,,,null,,,,,,,,,
null,is being challenged by,,html-keyboard-response,249,1546948,0.0-15.0-2.19,68155,List2A,white,man,,,,null,,,,,,,,,
8693,,,survey-text,250,1555642,0.0-15.0-3.19,68155,List2A,white,man,,,,,"{""Q0"":""fred is being challenged by kate""}","<img src=""stim_listA/challenge4.gif""style=""height:400px;""></stim_listA>",is being challenged by,,,,,,
35038.3,"<img src='img/portrait_matrix_list2.jpg' style='width:900px;height:500px;''></img><p>If you have memorised all the portraits and names and are ready to start, press Continue.</p><p><strong>Please note: Your memory of these faces will be tested 4 times during this experiment.</strong></p>",0,html-button-response,251,1590682,0.0-16.0-0.0,68155,List2A,white,man,,,,,,,,,,,,,
7658,"<img src=""portrait/BM1.jpg""style=""height:400px;""></img>",4,html-button-response,252,1599342,0.0-16.0-1.0,68155,List2A,white,man,,TRUE,4,,,,,,,,,,
null,CORRECT,,html-keyboard-response,253,1600857,0.0-16.0-2.0-0.0,68155,List2A,white,man,,,,null,,,,,,,,,
2539.5,"<img src=""portrait/WW1.jpg""style=""height:400px;""></img>",1,html-button-response,254,1603398,0.0-16.0-4.0,68155,List2A,white,man,,TRUE,1,,,,,,,,,,
null,CORRECT,,html-keyboard-response,255,1604919,0.0-16.0-5.0-0.0,68155,List2A,white,man,,,,null,,,,,,,,,
3350.1,"<img src=""portrait/BM2.jpg""style=""height:400px;""></img>",5,html-button-response,256,1608270,0.0-16.0-7.0,68155,List2A,white,man,,TRUE,5,,,,,,,,,,
null,CORRECT,,html-keyboard-response,257,1609775,0.0-16.0-8.0-0.0,68155,List2A,white,man,,,,null,,,,,,,,,
2549.7,"<img src=""portrait/WW2.jpg""style=""height:400px;""></img>",3,html-button-response,258,1612326,0.0-16.0-10.0,68155,List2A,white,man,,TRUE,3,,,,,,,,,,
null,CORRECT,,html-keyboard-response,259,1613835,0.0-16.0-11.0-0.0,68155,List2A,white,man,,,,null,,,,,,,,,
2657.4,"<img src=""portrait/WM1.jpg""style=""height:400px;""></img>",6,html-button-response,260,1616494,0.0-16.0-13.0,68155,List2A,white,man,,TRUE,6,,,,,,,,,,
null,CORRECT,,html-keyboard-response,261,1617999,0.0-16.0-14.0-0.0,68155,List2A,white,man,,,,null,,,,,,,,,
3206.1,"<img src=""portrait/WM2.jpg""style=""height:400px;""></img>",7,html-button-response,262,1621206,0.0-16.0-16.0,68155,List2A,white,man,,TRUE,7,,,,,,,,,,
null,CORRECT,,html-keyboard-response,263,1622719,0.0-16.0-17.0-0.0,68155,List2A,white,man,,,,null,,,,,,,,,
2757,"<img src=""portrait/BW1.jpg""style=""height:400px;""></img>",0,html-button-response,264,1625478,0.0-16.0-19.0,68155,List2A,white,man,,TRUE,0,,,,,,,,,,
null,CORRECT,,html-keyboard-response,265,1626997,0.0-16.0-20.0-0.0,68155,List2A,white,man,,,,null,,,,,,,,,
3095.1,"<img src=""portrait/BW2.jpg""style=""height:400px;""></img>",2,html-button-response,266,1630094,0.0-16.0-22.0,68155,List2A,white,man,,TRUE,2,,,,,,,,,,
null,CORRECT,,html-keyboard-response,267,1631622,0.0-16.0-23.0-0.0,68155,List2A,white,man,,,,null,,,,,,,,,
1758.8,<p>You got 8 out of 8 right first time. Press Continue.</p>,0,html-button-response,268,1633382,0.0-16.0-25.0,68155,List2A,white,man,,,,,,,,,,,,,
null,"<div style=""font-size:60px;"">+</div>",,html-keyboard-response,269,1634911,0.0-17.0-0.0,68155,List2A,white,man,,,,null,,,,,,,,,
null,"<img src=""stim_listA/look3.gif""style=""height:400px;""></stim_listA>",,html-keyboard-response,270,1636918,0.0-17.0-1.0,68155,List2A,white,man,,,,null,,,,,,,,,
null,is looking at,,html-keyboard-response,271,1638942,0.0-17.0-2.0,68155,List2A,white,man,,,,null,,,,,,,,,
6501.2,,,survey-text,272,1645445,0.0-17.0-3.0,68155,List2A,white,man,,,,,"{""Q0"":""fred is looking at beth""}","<img src=""stim_listA/look3.gif""style=""height:400px;""></stim_listA>",is looking at,,,,,,
null,"<div style=""font-size:60px;"">+</div>",,html-keyboard-response,273,1645955,0.0-17.0-0.1,68155,List2A,white,man,,,,null,,,,,,,,,
null,"<img src=""stim_listA/challenge7.gif""style=""height:400px;""></stim_listA>",,html-keyboard-response,274,1647959,0.0-17.0-1.1,68155,List2A,white,man,,,,null,,,,,,,,,
null,is challenging,,html-keyboard-response,275,1649964,0.0-17.0-2.1,68155,List2A,white,man,,,,null,,,,,,,,,
10012.1,,,survey-text,276,1659978,0.0-17.0-3.1,68155,List2A,white,man,,,,,"{""Q0"":""beth is challenging jane""}","<img src=""stim_listA/challenge7.gif""style=""height:400px;""></stim_listA>",is challenging,,,,,,
null,"<div style=""font-size:60px;"">+</div>",,html-keyboard-response,277,1660480,0.0-17.0-0.2,68155,List2A,white,man,,,,null,,,,,,,,,
null,"<img src=""stim_listA/touch4.gif""style=""height:400px;""></stim_listA>",,html-keyboard-response,278,1662483,0.0-17.0-1.2,68155,List2A,white,man,,,,null,,,,,,,,,
null,is being touched by,,html-keyboard-response,279,1664488,0.0-17.0-2.2,68155,List2A,white,man,,,,null,,,,,,,,,
10087.1,,,survey-text,280,1674577,0.0-17.0-3.2,68155,List2A,white,man,,,,,"{""Q0"":""beth is being touched by fred""}","<img src=""stim_listA/touch4.gif""style=""height:400px;""></stim_listA>",is being touched by,,,,,,
null,"<div style=""font-size:60px;"">+</div>",,html-keyboard-response,281,1675090,0.0-17.0-0.3,68155,List2A,white,man,,,,null,,,,,,,,,
null,"<img src=""stim_listA/hug2.gif""style=""height:400px;""></stim_listA>",,html-keyboard-response,282,1677092,0.0-17.0-1.3,68155,List2A,white,man,,,,null,,,,,,,,,
null,is being hugged by,,html-keyboard-response,283,1679096,0.0-17.0-2.3,68155,List2A,white,man,,,,null,,,,,,,,,
11567.7,,,survey-text,284,1690664,0.0-17.0-3.3,68155,List2A,white,man,,,,,"{""Q0"":""jane is hugging dave""}","<img src=""stim_listA/hug2.gif""style=""height:400px;""></stim_listA>",is being hugged by,,,,,,
null,"<div style=""font-size:60px;"">+</div>",,html-keyboard-response,285,1691180,0.0-17.0-0.4,68155,List2A,white,man,,,,null,,,,,,,,,
null,"<img src=""stim_listA/challenge1.gif""style=""height:400px;""></stim_listA>",,html-keyboard-response,286,1693185,0.0-17.0-1.4,68155,List2A,white,man,,,,null,,,,,,,,,
null,is challenging,,html-keyboard-response,287,1695189,0.0-17.0-2.4,68155,List2A,white,man,,,,null,,,,,,,,,
13789.6,,,survey-text,288,1708980,0.0-17.0-3.4,68155,List2A,white,man,,,,,"{""Q0"":""ruth is challenging dave""}","<img src=""stim_listA/challenge1.gif""style=""height:400px;""></stim_listA>",is challenging,,,,,,
null,"<div style=""font-size:60px;"">+</div>",,html-keyboard-response,289,1709483,0.0-17.0-0.5,68155,List2A,white,man,,,,null,,,,,,,,,
null,"<img src=""stim_listA/oppose8.gif""style=""height:400px;""></stim_listA>",,html-keyboard-response,290,1711487,0.0-17.0-1.5,68155,List2A,white,man,,,,null,,,,,,,,,
null,is being opposed by,,html-keyboard-response,291,1713493,0.0-17.0-2.5,68155,List2A,white,man,,,,null,,,,,,,,,
13565.4,,,survey-text,292,1727060,0.0-17.0-3.5,68155,List2A,white,man,,,,,"{""Q0"":""beth is being opposed by ruth""}","<img src=""stim_listA/oppose8.gif""style=""height:400px;""></stim_listA>",is being opposed by,,,,,,
null,"<div style=""font-size:60px;"">+</div>",,html-keyboard-response,293,1727561,0.0-17.0-0.6,68155,List2A,white,man,,,,null,,,,,,,,,
null,"<img src=""stim_listA/greet7.gif""style=""height:400px;""></stim_listA>",,html-keyboard-response,294,1729566,0.0-17.0-1.6,68155,List2A,white,man,,,,null,,,,,,,,,
null,is greeting,,html-keyboard-response,295,1731569,0.0-17.0-2.6,68155,List2A,white,man,,,,null,,,,,,,,,
5129.5,,,survey-text,296,1736700,0.0-17.0-3.6,68155,List2A,white,man,,,,,"{""Q0"":""beth is greeting jane""}","<img src=""stim_listA/greet7.gif""style=""height:400px;""></stim_listA>",is greeting,,,,,,
null,"<div style=""font-size:60px;"">+</div>",,html-keyboard-response,297,1737202,0.0-17.0-0.7,68155,List2A,white,man,,,,null,,,,,,,,,
null,"<img src=""stim_listA/seduce8.gif""style=""height:400px;""></stim_listA>",,html-keyboard-response,298,1739203,0.0-17.0-1.7,68155,List2A,white,man,,,,null,,,,,,,,,
null,is being seduced by,,html-keyboard-response,299,1741204,0.0-17.0-2.7,68155,List2A,white,man,,,,null,,,,,,,,,
8982.3,,,survey-text,300,1750187,0.0-17.0-3.7,68155,List2A,white,man,,,,,"{""Q0"":""beth is being seduced by jane""}","<img src=""stim_listA/seduce8.gif""style=""height:400px;""></stim_listA>",is being seduced by,,,,,,
null,"<div style=""font-size:60px;"">+</div>",,html-keyboard-response,301,1750707,0.0-17.0-0.8,68155,List2A,white,man,,,,null,,,,,,,,,
null,"<img src=""stim_listA/copy5.gif""style=""height:400px;""></stim_listA>",,html-keyboard-response,302,1752710,0.0-17.0-1.8,68155,List2A,white,man,,,,null,,,,,,,,,
null,is copying,,html-keyboard-response,303,1754715,0.0-17.0-2.8,68155,List2A,white,man,,,,null,,,,,,,,,
7071,,,survey-text,304,1761788,0.0-17.0-3.8,68155,List2A,white,man,,,,,"{""Q0"":""fred is copying dave""}","<img src=""stim_listA/copy5.gif""style=""height:400px;""></stim_listA>",is copying,,,,,,
null,"<div style=""font-size:60px;"">+</div>",,html-keyboard-response,305,1762301,0.0-17.0-0.9,68155,List2A,white,man,,,,null,,,,,,,,,
null,"<img src=""stim_listA/copy3.gif""style=""height:400px;""></stim_listA>",,html-keyboard-response,306,1764307,0.0-17.0-1.9,68155,List2A,white,man,,,,null,,,,,,,,,
null,is copying,,html-keyboard-response,307,1766308,0.0-17.0-2.9,68155,List2A,white,man,,,,null,,,,,,,,,
8097.3,,,survey-text,308,1774407,0.0-17.0-3.9,68155,List2A,white,man,,,,,"{""Q0"":""mike is copying beth""}","<img src=""stim_listA/copy3.gif""style=""height:400px;""></stim_listA>",is copying,,,,,,
null,"<div style=""font-size:60px;"">+</div>",,html-keyboard-response,309,1774914,0.0-17.0-0.10,68155,List2A,white,man,,,,null,,,,,,,,,
null,"<img src=""stim_listA/challenge6.gif""style=""height:400px;""></stim_listA>",,html-keyboard-response,310,1776923,0.0-17.0-1.10,68155,List2A,white,man,,,,null,,,,,,,,,
null,is being challenged by,,html-keyboard-response,311,1778930,0.0-17.0-2.10,68155,List2A,white,man,,,,null,,,,,,,,,
9202.8,,,survey-text,312,1788135,0.0-17.0-3.10,68155,List2A,white,man,,,,,"{""Q0"":""mike is being challenged by luke""}","<img src=""stim_listA/challenge6.gif""style=""height:400px;""></stim_listA>",is being challenged by,,,,,,
null,"<div style=""font-size:60px;"">+</div>",,html-keyboard-response,313,1788644,0.0-17.0-0.11,68155,List2A,white,man,,,,null,,,,,,,,,
null,"<img src=""stim_listA/kiss2.gif""style=""height:400px;""></stim_listA>",,html-keyboard-response,314,1790648,0.0-17.0-1.11,68155,List2A,white,man,,,,null,,,,,,,,,
null,is being kissed by,,html-keyboard-response,315,1792674,0.0-17.0-2.11,68155,List2A,white,man,,,,null,,,,,,,,,
16298.6,,,survey-text,316,1808975,0.0-17.0-3.11,68155,List2A,white,man,,,,,"{""Q0"":""dave is being kissed by jane""}","<img src=""stim_listA/kiss2.gif""style=""height:400px;""></stim_listA>",is being kissed by,,,,,,
null,"<div style=""font-size:60px;"">+</div>",,html-keyboard-response,317,1809492,0.0-17.0-0.12,68155,List2A,white,man,,,,null,,,,,,,,,
null,"<img src=""stim_listA/copy4.gif""style=""height:400px;""></stim_listA>",,html-keyboard-response,318,1811506,0.0-17.0-1.12,68155,List2A,white,man,,,,null,,,,,,,,,
null,is being copied by,,html-keyboard-response,319,1813510,0.0-17.0-2.12,68155,List2A,white,man,,,,null,,,,,,,,,
11495.3,,,survey-text,320,1825007,0.0-17.0-3.12,68155,List2A,white,man,,,,,"{""Q0"":""fred is being copied by beth""}","<img src=""stim_listA/copy4.gif""style=""height:400px;""></stim_listA>",is being copied by,,,,,,
null,"<div style=""font-size:60px;"">+</div>",,html-keyboard-response,321,1825515,0.0-17.0-0.13,68155,List2A,white,man,,,,null,,,,,,,,,
null,"<img src=""stim_listA/oppose3.gif""style=""height:400px;""></stim_listA>",,html-keyboard-response,322,1827523,0.0-17.0-1.13,68155,List2A,white,man,,,,null,,,,,,,,,
null,is opposing,,html-keyboard-response,323,1829529,0.0-17.0-2.13,68155,List2A,white,man,,,,null,,,,,,,,,
9956.5,,,survey-text,324,1839487,0.0-17.0-3.13,68155,List2A,white,man,,,,,"{""Q0"":""mike is opposing beth""}","<img src=""stim_listA/oppose3.gif""style=""height:400px;""></stim_listA>",is opposing,,,,,,
null,"<div style=""font-size:60px;"">+</div>",,html-keyboard-response,325,1840003,0.0-17.0-0.14,68155,List2A,white,man,,,,null,,,,,,,,,
null,"<img src=""stim_listA/shout1.gif""style=""height:400px;""></stim_listA>",,html-keyboard-response,326,1842005,0.0-17.0-1.14,68155,List2A,white,man,,,,null,,,,,,,,,
null,is shouting at,,html-keyboard-response,327,1844011,0.0-17.0-2.14,68155,List2A,white,man,,,,null,,,,,,,,,
8565.9,,,survey-text,328,1852579,0.0-17.0-3.14,68155,List2A,white,man,,,,,"{""Q0"":""luke is shouting at ruth""}","<img src=""stim_listA/shout1.gif""style=""height:400px;""></stim_listA>",is shouting at,,,,,,
null,"<div style=""font-size:60px;"">+</div>",,html-keyboard-response,329,1853092,0.0-17.0-0.15,68155,List2A,white,man,,,,null,,,,,,,,,
null,"<img src=""stim_listA/copy2.gif""style=""height:400px;""></stim_listA>",,html-keyboard-response,330,1855103,0.0-17.0-1.15,68155,List2A,white,man,,,,null,,,,,,,,,
null,is being copied by,,html-keyboard-response,331,1857115,0.0-17.0-2.15,68155,List2A,white,man,,,,null,,,,,,,,,
10373.9,,,survey-text,332,1867490,0.0-17.0-3.15,68155,List2A,white,man,,,,,"{""Q0"":""luke is being copuied""}","<img src=""stim_listA/copy2.gif""style=""height:400px;""></stim_listA>",is being copied by,,,,,,
null,"<div style=""font-size:60px;"">+</div>",,html-keyboard-response,333,1868009,0.0-17.0-0.16,68155,List2A,white,man,,,,null,,,,,,,,,
null,"<img src=""stim_listA/shout3.gif""style=""height:400px;""></stim_listA>",,html-keyboard-response,334,1870018,0.0-17.0-1.16,68155,List2A,white,man,,,,null,,,,,,,,,
null,is shouting at,,html-keyboard-response,335,1872023,0.0-17.0-2.16,68155,List2A,white,man,,,,null,,,,,,,,,
6314,,,survey-text,336,1878338,0.0-17.0-3.16,68155,List2A,white,man,,,,,"{""Q0"":""fred is shouting at beth""}","<img src=""stim_listA/shout3.gif""style=""height:400px;""></stim_listA>",is shouting at,,,,,,
null,"<div style=""font-size:60px;"">+</div>",,html-keyboard-response,337,1878852,0.0-17.0-0.17,68155,List2A,white,man,,,,null,,,,,,,,,
null,"<img src=""stim_listA/touch3.gif""style=""height:400px;""></stim_listA>",,html-keyboard-response,338,1880853,0.0-17.0-1.17,68155,List2A,white,man,,,,null,,,,,,,,,
null,is touching,,html-keyboard-response,339,1882854,0.0-17.0-2.17,68155,List2A,white,man,,,,null,,,,,,,,,
9042.2,,,survey-text,340,1891898,0.0-17.0-3.17,68155,List2A,white,man,,,,,"{""Q0"":""mike is touching kate""}","<img src=""stim_listA/touch3.gif""style=""height:400px;""></stim_listA>",is touching,,,,,,
null,"<div style=""font-size:60px;"">+</div>",,html-keyboard-response,341,1892400,0.0-17.0-0.18,68155,List2A,white,man,,,,null,,,,,,,,,
null,"<img src=""stim_listA/greet1.gif""style=""height:400px;""></stim_listA>",,html-keyboard-response,342,1894407,0.0-17.0-1.18,68155,List2A,white,man,,,,null,,,,,,,,,
null,is greeting,,html-keyboard-response,343,1896412,0.0-17.0-2.18,68155,List2A,white,man,,,,null,,,,,,,,,
7392.1,,,survey-text,344,1903806,0.0-17.0-3.18,68155,List2A,white,man,,,,,"{""Q0"":""dave is greeting luke""}","<img src=""stim_listA/greet1.gif""style=""height:400px;""></stim_listA>",is greeting,,,,,,
null,"<div style=""font-size:60px;"">+</div>",,html-keyboard-response,345,1904324,0.0-17.0-0.19,68155,List2A,white,man,,,,null,,,,,,,,,
null,"<img src=""stim_listA/seduce5.gif""style=""height:400px;""></stim_listA>",,html-keyboard-response,346,1906329,0.0-17.0-1.19,68155,List2A,white,man,,,,null,,,,,,,,,
null,is seducing,,html-keyboard-response,347,1908334,0.0-17.0-2.19,68155,List2A,white,man,,,,null,,,,,,,,,
17390.1,,,survey-text,348,1925726,0.0-17.0-3.19,68155,List2A,white,man,,,,,"{""Q0"":""mike is seducing luke""}","<img src=""stim_listA/seduce5.gif""style=""height:400px;""></stim_listA>",is seducing,,,,,,
2078.5,"<img src='img/portrait_matrix_list2.jpg' style='width:900px;height:500px;''></img><p>If you have memorised all the portraits and names and are ready to start, press Continue.</p><p><strong>Please note: Your memory of these faces will be tested 4 times during this experiment.</strong></p>",0,html-button-response,349,1927806,0.0-18.0-0.0,68155,List2A,white,man,,,,,,,,,,,,,
7683.1,"<img src=""portrait/WW2.jpg""style=""height:400px;""></img>",3,html-button-response,350,1936493,0.0-18.0-1.0,68155,List2A,white,man,,TRUE,3,,,,,,,,,,
null,CORRECT,,html-keyboard-response,351,1937995,0.0-18.0-2.0-0.0,68155,List2A,white,man,,,,null,,,,,,,,,
3953.3,"<img src=""portrait/BM2.jpg""style=""height:400px;""></img>",5,html-button-response,352,1941950,0.0-18.0-4.0,68155,List2A,white,man,,TRUE,5,,,,,,,,,,
null,CORRECT,,html-keyboard-response,353,1943466,0.0-18.0-5.0-0.0,68155,List2A,white,man,,,,null,,,,,,,,,
1986.5,"<img src=""portrait/BM1.jpg""style=""height:400px;""></img>",4,html-button-response,354,1945453,0.0-18.0-7.0,68155,List2A,white,man,,TRUE,4,,,,,,,,,,
null,CORRECT,,html-keyboard-response,355,1946972,0.0-18.0-8.0-0.0,68155,List2A,white,man,,,,null,,,,,,,,,
4168.4,"<img src=""portrait/BW2.jpg""style=""height:400px;""></img>",2,html-button-response,356,1951141,0.0-18.0-10.0,68155,List2A,white,man,,TRUE,2,,,,,,,,,,
null,CORRECT,,html-keyboard-response,357,1952645,0.0-18.0-11.0-0.0,68155,List2A,white,man,,,,null,,,,,,,,,
3103.4,"<img src=""portrait/WM2.jpg""style=""height:400px;""></img>",7,html-button-response,358,1955749,0.0-18.0-13.0,68155,List2A,white,man,,TRUE,7,,,,,,,,,,
null,CORRECT,,html-keyboard-response,359,1957266,0.0-18.0-14.0-0.0,68155,List2A,white,man,,,,null,,,,,,,,,
4498.2,"<img src=""portrait/WM1.jpg""style=""height:400px;""></img>",6,html-button-response,360,1961765,0.0-18.0-16.0,68155,List2A,white,man,,TRUE,6,,,,,,,,,,
null,CORRECT,,html-keyboard-response,361,1963275,0.0-18.0-17.0-0.0,68155,List2A,white,man,,,,null,,,,,,,,,
4393.1,"<img src=""portrait/WW1.jpg""style=""height:400px;""></img>",1,html-button-response,362,1967669,0.0-18.0-19.0,68155,List2A,white,man,,TRUE,1,,,,,,,,,,
null,CORRECT,,html-keyboard-response,363,1969181,0.0-18.0-20.0-0.0,68155,List2A,white,man,,,,null,,,,,,,,,
2478.7,"<img src=""portrait/BW1.jpg""style=""height:400px;""></img>",0,html-button-response,364,1971661,0.0-18.0-22.0,68155,List2A,white,man,,TRUE,0,,,,,,,,,,
null,CORRECT,,html-keyboard-response,365,1973163,0.0-18.0-23.0-0.0,68155,List2A,white,man,,,,null,,,,,,,,,
853.4,<p>You got 8 out of 8 right first time. Press Continue.</p>,0,html-button-response,366,1974017,0.0-18.0-25.0,68155,List2A,white,man,,,,,,,,,,,,,
null,"<div style=""font-size:60px;"">+</div>",,html-keyboard-response,367,1975519,0.0-19.0-0.0,68155,List2A,white,man,,,,null,,,,,,,,,
null,"<img src=""stim_listA/hug8.gif""style=""height:400px;""></stim_listA>",,html-keyboard-response,368,1977521,0.0-19.0-1.0,68155,List2A,white,man,,,,null,,,,,,,,,
null,is being hugged by,,html-keyboard-response,369,1979525,0.0-19.0-2.0,68155,List2A,white,man,,,,null,,,,,,,,,
10746,,,survey-text,370,1990273,0.0-19.0-3.0,68155,List2A,white,man,,,,,"{""Q0"":""kate is being hugged by jane""}","<img src=""stim_listA/hug8.gif""style=""height:400px;""></stim_listA>",is being hugged by,,,,,,
null,"<div style=""font-size:60px;"">+</div>",,html-keyboard-response,371,1990774,0.0-19.0-0.1,68155,List2A,white,man,,,,null,,,,,,,,,
null,"<img src=""stim_listA/touch6.gif""style=""height:400px;""></stim_listA>",,html-keyboard-response,372,1992780,0.0-19.0-1.1,68155,List2A,white,man,,,,null,,,,,,,,,
null,is being touched by,,html-keyboard-response,373,1994784,0.0-19.0-2.1,68155,List2A,white,man,,,,null,,,,,,,,,
15799.5,,,survey-text,374,2010585,0.0-19.0-3.1,68155,List2A,white,man,,,,,"{""Q0"":""fred is being touched by luke""}","<img src=""stim_listA/touch6.gif""style=""height:400px;""></stim_listA>",is being touched by,,,,,,
null,"<div style=""font-size:60px;"">+</div>",,html-keyboard-response,375,2011087,0.0-19.0-0.2,68155,List2A,white,man,,,,null,,,,,,,,,
null,"<img src=""stim_listA/oppose1.gif""style=""height:400px;""></stim_listA>",,html-keyboard-response,376,2013111,0.0-19.0-1.2,68155,List2A,white,man,,,,null,,,,,,,,,
null,is opposing,,html-keyboard-response,377,2015119,0.0-19.0-2.2,68155,List2A,white,man,,,,null,,,,,,,,,
10488.6,,,survey-text,378,2025609,0.0-19.0-3.2,68155,List2A,white,man,,,,,"{""Q0"":""dave is opposing kate""}","<img src=""stim_listA/oppose1.gif""style=""height:400px;""></stim_listA>",is opposing,,,,,,
null,"<div style=""font-size:60px;"">+</div>",,html-keyboard-response,379,2026134,0.0-19.0-0.3,68155,List2A,white,man,,,,null,,,,,,,,,
null,"<img src=""stim_listA/touch7.gif""style=""height:400px;""></stim_listA>",,html-keyboard-response,380,2028135,0.0-19.0-1.3,68155,List2A,white,man,,,,null,,,,,,,,,
null,is touching,,html-keyboard-response,381,2030136,0.0-19.0-2.3,68155,List2A,white,man,,,,null,,,,,,,,,
8246.6,,,survey-text,382,2038385,0.0-19.0-3.3,68155,List2A,white,man,,,,,"{""Q0"":""kate is touching jane""}","<img src=""stim_listA/touch7.gif""style=""height:400px;""></stim_listA>",is touching,,,,,,
null,"<div style=""font-size:60px;"">+</div>",,html-keyboard-response,383,2038891,0.0-19.0-0.4,68155,List2A,white,man,,,,null,,,,,,,,,
null,"<img src=""stim_listA/hug6.gif""style=""height:400px;""></stim_listA>",,html-keyboard-response,384,2040894,0.0-19.0-1.4,68155,List2A,white,man,,,,null,,,,,,,,,
null,is being hugged by,,html-keyboard-response,385,2042898,0.0-19.0-2.4,68155,List2A,white,man,,,,null,,,,,,,,,
30648,,,survey-text,386,2073548,0.0-19.0-3.4,68155,List2A,white,man,,,,,"{""Q0"":""mike is being hugged by dave""}","<img src=""stim_listA/hug6.gif""style=""height:400px;""></stim_listA>",is being hugged by,,,,,,
null,"<div style=""font-size:60px;"">+</div>",,html-keyboard-response,387,2074059,0.0-19.0-0.5,68155,List2A,white,man,,,,null,,,,,,,,,
null,"<img src=""stim_listA/shout2.gif""style=""height:400px;""></stim_listA>",,html-keyboard-response,388,2076061,0.0-19.0-1.5,68155,List2A,white,man,,,,null,,,,,,,,,
null,is being shouted at by,,html-keyboard-response,389,2078065,0.0-19.0-2.5,68155,List2A,white,man,,,,null,,,,,,,,,
18833,,,survey-text,390,2096900,0.0-19.0-3.5,68155,List2A,white,man,,,,,"{""Q0"":""dave is being shouted at by fred""}","<img src=""stim_listA/shout2.gif""style=""height:400px;""></stim_listA>",is being shouted at by,,,,,,
null,"<div style=""font-size:60px;"">+</div>",,html-keyboard-response,391,2097404,0.0-19.0-0.6,68155,List2A,white,man,,,,null,,,,,,,,,
null,"<img src=""stim_listA/greet2.gif""style=""height:400px;""></stim_listA>",,html-keyboard-response,392,2099408,0.0-19.0-1.6,68155,List2A,white,man,,,,null,,,,,,,,,
null,is being greeted by,,html-keyboard-response,393,2101410,0.0-19.0-2.6,68155,List2A,white,man,,,,null,,,,,,,,,
14531.8,,,survey-text,394,2115944,0.0-19.0-3.6,68155,List2A,white,man,,,,,"{""Q0"":""luke is being greeted by beth""}","<img src=""stim_listA/greet2.gif""style=""height:400px;""></stim_listA>",is being greeted by,,,,,,
null,"<div style=""font-size:60px;"">+</div>",,html-keyboard-response,395,2116451,0.0-19.0-0.7,68155,List2A,white,man,,,,null,,,,,,,,,
null,"<img src=""stim_listA/oppose4.gif""style=""height:400px;""></stim_listA>",,html-keyboard-response,396,2118453,0.0-19.0-1.7,68155,List2A,white,man,,,,null,,,,,,,,,
null,is being opposed by,,html-keyboard-response,397,2120460,0.0-19.0-2.7,68155,List2A,white,man,,,,null,,,,,,,,,
7005.8,,,survey-text,398,2127467,0.0-19.0-3.7,68155,List2A,white,man,,,,,"{""Q0"":""fred is being opposed by beth""}","<img src=""stim_listA/oppose4.gif""style=""height:400px;""></stim_listA>",is being opposed by,,,,,,
null,"<div style=""font-size:60px;"">+</div>",,html-keyboard-response,399,2127981,0.0-19.0-0.8,68155,List2A,white,man,,,,null,,,,,,,,,
null,"<img src=""stim_listA/challenge3.gif""style=""height:400px;""></stim_listA>",,html-keyboard-response,400,2129983,0.0-19.0-1.8,68155,List2A,white,man,,,,null,,,,,,,,,
null,is challenging,,html-keyboard-response,401,2131984,0.0-19.0-2.8,68155,List2A,white,man,,,,null,,,,,,,,,
15841.6,,,survey-text,402,2147827,0.0-19.0-3.8,68155,List2A,white,man,,,,,"{""Q0"":""mike is challenging ruth""}","<img src=""stim_listA/challenge3.gif""style=""height:400px;""></stim_listA>",is challenging,,,,,,
null,"<div style=""font-size:60px;"">+</div>",,html-keyboard-response,403,2148338,0.0-19.0-0.9,68155,List2A,white,man,,,,null,,,,,,,,,
null,"<img src=""stim_listA/copy6.gif""style=""height:400px;""></stim_listA>",,html-keyboard-response,404,2150342,0.0-19.0-1.9,68155,List2A,white,man,,,,null,,,,,,,,,
null,is being copied by,,html-keyboard-response,405,2152343,0.0-19.0-2.9,68155,List2A,white,man,,,,null,,,,,,,,,
12306.3,,,survey-text,406,2164651,0.0-19.0-3.9,68155,List2A,white,man,,,,,"{""Q0"":""mike is being copied by luke""}","<img src=""stim_listA/copy6.gif""style=""height:400px;""></stim_listA>",is being copied by,,,,,,
null,"<div style=""font-size:60px;"">+</div>",,html-keyboard-response,407,2165152,0.0-19.0-0.10,68155,List2A,white,man,,,,null,,,,,,,,,
null,"<img src=""stim_listA/look1.gif""style=""height:400px;""></stim_listA>",,html-keyboard-response,408,2167154,0.0-19.0-1.10,68155,List2A,white,man,,,,null,,,,,,,,,
null,is looking at,,html-keyboard-response,409,2169156,0.0-19.0-2.10,68155,List2A,white,man,,,,null,,,,,,,,,
9109.7,,,survey-text,410,2178267,0.0-19.0-3.10,68155,List2A,white,man,,,,,"{""Q0"":""luke is looking at ruth""}","<img src=""stim_listA/look1.gif""style=""height:400px;""></stim_listA>",is looking at,,,,,,
null,"<div style=""font-size:60px;"">+</div>",,html-keyboard-response,411,2178769,0.0-19.0-0.11,68155,List2A,white,man,,,,null,,,,,,,,,
null,"<img src=""stim_listA/oppose6.gif""style=""height:400px;""></stim_listA>",,html-keyboard-response,412,2180771,0.0-19.0-1.11,68155,List2A,white,man,,,,null,,,,,,,,,
null,is being opposed by,,html-keyboard-response,413,2182773,0.0-19.0-2.11,68155,List2A,white,man,,,,null,,,,,,,,,
7972.6,,,survey-text,414,2190747,0.0-19.0-3.11,68155,List2A,white,man,,,,,"{""Q0"":""luke is being opposed by fred""}","<img src=""stim_listA/oppose6.gif""style=""height:400px;""></stim_listA>",is being opposed by,,,,,,
null,"<div style=""font-size:60px;"">+</div>",,html-keyboard-response,415,2191248,0.0-19.0-0.12,68155,List2A,white,man,,,,null,,,,,,,,,
null,"<img src=""stim_listA/seduce7.gif""style=""height:400px;""></stim_listA>",,html-keyboard-response,416,2193249,0.0-19.0-1.12,68155,List2A,white,man,,,,null,,,,,,,,,
null,is seducing,,html-keyboard-response,417,2195254,0.0-19.0-2.12,68155,List2A,white,man,,,,null,,,,,,,,,
7611,,,survey-text,418,2202866,0.0-19.0-3.12,68155,List2A,white,man,,,,,"{""Q0"":""ruth is seducing kate""}","<img src=""stim_listA/seduce7.gif""style=""height:400px;""></stim_listA>",is seducing,,,,,,
null,"<div style=""font-size:60px;"">+</div>",,html-keyboard-response,419,2203370,0.0-19.0-0.13,68155,List2A,white,man,,,,null,,,,,,,,,
null,"<img src=""stim_listA/kiss7.gif""style=""height:400px;""></stim_listA>",,html-keyboard-response,420,2205372,0.0-19.0-1.13,68155,List2A,white,man,,,,null,,,,,,,,,
null,is kissing,,html-keyboard-response,421,2207372,0.0-19.0-2.13,68155,List2A,white,man,,,,null,,,,,,,,,
6108.5,,,survey-text,422,2213482,0.0-19.0-3.13,68155,List2A,white,man,,,,,"{""Q0"":""ruth is kissing kate""}","<img src=""stim_listA/kiss7.gif""style=""height:400px;""></stim_listA>",is kissing,,,,,,
null,"<div style=""font-size:60px;"">+</div>",,html-keyboard-response,423,2213983,0.0-19.0-0.14,68155,List2A,white,man,,,,null,,,,,,,,,
null,"<img src=""stim_listA/hug4.gif""style=""height:400px;""></stim_listA>",,html-keyboard-response,424,2215992,0.0-19.0-1.14,68155,List2A,white,man,,,,null,,,,,,,,,
null,is being hugged by,,html-keyboard-response,425,2218010,0.0-19.0-2.14,68155,List2A,white,man,,,,null,,,,,,,,,
6898.8,,,survey-text,426,2224910,0.0-19.0-3.14,68155,List2A,white,man,,,,,"{""Q0"":""kate is being hugged by mike""}","<img src=""stim_listA/hug4.gif""style=""height:400px;""></stim_listA>",is being hugged by,,,,,,
null,"<div style=""font-size:60px;"">+</div>",,html-keyboard-response,427,2225423,0.0-19.0-0.15,68155,List2A,white,man,,,,null,,,,,,,,,
null,"<img src=""stim_listA/seduce1.gif""style=""height:400px;""></stim_listA>",,html-keyboard-response,428,2227425,0.0-19.0-1.15,68155,List2A,white,man,,,,null,,,,,,,,,
null,is seducing,,html-keyboard-response,429,2229425,0.0-19.0-2.15,68155,List2A,white,man,,,,null,,,,,,,,,
9786.5,,,survey-text,430,2239214,0.0-19.0-3.15,68155,List2A,white,man,,,,,"{""Q0"":""kate is seducing luke""}","<img src=""stim_listA/seduce1.gif""style=""height:400px;""></stim_listA>",is seducing,,,,,,
null,"<div style=""font-size:60px;"">+</div>",,html-keyboard-response,431,2239731,0.0-19.0-0.16,68155,List2A,white,man,,,,null,,,,,,,,,
null,"<img src=""stim_listA/look6.gif""style=""height:400px;""></stim_listA>",,html-keyboard-response,432,2241732,0.0-19.0-1.16,68155,List2A,white,man,,,,null,,,,,,,,,
null,is being looked at by,,html-keyboard-response,433,2243738,0.0-19.0-2.16,68155,List2A,white,man,,,,null,,,,,,,,,
10730.2,,,survey-text,434,2254470,0.0-19.0-3.16,68155,List2A,white,man,,,,,"{""Q0"":""mike is being looked at by fred""}","<img src=""stim_listA/look6.gif""style=""height:400px;""></stim_listA>",is being looked at by,,,,,,
null,"<div style=""font-size:60px;"">+</div>",,html-keyboard-response,435,2254971,0.0-19.0-0.17,68155,List2A,white,man,,,,null,,,,,,,,,
null,"<img src=""stim_listA/copy1.gif""style=""height:400px;""></stim_listA>",,html-keyboard-response,436,2256973,0.0-19.0-1.17,68155,List2A,white,man,,,,null,,,,,,,,,
null,is copying,,html-keyboard-response,437,2258980,0.0-19.0-2.17,68155,List2A,white,man,,,,null,,,,,,,,,
11087.9,,,survey-text,438,2270069,0.0-19.0-3.17,68155,List2A,white,man,,,,,"{""Q0"":""fred is copying ruth""}","<img src=""stim_listA/copy1.gif""style=""height:400px;""></stim_listA>",is copying,,,,,,
null,"<div style=""font-size:60px;"">+</div>",,html-keyboard-response,439,2270573,0.0-19.0-0.18,68155,List2A,white,man,,,,null,,,,,,,,,
null,"<img src=""stim_listA/look7.gif""style=""height:400px;""></stim_listA>",,html-keyboard-response,440,2272577,0.0-19.0-1.18,68155,List2A,white,man,,,,null,,,,,,,,,
null,is looking at,,html-keyboard-response,441,2274579,0.0-19.0-2.18,68155,List2A,white,man,,,,null,,,,,,,,,
14188.5,,,survey-text,442,2288769,0.0-19.0-3.18,68155,List2A,white,man,,,,,"{""Q0"":""beth is looking at ruth""}","<img src=""stim_listA/look7.gif""style=""height:400px;""></stim_listA>",is looking at,,,,,,
null,"<div style=""font-size:60px;"">+</div>",,html-keyboard-response,443,2289271,0.0-19.0-0.19,68155,List2A,white,man,,,,null,,,,,,,,,
null,"<img src=""stim_listA/greet5.gif""style=""height:400px;""></stim_listA>",,html-keyboard-response,444,2291272,0.0-19.0-1.19,68155,List2A,white,man,,,,null,,,,,,,,,
null,is greeting,,html-keyboard-response,445,2293274,0.0-19.0-2.19,68155,List2A,white,man,,,,null,,,,,,,,,
6980.7,,,survey-text,446,2300257,0.0-19.0-3.19,68155,List2A,white,man,,,,,"{""Q0"":""fred is greeting dave""}","<img src=""stim_listA/greet5.gif""style=""height:400px;""></stim_listA>",is greeting,,,,,,
1511,<p>Thank you for completing that task.</p><p>The final part of this session is a questionnaire that will take about 4 minutes.</p><p>Press Continue.</p>,0,html-button-response,447,2301769,0.0-20.0,68155,List2A,white,man,,,,,,,,,,,,,
39474.8,,,survey-text,448,2342249,0.0-21.0,68155,List2A,white,man,,,,,"{""Q0"":""27"",""Q1"":""English"",""Q2"":""English"",""Q3"":""U.S.A"",""Q4"":""U.S.A"",""Q5"":""WHITE"",""Q6"":""Male""}",,,demographics,,,,,
1993.4,<p>Have you lived in the USA for the last 5 years or more?</p>,0,html-button-response,449,2344244,0.0-22.0,68155,List2A,white,man,,,,,,,,fiveyears,,,,,
1542.2,<p>Move the slider to show the extent to which you agree with the following statements.</p>,0,html-button-response,450,2346796,0.0-23.0,68155,List2A,white,man,,,,,,,,,,,,,
3666.2,,,html-slider-response,451,2351464,0.0-24.0-0.0-0.0,68155,List2A,white,man,,,,,,,,survey_race,20,,,I consider myself an extrovert.,filler
2774.6,,,html-slider-response,452,2354241,0.0-24.0-0.0-0.1,68155,List2A,white,man,,,,,,,,survey_race,96,,,I am glad to be the age I am.,filler
3038.8,,,html-slider-response,453,2357280,0.0-24.0-0.0-0.2,68155,List2A,white,man,,,,,,,,survey_race,84,,,I have a lot in common with people of a similar age to me.,filler
2218.6,,,html-slider-response,454,2359500,0.0-24.0-0.0-0.3,68155,List2A,white,man,,,,,,,,survey_race,61,,,I feel solidarity with people the same age as me.,filler
8430.8,,,html-slider-response,455,2367932,0.0-24.0-0.0-0.4,68155,List2A,white,man,,,,,,,,survey_race,100,,,Being my race gives me a good feeling.,feeling
5206.3,,,html-slider-response,456,2373140,0.0-24.0-0.0-0.5,68155,List2A,white,man,,,,,,,,survey_race,73,,,People of my race are very similar to each other.,verysimilar
3190.6,,,html-slider-response,457,2376332,0.0-24.0-0.0-0.6,68155,List2A,white,man,,,,,,,,survey_race,40,,,I enjoy being in large groups.,filler
2350.5,,,html-slider-response,458,2378684,0.0-24.0-0.0-0.7,68155,List2A,white,man,,,,,,,,survey_race,71,,,I often think about the fact that I am my race.,often
3006.7,,,html-slider-response,459,2381692,0.0-24.0-0.0-0.8,68155,List2A,white,man,,,,,,,,survey_race,60,,,Being my race is an important part of how I see myself.,important
6070.9,,,html-slider-response,460,2387764,0.0-24.0-0.0-0.9,68155,List2A,white,man,,,,,,,,survey_race,100,,,I am glad to be my age.,filler
3566.5,,,html-slider-response,461,2391332,0.0-24.0-0.0-0.10,68155,List2A,white,man,,,,,,,,survey_race,82,,,The fact that I am my race is an important part of my identity.,identity
3506.5,,,html-slider-response,462,2394840,0.0-24.0-0.0-0.11,68155,List2A,white,man,,,,,,,,survey_race,87,,,Getting older does not worry me.,filler
3130.6,,,html-slider-response,463,2397972,0.0-24.0-0.0-0.12,68155,List2A,white,man,,,,,,,,survey_race,18,,,I often think about the fact that I am my age.,filler
2398.6,,,html-slider-response,464,2400372,0.0-24.0-0.0-0.13,68155,List2A,white,man,,,,,,,,survey_race,73,,,I am similar to the average person of my race.,similar
2423.1,,,html-slider-response,465,2402796,0.0-24.0-0.0-0.14,68155,List2A,white,man,,,,,,,,survey_race,100,,,I am glad to be my race.,glad
4734.8,,,html-slider-response,466,2407532,0.0-24.0-0.0-0.15,68155,List2A,white,man,,,,,,,,survey_race,66,,,I have a lot in common with the average person of my race.,average
1686.4,,,html-slider-response,467,2409220,0.0-24.0-0.0-0.16,68155,List2A,white,man,,,,,,,,survey_race,66,,,People of my race have a lot in common with each other.,common
2779,,,html-slider-response,468,2412000,0.0-24.0-0.0-0.17,68155,List2A,white,man,,,,,,,,survey_race,84,,,I feel a bond with people the same age as me.,filler
2450.6,,,html-slider-response,469,2414452,0.0-24.0-0.0-0.18,68155,List2A,white,man,,,,,,,,survey_race,91,,,It is pleasant to be my race.,pleasant
2350.8,,,html-slider-response,470,2416804,0.0-24.0-0.0-0.19,68155,List2A,white,man,,,,,,,,survey_race,92,,,"The older I get, the wiser I feel.",filler
2523,,,html-slider-response,471,2419328,0.0-24.0-0.0-0.20,68155,List2A,white,man,,,,,,,,survey_race,98,,,Being my age gives me a good feeling.,filler
2298.8,,,html-slider-response,472,2421627,0.0-24.0-0.0-0.21,68155,List2A,white,man,,,,,,,,survey_race,88,,,I feel solidarity with my race.,solidarity
3539.2,,,html-slider-response,473,2425168,0.0-24.0-0.0-0.22,68155,List2A,white,man,,,,,,,,survey_race,64,,,I consider myself an introvert.,filler
1902.5,,,html-slider-response,474,2427071,0.0-24.0-0.0-0.23,68155,List2A,white,man,,,,,,,,survey_race,92,,,I feel a bond with my race.,bond
2246.8,,,html-slider-response,475,2429319,0.0-24.0-0.0-0.24,68155,List2A,white,man,,,,,,,,survey_race,78,,,People my age have a lot in common with each other.,filler
2647.3,,,html-slider-response,476,2431968,0.0-24.0-0.0-0.25,68155,List2A,white,man,,,,,,,,survey_race,80,,,I feel committed to my race.,committed
1702.7,,,html-slider-response,477,2433671,0.0-24.0-0.0-0.26,68155,List2A,white,man,,,,,,,,survey_race,80,,,I think that my race has a lot to be proud of.,proud
3031.9,,,html-slider-response,478,2436704,0.0-24.0-0.0-0.27,68155,List2A,white,man,,,,,,,,survey_race,20,,,My age is not an important part of who I am.,filler
1677.8,,,html-slider-response,479,2438383,0.0-24.0-1.0-0.0,68155,List2A,white,man,,,,,,,,survey_gender,70,,,I feel committed to my gender.,committed
1966.9,,,html-slider-response,480,2440351,0.0-24.0-1.0-0.1,68155,List2A,white,man,,,,,,,,survey_gender,62,,,Being my gender is an important part of how I see myself.,important
3638.6,,,html-slider-response,481,2443991,0.0-24.0-1.0-0.2,68155,List2A,white,man,,,,,,,,survey_gender,70,,,I am glad to have the friends that I have.,filler
2062.7,,,html-slider-response,482,2446055,0.0-24.0-1.0-0.3,68155,List2A,white,man,,,,,,,,survey_gender,74,,,I have a lot in common with the average person of my gender.,average
2551,,,html-slider-response,483,2448607,0.0-24.0-1.0-0.4,68155,List2A,white,man,,,,,,,,survey_gender,82,,,I think that my gender has a lot to be proud of.,proud
2567,,,html-slider-response,484,2451175,0.0-24.0-1.0-0.5,68155,List2A,white,man,,,,,,,,survey_gender,76,,,Being my gender gives me a good feeling.,feeling
2911.1,,,html-slider-response,485,2454087,0.0-24.0-1.0-0.6,68155,List2A,white,man,,,,,,,,survey_gender,100,,,I feel solidarity with my friends.,filler
2074.5,,,html-slider-response,486,2456163,0.0-24.0-1.0-0.7,68155,List2A,white,man,,,,,,,,survey_gender,84,,,Most of the friends in my life are very similar to me.,filler
1199.2,,,html-slider-response,487,2457363,0.0-24.0-1.0-0.8,68155,List2A,white,man,,,,,,,,survey_gender,71,,,My friends have a lot in common with each other.,filler
1458.8,,,html-slider-response,488,2458823,0.0-24.0-1.0-0.9,68155,List2A,white,man,,,,,,,,survey_gender,74,,,I am glad to be my gender.,glad
3618.9,,,html-slider-response,489,2462442,0.0-24.0-1.0-0.10,68155,List2A,white,man,,,,,,,,survey_gender,21,,,I would say I am an animal person.,filler
3162.7,,,html-slider-response,490,2465606,0.0-24.0-1.0-0.11,68155,List2A,white,man,,,,,,,,survey_gender,93,,,My friends understand me.,filler
2791.1,,,html-slider-response,491,2468398,0.0-24.0-1.0-0.12,68155,List2A,white,man,,,,,,,,survey_gender,83,,,People of my gender have a lot in common with each other.,common
1814.6,,,html-slider-response,492,2470214,0.0-24.0-1.0-0.13,68155,List2A,white,man,,,,,,,,survey_gender,83,,,Being around my friends gives me a good feeling.,filler
3958.8,,,html-slider-response,493,2474174,0.0-24.0-1.0-0.14,68155,List2A,white,man,,,,,,,,survey_gender,57,,,Routine is not important to me.,filler
2582.4,,,html-slider-response,494,2476758,0.0-24.0-1.0-0.15,68155,List2A,white,man,,,,,,,,survey_gender,84,,,The fact that I am my gender is an important part of my identity.,identity
1315.1,,,html-slider-response,495,2478074,0.0-24.0-1.0-0.16,68155,List2A,white,man,,,,,,,,survey_gender,77,,,I feel a bond with my friends.,filler
3319,,,html-slider-response,496,2481394,0.0-24.0-1.0-0.17,68155,List2A,white,man,,,,,,,,survey_gender,7,,,Family is not more important to me than friendship.,filler
2194.9,,,html-slider-response,497,2483590,0.0-24.0-1.0-0.18,68155,List2A,white,man,,,,,,,,survey_gender,83,,,People of my gender are very similar to each other.,verysimilar
1430.4,,,html-slider-response,498,2485022,0.0-24.0-1.0-0.19,68155,List2A,white,man,,,,,,,,survey_gender,79,,,I feel solidarity with my gender.,solidarity
1299.1,,,html-slider-response,499,2486322,0.0-24.0-1.0-0.20,68155,List2A,white,man,,,,,,,,survey_gender,82,,,I am similar to the average person of my gender.,similar
1311.7,,,html-slider-response,500,2487634,0.0-24.0-1.0-0.21,68155,List2A,white,man,,,,,,,,survey_gender,73,,,I feel a bond with my gender.,bond
1190.4,,,html-slider-response,501,2488826,0.0-24.0-1.0-0.22,68155,List2A,white,man,,,,,,,,survey_gender,79,,,I have a lot in common with my friends.,filler
3167.1,,,html-slider-response,502,2491994,0.0-24.0-1.0-0.23,68155,List2A,white,man,,,,,,,,survey_gender,45,,,I consider myself a highly empathetic person.,filler
1554.7,,,html-slider-response,503,2493550,0.0-24.0-1.0-0.24,68155,List2A,white,man,,,,,,,,survey_gender,62,,,It is pleasant to be my gender.,pleasant
4307,,,html-slider-response,504,2497858,0.0-24.0-1.0-0.25,68155,List2A,white,man,,,,,,,,survey_gender,69,,,I often think about the fact that I am my gender.,often
2806.6,,,html-slider-response,505,2500666,0.0-24.0-1.0-0.26,68155,List2A,white,man,,,,,,,,survey_gender,70,,,I often think about my actions.,filler
5406.4,,,html-slider-response,506,2506074,0.0-24.0-1.0-0.27,68155,List2A,white,man,,,,,,,,survey_gender,41,,,It is not always easy for people to know what I am thinking.,filler
8645.9,,,survey-text,507,2514722,0.0-25.0,68155,List2A,white,man,,,,,"{""Q0"":""ccc""}",,,worker_id,,,,,
2052.2,,,external-html,508,2517922,0.0-26.0,68155,List2A,white,man,debrief.html,,,,,,,,,,,,
