rt,stimulus,button_pressed,trial_type,trial_index,time_elapsed,internal_node_id,subject,list,ppt_race,ppt_gender,url,first_guess,correct,key_press,responses,image_type,phrase_type,test_part,response,stimulus1,stimulus2,question_type,survey_item
12193.9,Welcome to the experiment. Press Continue to begin.,0,html-button-response,0,12201,0.0-0.0,6834,List1B,black,man,,,,,,,,,,,,,
61993.4,,,external-html,1,77066,0.0-1.0,6834,List1B,black,man,consent.html,,,,,,,,,,,,
32643.5,"<p>On the next page, you will see portraits of 8 people and their names.</p><p>Your first task is to take a few minutes to memorise the names of these people.</p><p>You will have to recall their names during the rest of the experiment, so it is</p><p>essential that you try to memorise these people and their names as best as you can.</p><br><p><strong>You will then be tested on your memory of these names and portraits.</strong></p><br><p>The experiment will start after you have completed this memory test.</p><br><p>Ready?</p>",0,html-button-response,2,109713,0.0-2.0,6834,List1B,black,man,,,,,,,,,,,,,
33123.5,"<img src='img/portrait_matrix_list1.jpg' style='width:900px;height:500px;''></img><p>If you have memorised all the portraits and names and are ready to start, press Continue.</p><p><strong>Please note: Your memory of these faces will be tested 4 times during this experiment.</strong></p>",0,html-button-response,3,143839,0.0-3.0-0.0,6834,List1B,black,man,,,,,,,,,,,,,
13015.2,"<img src=""portrait/WW2.jpg""style=""height:400px;""></img>",3,html-button-response,4,157858,0.0-3.0-1.0,6834,List1B,black,man,,TRUE,3,,,,,,,,,,
null,CORRECT,,html-keyboard-response,5,159364,0.0-3.0-2.0-0.0,6834,List1B,black,man,,,,null,,,,,,,,,
5307.2,"<img src=""portrait/BW2.jpg""style=""height:400px;""></img>",2,html-button-response,6,164675,0.0-3.0-4.0,6834,List1B,black,man,,TRUE,2,,,,,,,,,,
null,CORRECT,,html-keyboard-response,7,166178,0.0-3.0-5.0-0.0,6834,List1B,black,man,,,,null,,,,,,,,,
8123.5,"<img src=""portrait/WM1.jpg""style=""height:400px;""></img>",6,html-button-response,8,174305,0.0-3.0-7.0,6834,List1B,black,man,,TRUE,6,,,,,,,,,,
null,CORRECT,,html-keyboard-response,9,175807,0.0-3.0-8.0-0.0,6834,List1B,black,man,,,,null,,,,,,,,,
9443.6,"<img src=""portrait/BM1.jpg""style=""height:400px;""></img>",4,html-button-response,10,185253,0.0-3.0-10.0,6834,List1B,black,man,,TRUE,4,,,,,,,,,,
null,CORRECT,,html-keyboard-response,11,186755,0.0-3.0-11.0-0.0,6834,List1B,black,man,,,,null,,,,,,,,,
6333.6,"<img src=""portrait/WM2.jpg""style=""height:400px;""></img>",7,html-button-response,12,193092,0.0-3.0-13.0,6834,List1B,black,man,,TRUE,7,,,,,,,,,,
null,CORRECT,,html-keyboard-response,13,194594,0.0-3.0-14.0-0.0,6834,List1B,black,man,,,,null,,,,,,,,,
10754.3,"<img src=""portrait/BW1.jpg""style=""height:400px;""></img>",0,html-button-response,14,205350,0.0-3.0-16.0,6834,List1B,black,man,,TRUE,0,,,,,,,,,,
null,CORRECT,,html-keyboard-response,15,206852,0.0-3.0-17.0-0.0,6834,List1B,black,man,,,,null,,,,,,,,,
6039,"<img src=""portrait/BM2.jpg""style=""height:400px;""></img>",5,html-button-response,16,212894,0.0-3.0-19.0,6834,List1B,black,man,,TRUE,5,,,,,,,,,,
null,CORRECT,,html-keyboard-response,17,214396,0.0-3.0-20.0-0.0,6834,List1B,black,man,,,,null,,,,,,,,,
6650,"<img src=""portrait/WW1.jpg""style=""height:400px;""></img>",1,html-button-response,18,221048,0.0-3.0-22.0,6834,List1B,black,man,,TRUE,1,,,,,,,,,,
null,CORRECT,,html-keyboard-response,19,222550,0.0-3.0-23.0-0.0,6834,List1B,black,man,,,,null,,,,,,,,,
6010.1,<p>You got 8 out of 8 right first time. Press Continue.</p>,0,html-button-response,20,228562,0.0-3.0-25.0,6834,List1B,black,man,,,,,,,,,,,,,
100500.7,"<p>In this experiment, you will view photographs of the people from the memory game interacting.</p><p>By using the <strong>exact</strong> phrase given <i>after</i> the photograph appears and recalling the correct names of the people in the photographs, form a sentence describing the interaction. You do not need to capitalise names.</p><p>Type your answer in the space provided. Please complete every sentence before moving onto the next trial.</p><p>You will only have a few seconds to memorise each given photograph and phrase before you can respond, so try your best to focus.</p><p>An example is given below. Press 'Continue' when you are ready.</p><img src='img/speaking_example.jpg' style='width:800px;height:460px;''></img>",0,html-button-response,21,330068,0.0-4.0,6834,List1B,black,man,,,,,,,,,,,,,
3384.8,"<p>Before the experiment starts, you will watch two example trials. Press 'Continue'.</p>",0,html-button-response,22,334454,0.0-5.0,6834,List1B,black,man,,,,,,,,,,,,,
null,<img src='img/play_eg.gif' style='height:400px;''></img>,,html-keyboard-response,23,337457,0.0-6.0,6834,List1B,black,man,,,,null,,,,,,,,,
null,<p>is playing with</p>,,html-keyboard-response,24,339458,0.0-7.0,6834,List1B,black,man,,,,null,,,,,,,,,
36306.3,<p><b>Answer:</b> kate is playing with beth</p>,0,html-button-response,25,375766,0.0-8.0,6834,List1B,black,man,,,,,,,,,,,,,
null,<img src='img/dance_eg.gif' style='height:400px;''></img>,,html-keyboard-response,26,378769,0.0-9.0,6834,List1B,black,man,,,,null,,,,,,,,,
null,<p>is being entertained by</p>,,html-keyboard-response,27,380770,0.0-10.0,6834,List1B,black,man,,,,null,,,,,,,,,
14488.2,<p><b>Answer:</b> luke is being entertained by dave</p>,0,html-button-response,28,395260,0.0-11.0,6834,List1B,black,man,,,,,,,,,,,,,
8512.8,"<p>Ready to start the experiment?</p><br><p><strong>Remember to describe the picture using a full sentence,</strong></p><p><strong>that combines the names of the people with the <i>exact</i> phrase given.</strong></p><p><strong>To receive full payment you must do this correctly.</strong></p><p><strong> You do not need to capitalise names or use punctuation.</strong></p><br><p>Press 'Continue' to begin.</p>",0,html-button-response,29,404775,0.0-12.0,6834,List1B,black,man,,,,,,,,,,,,,
null,"<div style=""font-size:60px;"">+</div>",,html-keyboard-response,30,406277,0.0-13.0-0.0,6834,List1B,black,man,,,,null,,,,,,,,,
null,"<img src=""stim_listB/oppose4.gif""style=""height:400px;""></stim_listB>",,html-keyboard-response,31,408280,0.0-13.0-1.0,6834,List1B,black,man,,,,null,,,,,,,,,
null,is being opposed by,,html-keyboard-response,32,410282,0.0-13.0-2.0,6834,List1B,black,man,,,,null,,,,,,,,,
61890.1,,,survey-text,33,472179,0.0-13.0-3.0,6834,List1B,black,man,,,,,"{""Q0"":""luke is engaging with ruth""}","<img src=""stim_listB/oppose4.gif""style=""height:400px;""></stim_listB>",is being opposed by,,,,,,
null,"<div style=""font-size:60px;"">+</div>",,html-keyboard-response,34,472683,0.0-13.0-0.1,6834,List1B,black,man,,,,null,,,,,,,,,
null,"<img src=""stim_listB/kiss6.gif""style=""height:400px;""></stim_listB>",,html-keyboard-response,35,474684,0.0-13.0-1.1,6834,List1B,black,man,,,,null,,,,,,,,,
null,is being kissed by,,html-keyboard-response,36,476686,0.0-13.0-2.1,6834,List1B,black,man,,,,null,,,,,,,,,
60685.6,,,survey-text,37,537376,0.0-13.0-3.1,6834,List1B,black,man,,,,,"{""Q0"":""mike is being kissed by fred""}","<img src=""stim_listB/kiss6.gif""style=""height:400px;""></stim_listB>",is being kissed by,,,,,,
null,"<div style=""font-size:60px;"">+</div>",,html-keyboard-response,38,537878,0.0-13.0-0.2,6834,List1B,black,man,,,,null,,,,,,,,,
null,"<img src=""stim_listB/oppose6.gif""style=""height:400px;""></stim_listB>",,html-keyboard-response,39,539881,0.0-13.0-1.2,6834,List1B,black,man,,,,null,,,,,,,,,
null,is being opposed by,,html-keyboard-response,40,541882,0.0-13.0-2.2,6834,List1B,black,man,,,,null,,,,,,,,,
52958.7,,,survey-text,41,594845,0.0-13.0-3.2,6834,List1B,black,man,,,,,"{""Q0"":""fred is being opposed by mike""}","<img src=""stim_listB/oppose6.gif""style=""height:400px;""></stim_listB>",is being opposed by,,,,,,
null,"<div style=""font-size:60px;"">+</div>",,html-keyboard-response,42,595348,0.0-13.0-0.3,6834,List1B,black,man,,,,null,,,,,,,,,
null,"<img src=""stim_listB/hug6.gif""style=""height:400px;""></stim_listB>",,html-keyboard-response,43,597351,0.0-13.0-1.3,6834,List1B,black,man,,,,null,,,,,,,,,
null,is being hugged by,,html-keyboard-response,44,599353,0.0-13.0-2.3,6834,List1B,black,man,,,,null,,,,,,,,,
100815.4,,,survey-text,45,700173,0.0-13.0-3.3,6834,List1B,black,man,,,,,"{""Q0"":""mike is being hugged by dave""}","<img src=""stim_listB/hug6.gif""style=""height:400px;""></stim_listB>",is being hugged by,,,,,,
null,"<div style=""font-size:60px;"">+</div>",,html-keyboard-response,46,700676,0.0-13.0-0.4,6834,List1B,black,man,,,,null,,,,,,,,,
null,"<img src=""stim_listB/look8.gif""style=""height:400px;""></stim_listB>",,html-keyboard-response,47,702679,0.0-13.0-1.4,6834,List1B,black,man,,,,null,,,,,,,,,
null,is being looked at by,,html-keyboard-response,48,704681,0.0-13.0-2.4,6834,List1B,black,man,,,,null,,,,,,,,,
69441.6,,,survey-text,49,774128,0.0-13.0-3.4,6834,List1B,black,man,,,,,"{""Q0"":""kate is being looked at by jane""}","<img src=""stim_listB/look8.gif""style=""height:400px;""></stim_listB>",is being looked at by,,,,,,
null,"<div style=""font-size:60px;"">+</div>",,html-keyboard-response,50,774632,0.0-13.0-0.5,6834,List1B,black,man,,,,null,,,,,,,,,
null,"<img src=""stim_listB/shout1.gif""style=""height:400px;""></stim_listB>",,html-keyboard-response,51,776635,0.0-13.0-1.5,6834,List1B,black,man,,,,null,,,,,,,,,
null,is shouting at,,html-keyboard-response,52,778638,0.0-13.0-2.5,6834,List1B,black,man,,,,null,,,,,,,,,
70991.9,,,survey-text,53,849634,0.0-13.0-3.5,6834,List1B,black,man,,,,,"{""Q0"":""beth is shouting at fred""}","<img src=""stim_listB/shout1.gif""style=""height:400px;""></stim_listB>",is shouting at,,,,,,
null,"<div style=""font-size:60px;"">+</div>",,html-keyboard-response,54,850137,0.0-13.0-0.6,6834,List1B,black,man,,,,null,,,,,,,,,
null,"<img src=""stim_listB/oppose1.gif""style=""height:400px;""></stim_listB>",,html-keyboard-response,55,852141,0.0-13.0-1.6,6834,List1B,black,man,,,,null,,,,,,,,,
null,is opposing,,html-keyboard-response,56,854143,0.0-13.0-2.6,6834,List1B,black,man,,,,null,,,,,,,,,
66230.8,,,survey-text,57,920381,0.0-13.0-3.6,6834,List1B,black,man,,,,,"{""Q0"":""mike is opposing kate""}","<img src=""stim_listB/oppose1.gif""style=""height:400px;""></stim_listB>",is opposing,,,,,,
null,"<div style=""font-size:60px;"">+</div>",,html-keyboard-response,58,920886,0.0-13.0-0.7,6834,List1B,black,man,,,,null,,,,,,,,,
null,"<img src=""stim_listB/greet2.gif""style=""height:400px;""></stim_listB>",,html-keyboard-response,59,922890,0.0-13.0-1.7,6834,List1B,black,man,,,,null,,,,,,,,,
null,is being greeted by,,html-keyboard-response,60,924893,0.0-13.0-2.7,6834,List1B,black,man,,,,null,,,,,,,,,
54067,,,survey-text,61,978966,0.0-13.0-3.7,6834,List1B,black,man,,,,,"{""Q0"":""kate is being greeted by fred""}","<img src=""stim_listB/greet2.gif""style=""height:400px;""></stim_listB>",is being greeted by,,,,,,
null,"<div style=""font-size:60px;"">+</div>",,html-keyboard-response,62,979469,0.0-13.0-0.8,6834,List1B,black,man,,,,null,,,,,,,,,
null,"<img src=""stim_listB/look7.gif""style=""height:400px;""></stim_listB>",,html-keyboard-response,63,981473,0.0-13.0-1.8,6834,List1B,black,man,,,,null,,,,,,,,,
null,is looking at,,html-keyboard-response,64,983476,0.0-13.0-2.8,6834,List1B,black,man,,,,null,,,,,,,,,
64737,,,survey-text,65,1048220,0.0-13.0-3.8,6834,List1B,black,man,,,,,"{""Q0"":""beth is looking at ruth""}","<img src=""stim_listB/look7.gif""style=""height:400px;""></stim_listB>",is looking at,,,,,,
null,"<div style=""font-size:60px;"">+</div>",,html-keyboard-response,66,1048723,0.0-13.0-0.9,6834,List1B,black,man,,,,null,,,,,,,,,
null,"<img src=""stim_listB/hug7.gif""style=""height:400px;""></stim_listB>",,html-keyboard-response,67,1050727,0.0-13.0-1.9,6834,List1B,black,man,,,,null,,,,,,,,,
null,is hugging,,html-keyboard-response,68,1052739,0.0-13.0-2.9,6834,List1B,black,man,,,,null,,,,,,,,,
51526.8,,,survey-text,69,1104272,0.0-13.0-3.9,6834,List1B,black,man,,,,,"{""Q0"":""beth is hugging ruth""}","<img src=""stim_listB/hug7.gif""style=""height:400px;""></stim_listB>",is hugging,,,,,,
null,"<div style=""font-size:60px;"">+</div>",,html-keyboard-response,70,1104776,0.0-13.0-0.10,6834,List1B,black,man,,,,null,,,,,,,,,
null,"<img src=""stim_listB/challenge1.gif""style=""height:400px;""></stim_listB>",,html-keyboard-response,71,1106780,0.0-13.0-1.10,6834,List1B,black,man,,,,null,,,,,,,,,
null,is challenging,,html-keyboard-response,72,1108784,0.0-13.0-2.10,6834,List1B,black,man,,,,null,,,,,,,,,
44349.2,,,survey-text,73,1153139,0.0-13.0-3.10,6834,List1B,black,man,,,,,"{""Q0"":""mike is challenging beth""}","<img src=""stim_listB/challenge1.gif""style=""height:400px;""></stim_listB>",is challenging,,,,,,
null,"<div style=""font-size:60px;"">+</div>",,html-keyboard-response,74,1153645,0.0-13.0-0.11,6834,List1B,black,man,,,,null,,,,,,,,,
null,"<img src=""stim_listB/shout6.gif""style=""height:400px;""></stim_listB>",,html-keyboard-response,75,1155649,0.0-13.0-1.11,6834,List1B,black,man,,,,null,,,,,,,,,
null,is being shouted at by,,html-keyboard-response,76,1157652,0.0-13.0-2.11,6834,List1B,black,man,,,,null,,,,,,,,,
68243.3,,,survey-text,77,1225902,0.0-13.0-3.11,6834,List1B,black,man,,,,,"{""Q0"":""mike is being shouted at by dave""}","<img src=""stim_listB/shout6.gif""style=""height:400px;""></stim_listB>",is being shouted at by,,,,,,
null,"<div style=""font-size:60px;"">+</div>",,html-keyboard-response,78,1226408,0.0-13.0-0.12,6834,List1B,black,man,,,,null,,,,,,,,,
null,"<img src=""stim_listB/look6.gif""style=""height:400px;""></stim_listB>",,html-keyboard-response,79,1228413,0.0-13.0-1.12,6834,List1B,black,man,,,,null,,,,,,,,,
null,is being looked at by,,html-keyboard-response,80,1230416,0.0-13.0-2.12,6834,List1B,black,man,,,,null,,,,,,,,,
43341.6,,,survey-text,81,1273766,0.0-13.0-3.12,6834,List1B,black,man,,,,,"{""Q0"":""dave is being looked at by mike""}","<img src=""stim_listB/look6.gif""style=""height:400px;""></stim_listB>",is being looked at by,,,,,,
null,"<div style=""font-size:60px;"">+</div>",,html-keyboard-response,82,1274270,0.0-13.0-0.13,6834,List1B,black,man,,,,null,,,,,,,,,
null,"<img src=""stim_listB/oppose7.gif""style=""height:400px;""></stim_listB>",,html-keyboard-response,83,1276275,0.0-13.0-1.13,6834,List1B,black,man,,,,null,,,,,,,,,
null,is opposing,,html-keyboard-response,84,1278279,0.0-13.0-2.13,6834,List1B,black,man,,,,null,,,,,,,,,
38034.7,,,survey-text,85,1316319,0.0-13.0-3.13,6834,List1B,black,man,,,,,"{""Q0"":""jane is opposing kate""}","<img src=""stim_listB/oppose7.gif""style=""height:400px;""></stim_listB>",is opposing,,,,,,
null,"<div style=""font-size:60px;"">+</div>",,html-keyboard-response,86,1316821,0.0-13.0-0.14,6834,List1B,black,man,,,,null,,,,,,,,,
null,"<img src=""stim_listB/challenge4.gif""style=""height:400px;""></stim_listB>",,html-keyboard-response,87,1318824,0.0-13.0-1.14,6834,List1B,black,man,,,,null,,,,,,,,,
null,is being challenged by,,html-keyboard-response,88,1320825,0.0-13.0-2.14,6834,List1B,black,man,,,,null,,,,,,,,,
54517.7,,,survey-text,89,1375348,0.0-13.0-3.14,6834,List1B,black,man,,,,,"{""Q0"":""luke is being challenged by jane""}","<img src=""stim_listB/challenge4.gif""style=""height:400px;""></stim_listB>",is being challenged by,,,,,,
null,"<div style=""font-size:60px;"">+</div>",,html-keyboard-response,90,1375851,0.0-13.0-0.15,6834,List1B,black,man,,,,null,,,,,,,,,
null,"<img src=""stim_listB/shout7.gif""style=""height:400px;""></stim_listB>",,html-keyboard-response,91,1377854,0.0-13.0-1.15,6834,List1B,black,man,,,,null,,,,,,,,,
null,is shouting at,,html-keyboard-response,92,1379856,0.0-13.0-2.15,6834,List1B,black,man,,,,null,,,,,,,,,
48133.5,,,survey-text,93,1427994,0.0-13.0-3.15,6834,List1B,black,man,,,,,"{""Q0"":""ruth is shouting at beth""}","<img src=""stim_listB/shout7.gif""style=""height:400px;""></stim_listB>",is shouting at,,,,,,
null,"<div style=""font-size:60px;"">+</div>",,html-keyboard-response,94,1428496,0.0-13.0-0.16,6834,List1B,black,man,,,,null,,,,,,,,,
null,"<img src=""stim_listB/hug4.gif""style=""height:400px;""></stim_listB>",,html-keyboard-response,95,1430499,0.0-13.0-1.16,6834,List1B,black,man,,,,null,,,,,,,,,
null,is being hugged by,,html-keyboard-response,96,1432501,0.0-13.0-2.16,6834,List1B,black,man,,,,null,,,,,,,,,
45037.6,,,survey-text,97,1477543,0.0-13.0-3.16,6834,List1B,black,man,,,,,"{""Q0"":""jane is being hugged by dave""}","<img src=""stim_listB/hug4.gif""style=""height:400px;""></stim_listB>",is being hugged by,,,,,,
null,"<div style=""font-size:60px;"">+</div>",,html-keyboard-response,98,1478046,0.0-13.0-0.17,6834,List1B,black,man,,,,null,,,,,,,,,
null,"<img src=""stim_listB/look1.gif""style=""height:400px;""></stim_listB>",,html-keyboard-response,99,1480048,0.0-13.0-1.17,6834,List1B,black,man,,,,null,,,,,,,,,
null,is looking at,,html-keyboard-response,100,1482050,0.0-13.0-2.17,6834,List1B,black,man,,,,null,,,,,,,,,
56067.3,,,survey-text,101,1538122,0.0-13.0-3.17,6834,List1B,black,man,,,,,"{""Q0"":""beth is looking at fred""}","<img src=""stim_listB/look1.gif""style=""height:400px;""></stim_listB>",is looking at,,,,,,
null,"<div style=""font-size:60px;"">+</div>",,html-keyboard-response,102,1538625,0.0-13.0-0.18,6834,List1B,black,man,,,,null,,,,,,,,,
null,"<img src=""stim_listB/kiss7.gif""style=""height:400px;""></stim_listB>",,html-keyboard-response,103,1540628,0.0-13.0-1.18,6834,List1B,black,man,,,,null,,,,,,,,,
null,is kissing,,html-keyboard-response,104,1542629,0.0-13.0-2.18,6834,List1B,black,man,,,,null,,,,,,,,,
44207.1,,,survey-text,105,1586841,0.0-13.0-3.18,6834,List1B,black,man,,,,,"{""Q0"":""beth is kissing ruth""}","<img src=""stim_listB/kiss7.gif""style=""height:400px;""></stim_listB>",is kissing,,,,,,
null,"<div style=""font-size:60px;"">+</div>",,html-keyboard-response,106,1587347,0.0-13.0-0.19,6834,List1B,black,man,,,,null,,,,,,,,,
null,"<img src=""stim_listB/oppose3.gif""style=""height:400px;""></stim_listB>",,html-keyboard-response,107,1589350,0.0-13.0-1.19,6834,List1B,black,man,,,,null,,,,,,,,,
null,is opposing,,html-keyboard-response,108,1591352,0.0-13.0-2.19,6834,List1B,black,man,,,,null,,,,,,,,,
53683.2,,,survey-text,109,1645040,0.0-13.0-3.19,6834,List1B,black,man,,,,,"{""Q0"":""jane is opposing dave""}","<img src=""stim_listB/oppose3.gif""style=""height:400px;""></stim_listB>",is opposing,,,,,,
52201.4,"<img src='img/portrait_matrix_list1.jpg' style='width:900px;height:500px;''></img><p>If you have memorised all the portraits and names and are ready to start, press Continue.</p><p><strong>Please note: Your memory of these faces will be tested 4 times during this experiment.</strong></p>",0,html-button-response,110,1697246,0.0-14.0-0.0,6834,List1B,black,man,,,,,,,,,,,,,
7750.1,"<img src=""portrait/BW2.jpg""style=""height:400px;""></img>",2,html-button-response,111,1706000,0.0-14.0-1.0,6834,List1B,black,man,,TRUE,2,,,,,,,,,,
null,CORRECT,,html-keyboard-response,112,1707511,0.0-14.0-2.0-0.0,6834,List1B,black,man,,,,null,,,,,,,,,
4091.1,"<img src=""portrait/WW2.jpg""style=""height:400px;""></img>",3,html-button-response,113,1711607,0.0-14.0-4.0,6834,List1B,black,man,,TRUE,3,,,,,,,,,,
null,CORRECT,,html-keyboard-response,114,1713110,0.0-14.0-5.0-0.0,6834,List1B,black,man,,,,null,,,,,,,,,
5397.9,"<img src=""portrait/BW1.jpg""style=""height:400px;""></img>",0,html-button-response,115,1718512,0.0-14.0-7.0,6834,List1B,black,man,,TRUE,0,,,,,,,,,,
null,CORRECT,,html-keyboard-response,116,1720015,0.0-14.0-8.0-0.0,6834,List1B,black,man,,,,null,,,,,,,,,
3608.2,"<img src=""portrait/WW1.jpg""style=""height:400px;""></img>",1,html-button-response,117,1723628,0.0-14.0-10.0,6834,List1B,black,man,,TRUE,1,,,,,,,,,,
null,CORRECT,,html-keyboard-response,118,1725131,0.0-14.0-11.0-0.0,6834,List1B,black,man,,,,null,,,,,,,,,
3616.1,"<img src=""portrait/WM1.jpg""style=""height:400px;""></img>",6,html-button-response,119,1728752,0.0-14.0-13.0,6834,List1B,black,man,,TRUE,6,,,,,,,,,,
null,CORRECT,,html-keyboard-response,120,1730256,0.0-14.0-14.0-0.0,6834,List1B,black,man,,,,null,,,,,,,,,
3449.4,"<img src=""portrait/WM2.jpg""style=""height:400px;""></img>",7,html-button-response,121,1733710,0.0-14.0-16.0,6834,List1B,black,man,,TRUE,7,,,,,,,,,,
null,CORRECT,,html-keyboard-response,122,1735214,0.0-14.0-17.0-0.0,6834,List1B,black,man,,,,null,,,,,,,,,
4678.1,"<img src=""portrait/BM2.jpg""style=""height:400px;""></img>",5,html-button-response,123,1739896,0.0-14.0-19.0,6834,List1B,black,man,,TRUE,5,,,,,,,,,,
null,CORRECT,,html-keyboard-response,124,1741400,0.0-14.0-20.0-0.0,6834,List1B,black,man,,,,null,,,,,,,,,
1965.9,"<img src=""portrait/BM1.jpg""style=""height:400px;""></img>",4,html-button-response,125,1743371,0.0-14.0-22.0,6834,List1B,black,man,,TRUE,4,,,,,,,,,,
null,CORRECT,,html-keyboard-response,126,1744874,0.0-14.0-23.0-0.0,6834,List1B,black,man,,,,null,,,,,,,,,
5022.9,<p>You got 8 out of 8 right first time. Press Continue.</p>,0,html-button-response,127,1749901,0.0-14.0-25.0,6834,List1B,black,man,,,,,,,,,,,,,
null,"<div style=""font-size:60px;"">+</div>",,html-keyboard-response,128,1751405,0.0-15.0-0.0,6834,List1B,black,man,,,,null,,,,,,,,,
null,"<img src=""stim_listB/oppose2.gif""style=""height:400px;""></stim_listB>",,html-keyboard-response,129,1753408,0.0-15.0-1.0,6834,List1B,black,man,,,,null,,,,,,,,,
null,is being opposed by,,html-keyboard-response,130,1755411,0.0-15.0-2.0,6834,List1B,black,man,,,,null,,,,,,,,,
44810.5,,,survey-text,131,1800227,0.0-15.0-3.0,6834,List1B,black,man,,,,,"{""Q0"":""beth is being opposed by fred""}","<img src=""stim_listB/oppose2.gif""style=""height:400px;""></stim_listB>",is being opposed by,,,,,,
null,"<div style=""font-size:60px;"">+</div>",,html-keyboard-response,132,1800730,0.0-15.0-0.1,6834,List1B,black,man,,,,null,,,,,,,,,
null,"<img src=""stim_listB/seduce7.gif""style=""height:400px;""></stim_listB>",,html-keyboard-response,133,1802735,0.0-15.0-1.1,6834,List1B,black,man,,,,null,,,,,,,,,
null,is seducing,,html-keyboard-response,134,1804738,0.0-15.0-2.1,6834,List1B,black,man,,,,null,,,,,,,,,
41214.7,,,survey-text,135,1845958,0.0-15.0-3.1,6834,List1B,black,man,,,,,"{""Q0"":""beth is seducing jane""}","<img src=""stim_listB/seduce7.gif""style=""height:400px;""></stim_listB>",is seducing,,,,,,
null,"<div style=""font-size:60px;"">+</div>",,html-keyboard-response,136,1846463,0.0-15.0-0.2,6834,List1B,black,man,,,,null,,,,,,,,,
null,"<img src=""stim_listB/copy7.gif""style=""height:400px;""></stim_listB>",,html-keyboard-response,137,1848467,0.0-15.0-1.2,6834,List1B,black,man,,,,null,,,,,,,,,
null,is copying,,html-keyboard-response,138,1850471,0.0-15.0-2.2,6834,List1B,black,man,,,,null,,,,,,,,,
47311.7,,,survey-text,139,1897788,0.0-15.0-3.2,6834,List1B,black,man,,,,,"{""Q0"":""kate is copying ruth""}","<img src=""stim_listB/copy7.gif""style=""height:400px;""></stim_listB>",is copying,,,,,,
null,"<div style=""font-size:60px;"">+</div>",,html-keyboard-response,140,1898290,0.0-15.0-0.3,6834,List1B,black,man,,,,null,,,,,,,,,
null,"<img src=""stim_listB/copy4.gif""style=""height:400px;""></stim_listB>",,html-keyboard-response,141,1900293,0.0-15.0-1.3,6834,List1B,black,man,,,,null,,,,,,,,,
null,is being copied by,,html-keyboard-response,142,1902294,0.0-15.0-2.3,6834,List1B,black,man,,,,null,,,,,,,,,
52072.6,,,survey-text,143,1954371,0.0-15.0-3.3,6834,List1B,black,man,,,,,"{""Q0"":""luke is being copied by jane""}","<img src=""stim_listB/copy4.gif""style=""height:400px;""></stim_listB>",is being copied by,,,,,,
null,"<div style=""font-size:60px;"">+</div>",,html-keyboard-response,144,1954873,0.0-15.0-0.4,6834,List1B,black,man,,,,null,,,,,,,,,
null,"<img src=""stim_listB/oppose5.gif""style=""height:400px;""></stim_listB>",,html-keyboard-response,145,1956875,0.0-15.0-1.4,6834,List1B,black,man,,,,null,,,,,,,,,
null,is opposing,,html-keyboard-response,146,1958877,0.0-15.0-2.4,6834,List1B,black,man,,,,null,,,,,,,,,
41853,,,survey-text,147,2000734,0.0-15.0-3.4,6834,List1B,black,man,,,,,"{""Q0"":""dave is opposing mike""}","<img src=""stim_listB/oppose5.gif""style=""height:400px;""></stim_listB>",is opposing,,,,,,
null,"<div style=""font-size:60px;"">+</div>",,html-keyboard-response,148,2001236,0.0-15.0-0.5,6834,List1B,black,man,,,,null,,,,,,,,,
null,"<img src=""stim_listB/touch7.gif""style=""height:400px;""></stim_listB>",,html-keyboard-response,149,2003239,0.0-15.0-1.5,6834,List1B,black,man,,,,null,,,,,,,,,
null,is touching,,html-keyboard-response,150,2005241,0.0-15.0-2.5,6834,List1B,black,man,,,,null,,,,,,,,,
38563.5,,,survey-text,151,2043809,0.0-15.0-3.5,6834,List1B,black,man,,,,,"{""Q0"":""kate is touching jane""}","<img src=""stim_listB/touch7.gif""style=""height:400px;""></stim_listB>",is touching,,,,,,
null,"<div style=""font-size:60px;"">+</div>",,html-keyboard-response,152,2044311,0.0-15.0-0.6,6834,List1B,black,man,,,,null,,,,,,,,,
null,"<img src=""stim_listB/look4.gif""style=""height:400px;""></stim_listB>",,html-keyboard-response,153,2046314,0.0-15.0-1.6,6834,List1B,black,man,,,,null,,,,,,,,,
null,is being looked at by,,html-keyboard-response,154,2048316,0.0-15.0-2.6,6834,List1B,black,man,,,,null,,,,,,,,,
47154.1,,,survey-text,155,2095475,0.0-15.0-3.6,6834,List1B,black,man,,,,,"{""Q0"":""jane is being looking at by dave""}","<img src=""stim_listB/look4.gif""style=""height:400px;""></stim_listB>",is being looked at by,,,,,,
null,"<div style=""font-size:60px;"">+</div>",,html-keyboard-response,156,2095977,0.0-15.0-0.7,6834,List1B,black,man,,,,null,,,,,,,,,
null,"<img src=""stim_listB/greet8.gif""style=""height:400px;""></stim_listB>",,html-keyboard-response,157,2097981,0.0-15.0-1.7,6834,List1B,black,man,,,,null,,,,,,,,,
null,is being greeted by,,html-keyboard-response,158,2099983,0.0-15.0-2.7,6834,List1B,black,man,,,,null,,,,,,,,,
44285,,,survey-text,159,2144273,0.0-15.0-3.7,6834,List1B,black,man,,,,,"{""Q0"":""beth is being greeted by jane""}","<img src=""stim_listB/greet8.gif""style=""height:400px;""></stim_listB>",is being greeted by,,,,,,
null,"<div style=""font-size:60px;"">+</div>",,html-keyboard-response,160,2144776,0.0-15.0-0.8,6834,List1B,black,man,,,,null,,,,,,,,,
null,"<img src=""stim_listB/kiss5.gif""style=""height:400px;""></stim_listB>",,html-keyboard-response,161,2146779,0.0-15.0-1.8,6834,List1B,black,man,,,,null,,,,,,,,,
null,is kissing,,html-keyboard-response,162,2148781,0.0-15.0-2.8,6834,List1B,black,man,,,,null,,,,,,,,,
183186.2,,,survey-text,163,2331972,0.0-15.0-3.8,6834,List1B,black,man,,,,,"{""Q0"":""fred is kissing luke""}","<img src=""stim_listB/kiss5.gif""style=""height:400px;""></stim_listB>",is kissing,,,,,,
null,"<div style=""font-size:60px;"">+</div>",,html-keyboard-response,164,2332477,0.0-15.0-0.9,6834,List1B,black,man,,,,null,,,,,,,,,
null,"<img src=""stim_listB/shout2.gif""style=""height:400px;""></stim_listB>",,html-keyboard-response,165,2334480,0.0-15.0-1.9,6834,List1B,black,man,,,,null,,,,,,,,,
null,is being shouted at by,,html-keyboard-response,166,2336482,0.0-15.0-2.9,6834,List1B,black,man,,,,null,,,,,,,,,
48002.8,,,survey-text,167,2384490,0.0-15.0-3.9,6834,List1B,black,man,,,,,"{""Q0"":""mike is being shouted by kate""}","<img src=""stim_listB/shout2.gif""style=""height:400px;""></stim_listB>",is being shouted at by,,,,,,
null,"<div style=""font-size:60px;"">+</div>",,html-keyboard-response,168,2384993,0.0-15.0-0.10,6834,List1B,black,man,,,,null,,,,,,,,,
null,"<img src=""stim_listB/seduce5.gif""style=""height:400px;""></stim_listB>",,html-keyboard-response,169,2386996,0.0-15.0-1.10,6834,List1B,black,man,,,,null,,,,,,,,,
null,is seducing,,html-keyboard-response,170,2388999,0.0-15.0-2.10,6834,List1B,black,man,,,,null,,,,,,,,,
47496,,,survey-text,171,2436500,0.0-15.0-3.10,6834,List1B,black,man,,,,,"{""Q0"":""fred is seducing dave""}","<img src=""stim_listB/seduce5.gif""style=""height:400px;""></stim_listB>",is seducing,,,,,,
null,"<div style=""font-size:60px;"">+</div>",,html-keyboard-response,172,2437003,0.0-15.0-0.11,6834,List1B,black,man,,,,null,,,,,,,,,
null,"<img src=""stim_listB/kiss3.gif""style=""height:400px;""></stim_listB>",,html-keyboard-response,173,2439012,0.0-15.0-1.11,6834,List1B,black,man,,,,null,,,,,,,,,
null,is kissing,,html-keyboard-response,174,2441014,0.0-15.0-2.11,6834,List1B,black,man,,,,null,,,,,,,,,
39451.8,,,survey-text,175,2480472,0.0-15.0-3.11,6834,List1B,black,man,,,,,"{""Q0"":""luke is kissing ruth""}","<img src=""stim_listB/kiss3.gif""style=""height:400px;""></stim_listB>",is kissing,,,,,,
null,"<div style=""font-size:60px;"">+</div>",,html-keyboard-response,176,2480975,0.0-15.0-0.12,6834,List1B,black,man,,,,null,,,,,,,,,
null,"<img src=""stim_listB/challenge6.gif""style=""height:400px;""></stim_listB>",,html-keyboard-response,177,2482979,0.0-15.0-1.12,6834,List1B,black,man,,,,null,,,,,,,,,
null,is being challenged by,,html-keyboard-response,178,2484981,0.0-15.0-2.12,6834,List1B,black,man,,,,null,,,,,,,,,
43619.5,,,survey-text,179,2528606,0.0-15.0-3.12,6834,List1B,black,man,,,,,"{""Q0"":""fred is being challenged by dave""}","<img src=""stim_listB/challenge6.gif""style=""height:400px;""></stim_listB>",is being challenged by,,,,,,
null,"<div style=""font-size:60px;"">+</div>",,html-keyboard-response,180,2529109,0.0-15.0-0.13,6834,List1B,black,man,,,,null,,,,,,,,,
null,"<img src=""stim_listB/shout4.gif""style=""height:400px;""></stim_listB>",,html-keyboard-response,181,2531115,0.0-15.0-1.13,6834,List1B,black,man,,,,null,,,,,,,,,
null,is being shouted at by,,html-keyboard-response,182,2533117,0.0-15.0-2.13,6834,List1B,black,man,,,,null,,,,,,,,,
63497.9,,,survey-text,183,2596621,0.0-15.0-3.13,6834,List1B,black,man,,,,,"{""Q0"":""dave is being shouted at by jane""}","<img src=""stim_listB/shout4.gif""style=""height:400px;""></stim_listB>",is being shouted at by,,,,,,
null,"<div style=""font-size:60px;"">+</div>",,html-keyboard-response,184,2597124,0.0-15.0-0.14,6834,List1B,black,man,,,,null,,,,,,,,,
null,"<img src=""stim_listB/challenge2.gif""style=""height:400px;""></stim_listB>",,html-keyboard-response,185,2599129,0.0-15.0-1.14,6834,List1B,black,man,,,,null,,,,,,,,,
null,is being challenged by,,html-keyboard-response,186,2601132,0.0-15.0-2.14,6834,List1B,black,man,,,,null,,,,,,,,,
49798.1,,,survey-text,187,2650936,0.0-15.0-3.14,6834,List1B,black,man,,,,,"{""Q0"":""fred is being challenged by kate""}","<img src=""stim_listB/challenge2.gif""style=""height:400px;""></stim_listB>",is being challenged by,,,,,,
null,"<div style=""font-size:60px;"">+</div>",,html-keyboard-response,188,2651440,0.0-15.0-0.15,6834,List1B,black,man,,,,null,,,,,,,,,
null,"<img src=""stim_listB/copy3.gif""style=""height:400px;""></stim_listB>",,html-keyboard-response,189,2653444,0.0-15.0-1.15,6834,List1B,black,man,,,,null,,,,,,,,,
null,is copying,,html-keyboard-response,190,2655447,0.0-15.0-2.15,6834,List1B,black,man,,,,null,,,,,,,,,
57994.4,,,survey-text,191,2713447,0.0-15.0-3.15,6834,List1B,black,man,,,,,"{""Q0"":""dave is copying ruth""}","<img src=""stim_listB/copy3.gif""style=""height:400px;""></stim_listB>",is copying,,,,,,
null,"<div style=""font-size:60px;"">+</div>",,html-keyboard-response,192,2713951,0.0-15.0-0.16,6834,List1B,black,man,,,,null,,,,,,,,,
null,"<img src=""stim_listB/oppose8.gif""style=""height:400px;""></stim_listB>",,html-keyboard-response,193,2715956,0.0-15.0-1.16,6834,List1B,black,man,,,,null,,,,,,,,,
null,is being opposed by,,html-keyboard-response,194,2717959,0.0-15.0-2.16,6834,List1B,black,man,,,,null,,,,,,,,,
51591.9,,,survey-text,195,2769558,0.0-15.0-3.16,6834,List1B,black,man,,,,,"{""Q0"":""ruth is being opposed by beth""}","<img src=""stim_listB/oppose8.gif""style=""height:400px;""></stim_listB>",is being opposed by,,,,,,
null,"<div style=""font-size:60px;"">+</div>",,html-keyboard-response,196,2770063,0.0-15.0-0.17,6834,List1B,black,man,,,,null,,,,,,,,,
null,"<img src=""stim_listB/greet1.gif""style=""height:400px;""></stim_listB>",,html-keyboard-response,197,2772068,0.0-15.0-1.17,6834,List1B,black,man,,,,null,,,,,,,,,
null,is greeting,,html-keyboard-response,198,2774071,0.0-15.0-2.17,6834,List1B,black,man,,,,null,,,,,,,,,
41761.9,,,survey-text,199,2815840,0.0-15.0-3.17,6834,List1B,black,man,,,,,"{""Q0"":""mike is greeting beth""}","<img src=""stim_listB/greet1.gif""style=""height:400px;""></stim_listB>",is greeting,,,,,,
null,"<div style=""font-size:60px;"">+</div>",,html-keyboard-response,200,2816345,0.0-15.0-0.18,6834,List1B,black,man,,,,null,,,,,,,,,
null,"<img src=""stim_listB/look5.gif""style=""height:400px;""></stim_listB>",,html-keyboard-response,201,2818350,0.0-15.0-1.18,6834,List1B,black,man,,,,null,,,,,,,,,
null,is looking at,,html-keyboard-response,202,2820353,0.0-15.0-2.18,6834,List1B,black,man,,,,null,,,,,,,,,
83381.9,,,survey-text,203,2903742,0.0-15.0-3.18,6834,List1B,black,man,,,,,"{""Q0"":""fred is looking at luke""}","<img src=""stim_listB/look5.gif""style=""height:400px;""></stim_listB>",is looking at,,,,,,
null,"<div style=""font-size:60px;"">+</div>",,html-keyboard-response,204,2904246,0.0-15.0-0.19,6834,List1B,black,man,,,,null,,,,,,,,,
null,"<img src=""stim_listB/hug5.gif""style=""height:400px;""></stim_listB>",,html-keyboard-response,205,2906251,0.0-15.0-1.19,6834,List1B,black,man,,,,null,,,,,,,,,
null,is hugging,,html-keyboard-response,206,2908255,0.0-15.0-2.19,6834,List1B,black,man,,,,null,,,,,,,,,
30903.8,,,survey-text,207,2939166,0.0-15.0-3.19,6834,List1B,black,man,,,,,"{""Q0"":""fred is hugging luke""}","<img src=""stim_listB/hug5.gif""style=""height:400px;""></stim_listB>",is hugging,,,,,,
23454.5,"<img src='img/portrait_matrix_list1.jpg' style='width:900px;height:500px;''></img><p>If you have memorised all the portraits and names and are ready to start, press Continue.</p><p><strong>Please note: Your memory of these faces will be tested 4 times during this experiment.</strong></p>",0,html-button-response,208,2962623,0.0-16.0-0.0,6834,List1B,black,man,,,,,,,,,,,,,
3356.5,"<img src=""portrait/WW2.jpg""style=""height:400px;""></img>",3,html-button-response,209,2966983,0.0-16.0-1.0,6834,List1B,black,man,,TRUE,3,,,,,,,,,,
null,CORRECT,,html-keyboard-response,210,2968485,0.0-16.0-2.0-0.0,6834,List1B,black,man,,,,null,,,,,,,,,
3790.9,"<img src=""portrait/WW1.jpg""style=""height:400px;""></img>",1,html-button-response,211,2972278,0.0-16.0-4.0,6834,List1B,black,man,,TRUE,1,,,,,,,,,,
null,CORRECT,,html-keyboard-response,212,2973781,0.0-16.0-5.0-0.0,6834,List1B,black,man,,,,null,,,,,,,,,
3446.5,"<img src=""portrait/WM2.jpg""style=""height:400px;""></img>",7,html-button-response,213,2977230,0.0-16.0-7.0,6834,List1B,black,man,,TRUE,7,,,,,,,,,,
null,CORRECT,,html-keyboard-response,214,2978732,0.0-16.0-8.0-0.0,6834,List1B,black,man,,,,null,,,,,,,,,
3955.1,"<img src=""portrait/BM2.jpg""style=""height:400px;""></img>",5,html-button-response,215,2982690,0.0-16.0-10.0,6834,List1B,black,man,,TRUE,5,,,,,,,,,,
null,CORRECT,,html-keyboard-response,216,2984193,0.0-16.0-11.0-0.0,6834,List1B,black,man,,,,null,,,,,,,,,
4214.2,"<img src=""portrait/BW2.jpg""style=""height:400px;""></img>",2,html-button-response,217,2988409,0.0-16.0-13.0,6834,List1B,black,man,,TRUE,2,,,,,,,,,,
null,CORRECT,,html-keyboard-response,218,2989912,0.0-16.0-14.0-0.0,6834,List1B,black,man,,,,null,,,,,,,,,
3974.5,"<img src=""portrait/WM1.jpg""style=""height:400px;""></img>",6,html-button-response,219,2993889,0.0-16.0-16.0,6834,List1B,black,man,,TRUE,6,,,,,,,,,,
null,CORRECT,,html-keyboard-response,220,2995392,0.0-16.0-17.0-0.0,6834,List1B,black,man,,,,null,,,,,,,,,
3789.7,"<img src=""portrait/BW1.jpg""style=""height:400px;""></img>",0,html-button-response,221,2999184,0.0-16.0-19.0,6834,List1B,black,man,,TRUE,0,,,,,,,,,,
null,CORRECT,,html-keyboard-response,222,3000686,0.0-16.0-20.0-0.0,6834,List1B,black,man,,,,null,,,,,,,,,
3741.7,"<img src=""portrait/BM1.jpg""style=""height:400px;""></img>",4,html-button-response,223,3004431,0.0-16.0-22.0,6834,List1B,black,man,,TRUE,4,,,,,,,,,,
null,CORRECT,,html-keyboard-response,224,3005933,0.0-16.0-23.0-0.0,6834,List1B,black,man,,,,null,,,,,,,,,
7499.7,<p>You got 8 out of 8 right first time. Press Continue.</p>,0,html-button-response,225,3013439,0.0-16.0-25.0,6834,List1B,black,man,,,,,,,,,,,,,
null,"<div style=""font-size:60px;"">+</div>",,html-keyboard-response,226,3014942,0.0-17.0-0.0,6834,List1B,black,man,,,,null,,,,,,,,,
null,"<img src=""stim_listB/touch6.gif""style=""height:400px;""></stim_listB>",,html-keyboard-response,227,3016945,0.0-17.0-1.0,6834,List1B,black,man,,,,null,,,,,,,,,
null,is being touched by,,html-keyboard-response,228,3018947,0.0-17.0-2.0,6834,List1B,black,man,,,,null,,,,,,,,,
41124.3,,,survey-text,229,3060076,0.0-17.0-3.0,6834,List1B,black,man,,,,,"{""Q0"":""fred is being touched by luke""}","<img src=""stim_listB/touch6.gif""style=""height:400px;""></stim_listB>",is being touched by,,,,,,
null,"<div style=""font-size:60px;"">+</div>",,html-keyboard-response,230,3060580,0.0-17.0-0.1,6834,List1B,black,man,,,,null,,,,,,,,,
null,"<img src=""stim_listB/challenge5.gif""style=""height:400px;""></stim_listB>",,html-keyboard-response,231,3062583,0.0-17.0-1.1,6834,List1B,black,man,,,,null,,,,,,,,,
null,is challenging,,html-keyboard-response,232,3064585,0.0-17.0-2.1,6834,List1B,black,man,,,,null,,,,,,,,,
47061.3,,,survey-text,233,3111652,0.0-17.0-3.1,6834,List1B,black,man,,,,,"{""Q0"":""luke is challenging mike""}","<img src=""stim_listB/challenge5.gif""style=""height:400px;""></stim_listB>",is challenging,,,,,,
null,"<div style=""font-size:60px;"">+</div>",,html-keyboard-response,234,3112154,0.0-17.0-0.2,6834,List1B,black,man,,,,null,,,,,,,,,
null,"<img src=""stim_listB/challenge8.gif""style=""height:400px;""></stim_listB>",,html-keyboard-response,235,3114158,0.0-17.0-1.2,6834,List1B,black,man,,,,null,,,,,,,,,
null,is being challenged by,,html-keyboard-response,236,3116160,0.0-17.0-2.2,6834,List1B,black,man,,,,null,,,,,,,,,
39321.7,,,survey-text,237,3155487,0.0-17.0-3.2,6834,List1B,black,man,,,,,"{""Q0"":""beth is being challenged by jane""}","<img src=""stim_listB/challenge8.gif""style=""height:400px;""></stim_listB>",is being challenged by,,,,,,
null,"<div style=""font-size:60px;"">+</div>",,html-keyboard-response,238,3155991,0.0-17.0-0.3,6834,List1B,black,man,,,,null,,,,,,,,,
null,"<img src=""stim_listB/shout8.gif""style=""height:400px;""></stim_listB>",,html-keyboard-response,239,3157994,0.0-17.0-1.3,6834,List1B,black,man,,,,null,,,,,,,,,
null,is being shouted at by,,html-keyboard-response,240,3159997,0.0-17.0-2.3,6834,List1B,black,man,,,,null,,,,,,,,,
33727.6,,,survey-text,241,3193729,0.0-17.0-3.3,6834,List1B,black,man,,,,,"{""Q0"":""kate is being shouted at by jane""}","<img src=""stim_listB/shout8.gif""style=""height:400px;""></stim_listB>",is being shouted at by,,,,,,
null,"<div style=""font-size:60px;"">+</div>",,html-keyboard-response,242,3194233,0.0-17.0-0.4,6834,List1B,black,man,,,,null,,,,,,,,,
null,"<img src=""stim_listB/shout3.gif""style=""height:400px;""></stim_listB>",,html-keyboard-response,243,3196236,0.0-17.0-1.4,6834,List1B,black,man,,,,null,,,,,,,,,
null,is shouting at,,html-keyboard-response,244,3198239,0.0-17.0-2.4,6834,List1B,black,man,,,,null,,,,,,,,,
45345.2,,,survey-text,245,3243589,0.0-17.0-3.4,6834,List1B,black,man,,,,,"{""Q0"":""luke is shouting at ruth""}","<img src=""stim_listB/shout3.gif""style=""height:400px;""></stim_listB>",is shouting at,,,,,,
null,"<div style=""font-size:60px;"">+</div>",,html-keyboard-response,246,3244093,0.0-17.0-0.5,6834,List1B,black,man,,,,null,,,,,,,,,
null,"<img src=""stim_listB/touch2.gif""style=""height:400px;""></stim_listB>",,html-keyboard-response,247,3246098,0.0-17.0-1.5,6834,List1B,black,man,,,,null,,,,,,,,,
null,is being touched by,,html-keyboard-response,248,3248100,0.0-17.0-2.5,6834,List1B,black,man,,,,null,,,,,,,,,
63972.4,,,survey-text,249,3312078,0.0-17.0-3.5,6834,List1B,black,man,,,,,"{""Q0"":""beth is being touched by fred""}","<img src=""stim_listB/touch2.gif""style=""height:400px;""></stim_listB>",is being touched by,,,,,,
null,"<div style=""font-size:60px;"">+</div>",,html-keyboard-response,250,3312582,0.0-17.0-0.6,6834,List1B,black,man,,,,null,,,,,,,,,
null,"<img src=""stim_listB/seduce2.gif""style=""height:400px;""></stim_listB>",,html-keyboard-response,251,3314586,0.0-17.0-1.6,6834,List1B,black,man,,,,null,,,,,,,,,
null,is being seduced by,,html-keyboard-response,252,3316589,0.0-17.0-2.6,6834,List1B,black,man,,,,null,,,,,,,,,
40904.6,,,survey-text,253,3357499,0.0-17.0-3.6,6834,List1B,black,man,,,,,"{""Q0"":""mike is being seduced by beth""}","<img src=""stim_listB/seduce2.gif""style=""height:400px;""></stim_listB>",is being seduced by,,,,,,
null,"<div style=""font-size:60px;"">+</div>",,html-keyboard-response,254,3358004,0.0-17.0-0.7,6834,List1B,black,man,,,,null,,,,,,,,,
null,"<img src=""stim_listB/seduce4.gif""style=""height:400px;""></stim_listB>",,html-keyboard-response,255,3360010,0.0-17.0-1.7,6834,List1B,black,man,,,,null,,,,,,,,,
null,is being seduced by,,html-keyboard-response,256,3362014,0.0-17.0-2.7,6834,List1B,black,man,,,,null,,,,,,,,,
36870.9,,,survey-text,257,3398891,0.0-17.0-3.7,6834,List1B,black,man,,,,,"{""Q0"":""dave is being seduced by ruth""}","<img src=""stim_listB/seduce4.gif""style=""height:400px;""></stim_listB>",is being seduced by,,,,,,
null,"<div style=""font-size:60px;"">+</div>",,html-keyboard-response,258,3399395,0.0-17.0-0.8,6834,List1B,black,man,,,,null,,,,,,,,,
null,"<img src=""stim_listB/challenge3.gif""style=""height:400px;""></stim_listB>",,html-keyboard-response,259,3401399,0.0-17.0-1.8,6834,List1B,black,man,,,,null,,,,,,,,,
null,is challenging,,html-keyboard-response,260,3403402,0.0-17.0-2.8,6834,List1B,black,man,,,,null,,,,,,,,,
31221.9,,,survey-text,261,3434630,0.0-17.0-3.8,6834,List1B,black,man,,,,,"{""Q0"":""dave is challenging ruth""}","<img src=""stim_listB/challenge3.gif""style=""height:400px;""></stim_listB>",is challenging,,,,,,
null,"<div style=""font-size:60px;"">+</div>",,html-keyboard-response,262,3435134,0.0-17.0-0.9,6834,List1B,black,man,,,,null,,,,,,,,,
null,"<img src=""stim_listB/greet3.gif""style=""height:400px;""></stim_listB>",,html-keyboard-response,263,3437138,0.0-17.0-1.9,6834,List1B,black,man,,,,null,,,,,,,,,
null,is greeting,,html-keyboard-response,264,3439141,0.0-17.0-2.9,6834,List1B,black,man,,,,null,,,,,,,,,
31786.1,,,survey-text,265,3470933,0.0-17.0-3.9,6834,List1B,black,man,,,,,"{""Q0"":""dave is greeting ruth""}","<img src=""stim_listB/greet3.gif""style=""height:400px;""></stim_listB>",is greeting,,,,,,
null,"<div style=""font-size:60px;"">+</div>",,html-keyboard-response,266,3471436,0.0-17.0-0.10,6834,List1B,black,man,,,,null,,,,,,,,,
null,"<img src=""stim_listB/copy2.gif""style=""height:400px;""></stim_listB>",,html-keyboard-response,267,3473438,0.0-17.0-1.10,6834,List1B,black,man,,,,null,,,,,,,,,
null,is being copied by,,html-keyboard-response,268,3475440,0.0-17.0-2.10,6834,List1B,black,man,,,,null,,,,,,,,,
43598,,,survey-text,269,3519042,0.0-17.0-3.10,6834,List1B,black,man,,,,,"{""Q0"":""kate is being copied by fred""}","<img src=""stim_listB/copy2.gif""style=""height:400px;""></stim_listB>",is being copied by,,,,,,
null,"<div style=""font-size:60px;"">+</div>",,html-keyboard-response,270,3519544,0.0-17.0-0.11,6834,List1B,black,man,,,,null,,,,,,,,,
null,"<img src=""stim_listB/greet5.gif""style=""height:400px;""></stim_listB>",,html-keyboard-response,271,3521547,0.0-17.0-1.11,6834,List1B,black,man,,,,null,,,,,,,,,
null,is greeting,,html-keyboard-response,272,3523549,0.0-17.0-2.11,6834,List1B,black,man,,,,null,,,,,,,,,
35502.3,,,survey-text,273,3559056,0.0-17.0-3.11,6834,List1B,black,man,,,,,"{""Q0"":""luke is greeting mike""}","<img src=""stim_listB/greet5.gif""style=""height:400px;""></stim_listB>",is greeting,,,,,,
null,"<div style=""font-size:60px;"">+</div>",,html-keyboard-response,274,3559558,0.0-17.0-0.12,6834,List1B,black,man,,,,null,,,,,,,,,
null,"<img src=""stim_listB/seduce3.gif""style=""height:400px;""></stim_listB>",,html-keyboard-response,275,3561561,0.0-17.0-1.12,6834,List1B,black,man,,,,null,,,,,,,,,
null,is seducing,,html-keyboard-response,276,3563562,0.0-17.0-2.12,6834,List1B,black,man,,,,null,,,,,,,,,
24933.2,,,survey-text,277,3588500,0.0-17.0-3.12,6834,List1B,black,man,,,,,"{""Q0"":""luke is seducing jane""}","<img src=""stim_listB/seduce3.gif""style=""height:400px;""></stim_listB>",is seducing,,,,,,
null,"<div style=""font-size:60px;"">+</div>",,html-keyboard-response,278,3589002,0.0-17.0-0.13,6834,List1B,black,man,,,,null,,,,,,,,,
null,"<img src=""stim_listB/hug8.gif""style=""height:400px;""></stim_listB>",,html-keyboard-response,279,3591005,0.0-17.0-1.13,6834,List1B,black,man,,,,null,,,,,,,,,
null,is being hugged by,,html-keyboard-response,280,3593007,0.0-17.0-2.13,6834,List1B,black,man,,,,null,,,,,,,,,
36822,,,survey-text,281,3629833,0.0-17.0-3.13,6834,List1B,black,man,,,,,"{""Q0"":""jane is being hugged by kate""}","<img src=""stim_listB/hug8.gif""style=""height:400px;""></stim_listB>",is being hugged by,,,,,,
null,"<div style=""font-size:60px;"">+</div>",,html-keyboard-response,282,3630336,0.0-17.0-0.14,6834,List1B,black,man,,,,null,,,,,,,,,
null,"<img src=""stim_listB/kiss1.gif""style=""height:400px;""></stim_listB>",,html-keyboard-response,283,3632339,0.0-17.0-1.14,6834,List1B,black,man,,,,null,,,,,,,,,
null,is kissing,,html-keyboard-response,284,3634340,0.0-17.0-2.14,6834,List1B,black,man,,,,null,,,,,,,,,
22475.8,,,survey-text,285,3656821,0.0-17.0-3.14,6834,List1B,black,man,,,,,"{""Q0"":""fred is kissing beth""}","<img src=""stim_listB/kiss1.gif""style=""height:400px;""></stim_listB>",is kissing,,,,,,
null,"<div style=""font-size:60px;"">+</div>",,html-keyboard-response,286,3657326,0.0-17.0-0.15,6834,List1B,black,man,,,,null,,,,,,,,,
null,"<img src=""stim_listB/kiss8.gif""style=""height:400px;""></stim_listB>",,html-keyboard-response,287,3659331,0.0-17.0-1.15,6834,List1B,black,man,,,,null,,,,,,,,,
null,is being kissed by,,html-keyboard-response,288,3661334,0.0-17.0-2.15,6834,List1B,black,man,,,,null,,,,,,,,,
29481.8,,,survey-text,289,3690823,0.0-17.0-3.15,6834,List1B,black,man,,,,,"{""Q0"":""jane is being kissed by kate""}","<img src=""stim_listB/kiss8.gif""style=""height:400px;""></stim_listB>",is being kissed by,,,,,,
null,"<div style=""font-size:60px;"">+</div>",,html-keyboard-response,290,3691325,0.0-17.0-0.16,6834,List1B,black,man,,,,null,,,,,,,,,
null,"<img src=""stim_listB/shout5.gif""style=""height:400px;""></stim_listB>",,html-keyboard-response,291,3693328,0.0-17.0-1.16,6834,List1B,black,man,,,,null,,,,,,,,,
null,is shouting at,,html-keyboard-response,292,3695330,0.0-17.0-2.16,6834,List1B,black,man,,,,null,,,,,,,,,
26058.2,,,survey-text,293,3721393,0.0-17.0-3.16,6834,List1B,black,man,,,,,"{""Q0"":""luke is shouting at fred""}","<img src=""stim_listB/shout5.gif""style=""height:400px;""></stim_listB>",is shouting at,,,,,,
null,"<div style=""font-size:60px;"">+</div>",,html-keyboard-response,294,3721896,0.0-17.0-0.17,6834,List1B,black,man,,,,null,,,,,,,,,
null,"<img src=""stim_listB/copy6.gif""style=""height:400px;""></stim_listB>",,html-keyboard-response,295,3723899,0.0-17.0-1.17,6834,List1B,black,man,,,,null,,,,,,,,,
null,is being copied by,,html-keyboard-response,296,3725901,0.0-17.0-2.17,6834,List1B,black,man,,,,null,,,,,,,,,
37889.3,,,survey-text,297,3763796,0.0-17.0-3.17,6834,List1B,black,man,,,,,"{""Q0"":""dave is being copied by fred""}","<img src=""stim_listB/copy6.gif""style=""height:400px;""></stim_listB>",is being copied by,,,,,,
null,"<div style=""font-size:60px;"">+</div>",,html-keyboard-response,298,3764299,0.0-17.0-0.18,6834,List1B,black,man,,,,null,,,,,,,,,
null,"<img src=""stim_listB/seduce6.gif""style=""height:400px;""></stim_listB>",,html-keyboard-response,299,3766303,0.0-17.0-1.18,6834,List1B,black,man,,,,null,,,,,,,,,
null,is being seduced by,,html-keyboard-response,300,3768305,0.0-17.0-2.18,6834,List1B,black,man,,,,null,,,,,,,,,
30599.7,,,survey-text,301,3798909,0.0-17.0-3.18,6834,List1B,black,man,,,,,"{""Q0"":""luke is being seduced by mike""}","<img src=""stim_listB/seduce6.gif""style=""height:400px;""></stim_listB>",is being seduced by,,,,,,
null,"<div style=""font-size:60px;"">+</div>",,html-keyboard-response,302,3799412,0.0-17.0-0.19,6834,List1B,black,man,,,,null,,,,,,,,,
null,"<img src=""stim_listB/look3.gif""style=""height:400px;""></stim_listB>",,html-keyboard-response,303,3801415,0.0-17.0-1.19,6834,List1B,black,man,,,,null,,,,,,,,,
null,is looking at,,html-keyboard-response,304,3803418,0.0-17.0-2.19,6834,List1B,black,man,,,,null,,,,,,,,,
72581.6,,,survey-text,305,3876004,0.0-17.0-3.19,6834,List1B,black,man,,,,,"{""Q0"":""luke is looking at ruth""}","<img src=""stim_listB/look3.gif""style=""height:400px;""></stim_listB>",is looking at,,,,,,
9005.5,"<img src='img/portrait_matrix_list1.jpg' style='width:900px;height:500px;''></img><p>If you have memorised all the portraits and names and are ready to start, press Continue.</p><p><strong>Please note: Your memory of these faces will be tested 4 times during this experiment.</strong></p>",0,html-button-response,306,3885015,0.0-18.0-0.0,6834,List1B,black,man,,,,,,,,,,,,,
11091.1,"<img src=""portrait/BW2.jpg""style=""height:400px;""></img>",2,html-button-response,307,3897110,0.0-18.0-1.0,6834,List1B,black,man,,TRUE,2,,,,,,,,,,
null,CORRECT,,html-keyboard-response,308,3898613,0.0-18.0-2.0-0.0,6834,List1B,black,man,,,,null,,,,,,,,,
3000.9,"<img src=""portrait/BM2.jpg""style=""height:400px;""></img>",5,html-button-response,309,3901618,0.0-18.0-4.0,6834,List1B,black,man,,TRUE,5,,,,,,,,,,
null,CORRECT,,html-keyboard-response,310,3903122,0.0-18.0-5.0-0.0,6834,List1B,black,man,,,,null,,,,,,,,,
3393,"<img src=""portrait/WW1.jpg""style=""height:400px;""></img>",1,html-button-response,311,3906518,0.0-18.0-7.0,6834,List1B,black,man,,TRUE,1,,,,,,,,,,
null,CORRECT,,html-keyboard-response,312,3908022,0.0-18.0-8.0-0.0,6834,List1B,black,man,,,,null,,,,,,,,,
7902.7,"<img src=""portrait/BW1.jpg""style=""height:400px;""></img>",0,html-button-response,313,3915929,0.0-18.0-10.0,6834,List1B,black,man,,TRUE,0,,,,,,,,,,
null,CORRECT,,html-keyboard-response,314,3917432,0.0-18.0-11.0-0.0,6834,List1B,black,man,,,,null,,,,,,,,,
3639.8,"<img src=""portrait/WM2.jpg""style=""height:400px;""></img>",7,html-button-response,315,3921077,0.0-18.0-13.0,6834,List1B,black,man,,TRUE,7,,,,,,,,,,
null,CORRECT,,html-keyboard-response,316,3922581,0.0-18.0-14.0-0.0,6834,List1B,black,man,,,,null,,,,,,,,,
3203.7,"<img src=""portrait/WW2.jpg""style=""height:400px;""></img>",3,html-button-response,317,3925789,0.0-18.0-16.0,6834,List1B,black,man,,TRUE,3,,,,,,,,,,
null,CORRECT,,html-keyboard-response,318,3927293,0.0-18.0-17.0-0.0,6834,List1B,black,man,,,,null,,,,,,,,,
4447.8,"<img src=""portrait/WM1.jpg""style=""height:400px;""></img>",6,html-button-response,319,3931745,0.0-18.0-19.0,6834,List1B,black,man,,TRUE,6,,,,,,,,,,
null,CORRECT,,html-keyboard-response,320,3933249,0.0-18.0-20.0-0.0,6834,List1B,black,man,,,,null,,,,,,,,,
2997.5,"<img src=""portrait/BM1.jpg""style=""height:400px;""></img>",4,html-button-response,321,3936252,0.0-18.0-22.0,6834,List1B,black,man,,TRUE,4,,,,,,,,,,
null,CORRECT,,html-keyboard-response,322,3937755,0.0-18.0-23.0-0.0,6834,List1B,black,man,,,,null,,,,,,,,,
7290.8,<p>You got 8 out of 8 right first time. Press Continue.</p>,0,html-button-response,323,3945051,0.0-18.0-25.0,6834,List1B,black,man,,,,,,,,,,,,,
null,"<div style=""font-size:60px;"">+</div>",,html-keyboard-response,324,3946555,0.0-19.0-0.0,6834,List1B,black,man,,,,null,,,,,,,,,
null,"<img src=""stim_listB/touch4.gif""style=""height:400px;""></stim_listB>",,html-keyboard-response,325,3948559,0.0-19.0-1.0,6834,List1B,black,man,,,,null,,,,,,,,,
null,is being touched by,,html-keyboard-response,326,3950562,0.0-19.0-2.0,6834,List1B,black,man,,,,null,,,,,,,,,
34911.4,,,survey-text,327,3985480,0.0-19.0-3.0,6834,List1B,black,man,,,,,"{""Q0"":""ruth is being touched by luke""}","<img src=""stim_listB/touch4.gif""style=""height:400px;""></stim_listB>",is being touched by,,,,,,
null,"<div style=""font-size:60px;"">+</div>",,html-keyboard-response,328,3985983,0.0-19.0-0.1,6834,List1B,black,man,,,,null,,,,,,,,,
null,"<img src=""stim_listB/touch3.gif""style=""height:400px;""></stim_listB>",,html-keyboard-response,329,3987988,0.0-19.0-1.1,6834,List1B,black,man,,,,null,,,,,,,,,
null,is touching,,html-keyboard-response,330,3989991,0.0-19.0-2.1,6834,List1B,black,man,,,,null,,,,,,,,,
25279.9,,,survey-text,331,4015277,0.0-19.0-3.1,6834,List1B,black,man,,,,,"{""Q0"":""dave is touching jane""}","<img src=""stim_listB/touch3.gif""style=""height:400px;""></stim_listB>",is touching,,,,,,
null,"<div style=""font-size:60px;"">+</div>",,html-keyboard-response,332,4015781,0.0-19.0-0.2,6834,List1B,black,man,,,,null,,,,,,,,,
null,"<img src=""stim_listB/seduce1.gif""style=""height:400px;""></stim_listB>",,html-keyboard-response,333,4017785,0.0-19.0-1.2,6834,List1B,black,man,,,,null,,,,,,,,,
null,is seducing,,html-keyboard-response,334,4019788,0.0-19.0-2.2,6834,List1B,black,man,,,,null,,,,,,,,,
28469.4,,,survey-text,335,4048263,0.0-19.0-3.2,6834,List1B,black,man,,,,,"{""Q0"":""fred is seducing kate""}","<img src=""stim_listB/seduce1.gif""style=""height:400px;""></stim_listB>",is seducing,,,,,,
null,"<div style=""font-size:60px;"">+</div>",,html-keyboard-response,336,4048766,0.0-19.0-0.3,6834,List1B,black,man,,,,null,,,,,,,,,
null,"<img src=""stim_listB/copy1.gif""style=""height:400px;""></stim_listB>",,html-keyboard-response,337,4050768,0.0-19.0-1.3,6834,List1B,black,man,,,,null,,,,,,,,,
null,is copying,,html-keyboard-response,338,4052770,0.0-19.0-2.3,6834,List1B,black,man,,,,null,,,,,,,,,
26751,,,survey-text,339,4079525,0.0-19.0-3.3,6834,List1B,black,man,,,,,"{""Q0"":""beth is copying mike""}","<img src=""stim_listB/copy1.gif""style=""height:400px;""></stim_listB>",is copying,,,,,,
null,"<div style=""font-size:60px;"">+</div>",,html-keyboard-response,340,4080028,0.0-19.0-0.4,6834,List1B,black,man,,,,null,,,,,,,,,
null,"<img src=""stim_listB/greet6.gif""style=""height:400px;""></stim_listB>",,html-keyboard-response,341,4082030,0.0-19.0-1.4,6834,List1B,black,man,,,,null,,,,,,,,,
null,is being greeted by,,html-keyboard-response,342,4084032,0.0-19.0-2.4,6834,List1B,black,man,,,,null,,,,,,,,,
26067.6,,,survey-text,343,4110104,0.0-19.0-3.4,6834,List1B,black,man,,,,,"{""Q0"":""dave is being greeted by fred""}","<img src=""stim_listB/greet6.gif""style=""height:400px;""></stim_listB>",is being greeted by,,,,,,
null,"<div style=""font-size:60px;"">+</div>",,html-keyboard-response,344,4110606,0.0-19.0-0.5,6834,List1B,black,man,,,,null,,,,,,,,,
null,"<img src=""stim_listB/kiss4.gif""style=""height:400px;""></stim_listB>",,html-keyboard-response,345,4112608,0.0-19.0-1.5,6834,List1B,black,man,,,,null,,,,,,,,,
null,is being kissed by,,html-keyboard-response,346,4114610,0.0-19.0-2.5,6834,List1B,black,man,,,,null,,,,,,,,,
29454.8,,,survey-text,347,4144070,0.0-19.0-3.5,6834,List1B,black,man,,,,,"{""Q0"":""jane is being kissed by dave""}","<img src=""stim_listB/kiss4.gif""style=""height:400px;""></stim_listB>",is being kissed by,,,,,,
null,"<div style=""font-size:60px;"">+</div>",,html-keyboard-response,348,4144572,0.0-19.0-0.6,6834,List1B,black,man,,,,null,,,,,,,,,
null,"<img src=""stim_listB/touch8.gif""style=""height:400px;""></stim_listB>",,html-keyboard-response,349,4146575,0.0-19.0-1.6,6834,List1B,black,man,,,,null,,,,,,,,,
null,is being touched by,,html-keyboard-response,350,4148576,0.0-19.0-2.6,6834,List1B,black,man,,,,null,,,,,,,,,
27932.6,,,survey-text,351,4176513,0.0-19.0-3.6,6834,List1B,black,man,,,,,"{""Q0"":""ruth is being touched by beth""}","<img src=""stim_listB/touch8.gif""style=""height:400px;""></stim_listB>",is being touched by,,,,,,
null,"<div style=""font-size:60px;"">+</div>",,html-keyboard-response,352,4177017,0.0-19.0-0.7,6834,List1B,black,man,,,,null,,,,,,,,,
null,"<img src=""stim_listB/greet7.gif""style=""height:400px;""></stim_listB>",,html-keyboard-response,353,4179020,0.0-19.0-1.7,6834,List1B,black,man,,,,null,,,,,,,,,
null,is greeting,,html-keyboard-response,354,4181021,0.0-19.0-2.7,6834,List1B,black,man,,,,null,,,,,,,,,
25236.4,,,survey-text,355,4206262,0.0-19.0-3.7,6834,List1B,black,man,,,,,"{""Q0"":""ruth is greeting kate""}","<img src=""stim_listB/greet7.gif""style=""height:400px;""></stim_listB>",is greeting,,,,,,
null,"<div style=""font-size:60px;"">+</div>",,html-keyboard-response,356,4206764,0.0-19.0-0.8,6834,List1B,black,man,,,,null,,,,,,,,,
null,"<img src=""stim_listB/hug2.gif""style=""height:400px;""></stim_listB>",,html-keyboard-response,357,4208768,0.0-19.0-1.8,6834,List1B,black,man,,,,null,,,,,,,,,
null,is being hugged by,,html-keyboard-response,358,4210769,0.0-19.0-2.8,6834,List1B,black,man,,,,null,,,,,,,,,
25997.4,,,survey-text,359,4236774,0.0-19.0-3.8,6834,List1B,black,man,,,,,"{""Q0"":""mike is being hugged by kate""}","<img src=""stim_listB/hug2.gif""style=""height:400px;""></stim_listB>",is being hugged by,,,,,,
null,"<div style=""font-size:60px;"">+</div>",,html-keyboard-response,360,4237278,0.0-19.0-0.9,6834,List1B,black,man,,,,null,,,,,,,,,
null,"<img src=""stim_listB/copy5.gif""style=""height:400px;""></stim_listB>",,html-keyboard-response,361,4239282,0.0-19.0-1.9,6834,List1B,black,man,,,,null,,,,,,,,,
null,is copying,,html-keyboard-response,362,4241284,0.0-19.0-2.9,6834,List1B,black,man,,,,null,,,,,,,,,
34565.2,,,survey-text,363,4275855,0.0-19.0-3.9,6834,List1B,black,man,,,,,"{""Q0"":""luke is copying mike""}","<img src=""stim_listB/copy5.gif""style=""height:400px;""></stim_listB>",is copying,,,,,,
null,"<div style=""font-size:60px;"">+</div>",,html-keyboard-response,364,4276358,0.0-19.0-0.10,6834,List1B,black,man,,,,null,,,,,,,,,
null,"<img src=""stim_listB/challenge7.gif""style=""height:400px;""></stim_listB>",,html-keyboard-response,365,4278361,0.0-19.0-1.10,6834,List1B,black,man,,,,null,,,,,,,,,
null,is challenging,,html-keyboard-response,366,4280364,0.0-19.0-2.10,6834,List1B,black,man,,,,null,,,,,,,,,
43286.5,,,survey-text,367,4323655,0.0-19.0-3.10,6834,List1B,black,man,,,,,"{""Q0"":""ruth is challenging kate""}","<img src=""stim_listB/challenge7.gif""style=""height:400px;""></stim_listB>",is challenging,,,,,,
null,"<div style=""font-size:60px;"">+</div>",,html-keyboard-response,368,4324158,0.0-19.0-0.11,6834,List1B,black,man,,,,null,,,,,,,,,
null,"<img src=""stim_listB/look2.gif""style=""height:400px;""></stim_listB>",,html-keyboard-response,369,4326161,0.0-19.0-1.11,6834,List1B,black,man,,,,null,,,,,,,,,
null,is being looked at by,,html-keyboard-response,370,4328163,0.0-19.0-2.11,6834,List1B,black,man,,,,null,,,,,,,,,
24462.8,,,survey-text,371,4352631,0.0-19.0-3.11,6834,List1B,black,man,,,,,"{""Q0"":""kate is being looked at by mike""}","<img src=""stim_listB/look2.gif""style=""height:400px;""></stim_listB>",is being looked at by,,,,,,
null,"<div style=""font-size:60px;"">+</div>",,html-keyboard-response,372,4353133,0.0-19.0-0.12,6834,List1B,black,man,,,,null,,,,,,,,,
null,"<img src=""stim_listB/copy8.gif""style=""height:400px;""></stim_listB>",,html-keyboard-response,373,4355137,0.0-19.0-1.12,6834,List1B,black,man,,,,null,,,,,,,,,
null,is being copied by,,html-keyboard-response,374,4357139,0.0-19.0-2.12,6834,List1B,black,man,,,,null,,,,,,,,,
29303.9,,,survey-text,375,4386449,0.0-19.0-3.12,6834,List1B,black,man,,,,,"{""Q0"":""kate is being copyed by beth""}","<img src=""stim_listB/copy8.gif""style=""height:400px;""></stim_listB>",is being copied by,,,,,,
null,"<div style=""font-size:60px;"">+</div>",,html-keyboard-response,376,4386952,0.0-19.0-0.13,6834,List1B,black,man,,,,null,,,,,,,,,
null,"<img src=""stim_listB/greet4.gif""style=""height:400px;""></stim_listB>",,html-keyboard-response,377,4388955,0.0-19.0-1.13,6834,List1B,black,man,,,,null,,,,,,,,,
null,is being greeted by,,html-keyboard-response,378,4390957,0.0-19.0-2.13,6834,List1B,black,man,,,,null,,,,,,,,,
28886.2,,,survey-text,379,4419849,0.0-19.0-3.13,6834,List1B,black,man,,,,,"{""Q0"":""luke is being greeted by jane""}","<img src=""stim_listB/greet4.gif""style=""height:400px;""></stim_listB>",is being greeted by,,,,,,
null,"<div style=""font-size:60px;"">+</div>",,html-keyboard-response,380,4420352,0.0-19.0-0.14,6834,List1B,black,man,,,,null,,,,,,,,,
null,"<img src=""stim_listB/hug3.gif""style=""height:400px;""></stim_listB>",,html-keyboard-response,381,4422356,0.0-19.0-1.14,6834,List1B,black,man,,,,null,,,,,,,,,
null,is hugging,,html-keyboard-response,382,4424358,0.0-19.0-2.14,6834,List1B,black,man,,,,null,,,,,,,,,
22451.5,,,survey-text,383,4446816,0.0-19.0-3.14,6834,List1B,black,man,,,,,"{""Q0"":""luke is hugging ruth""}","<img src=""stim_listB/hug3.gif""style=""height:400px;""></stim_listB>",is hugging,,,,,,
null,"<div style=""font-size:60px;"">+</div>",,html-keyboard-response,384,4447319,0.0-19.0-0.15,6834,List1B,black,man,,,,null,,,,,,,,,
null,"<img src=""stim_listB/touch5.gif""style=""height:400px;""></stim_listB>",,html-keyboard-response,385,4449323,0.0-19.0-1.15,6834,List1B,black,man,,,,null,,,,,,,,,
null,is touching,,html-keyboard-response,386,4451326,0.0-19.0-2.15,6834,List1B,black,man,,,,null,,,,,,,,,
25628.9,,,survey-text,387,4476960,0.0-19.0-3.15,6834,List1B,black,man,,,,,"{""Q0"":""dave is touching mike""}","<img src=""stim_listB/touch5.gif""style=""height:400px;""></stim_listB>",is touching,,,,,,
null,"<div style=""font-size:60px;"">+</div>",,html-keyboard-response,388,4477465,0.0-19.0-0.16,6834,List1B,black,man,,,,null,,,,,,,,,
null,"<img src=""stim_listB/hug1.gif""style=""height:400px;""></stim_listB>",,html-keyboard-response,389,4479469,0.0-19.0-1.16,6834,List1B,black,man,,,,null,,,,,,,,,
null,is hugging,,html-keyboard-response,390,4481472,0.0-19.0-2.16,6834,List1B,black,man,,,,null,,,,,,,,,
35341.2,,,survey-text,391,4516823,0.0-19.0-3.16,6834,List1B,black,man,,,,,"{""Q0"":""fred is hugging beth""}","<img src=""stim_listB/hug1.gif""style=""height:400px;""></stim_listB>",is hugging,,,,,,
null,"<div style=""font-size:60px;"">+</div>",,html-keyboard-response,392,4517328,0.0-19.0-0.17,6834,List1B,black,man,,,,null,,,,,,,,,
null,"<img src=""stim_listB/seduce8.gif""style=""height:400px;""></stim_listB>",,html-keyboard-response,393,4519332,0.0-19.0-1.17,6834,List1B,black,man,,,,null,,,,,,,,,
null,is being seduced by,,html-keyboard-response,394,4521335,0.0-19.0-2.17,6834,List1B,black,man,,,,null,,,,,,,,,
32981.7,,,survey-text,395,4554323,0.0-19.0-3.17,6834,List1B,black,man,,,,,"{""Q0"":""ruth is being seduced by kate""}","<img src=""stim_listB/seduce8.gif""style=""height:400px;""></stim_listB>",is being seduced by,,,,,,
null,"<div style=""font-size:60px;"">+</div>",,html-keyboard-response,396,4554827,0.0-19.0-0.18,6834,List1B,black,man,,,,null,,,,,,,,,
null,"<img src=""stim_listB/kiss2.gif""style=""height:400px;""></stim_listB>",,html-keyboard-response,397,4556832,0.0-19.0-1.18,6834,List1B,black,man,,,,null,,,,,,,,,
null,is being kissed by,,html-keyboard-response,398,4558835,0.0-19.0-2.18,6834,List1B,black,man,,,,null,,,,,,,,,
31052.9,,,survey-text,399,4589894,0.0-19.0-3.18,6834,List1B,black,man,,,,,"{""Q0"":""mike is being kissed by kate""}","<img src=""stim_listB/kiss2.gif""style=""height:400px;""></stim_listB>",is being kissed by,,,,,,
null,"<div style=""font-size:60px;"">+</div>",,html-keyboard-response,400,4590397,0.0-19.0-0.19,6834,List1B,black,man,,,,null,,,,,,,,,
null,"<img src=""stim_listB/touch1.gif""style=""height:400px;""></stim_listB>",,html-keyboard-response,401,4592401,0.0-19.0-1.19,6834,List1B,black,man,,,,null,,,,,,,,,
null,is touching,,html-keyboard-response,402,4594404,0.0-19.0-2.19,6834,List1B,black,man,,,,null,,,,,,,,,
29203.2,,,survey-text,403,4623614,0.0-19.0-3.19,6834,List1B,black,man,,,,,"{""Q0"":""mike is touching kate""}","<img src=""stim_listB/touch1.gif""style=""height:400px;""></stim_listB>",is touching,,,,,,
7237,<p>Thank you for completing that task.</p><p>The final part of this session is a questionnaire that will take about 4 minutes.</p><p>Press Continue.</p>,0,html-button-response,404,4630855,0.0-20.0,6834,List1B,black,man,,,,,,,,,,,,,
92322.6,,,survey-text,405,4724188,0.0-21.0,6834,List1B,black,man,,,,,"{""Q0"":""31"",""Q1"":""English"",""Q2"":""English"",""Q3"":""United States of America"",""Q4"":""American"",""Q5"":""Black American"",""Q6"":""Male""}",,,demographics,,,,,
4109.4,<p>Have you lived in the USA for the last 5 years or more?</p>,0,html-button-response,406,4728303,0.0-22.0,6834,List1B,black,man,,,,,,,,fiveyears,,,,,
5168.3,<p>Move the slider to show the extent to which you agree with the following statements.</p>,0,html-button-response,407,4734474,0.0-23.0,6834,List1B,black,man,,,,,,,,,,,,,
10292.5,,,html-slider-response,408,4745772,0.0-24.0-0.0-0.0,6834,List1B,black,man,,,,,,,,survey_race,100,,,I am similar to the average person of my race.,similar
6160.8,,,html-slider-response,409,4751939,0.0-24.0-0.0-0.1,6834,List1B,black,man,,,,,,,,survey_race,100,,,Being my age gives me a good feeling.,filler
4109.2,,,html-slider-response,410,4756052,0.0-24.0-0.0-0.2,6834,List1B,black,man,,,,,,,,survey_race,100,,,Being my race gives me a good feeling.,feeling
6677,,,html-slider-response,411,4762733,0.0-24.0-0.0-0.3,6834,List1B,black,man,,,,,,,,survey_race,100,,,I often think about the fact that I am my age.,filler
5151.6,,,html-slider-response,412,4767889,0.0-24.0-0.0-0.4,6834,List1B,black,man,,,,,,,,survey_race,100,,,People my age have a lot in common with each other.,filler
4521.6,,,html-slider-response,413,4772416,0.0-24.0-0.0-0.5,6834,List1B,black,man,,,,,,,,survey_race,100,,,People of my race are very similar to each other.,verysimilar
4552.3,,,html-slider-response,414,4776973,0.0-24.0-0.0-0.6,6834,List1B,black,man,,,,,,,,survey_race,100,,,I often think about the fact that I am my race.,often
4558.7,,,html-slider-response,415,4781536,0.0-24.0-0.0-0.7,6834,List1B,black,man,,,,,,,,survey_race,100,,,I have a lot in common with people of a similar age to me.,filler
4570.4,,,html-slider-response,416,4786112,0.0-24.0-0.0-0.8,6834,List1B,black,man,,,,,,,,survey_race,100,,,I am glad to be my age.,filler
4079.3,,,html-slider-response,417,4790197,0.0-24.0-0.0-0.9,6834,List1B,black,man,,,,,,,,survey_race,100,,,I enjoy being in large groups.,filler
4450.8,,,html-slider-response,418,4794653,0.0-24.0-0.0-0.10,6834,List1B,black,man,,,,,,,,survey_race,100,,,I consider myself an introvert.,filler
4108.1,,,html-slider-response,419,4798767,0.0-24.0-0.0-0.11,6834,List1B,black,man,,,,,,,,survey_race,100,,,I feel committed to my race.,committed
7686.2,,,html-slider-response,420,4806460,0.0-24.0-0.0-0.12,6834,List1B,black,man,,,,,,,,survey_race,99,,,My age is not an important part of who I am.,filler
4931.5,,,html-slider-response,421,4811398,0.0-24.0-0.0-0.13,6834,List1B,black,man,,,,,,,,survey_race,100,,,Getting older does not worry me.,filler
3343.8,,,html-slider-response,422,4814745,0.0-24.0-0.0-0.14,6834,List1B,black,man,,,,,,,,survey_race,100,,,I am glad to be my race.,glad
41454.1,,,html-slider-response,423,4856203,0.0-24.0-0.0-0.15,6834,List1B,black,man,,,,,,,,survey_race,29,,,I consider myself an extrovert.,filler
6236,,,html-slider-response,424,4862444,0.0-24.0-0.0-0.16,6834,List1B,black,man,,,,,,,,survey_race,100,,,"The older I get, the wiser I feel.",filler
4450.7,,,html-slider-response,425,4866899,0.0-24.0-0.0-0.17,6834,List1B,black,man,,,,,,,,survey_race,100,,,Being my race is an important part of how I see myself.,important
5180.1,,,html-slider-response,426,4872086,0.0-24.0-0.0-0.18,6834,List1B,black,man,,,,,,,,survey_race,100,,,The fact that I am my race is an important part of my identity.,identity
6733.8,,,html-slider-response,427,4878824,0.0-24.0-0.0-0.19,6834,List1B,black,man,,,,,,,,survey_race,100,,,It is pleasant to be my race.,pleasant
5241.7,,,html-slider-response,428,4884070,0.0-24.0-0.0-0.20,6834,List1B,black,man,,,,,,,,survey_race,100,,,I have a lot in common with the average person of my race.,average
5396.4,,,html-slider-response,429,4889472,0.0-24.0-0.0-0.21,6834,List1B,black,man,,,,,,,,survey_race,100,,,I think that my race has a lot to be proud of.,proud
4272.9,,,html-slider-response,430,4893751,0.0-24.0-0.0-0.22,6834,List1B,black,man,,,,,,,,survey_race,100,,,I feel a bond with people the same age as me.,filler
5023.7,,,html-slider-response,431,4898779,0.0-24.0-0.0-0.23,6834,List1B,black,man,,,,,,,,survey_race,100,,,I feel solidarity with people the same age as me.,filler
5269.3,,,html-slider-response,432,4904053,0.0-24.0-0.0-0.24,6834,List1B,black,man,,,,,,,,survey_race,100,,,I am glad to be the age I am.,filler
4631.9,,,html-slider-response,433,4908691,0.0-24.0-0.0-0.25,6834,List1B,black,man,,,,,,,,survey_race,100,,,I feel a bond with my race.,bond
3435.3,,,html-slider-response,434,4912132,0.0-24.0-0.0-0.26,6834,List1B,black,man,,,,,,,,survey_race,100,,,I feel solidarity with my race.,solidarity
6577.5,,,html-slider-response,435,4918724,0.0-24.0-0.0-0.27,6834,List1B,black,man,,,,,,,,survey_race,93,,,People of my race have a lot in common with each other.,common
11059.3,,,html-slider-response,436,4929788,0.0-24.0-1.0-0.0,6834,List1B,black,man,,,,,,,,survey_gender,29,,,Routine is not important to me.,filler
4451.2,,,html-slider-response,437,4934244,0.0-24.0-1.0-0.1,6834,List1B,black,man,,,,,,,,survey_gender,100,,,Being my gender gives me a good feeling.,feeling
3460,,,html-slider-response,438,4937709,0.0-24.0-1.0-0.2,6834,List1B,black,man,,,,,,,,survey_gender,100,,,I feel solidarity with my friends.,filler
4325.6,,,html-slider-response,439,4942038,0.0-24.0-1.0-0.3,6834,List1B,black,man,,,,,,,,survey_gender,100,,,I often think about my actions.,filler
3459.9,,,html-slider-response,440,4945502,0.0-24.0-1.0-0.4,6834,List1B,black,man,,,,,,,,survey_gender,100,,,I consider myself a highly empathetic person.,filler
3893.7,,,html-slider-response,441,4949399,0.0-24.0-1.0-0.5,6834,List1B,black,man,,,,,,,,survey_gender,100,,,I am glad to be my gender.,glad
3955.6,,,html-slider-response,442,4953359,0.0-24.0-1.0-0.6,6834,List1B,black,man,,,,,,,,survey_gender,100,,,I feel a bond with my friends.,filler
3781.8,,,html-slider-response,443,4957146,0.0-24.0-1.0-0.7,6834,List1B,black,man,,,,,,,,survey_gender,99,,,I often think about the fact that I am my gender.,often
3604.1,,,html-slider-response,444,4960758,0.0-24.0-1.0-0.8,6834,List1B,black,man,,,,,,,,survey_gender,100,,,I have a lot in common with my friends.,filler
4037.4,,,html-slider-response,445,4964800,0.0-24.0-1.0-0.9,6834,List1B,black,man,,,,,,,,survey_gender,100,,,People of my gender are very similar to each other.,verysimilar
3795.1,,,html-slider-response,446,4968600,0.0-24.0-1.0-0.10,6834,List1B,black,man,,,,,,,,survey_gender,100,,,My friends understand me.,filler
10669.7,,,html-slider-response,447,4979276,0.0-24.0-1.0-0.11,6834,List1B,black,man,,,,,,,,survey_gender,0,,,I would say I am an animal person.,filler
4188.5,,,html-slider-response,448,4983471,0.0-24.0-1.0-0.12,6834,List1B,black,man,,,,,,,,survey_gender,99,,,My friends have a lot in common with each other.,filler
4783.6,,,html-slider-response,449,4988262,0.0-24.0-1.0-0.13,6834,List1B,black,man,,,,,,,,survey_gender,100,,,Being my gender is an important part of how I see myself.,important
4490.6,,,html-slider-response,450,4992758,0.0-24.0-1.0-0.14,6834,List1B,black,man,,,,,,,,survey_gender,100,,,Family is not more important to me than friendship.,filler
5290.4,,,html-slider-response,451,4998052,0.0-24.0-1.0-0.15,6834,List1B,black,man,,,,,,,,survey_gender,100,,,Most of the friends in my life are very similar to me.,filler
4384.8,,,html-slider-response,452,5002441,0.0-24.0-1.0-0.16,6834,List1B,black,man,,,,,,,,survey_gender,100,,,People of my gender have a lot in common with each other.,common
4159.1,,,html-slider-response,453,5006604,0.0-24.0-1.0-0.17,6834,List1B,black,man,,,,,,,,survey_gender,100,,,It is pleasant to be my gender.,pleasant
10427.4,,,html-slider-response,454,5017035,0.0-24.0-1.0-0.18,6834,List1B,black,man,,,,,,,,survey_gender,100,,,I am similar to the average person of my gender.,similar
8309.7,,,html-slider-response,455,5025349,0.0-24.0-1.0-0.19,6834,List1B,black,man,,,,,,,,survey_gender,100,,,It is not always easy for people to know what I am thinking.,filler
5220.7,,,html-slider-response,456,5030574,0.0-24.0-1.0-0.20,6834,List1B,black,man,,,,,,,,survey_gender,99,,,The fact that I am my gender is an important part of my identity.,identity
3656.3,,,html-slider-response,457,5034234,0.0-24.0-1.0-0.21,6834,List1B,black,man,,,,,,,,survey_gender,99,,,I have a lot in common with the average person of my gender.,average
3696.2,,,html-slider-response,458,5037935,0.0-24.0-1.0-0.22,6834,List1B,black,man,,,,,,,,survey_gender,99,,,I feel committed to my gender.,committed
7319.4,,,html-slider-response,459,5045259,0.0-24.0-1.0-0.23,6834,List1B,black,man,,,,,,,,survey_gender,100,,,I am glad to have the friends that I have.,filler
5451.8,,,html-slider-response,460,5050719,0.0-24.0-1.0-0.24,6834,List1B,black,man,,,,,,,,survey_gender,100,,,Being around my friends gives me a good feeling.,filler
3537.7,,,html-slider-response,461,5054261,0.0-24.0-1.0-0.25,6834,List1B,black,man,,,,,,,,survey_gender,100,,,I feel solidarity with my gender.,solidarity
9942.9,,,html-slider-response,462,5064209,0.0-24.0-1.0-0.26,6834,List1B,black,man,,,,,,,,survey_gender,100,,,I think that my gender has a lot to be proud of.,proud
5278.2,,,html-slider-response,463,5069492,0.0-24.0-1.0-0.27,6834,List1B,black,man,,,,,,,,survey_gender,100,,,I feel a bond with my gender.,bond
10189.9,,,survey-text,464,5079693,0.0-25.0,6834,List1B,black,man,,,,,"{""Q0"":""ccc""}",,,worker_id,,,,,
5917,,,external-html,465,5088208,0.0-26.0,6834,List1B,black,man,debrief.html,,,,,,,,,,,,
