rt,stimulus,button_pressed,trial_type,trial_index,time_elapsed,internal_node_id,subject,list,ppt_race,ppt_gender,url,first_guess,correct,key_press,responses,image_type,phrase_type,test_part,response,stimulus1,stimulus2,question_type,survey_item
5401,Welcome to the experiment. Press Continue to begin.,0,html-button-response,0,5406,0.0-0.0,68343,List2A,white,woman,,,,,,,,,,,,,
7888,,,external-html,1,14672,0.0-1.0,68343,List2A,white,woman,consent.html,,,,,,,,,,,,
1241,"<p>On the next page, you will see portraits of 8 people and their names.</p><p>Your first task is to take a few minutes to memorise the names of these people.</p><p>You will have to recall their names during the rest of the experiment, so it is</p><p>essential that you try to memorise these people and their names as best as you can.</p><br><p><strong>You will then be tested on your memory of these names and portraits.</strong></p><br><p>The experiment will start after you have completed this memory test.</p><br><p>Ready?</p>",0,html-button-response,2,15914,0.0-2.0,68343,List2A,white,woman,,,,,,,,,,,,,
24230,"<img src='img/portrait_matrix_list2.jpg' style='width:900px;height:500px;''></img><p>If you have memorised all the portraits and names and are ready to start, press Continue.</p><p><strong>Please note: Your memory of these faces will be tested 4 times during this experiment.</strong></p>",0,html-button-response,3,41147,0.0-3.0-0.0,68343,List2A,white,woman,,,,,,,,,,,,,
4848,"<img src=""portrait/BM2.jpg""style=""height:400px;""></img>",5,html-button-response,4,46999,0.0-3.0-1.0,68343,List2A,white,woman,,TRUE,5,,,,,,,,,,
null,CORRECT,,html-keyboard-response,5,48503,0.0-3.0-2.0-0.0,68343,List2A,white,woman,,,,null,,,,,,,,,
3856,"<img src=""portrait/BW1.jpg""style=""height:400px;""></img>",0,html-button-response,6,52360,0.0-3.0-4.0,68343,List2A,white,woman,,TRUE,0,,,,,,,,,,
null,CORRECT,,html-keyboard-response,7,53864,0.0-3.0-5.0-0.0,68343,List2A,white,woman,,,,null,,,,,,,,,
4545,"<img src=""portrait/WW2.jpg""style=""height:400px;""></img>",3,html-button-response,8,58411,0.0-3.0-7.0,68343,List2A,white,woman,,TRUE,3,,,,,,,,,,
null,CORRECT,,html-keyboard-response,9,59914,0.0-3.0-8.0-0.0,68343,List2A,white,woman,,,,null,,,,,,,,,
4163,"<img src=""portrait/WM1.jpg""style=""height:400px;""></img>",6,html-button-response,10,64079,0.0-3.0-10.0,68343,List2A,white,woman,,TRUE,6,,,,,,,,,,
null,CORRECT,,html-keyboard-response,11,65582,0.0-3.0-11.0-0.0,68343,List2A,white,woman,,,,null,,,,,,,,,
4697,"<img src=""portrait/WM2.jpg""style=""height:400px;""></img>",7,html-button-response,12,70281,0.0-3.0-13.0,68343,List2A,white,woman,,TRUE,7,,,,,,,,,,
null,CORRECT,,html-keyboard-response,13,71783,0.0-3.0-14.0-0.0,68343,List2A,white,woman,,,,null,,,,,,,,,
6534,"<img src=""portrait/BM1.jpg""style=""height:400px;""></img>",4,html-button-response,14,78318,0.0-3.0-16.0,68343,List2A,white,woman,,TRUE,4,,,,,,,,,,
null,CORRECT,,html-keyboard-response,15,79820,0.0-3.0-17.0-0.0,68343,List2A,white,woman,,,,null,,,,,,,,,
3457,"<img src=""portrait/BW2.jpg""style=""height:400px;""></img>",2,html-button-response,16,83278,0.0-3.0-19.0,68343,List2A,white,woman,,TRUE,2,,,,,,,,,,
null,CORRECT,,html-keyboard-response,17,84781,0.0-3.0-20.0-0.0,68343,List2A,white,woman,,,,null,,,,,,,,,
7146,"<img src=""portrait/WW1.jpg""style=""height:400px;""></img>",1,html-button-response,18,91929,0.0-3.0-22.0,68343,List2A,white,woman,,TRUE,1,,,,,,,,,,
null,CORRECT,,html-keyboard-response,19,93431,0.0-3.0-23.0-0.0,68343,List2A,white,woman,,,,null,,,,,,,,,
1656,<p>You got 8 out of 8 right first time. Press Continue.</p>,0,html-button-response,20,95089,0.0-3.0-25.0,68343,List2A,white,woman,,,,,,,,,,,,,
46960,"<p>In this experiment, you will view photographs of the people from the memory game interacting.</p><p>By using the <strong>exact</strong> phrase given <i>after</i> the photograph appears and recalling the correct names of the people in the photographs, form a sentence describing the interaction. You do not need to capitalise names.</p><p>Type your answer in the space provided. Please complete every sentence before moving onto the next trial.</p><p>You will only have a few seconds to memorise each given photograph and phrase before you can respond, so try your best to focus.</p><p>An example is given below. Press 'Continue' when you are ready.</p><img src='img/speaking_example.jpg' style='width:800px;height:460px;''></img>",0,html-button-response,21,143053,0.0-4.0,68343,List2A,white,woman,,,,,,,,,,,,,
2603,"<p>Before the experiment starts, you will watch two example trials. Press 'Continue'.</p>",0,html-button-response,22,146658,0.0-5.0,68343,List2A,white,woman,,,,,,,,,,,,,
null,<img src='img/play_eg.gif' style='height:400px;''></img>,,html-keyboard-response,23,149662,0.0-6.0,68343,List2A,white,woman,,,,null,,,,,,,,,
null,<p>is playing with</p>,,html-keyboard-response,24,151664,0.0-7.0,68343,List2A,white,woman,,,,null,,,,,,,,,
4932,<p><b>Answer:</b> jane is playing with ruth</p>,0,html-button-response,25,156596,0.0-8.0,68343,List2A,white,woman,,,,,,,,,,,,,
null,<img src='img/dance_eg.gif' style='height:400px;''></img>,,html-keyboard-response,26,159600,0.0-9.0,68343,List2A,white,woman,,,,null,,,,,,,,,
null,<p>is being entertained by</p>,,html-keyboard-response,27,161602,0.0-10.0,68343,List2A,white,woman,,,,null,,,,,,,,,
4188,<p><b>Answer:</b> fred is being entertained by mike</p>,0,html-button-response,28,165791,0.0-11.0,68343,List2A,white,woman,,,,,,,,,,,,,
7896,"<p>Ready to start the experiment?</p><br><p><strong>Remember to describe the picture using a full sentence,</strong></p><p><strong>that combines the names of the people with the <i>exact</i> phrase given.</strong></p><p><strong>To receive full payment you must do this correctly.</strong></p><p><strong> You do not need to capitalise names or use punctuation.</strong></p><br><p>Press 'Continue' to begin.</p>",0,html-button-response,29,174689,0.0-12.0,68343,List2A,white,woman,,,,,,,,,,,,,
null,"<div style=""font-size:60px;"">+</div>",,html-keyboard-response,30,176191,0.0-13.0-0.0,68343,List2A,white,woman,,,,null,,,,,,,,,
null,"<img src=""stim_listA/hug2.gif""style=""height:400px;""></stim_listA>",,html-keyboard-response,31,178194,0.0-13.0-1.0,68343,List2A,white,woman,,,,null,,,,,,,,,
null,is being hugged by,,html-keyboard-response,32,180197,0.0-13.0-2.0,68343,List2A,white,woman,,,,null,,,,,,,,,
13849,,,survey-text,33,194072,0.0-13.0-3.0,68343,List2A,white,woman,,,,,"{""Q0"":""Jane is being hugged by dave""}","<img src=""stim_listA/hug2.gif""style=""height:400px;""></stim_listA>",is being hugged by,,,,,,
null,"<div style=""font-size:60px;"">+</div>",,html-keyboard-response,34,194575,0.0-13.0-0.1,68343,List2A,white,woman,,,,null,,,,,,,,,
null,"<img src=""stim_listA/look8.gif""style=""height:400px;""></stim_listA>",,html-keyboard-response,35,196577,0.0-13.0-1.1,68343,List2A,white,woman,,,,null,,,,,,,,,
null,is being looked at by,,html-keyboard-response,36,198579,0.0-13.0-2.1,68343,List2A,white,woman,,,,null,,,,,,,,,
13074,,,survey-text,37,211661,0.0-13.0-3.1,68343,List2A,white,woman,,,,,"{""Q0"":""Jane is being looked at by Kate""}","<img src=""stim_listA/look8.gif""style=""height:400px;""></stim_listA>",is being looked at by,,,,,,
null,"<div style=""font-size:60px;"">+</div>",,html-keyboard-response,38,212161,0.0-13.0-0.2,68343,List2A,white,woman,,,,null,,,,,,,,,
null,"<img src=""stim_listA/seduce4.gif""style=""height:400px;""></stim_listA>",,html-keyboard-response,39,214164,0.0-13.0-1.2,68343,List2A,white,woman,,,,null,,,,,,,,,
null,is being seduced by,,html-keyboard-response,40,216166,0.0-13.0-2.2,68343,List2A,white,woman,,,,null,,,,,,,,,
10387,,,survey-text,41,226559,0.0-13.0-3.2,68343,List2A,white,woman,,,,,"{""Q0"":""mike is being seduced by Beth""}","<img src=""stim_listA/seduce4.gif""style=""height:400px;""></stim_listA>",is being seduced by,,,,,,
null,"<div style=""font-size:60px;"">+</div>",,html-keyboard-response,42,227061,0.0-13.0-0.3,68343,List2A,white,woman,,,,null,,,,,,,,,
null,"<img src=""stim_listA/hug1.gif""style=""height:400px;""></stim_listA>",,html-keyboard-response,43,229063,0.0-13.0-1.3,68343,List2A,white,woman,,,,null,,,,,,,,,
null,is hugging,,html-keyboard-response,44,231065,0.0-13.0-2.3,68343,List2A,white,woman,,,,null,,,,,,,,,
7587,,,survey-text,45,238657,0.0-13.0-3.3,68343,List2A,white,woman,,,,,"{""Q0"":""Luke is hugging ruth""}","<img src=""stim_listA/hug1.gif""style=""height:400px;""></stim_listA>",is hugging,,,,,,
null,"<div style=""font-size:60px;"">+</div>",,html-keyboard-response,46,239157,0.0-13.0-0.4,68343,List2A,white,woman,,,,null,,,,,,,,,
null,"<img src=""stim_listA/greet5.gif""style=""height:400px;""></stim_listA>",,html-keyboard-response,47,241160,0.0-13.0-1.4,68343,List2A,white,woman,,,,null,,,,,,,,,
null,is greeting,,html-keyboard-response,48,243163,0.0-13.0-2.4,68343,List2A,white,woman,,,,null,,,,,,,,,
22254,,,survey-text,49,265422,0.0-13.0-3.4,68343,List2A,white,woman,,,,,"{""Q0"":""Dave is greeting fred""}","<img src=""stim_listA/greet5.gif""style=""height:400px;""></stim_listA>",is greeting,,,,,,
null,"<div style=""font-size:60px;"">+</div>",,html-keyboard-response,50,265923,0.0-13.0-0.5,68343,List2A,white,woman,,,,null,,,,,,,,,
null,"<img src=""stim_listA/look5.gif""style=""height:400px;""></stim_listA>",,html-keyboard-response,51,267926,0.0-13.0-1.5,68343,List2A,white,woman,,,,null,,,,,,,,,
null,is looking at,,html-keyboard-response,52,269927,0.0-13.0-2.5,68343,List2A,white,woman,,,,null,,,,,,,,,
10185,,,survey-text,53,280116,0.0-13.0-3.5,68343,List2A,white,woman,,,,,"{""Q0"":""fred is looking at luke""}","<img src=""stim_listA/look5.gif""style=""height:400px;""></stim_listA>",is looking at,,,,,,
null,"<div style=""font-size:60px;"">+</div>",,html-keyboard-response,54,280621,0.0-13.0-0.6,68343,List2A,white,woman,,,,null,,,,,,,,,
null,"<img src=""stim_listA/touch3.gif""style=""height:400px;""></stim_listA>",,html-keyboard-response,55,282624,0.0-13.0-1.6,68343,List2A,white,woman,,,,null,,,,,,,,,
null,is touching,,html-keyboard-response,56,284626,0.0-13.0-2.6,68343,List2A,white,woman,,,,null,,,,,,,,,
9552,,,survey-text,57,294183,0.0-13.0-3.6,68343,List2A,white,woman,,,,,"{""Q0"":""Kate is touching mike""}","<img src=""stim_listA/touch3.gif""style=""height:400px;""></stim_listA>",is touching,,,,,,
null,"<div style=""font-size:60px;"">+</div>",,html-keyboard-response,58,294684,0.0-13.0-0.7,68343,List2A,white,woman,,,,null,,,,,,,,,
null,"<img src=""stim_listA/seduce6.gif""style=""height:400px;""></stim_listA>",,html-keyboard-response,59,296687,0.0-13.0-1.7,68343,List2A,white,woman,,,,null,,,,,,,,,
null,is being seduced by,,html-keyboard-response,60,298688,0.0-13.0-2.7,68343,List2A,white,woman,,,,null,,,,,,,,,
8897,,,survey-text,61,307590,0.0-13.0-3.7,68343,List2A,white,woman,,,,,"{""Q0"":""fred is being seduced by dave""}","<img src=""stim_listA/seduce6.gif""style=""height:400px;""></stim_listA>",is being seduced by,,,,,,
null,"<div style=""font-size:60px;"">+</div>",,html-keyboard-response,62,308092,0.0-13.0-0.8,68343,List2A,white,woman,,,,null,,,,,,,,,
null,"<img src=""stim_listA/shout5.gif""style=""height:400px;""></stim_listA>",,html-keyboard-response,63,310094,0.0-13.0-1.8,68343,List2A,white,woman,,,,null,,,,,,,,,
null,is shouting at,,html-keyboard-response,64,312096,0.0-13.0-2.8,68343,List2A,white,woman,,,,null,,,,,,,,,
7821,,,survey-text,65,319922,0.0-13.0-3.8,68343,List2A,white,woman,,,,,"{""Q0"":""Luke is shouting at fred""}","<img src=""stim_listA/shout5.gif""style=""height:400px;""></stim_listA>",is shouting at,,,,,,
null,"<div style=""font-size:60px;"">+</div>",,html-keyboard-response,66,320423,0.0-13.0-0.9,68343,List2A,white,woman,,,,null,,,,,,,,,
null,"<img src=""stim_listA/copy4.gif""style=""height:400px;""></stim_listA>",,html-keyboard-response,67,322425,0.0-13.0-1.9,68343,List2A,white,woman,,,,null,,,,,,,,,
null,is being copied by,,html-keyboard-response,68,324426,0.0-13.0-2.9,68343,List2A,white,woman,,,,null,,,,,,,,,
8773,,,survey-text,69,333204,0.0-13.0-3.9,68343,List2A,white,woman,,,,,"{""Q0"":""fred is being copied by kate""}","<img src=""stim_listA/copy4.gif""style=""height:400px;""></stim_listA>",is being copied by,,,,,,
null,"<div style=""font-size:60px;"">+</div>",,html-keyboard-response,70,333706,0.0-13.0-0.10,68343,List2A,white,woman,,,,null,,,,,,,,,
null,"<img src=""stim_listA/greet3.gif""style=""height:400px;""></stim_listA>",,html-keyboard-response,71,335709,0.0-13.0-1.10,68343,List2A,white,woman,,,,null,,,,,,,,,
null,is greeting,,html-keyboard-response,72,337711,0.0-13.0-2.10,68343,List2A,white,woman,,,,null,,,,,,,,,
6922,,,survey-text,73,344639,0.0-13.0-3.10,68343,List2A,white,woman,,,,,"{""Q0"":""Beth is greeted by mike""}","<img src=""stim_listA/greet3.gif""style=""height:400px;""></stim_listA>",is greeting,,,,,,
null,"<div style=""font-size:60px;"">+</div>",,html-keyboard-response,74,345141,0.0-13.0-0.11,68343,List2A,white,woman,,,,null,,,,,,,,,
null,"<img src=""stim_listA/kiss6.gif""style=""height:400px;""></stim_listA>",,html-keyboard-response,75,347143,0.0-13.0-1.11,68343,List2A,white,woman,,,,null,,,,,,,,,
null,is being kissed by,,html-keyboard-response,76,349145,0.0-13.0-2.11,68343,List2A,white,woman,,,,null,,,,,,,,,
10478,,,survey-text,77,359627,0.0-13.0-3.11,68343,List2A,white,woman,,,,,"{""Q0"":""Dave is being kissed by mike""}","<img src=""stim_listA/kiss6.gif""style=""height:400px;""></stim_listA>",is being kissed by,,,,,,
null,"<div style=""font-size:60px;"">+</div>",,html-keyboard-response,78,360131,0.0-13.0-0.12,68343,List2A,white,woman,,,,null,,,,,,,,,
null,"<img src=""stim_listA/touch7.gif""style=""height:400px;""></stim_listA>",,html-keyboard-response,79,362134,0.0-13.0-1.12,68343,List2A,white,woman,,,,null,,,,,,,,,
null,is touching,,html-keyboard-response,80,364136,0.0-13.0-2.12,68343,List2A,white,woman,,,,null,,,,,,,,,
6426,,,survey-text,81,370567,0.0-13.0-3.12,68343,List2A,white,woman,,,,,"{""Q0"":""Jane is touching Kate""}","<img src=""stim_listA/touch7.gif""style=""height:400px;""></stim_listA>",is touching,,,,,,
null,"<div style=""font-size:60px;"">+</div>",,html-keyboard-response,82,371070,0.0-13.0-0.13,68343,List2A,white,woman,,,,null,,,,,,,,,
null,"<img src=""stim_listA/copy5.gif""style=""height:400px;""></stim_listA>",,html-keyboard-response,83,373072,0.0-13.0-1.13,68343,List2A,white,woman,,,,null,,,,,,,,,
null,is copying,,html-keyboard-response,84,375074,0.0-13.0-2.13,68343,List2A,white,woman,,,,null,,,,,,,,,
7205,,,survey-text,85,382283,0.0-13.0-3.13,68343,List2A,white,woman,,,,,"{""Q0"":""Dave is copying fred""}","<img src=""stim_listA/copy5.gif""style=""height:400px;""></stim_listA>",is copying,,,,,,
null,"<div style=""font-size:60px;"">+</div>",,html-keyboard-response,86,382785,0.0-13.0-0.14,68343,List2A,white,woman,,,,null,,,,,,,,,
null,"<img src=""stim_listA/kiss8.gif""style=""height:400px;""></stim_listA>",,html-keyboard-response,87,384787,0.0-13.0-1.14,68343,List2A,white,woman,,,,null,,,,,,,,,
null,is being kissed by,,html-keyboard-response,88,386788,0.0-13.0-2.14,68343,List2A,white,woman,,,,null,,,,,,,,,
5928,,,survey-text,89,392721,0.0-13.0-3.14,68343,List2A,white,woman,,,,,"{""Q0"":""Kate is being kissed by Jane""}","<img src=""stim_listA/kiss8.gif""style=""height:400px;""></stim_listA>",is being kissed by,,,,,,
null,"<div style=""font-size:60px;"">+</div>",,html-keyboard-response,90,393223,0.0-13.0-0.15,68343,List2A,white,woman,,,,null,,,,,,,,,
null,"<img src=""stim_listA/copy7.gif""style=""height:400px;""></stim_listA>",,html-keyboard-response,91,395225,0.0-13.0-1.15,68343,List2A,white,woman,,,,null,,,,,,,,,
null,is copying,,html-keyboard-response,92,397227,0.0-13.0-2.15,68343,List2A,white,woman,,,,null,,,,,,,,,
6479,,,survey-text,93,403711,0.0-13.0-3.15,68343,List2A,white,woman,,,,,"{""Q0"":""Jane is copying Beth""}","<img src=""stim_listA/copy7.gif""style=""height:400px;""></stim_listA>",is copying,,,,,,
null,"<div style=""font-size:60px;"">+</div>",,html-keyboard-response,94,404213,0.0-13.0-0.16,68343,List2A,white,woman,,,,null,,,,,,,,,
null,"<img src=""stim_listA/challenge7.gif""style=""height:400px;""></stim_listA>",,html-keyboard-response,95,406216,0.0-13.0-1.16,68343,List2A,white,woman,,,,null,,,,,,,,,
null,is challenging,,html-keyboard-response,96,408218,0.0-13.0-2.16,68343,List2A,white,woman,,,,null,,,,,,,,,
5984,,,survey-text,97,414207,0.0-13.0-3.16,68343,List2A,white,woman,,,,,"{""Q0"":""Jane is challenging Beth""}","<img src=""stim_listA/challenge7.gif""style=""height:400px;""></stim_listA>",is challenging,,,,,,
null,"<div style=""font-size:60px;"">+</div>",,html-keyboard-response,98,414709,0.0-13.0-0.17,68343,List2A,white,woman,,,,null,,,,,,,,,
null,"<img src=""stim_listA/shout2.gif""style=""height:400px;""></stim_listA>",,html-keyboard-response,99,416712,0.0-13.0-1.17,68343,List2A,white,woman,,,,null,,,,,,,,,
null,is being shouted at by,,html-keyboard-response,100,418714,0.0-13.0-2.17,68343,List2A,white,woman,,,,null,,,,,,,,,
6484,,,survey-text,101,425202,0.0-13.0-3.17,68343,List2A,white,woman,,,,,"{""Q0"":""Jane is being shouted at by Dave""}","<img src=""stim_listA/shout2.gif""style=""height:400px;""></stim_listA>",is being shouted at by,,,,,,
null,"<div style=""font-size:60px;"">+</div>",,html-keyboard-response,102,425704,0.0-13.0-0.18,68343,List2A,white,woman,,,,null,,,,,,,,,
null,"<img src=""stim_listA/greet4.gif""style=""height:400px;""></stim_listA>",,html-keyboard-response,103,427706,0.0-13.0-1.18,68343,List2A,white,woman,,,,null,,,,,,,,,
null,is being greeted by,,html-keyboard-response,104,429709,0.0-13.0-2.18,68343,List2A,white,woman,,,,null,,,,,,,,,
10158,,,survey-text,105,439871,0.0-13.0-3.18,68343,List2A,white,woman,,,,,"{""Q0"":""Kate is being greeted by fred""}","<img src=""stim_listA/greet4.gif""style=""height:400px;""></stim_listA>",is being greeted by,,,,,,
null,"<div style=""font-size:60px;"">+</div>",,html-keyboard-response,106,440373,0.0-13.0-0.19,68343,List2A,white,woman,,,,null,,,,,,,,,
null,"<img src=""stim_listA/hug3.gif""style=""height:400px;""></stim_listA>",,html-keyboard-response,107,442376,0.0-13.0-1.19,68343,List2A,white,woman,,,,null,,,,,,,,,
null,is hugging,,html-keyboard-response,108,444378,0.0-13.0-2.19,68343,List2A,white,woman,,,,null,,,,,,,,,
7474,,,survey-text,109,451858,0.0-13.0-3.19,68343,List2A,white,woman,,,,,"{""Q0"":""Beth is hugging fred""}","<img src=""stim_listA/hug3.gif""style=""height:400px;""></stim_listA>",is hugging,,,,,,
8364,"<img src='img/portrait_matrix_list2.jpg' style='width:900px;height:500px;''></img><p>If you have memorised all the portraits and names and are ready to start, press Continue.</p><p><strong>Please note: Your memory of these faces will be tested 4 times during this experiment.</strong></p>",0,html-button-response,110,460224,0.0-14.0-0.0,68343,List2A,white,woman,,,,,,,,,,,,,
3317,"<img src=""portrait/WW1.jpg""style=""height:400px;""></img>",1,html-button-response,111,464544,0.0-14.0-1.0,68343,List2A,white,woman,,TRUE,1,,,,,,,,,,
null,CORRECT,,html-keyboard-response,112,466048,0.0-14.0-2.0-0.0,68343,List2A,white,woman,,,,null,,,,,,,,,
2535,"<img src=""portrait/BM2.jpg""style=""height:400px;""></img>",5,html-button-response,113,468585,0.0-14.0-4.0,68343,List2A,white,woman,,TRUE,5,,,,,,,,,,
null,CORRECT,,html-keyboard-response,114,470088,0.0-14.0-5.0-0.0,68343,List2A,white,woman,,,,null,,,,,,,,,
2333,"<img src=""portrait/BW2.jpg""style=""height:400px;""></img>",2,html-button-response,115,472422,0.0-14.0-7.0,68343,List2A,white,woman,,TRUE,2,,,,,,,,,,
null,CORRECT,,html-keyboard-response,116,473925,0.0-14.0-8.0-0.0,68343,List2A,white,woman,,,,null,,,,,,,,,
2311,"<img src=""portrait/BW1.jpg""style=""height:400px;""></img>",0,html-button-response,117,476238,0.0-14.0-10.0,68343,List2A,white,woman,,TRUE,0,,,,,,,,,,
null,CORRECT,,html-keyboard-response,118,477741,0.0-14.0-11.0-0.0,68343,List2A,white,woman,,,,null,,,,,,,,,
1945,"<img src=""portrait/WW2.jpg""style=""height:400px;""></img>",3,html-button-response,119,479687,0.0-14.0-13.0,68343,List2A,white,woman,,TRUE,3,,,,,,,,,,
null,CORRECT,,html-keyboard-response,120,481191,0.0-14.0-14.0-0.0,68343,List2A,white,woman,,,,null,,,,,,,,,
2980,"<img src=""portrait/WM2.jpg""style=""height:400px;""></img>",7,html-button-response,121,484172,0.0-14.0-16.0,68343,List2A,white,woman,,TRUE,7,,,,,,,,,,
null,CORRECT,,html-keyboard-response,122,485675,0.0-14.0-17.0-0.0,68343,List2A,white,woman,,,,null,,,,,,,,,
2917,"<img src=""portrait/BM1.jpg""style=""height:400px;""></img>",4,html-button-response,123,488592,0.0-14.0-19.0,68343,List2A,white,woman,,TRUE,4,,,,,,,,,,
null,CORRECT,,html-keyboard-response,124,490096,0.0-14.0-20.0-0.0,68343,List2A,white,woman,,,,null,,,,,,,,,
2342,"<img src=""portrait/WM1.jpg""style=""height:400px;""></img>",6,html-button-response,125,492440,0.0-14.0-22.0,68343,List2A,white,woman,,TRUE,6,,,,,,,,,,
null,CORRECT,,html-keyboard-response,126,493943,0.0-14.0-23.0-0.0,68343,List2A,white,woman,,,,null,,,,,,,,,
1289,<p>You got 8 out of 8 right first time. Press Continue.</p>,0,html-button-response,127,495233,0.0-14.0-25.0,68343,List2A,white,woman,,,,,,,,,,,,,
null,"<div style=""font-size:60px;"">+</div>",,html-keyboard-response,128,496736,0.0-15.0-0.0,68343,List2A,white,woman,,,,null,,,,,,,,,
null,"<img src=""stim_listA/copy8.gif""style=""height:400px;""></stim_listA>",,html-keyboard-response,129,498739,0.0-15.0-1.0,68343,List2A,white,woman,,,,null,,,,,,,,,
null,is being copied by,,html-keyboard-response,130,500740,0.0-15.0-2.0,68343,List2A,white,woman,,,,null,,,,,,,,,
7506,,,survey-text,131,508250,0.0-15.0-3.0,68343,List2A,white,woman,,,,,"{""Q0"":""ruth is being copied by Kate""}","<img src=""stim_listA/copy8.gif""style=""height:400px;""></stim_listA>",is being copied by,,,,,,
null,"<div style=""font-size:60px;"">+</div>",,html-keyboard-response,132,508752,0.0-15.0-0.1,68343,List2A,white,woman,,,,null,,,,,,,,,
null,"<img src=""stim_listA/kiss1.gif""style=""height:400px;""></stim_listA>",,html-keyboard-response,133,510755,0.0-15.0-1.1,68343,List2A,white,woman,,,,null,,,,,,,,,
null,is kissing,,html-keyboard-response,134,512757,0.0-15.0-2.1,68343,List2A,white,woman,,,,null,,,,,,,,,
8627,,,survey-text,135,521390,0.0-15.0-3.1,68343,List2A,white,woman,,,,,"{""Q0"":""Luke is kissing ruth""}","<img src=""stim_listA/kiss1.gif""style=""height:400px;""></stim_listA>",is kissing,,,,,,
null,"<div style=""font-size:60px;"">+</div>",,html-keyboard-response,136,521892,0.0-15.0-0.2,68343,List2A,white,woman,,,,null,,,,,,,,,
null,"<img src=""stim_listA/hug4.gif""style=""height:400px;""></stim_listA>",,html-keyboard-response,137,523894,0.0-15.0-1.2,68343,List2A,white,woman,,,,null,,,,,,,,,
null,is being hugged by,,html-keyboard-response,138,525896,0.0-15.0-2.2,68343,List2A,white,woman,,,,null,,,,,,,,,
13951,,,survey-text,139,539852,0.0-15.0-3.2,68343,List2A,white,woman,,,,,"{""Q0"":""mike is being hugged by Kate""}","<img src=""stim_listA/hug4.gif""style=""height:400px;""></stim_listA>",is being hugged by,,,,,,
null,"<div style=""font-size:60px;"">+</div>",,html-keyboard-response,140,540354,0.0-15.0-0.3,68343,List2A,white,woman,,,,null,,,,,,,,,
null,"<img src=""stim_listA/shout1.gif""style=""height:400px;""></stim_listA>",,html-keyboard-response,141,542357,0.0-15.0-1.3,68343,List2A,white,woman,,,,null,,,,,,,,,
null,is shouting at,,html-keyboard-response,142,544359,0.0-15.0-2.3,68343,List2A,white,woman,,,,null,,,,,,,,,
8975,,,survey-text,143,553337,0.0-15.0-3.3,68343,List2A,white,woman,,,,,"{""Q0"":""ruth is shouting at Luke""}","<img src=""stim_listA/shout1.gif""style=""height:400px;""></stim_listA>",is shouting at,,,,,,
null,"<div style=""font-size:60px;"">+</div>",,html-keyboard-response,144,553839,0.0-15.0-0.4,68343,List2A,white,woman,,,,null,,,,,,,,,
null,"<img src=""stim_listA/oppose3.gif""style=""height:400px;""></stim_listA>",,html-keyboard-response,145,555842,0.0-15.0-1.4,68343,List2A,white,woman,,,,null,,,,,,,,,
null,is opposing,,html-keyboard-response,146,557843,0.0-15.0-2.4,68343,List2A,white,woman,,,,null,,,,,,,,,
6122,,,survey-text,147,563970,0.0-15.0-3.4,68343,List2A,white,woman,,,,,"{""Q0"":""mike is opposing Kate""}","<img src=""stim_listA/oppose3.gif""style=""height:400px;""></stim_listA>",is opposing,,,,,,
null,"<div style=""font-size:60px;"">+</div>",,html-keyboard-response,148,564472,0.0-15.0-0.5,68343,List2A,white,woman,,,,null,,,,,,,,,
null,"<img src=""stim_listA/hug5.gif""style=""height:400px;""></stim_listA>",,html-keyboard-response,149,566475,0.0-15.0-1.5,68343,List2A,white,woman,,,,null,,,,,,,,,
null,is hugging,,html-keyboard-response,150,568476,0.0-15.0-2.5,68343,List2A,white,woman,,,,null,,,,,,,,,
5720,,,survey-text,151,574203,0.0-15.0-3.5,68343,List2A,white,woman,,,,,"{""Q0"":""Luke is hugging fred""}","<img src=""stim_listA/hug5.gif""style=""height:400px;""></stim_listA>",is hugging,,,,,,
null,"<div style=""font-size:60px;"">+</div>",,html-keyboard-response,152,574705,0.0-15.0-0.6,68343,List2A,white,woman,,,,null,,,,,,,,,
null,"<img src=""stim_listA/challenge5.gif""style=""height:400px;""></stim_listA>",,html-keyboard-response,153,576708,0.0-15.0-1.6,68343,List2A,white,woman,,,,null,,,,,,,,,
null,is challenging,,html-keyboard-response,154,578710,0.0-15.0-2.6,68343,List2A,white,woman,,,,null,,,,,,,,,
7377,,,survey-text,155,586092,0.0-15.0-3.6,68343,List2A,white,woman,,,,,"{""Q0"":""fred is challenging Dave""}","<img src=""stim_listA/challenge5.gif""style=""height:400px;""></stim_listA>",is challenging,,,,,,
null,"<div style=""font-size:60px;"">+</div>",,html-keyboard-response,156,586594,0.0-15.0-0.7,68343,List2A,white,woman,,,,null,,,,,,,,,
null,"<img src=""stim_listA/copy1.gif""style=""height:400px;""></stim_listA>",,html-keyboard-response,157,588597,0.0-15.0-1.7,68343,List2A,white,woman,,,,null,,,,,,,,,
null,is copying,,html-keyboard-response,158,590598,0.0-15.0-2.7,68343,List2A,white,woman,,,,null,,,,,,,,,
9364,,,survey-text,159,599966,0.0-15.0-3.7,68343,List2A,white,woman,,,,,"{""Q0"":""ruth is copying Dave""}","<img src=""stim_listA/copy1.gif""style=""height:400px;""></stim_listA>",is copying,,,,,,
null,"<div style=""font-size:60px;"">+</div>",,html-keyboard-response,160,600467,0.0-15.0-0.8,68343,List2A,white,woman,,,,null,,,,,,,,,
null,"<img src=""stim_listA/challenge2.gif""style=""height:400px;""></stim_listA>",,html-keyboard-response,161,602469,0.0-15.0-1.8,68343,List2A,white,woman,,,,null,,,,,,,,,
null,is being challenged by,,html-keyboard-response,162,604471,0.0-15.0-2.8,68343,List2A,white,woman,,,,null,,,,,,,,,
11692,,,survey-text,163,616168,0.0-15.0-3.8,68343,List2A,white,woman,,,,,"{""Q0"":""Luke is being challenged by Jane""}","<img src=""stim_listA/challenge2.gif""style=""height:400px;""></stim_listA>",is being challenged by,,,,,,
null,"<div style=""font-size:60px;"">+</div>",,html-keyboard-response,164,616670,0.0-15.0-0.9,68343,List2A,white,woman,,,,null,,,,,,,,,
null,"<img src=""stim_listA/touch1.gif""style=""height:400px;""></stim_listA>",,html-keyboard-response,165,618672,0.0-15.0-1.9,68343,List2A,white,woman,,,,null,,,,,,,,,
null,is touching,,html-keyboard-response,166,620675,0.0-15.0-2.9,68343,List2A,white,woman,,,,null,,,,,,,,,
6220,,,survey-text,167,626900,0.0-15.0-3.9,68343,List2A,white,woman,,,,,"{""Q0"":""Jane is touching Dave""}","<img src=""stim_listA/touch1.gif""style=""height:400px;""></stim_listA>",is touching,,,,,,
null,"<div style=""font-size:60px;"">+</div>",,html-keyboard-response,168,627401,0.0-15.0-0.10,68343,List2A,white,woman,,,,null,,,,,,,,,
null,"<img src=""stim_listA/oppose5.gif""style=""height:400px;""></stim_listA>",,html-keyboard-response,169,629403,0.0-15.0-1.10,68343,List2A,white,woman,,,,null,,,,,,,,,
null,is opposing,,html-keyboard-response,170,631405,0.0-15.0-2.10,68343,List2A,white,woman,,,,null,,,,,,,,,
6066,,,survey-text,171,637476,0.0-15.0-3.10,68343,List2A,white,woman,,,,,"{""Q0"":""mike is opposing Dave""}","<img src=""stim_listA/oppose5.gif""style=""height:400px;""></stim_listA>",is opposing,,,,,,
null,"<div style=""font-size:60px;"">+</div>",,html-keyboard-response,172,637978,0.0-15.0-0.11,68343,List2A,white,woman,,,,null,,,,,,,,,
null,"<img src=""stim_listA/oppose6.gif""style=""height:400px;""></stim_listA>",,html-keyboard-response,173,639980,0.0-15.0-1.11,68343,List2A,white,woman,,,,null,,,,,,,,,
null,is being opposed by,,html-keyboard-response,174,641982,0.0-15.0-2.11,68343,List2A,white,woman,,,,null,,,,,,,,,
7708,,,survey-text,175,649695,0.0-15.0-3.11,68343,List2A,white,woman,,,,,"{""Q0"":""fred is being opposed by Luke""}","<img src=""stim_listA/oppose6.gif""style=""height:400px;""></stim_listA>",is being opposed by,,,,,,
null,"<div style=""font-size:60px;"">+</div>",,html-keyboard-response,176,650197,0.0-15.0-0.12,68343,List2A,white,woman,,,,null,,,,,,,,,
null,"<img src=""stim_listA/look1.gif""style=""height:400px;""></stim_listA>",,html-keyboard-response,177,652200,0.0-15.0-1.12,68343,List2A,white,woman,,,,null,,,,,,,,,
null,is looking at,,html-keyboard-response,178,654201,0.0-15.0-2.12,68343,List2A,white,woman,,,,null,,,,,,,,,
7625,,,survey-text,179,661830,0.0-15.0-3.12,68343,List2A,white,woman,,,,,"{""Q0"":""Luke is looking at ruth""}","<img src=""stim_listA/look1.gif""style=""height:400px;""></stim_listA>",is looking at,,,,,,
null,"<div style=""font-size:60px;"">+</div>",,html-keyboard-response,180,662332,0.0-15.0-0.13,68343,List2A,white,woman,,,,null,,,,,,,,,
null,"<img src=""stim_listA/oppose4.gif""style=""height:400px;""></stim_listA>",,html-keyboard-response,181,664335,0.0-15.0-1.13,68343,List2A,white,woman,,,,null,,,,,,,,,
null,is being opposed by,,html-keyboard-response,182,666337,0.0-15.0-2.13,68343,List2A,white,woman,,,,null,,,,,,,,,
7743,,,survey-text,183,674085,0.0-15.0-3.13,68343,List2A,white,woman,,,,,"{""Q0"":""fred is being opposed by Beth""}","<img src=""stim_listA/oppose4.gif""style=""height:400px;""></stim_listA>",is being opposed by,,,,,,
null,"<div style=""font-size:60px;"">+</div>",,html-keyboard-response,184,674587,0.0-15.0-0.14,68343,List2A,white,woman,,,,null,,,,,,,,,
null,"<img src=""stim_listA/seduce3.gif""style=""height:400px;""></stim_listA>",,html-keyboard-response,185,676589,0.0-15.0-1.14,68343,List2A,white,woman,,,,null,,,,,,,,,
null,is seducing,,html-keyboard-response,186,678591,0.0-15.0-2.14,68343,List2A,white,woman,,,,null,,,,,,,,,
10242,,,survey-text,187,688838,0.0-15.0-3.14,68343,List2A,white,woman,,,,,"{""Q0"":""Kate is seducing fred""}","<img src=""stim_listA/seduce3.gif""style=""height:400px;""></stim_listA>",is seducing,,,,,,
null,"<div style=""font-size:60px;"">+</div>",,html-keyboard-response,188,689339,0.0-15.0-0.15,68343,List2A,white,woman,,,,null,,,,,,,,,
null,"<img src=""stim_listA/look3.gif""style=""height:400px;""></stim_listA>",,html-keyboard-response,189,691341,0.0-15.0-1.15,68343,List2A,white,woman,,,,null,,,,,,,,,
null,is looking at,,html-keyboard-response,190,693342,0.0-15.0-2.15,68343,List2A,white,woman,,,,null,,,,,,,,,
6230,,,survey-text,191,699575,0.0-15.0-3.15,68343,List2A,white,woman,,,,,"{""Q0"":""fred is looking at Beth""}","<img src=""stim_listA/look3.gif""style=""height:400px;""></stim_listA>",is looking at,,,,,,
null,"<div style=""font-size:60px;"">+</div>",,html-keyboard-response,192,700078,0.0-15.0-0.16,68343,List2A,white,woman,,,,null,,,,,,,,,
null,"<img src=""stim_listA/touch5.gif""style=""height:400px;""></stim_listA>",,html-keyboard-response,193,702080,0.0-15.0-1.16,68343,List2A,white,woman,,,,null,,,,,,,,,
null,is touching,,html-keyboard-response,194,704082,0.0-15.0-2.16,68343,List2A,white,woman,,,,null,,,,,,,,,
7803,,,survey-text,195,711889,0.0-15.0-3.16,68343,List2A,white,woman,,,,,"{""Q0"":""mike is touching Dave""}","<img src=""stim_listA/touch5.gif""style=""height:400px;""></stim_listA>",is touching,,,,,,
null,"<div style=""font-size:60px;"">+</div>",,html-keyboard-response,196,712391,0.0-15.0-0.17,68343,List2A,white,woman,,,,null,,,,,,,,,
null,"<img src=""stim_listA/kiss3.gif""style=""height:400px;""></stim_listA>",,html-keyboard-response,197,714393,0.0-15.0-1.17,68343,List2A,white,woman,,,,null,,,,,,,,,
null,is kissing,,html-keyboard-response,198,716395,0.0-15.0-2.17,68343,List2A,white,woman,,,,null,,,,,,,,,
5063,,,survey-text,199,721462,0.0-15.0-3.17,68343,List2A,white,woman,,,,,"{""Q0"":""fred is kissing Beth""}","<img src=""stim_listA/kiss3.gif""style=""height:400px;""></stim_listA>",is kissing,,,,,,
null,"<div style=""font-size:60px;"">+</div>",,html-keyboard-response,200,721964,0.0-15.0-0.18,68343,List2A,white,woman,,,,null,,,,,,,,,
null,"<img src=""stim_listA/seduce8.gif""style=""height:400px;""></stim_listA>",,html-keyboard-response,201,723966,0.0-15.0-1.18,68343,List2A,white,woman,,,,null,,,,,,,,,
null,is being seduced by,,html-keyboard-response,202,725968,0.0-15.0-2.18,68343,List2A,white,woman,,,,null,,,,,,,,,
8676,,,survey-text,203,734649,0.0-15.0-3.18,68343,List2A,white,woman,,,,,"{""Q0"":""Jane is being seduced by Beth""}","<img src=""stim_listA/seduce8.gif""style=""height:400px;""></stim_listA>",is being seduced by,,,,,,
null,"<div style=""font-size:60px;"">+</div>",,html-keyboard-response,204,735151,0.0-15.0-0.19,68343,List2A,white,woman,,,,null,,,,,,,,,
null,"<img src=""stim_listA/greet7.gif""style=""height:400px;""></stim_listA>",,html-keyboard-response,205,737153,0.0-15.0-1.19,68343,List2A,white,woman,,,,null,,,,,,,,,
null,is greeting,,html-keyboard-response,206,739154,0.0-15.0-2.19,68343,List2A,white,woman,,,,null,,,,,,,,,
4216,,,survey-text,207,743375,0.0-15.0-3.19,68343,List2A,white,woman,,,,,"{""Q0"":""Jane is greeting Beth""}","<img src=""stim_listA/greet7.gif""style=""height:400px;""></stim_listA>",is greeting,,,,,,
4896,"<img src='img/portrait_matrix_list2.jpg' style='width:900px;height:500px;''></img><p>If you have memorised all the portraits and names and are ready to start, press Continue.</p><p><strong>Please note: Your memory of these faces will be tested 4 times during this experiment.</strong></p>",0,html-button-response,208,748272,0.0-16.0-0.0,68343,List2A,white,woman,,,,,,,,,,,,,
44525,"<img src=""portrait/WW2.jpg""style=""height:400px;""></img>",3,html-button-response,209,793801,0.0-16.0-1.0,68343,List2A,white,woman,,TRUE,3,,,,,,,,,,
null,CORRECT,,html-keyboard-response,210,795305,0.0-16.0-2.0-0.0,68343,List2A,white,woman,,,,null,,,,,,,,,
3217,"<img src=""portrait/BW1.jpg""style=""height:400px;""></img>",0,html-button-response,211,798523,0.0-16.0-4.0,68343,List2A,white,woman,,TRUE,0,,,,,,,,,,
null,CORRECT,,html-keyboard-response,212,800026,0.0-16.0-5.0-0.0,68343,List2A,white,woman,,,,null,,,,,,,,,
2430,"<img src=""portrait/WW1.jpg""style=""height:400px;""></img>",1,html-button-response,213,802457,0.0-16.0-7.0,68343,List2A,white,woman,,TRUE,1,,,,,,,,,,
null,CORRECT,,html-keyboard-response,214,803959,0.0-16.0-8.0-0.0,68343,List2A,white,woman,,,,null,,,,,,,,,
1996,"<img src=""portrait/BW2.jpg""style=""height:400px;""></img>",2,html-button-response,215,805956,0.0-16.0-10.0,68343,List2A,white,woman,,TRUE,2,,,,,,,,,,
null,CORRECT,,html-keyboard-response,216,807459,0.0-16.0-11.0-0.0,68343,List2A,white,woman,,,,null,,,,,,,,,
2075,"<img src=""portrait/BM2.jpg""style=""height:400px;""></img>",5,html-button-response,217,809536,0.0-16.0-13.0,68343,List2A,white,woman,,TRUE,5,,,,,,,,,,
null,CORRECT,,html-keyboard-response,218,811039,0.0-16.0-14.0-0.0,68343,List2A,white,woman,,,,null,,,,,,,,,
8326,"<img src=""portrait/BM1.jpg""style=""height:400px;""></img>",4,html-button-response,219,819366,0.0-16.0-16.0,68343,List2A,white,woman,,TRUE,4,,,,,,,,,,
null,CORRECT,,html-keyboard-response,220,820870,0.0-16.0-17.0-0.0,68343,List2A,white,woman,,,,null,,,,,,,,,
3077,"<img src=""portrait/WM2.jpg""style=""height:400px;""></img>",7,html-button-response,221,823949,0.0-16.0-19.0,68343,List2A,white,woman,,TRUE,7,,,,,,,,,,
null,CORRECT,,html-keyboard-response,222,825452,0.0-16.0-20.0-0.0,68343,List2A,white,woman,,,,null,,,,,,,,,
2705,"<img src=""portrait/WM1.jpg""style=""height:400px;""></img>",6,html-button-response,223,828158,0.0-16.0-22.0,68343,List2A,white,woman,,TRUE,6,,,,,,,,,,
null,CORRECT,,html-keyboard-response,224,829662,0.0-16.0-23.0-0.0,68343,List2A,white,woman,,,,null,,,,,,,,,
1297,<p>You got 8 out of 8 right first time. Press Continue.</p>,0,html-button-response,225,830961,0.0-16.0-25.0,68343,List2A,white,woman,,,,,,,,,,,,,
null,"<div style=""font-size:60px;"">+</div>",,html-keyboard-response,226,832464,0.0-17.0-0.0,68343,List2A,white,woman,,,,null,,,,,,,,,
null,"<img src=""stim_listA/touch6.gif""style=""height:400px;""></stim_listA>",,html-keyboard-response,227,834467,0.0-17.0-1.0,68343,List2A,white,woman,,,,null,,,,,,,,,
null,is being touched by,,html-keyboard-response,228,836468,0.0-17.0-2.0,68343,List2A,white,woman,,,,null,,,,,,,,,
8383,,,survey-text,229,844855,0.0-17.0-3.0,68343,List2A,white,woman,,,,,"{""Q0"":""fred is being touched by luke""}","<img src=""stim_listA/touch6.gif""style=""height:400px;""></stim_listA>",is being touched by,,,,,,
null,"<div style=""font-size:60px;"">+</div>",,html-keyboard-response,230,845357,0.0-17.0-0.1,68343,List2A,white,woman,,,,null,,,,,,,,,
null,"<img src=""stim_listA/copy6.gif""style=""height:400px;""></stim_listA>",,html-keyboard-response,231,847360,0.0-17.0-1.1,68343,List2A,white,woman,,,,null,,,,,,,,,
null,is being copied by,,html-keyboard-response,232,849363,0.0-17.0-2.1,68343,List2A,white,woman,,,,null,,,,,,,,,
9363,,,survey-text,233,858731,0.0-17.0-3.1,68343,List2A,white,woman,,,,,"{""Q0"":""Luke is being copied by mike""}","<img src=""stim_listA/copy6.gif""style=""height:400px;""></stim_listA>",is being copied by,,,,,,
null,"<div style=""font-size:60px;"">+</div>",,html-keyboard-response,234,859233,0.0-17.0-0.2,68343,List2A,white,woman,,,,null,,,,,,,,,
null,"<img src=""stim_listA/kiss4.gif""style=""height:400px;""></stim_listA>",,html-keyboard-response,235,861236,0.0-17.0-1.2,68343,List2A,white,woman,,,,null,,,,,,,,,
null,is being kissed by,,html-keyboard-response,236,863237,0.0-17.0-2.2,68343,List2A,white,woman,,,,null,,,,,,,,,
5887,,,survey-text,237,869127,0.0-17.0-3.2,68343,List2A,white,woman,,,,,"{""Q0"":""mike is being kissed by kate""}","<img src=""stim_listA/kiss4.gif""style=""height:400px;""></stim_listA>",is being kissed by,,,,,,
null,"<div style=""font-size:60px;"">+</div>",,html-keyboard-response,238,869630,0.0-17.0-0.3,68343,List2A,white,woman,,,,null,,,,,,,,,
null,"<img src=""stim_listA/copy2.gif""style=""height:400px;""></stim_listA>",,html-keyboard-response,239,871632,0.0-17.0-1.3,68343,List2A,white,woman,,,,null,,,,,,,,,
null,is being copied by,,html-keyboard-response,240,873635,0.0-17.0-2.3,68343,List2A,white,woman,,,,null,,,,,,,,,
7716,,,survey-text,241,881362,0.0-17.0-3.3,68343,List2A,white,woman,,,,,"{""Q0"":""Luke is being copied by jane""}","<img src=""stim_listA/copy2.gif""style=""height:400px;""></stim_listA>",is being copied by,,,,,,
null,"<div style=""font-size:60px;"">+</div>",,html-keyboard-response,242,881865,0.0-17.0-0.4,68343,List2A,white,woman,,,,null,,,,,,,,,
null,"<img src=""stim_listA/challenge6.gif""style=""height:400px;""></stim_listA>",,html-keyboard-response,243,883868,0.0-17.0-1.4,68343,List2A,white,woman,,,,null,,,,,,,,,
null,is being challenged by,,html-keyboard-response,244,885872,0.0-17.0-2.4,68343,List2A,white,woman,,,,null,,,,,,,,,
9134,,,survey-text,245,895014,0.0-17.0-3.4,68343,List2A,white,woman,,,,,"{""Q0"":""mike is being challenged by luke""}","<img src=""stim_listA/challenge6.gif""style=""height:400px;""></stim_listA>",is being challenged by,,,,,,
null,"<div style=""font-size:60px;"">+</div>",,html-keyboard-response,246,895516,0.0-17.0-0.5,68343,List2A,white,woman,,,,null,,,,,,,,,
null,"<img src=""stim_listA/greet6.gif""style=""height:400px;""></stim_listA>",,html-keyboard-response,247,897519,0.0-17.0-1.5,68343,List2A,white,woman,,,,null,,,,,,,,,
null,is being greeted by,,html-keyboard-response,248,899522,0.0-17.0-2.5,68343,List2A,white,woman,,,,null,,,,,,,,,
6547,,,survey-text,249,906074,0.0-17.0-3.5,68343,List2A,white,woman,,,,,"{""Q0"":""mike is being greeted by luke""}","<img src=""stim_listA/greet6.gif""style=""height:400px;""></stim_listA>",is being greeted by,,,,,,
null,"<div style=""font-size:60px;"">+</div>",,html-keyboard-response,250,906577,0.0-17.0-0.6,68343,List2A,white,woman,,,,null,,,,,,,,,
null,"<img src=""stim_listA/challenge4.gif""style=""height:400px;""></stim_listA>",,html-keyboard-response,251,908579,0.0-17.0-1.6,68343,List2A,white,woman,,,,null,,,,,,,,,
null,is being challenged by,,html-keyboard-response,252,910582,0.0-17.0-2.6,68343,List2A,white,woman,,,,null,,,,,,,,,
8485,,,survey-text,253,919072,0.0-17.0-3.6,68343,List2A,white,woman,,,,,"{""Q0"":""fred is being challenged by kate""}","<img src=""stim_listA/challenge4.gif""style=""height:400px;""></stim_listA>",is being challenged by,,,,,,
null,"<div style=""font-size:60px;"">+</div>",,html-keyboard-response,254,919574,0.0-17.0-0.7,68343,List2A,white,woman,,,,null,,,,,,,,,
null,"<img src=""stim_listA/touch4.gif""style=""height:400px;""></stim_listA>",,html-keyboard-response,255,921579,0.0-17.0-1.7,68343,List2A,white,woman,,,,null,,,,,,,,,
null,is being touched by,,html-keyboard-response,256,923582,0.0-17.0-2.7,68343,List2A,white,woman,,,,null,,,,,,,,,
5417,,,survey-text,257,929004,0.0-17.0-3.7,68343,List2A,white,woman,,,,,"{""Q0"":""fred is being touched by beth""}","<img src=""stim_listA/touch4.gif""style=""height:400px;""></stim_listA>",is being touched by,,,,,,
null,"<div style=""font-size:60px;"">+</div>",,html-keyboard-response,258,929506,0.0-17.0-0.8,68343,List2A,white,woman,,,,null,,,,,,,,,
null,"<img src=""stim_listA/look2.gif""style=""height:400px;""></stim_listA>",,html-keyboard-response,259,931509,0.0-17.0-1.8,68343,List2A,white,woman,,,,null,,,,,,,,,
null,is being looked at by,,html-keyboard-response,260,933511,0.0-17.0-2.8,68343,List2A,white,woman,,,,null,,,,,,,,,
6047,,,survey-text,261,939564,0.0-17.0-3.8,68343,List2A,white,woman,,,,,"{""Q0"":""Jane is being looked at by dave""}","<img src=""stim_listA/look2.gif""style=""height:400px;""></stim_listA>",is being looked at by,,,,,,
null,"<div style=""font-size:60px;"">+</div>",,html-keyboard-response,262,940067,0.0-17.0-0.9,68343,List2A,white,woman,,,,null,,,,,,,,,
null,"<img src=""stim_listA/look6.gif""style=""height:400px;""></stim_listA>",,html-keyboard-response,263,942069,0.0-17.0-1.9,68343,List2A,white,woman,,,,null,,,,,,,,,
null,is being looked at by,,html-keyboard-response,264,944072,0.0-17.0-2.9,68343,List2A,white,woman,,,,null,,,,,,,,,
6407,,,survey-text,265,950483,0.0-17.0-3.9,68343,List2A,white,woman,,,,,"{""Q0"":""Dave is being looked at by mike""}","<img src=""stim_listA/look6.gif""style=""height:400px;""></stim_listA>",is being looked at by,,,,,,
null,"<div style=""font-size:60px;"">+</div>",,html-keyboard-response,266,950985,0.0-17.0-0.10,68343,List2A,white,woman,,,,null,,,,,,,,,
null,"<img src=""stim_listA/shout7.gif""style=""height:400px;""></stim_listA>",,html-keyboard-response,267,952988,0.0-17.0-1.10,68343,List2A,white,woman,,,,null,,,,,,,,,
null,is shouting at,,html-keyboard-response,268,954990,0.0-17.0-2.10,68343,List2A,white,woman,,,,null,,,,,,,,,
4971,,,survey-text,269,959967,0.0-17.0-3.10,68343,List2A,white,woman,,,,,"{""Q0"":""Beth is shouting at ruth""}","<img src=""stim_listA/shout7.gif""style=""height:400px;""></stim_listA>",is shouting at,,,,,,
null,"<div style=""font-size:60px;"">+</div>",,html-keyboard-response,270,960470,0.0-17.0-0.11,68343,List2A,white,woman,,,,null,,,,,,,,,
null,"<img src=""stim_listA/seduce1.gif""style=""height:400px;""></stim_listA>",,html-keyboard-response,271,962473,0.0-17.0-1.11,68343,List2A,white,woman,,,,null,,,,,,,,,
null,is seducing,,html-keyboard-response,272,964475,0.0-17.0-2.11,68343,List2A,white,woman,,,,null,,,,,,,,,
4556,,,survey-text,273,969035,0.0-17.0-3.11,68343,List2A,white,woman,,,,,"{""Q0"":""Jane is seducing luke""}","<img src=""stim_listA/seduce1.gif""style=""height:400px;""></stim_listA>",is seducing,,,,,,
null,"<div style=""font-size:60px;"">+</div>",,html-keyboard-response,274,969536,0.0-17.0-0.12,68343,List2A,white,woman,,,,null,,,,,,,,,
null,"<img src=""stim_listA/shout6.gif""style=""height:400px;""></stim_listA>",,html-keyboard-response,275,971538,0.0-17.0-1.12,68343,List2A,white,woman,,,,null,,,,,,,,,
null,is being shouted at by,,html-keyboard-response,276,973541,0.0-17.0-2.12,68343,List2A,white,woman,,,,null,,,,,,,,,
5014,,,survey-text,277,978560,0.0-17.0-3.12,68343,List2A,white,woman,,,,,"{""Q0"":""Dave is being shouted at by mike""}","<img src=""stim_listA/shout6.gif""style=""height:400px;""></stim_listA>",is being shouted at by,,,,,,
null,"<div style=""font-size:60px;"">+</div>",,html-keyboard-response,278,979063,0.0-17.0-0.13,68343,List2A,white,woman,,,,null,,,,,,,,,
null,"<img src=""stim_listA/seduce7.gif""style=""height:400px;""></stim_listA>",,html-keyboard-response,279,981065,0.0-17.0-1.13,68343,List2A,white,woman,,,,null,,,,,,,,,
null,is seducing,,html-keyboard-response,280,983067,0.0-17.0-2.13,68343,List2A,white,woman,,,,null,,,,,,,,,
4886,,,survey-text,281,987957,0.0-17.0-3.13,68343,List2A,white,woman,,,,,"{""Q0"":""Kate is seducing ruth""}","<img src=""stim_listA/seduce7.gif""style=""height:400px;""></stim_listA>",is seducing,,,,,,
null,"<div style=""font-size:60px;"">+</div>",,html-keyboard-response,282,988460,0.0-17.0-0.14,68343,List2A,white,woman,,,,null,,,,,,,,,
null,"<img src=""stim_listA/oppose8.gif""style=""height:400px;""></stim_listA>",,html-keyboard-response,283,990463,0.0-17.0-1.14,68343,List2A,white,woman,,,,null,,,,,,,,,
null,is being opposed by,,html-keyboard-response,284,992464,0.0-17.0-2.14,68343,List2A,white,woman,,,,null,,,,,,,,,
7138,,,survey-text,285,999606,0.0-17.0-3.14,68343,List2A,white,woman,,,,,"{""Q0"":""beth is being opposed by ruth""}","<img src=""stim_listA/oppose8.gif""style=""height:400px;""></stim_listA>",is being opposed by,,,,,,
null,"<div style=""font-size:60px;"">+</div>",,html-keyboard-response,286,1000108,0.0-17.0-0.15,68343,List2A,white,woman,,,,null,,,,,,,,,
null,"<img src=""stim_listA/kiss5.gif""style=""height:400px;""></stim_listA>",,html-keyboard-response,287,1002111,0.0-17.0-1.15,68343,List2A,white,woman,,,,null,,,,,,,,,
null,is kissing,,html-keyboard-response,288,1004116,0.0-17.0-2.15,68343,List2A,white,woman,,,,null,,,,,,,,,
2700,,,survey-text,289,1006819,0.0-17.0-3.15,68343,List2A,white,woman,,,,,"{""Q0"":""mike is kissing fred""}","<img src=""stim_listA/kiss5.gif""style=""height:400px;""></stim_listA>",is kissing,,,,,,
null,"<div style=""font-size:60px;"">+</div>",,html-keyboard-response,290,1007321,0.0-17.0-0.16,68343,List2A,white,woman,,,,null,,,,,,,,,
null,"<img src=""stim_listA/seduce5.gif""style=""height:400px;""></stim_listA>",,html-keyboard-response,291,1009322,0.0-17.0-1.16,68343,List2A,white,woman,,,,null,,,,,,,,,
null,is seducing,,html-keyboard-response,292,1011324,0.0-17.0-2.16,68343,List2A,white,woman,,,,null,,,,,,,,,
6102,,,survey-text,293,1017430,0.0-17.0-3.16,68343,List2A,white,woman,,,,,"{""Q0"":""Luke is seducing mike""}","<img src=""stim_listA/seduce5.gif""style=""height:400px;""></stim_listA>",is seducing,,,,,,
null,"<div style=""font-size:60px;"">+</div>",,html-keyboard-response,294,1017931,0.0-17.0-0.17,68343,List2A,white,woman,,,,null,,,,,,,,,
null,"<img src=""stim_listA/shout4.gif""style=""height:400px;""></stim_listA>",,html-keyboard-response,295,1019933,0.0-17.0-1.17,68343,List2A,white,woman,,,,null,,,,,,,,,
null,is being shouted at by,,html-keyboard-response,296,1021936,0.0-17.0-2.17,68343,List2A,white,woman,,,,null,,,,,,,,,
4854,,,survey-text,297,1026794,0.0-17.0-3.17,68343,List2A,white,woman,,,,,"{""Q0"":""Kate is being shouted at by mike""}","<img src=""stim_listA/shout4.gif""style=""height:400px;""></stim_listA>",is being shouted at by,,,,,,
null,"<div style=""font-size:60px;"">+</div>",,html-keyboard-response,298,1027297,0.0-17.0-0.18,68343,List2A,white,woman,,,,null,,,,,,,,,
null,"<img src=""stim_listA/oppose7.gif""style=""height:400px;""></stim_listA>",,html-keyboard-response,299,1029299,0.0-17.0-1.18,68343,List2A,white,woman,,,,null,,,,,,,,,
null,is opposing,,html-keyboard-response,300,1031300,0.0-17.0-2.18,68343,List2A,white,woman,,,,null,,,,,,,,,
5542,,,survey-text,301,1036847,0.0-17.0-3.18,68343,List2A,white,woman,,,,,"{""Q0"":""Kate is opposing jane""}","<img src=""stim_listA/oppose7.gif""style=""height:400px;""></stim_listA>",is opposing,,,,,,
null,"<div style=""font-size:60px;"">+</div>",,html-keyboard-response,302,1037349,0.0-17.0-0.19,68343,List2A,white,woman,,,,null,,,,,,,,,
null,"<img src=""stim_listA/challenge1.gif""style=""height:400px;""></stim_listA>",,html-keyboard-response,303,1039351,0.0-17.0-1.19,68343,List2A,white,woman,,,,null,,,,,,,,,
null,is challenging,,html-keyboard-response,304,1041356,0.0-17.0-2.19,68343,List2A,white,woman,,,,null,,,,,,,,,
7109,,,survey-text,305,1048470,0.0-17.0-3.19,68343,List2A,white,woman,,,,,"{""Q0"":""ruth is challenging kate""}","<img src=""stim_listA/challenge1.gif""style=""height:400px;""></stim_listA>",is challenging,,,,,,
2002,"<img src='img/portrait_matrix_list2.jpg' style='width:900px;height:500px;''></img><p>If you have memorised all the portraits and names and are ready to start, press Continue.</p><p><strong>Please note: Your memory of these faces will be tested 4 times during this experiment.</strong></p>",0,html-button-response,306,1050473,0.0-18.0-0.0,68343,List2A,white,woman,,,,,,,,,,,,,
5889,"<img src=""portrait/WM1.jpg""style=""height:400px;""></img>",6,html-button-response,307,1057365,0.0-18.0-1.0,68343,List2A,white,woman,,TRUE,6,,,,,,,,,,
null,CORRECT,,html-keyboard-response,308,1058868,0.0-18.0-2.0-0.0,68343,List2A,white,woman,,,,null,,,,,,,,,
2551,"<img src=""portrait/WW1.jpg""style=""height:400px;""></img>",1,html-button-response,309,1061420,0.0-18.0-4.0,68343,List2A,white,woman,,TRUE,1,,,,,,,,,,
null,CORRECT,,html-keyboard-response,310,1062921,0.0-18.0-5.0-0.0,68343,List2A,white,woman,,,,null,,,,,,,,,
2209,"<img src=""portrait/BW2.jpg""style=""height:400px;""></img>",2,html-button-response,311,1065131,0.0-18.0-7.0,68343,List2A,white,woman,,TRUE,2,,,,,,,,,,
null,CORRECT,,html-keyboard-response,312,1066637,0.0-18.0-8.0-0.0,68343,List2A,white,woman,,,,null,,,,,,,,,
3213,"<img src=""portrait/BW1.jpg""style=""height:400px;""></img>",0,html-button-response,313,1069852,0.0-18.0-10.0,68343,List2A,white,woman,,TRUE,0,,,,,,,,,,
null,CORRECT,,html-keyboard-response,314,1071356,0.0-18.0-11.0-0.0,68343,List2A,white,woman,,,,null,,,,,,,,,
5658,"<img src=""portrait/BM2.jpg""style=""height:400px;""></img>",5,html-button-response,315,1077016,0.0-18.0-13.0,68343,List2A,white,woman,,TRUE,5,,,,,,,,,,
null,CORRECT,,html-keyboard-response,316,1078519,0.0-18.0-14.0-0.0,68343,List2A,white,woman,,,,null,,,,,,,,,
8641,"<img src=""portrait/WM2.jpg""style=""height:400px;""></img>",7,html-button-response,317,1087162,0.0-18.0-16.0,68343,List2A,white,woman,,TRUE,7,,,,,,,,,,
null,CORRECT,,html-keyboard-response,318,1088665,0.0-18.0-17.0-0.0,68343,List2A,white,woman,,,,null,,,,,,,,,
2551,"<img src=""portrait/WW2.jpg""style=""height:400px;""></img>",3,html-button-response,319,1091219,0.0-18.0-19.0,68343,List2A,white,woman,,TRUE,3,,,,,,,,,,
null,CORRECT,,html-keyboard-response,320,1092722,0.0-18.0-20.0-0.0,68343,List2A,white,woman,,,,null,,,,,,,,,
3263,"<img src=""portrait/BM1.jpg""style=""height:400px;""></img>",4,html-button-response,321,1095986,0.0-18.0-22.0,68343,List2A,white,woman,,TRUE,4,,,,,,,,,,
null,CORRECT,,html-keyboard-response,322,1097490,0.0-18.0-23.0-0.0,68343,List2A,white,woman,,,,null,,,,,,,,,
3141,<p>You got 8 out of 8 right first time. Press Continue.</p>,0,html-button-response,323,1100632,0.0-18.0-25.0,68343,List2A,white,woman,,,,,,,,,,,,,
null,"<div style=""font-size:60px;"">+</div>",,html-keyboard-response,324,1102137,0.0-19.0-0.0,68343,List2A,white,woman,,,,null,,,,,,,,,
null,"<img src=""stim_listA/challenge8.gif""style=""height:400px;""></stim_listA>",,html-keyboard-response,325,1104139,0.0-19.0-1.0,68343,List2A,white,woman,,,,null,,,,,,,,,
null,is being challenged by,,html-keyboard-response,326,1106141,0.0-19.0-2.0,68343,List2A,white,woman,,,,null,,,,,,,,,
7341,,,survey-text,327,1113487,0.0-19.0-3.0,68343,List2A,white,woman,,,,,"{""Q0"":""ruth is being challenged by kate""}","<img src=""stim_listA/challenge8.gif""style=""height:400px;""></stim_listA>",is being challenged by,,,,,,
null,"<div style=""font-size:60px;"">+</div>",,html-keyboard-response,328,1113989,0.0-19.0-0.1,68343,List2A,white,woman,,,,null,,,,,,,,,
null,"<img src=""stim_listA/shout8.gif""style=""height:400px;""></stim_listA>",,html-keyboard-response,329,1115992,0.0-19.0-1.1,68343,List2A,white,woman,,,,null,,,,,,,,,
null,is being shouted at by,,html-keyboard-response,330,1117995,0.0-19.0-2.1,68343,List2A,white,woman,,,,null,,,,,,,,,
12330,,,survey-text,331,1130332,0.0-19.0-3.1,68343,List2A,white,woman,,,,,"{""Q0"":""Jane is being shouted at by kate""}","<img src=""stim_listA/shout8.gif""style=""height:400px;""></stim_listA>",is being shouted at by,,,,,,
null,"<div style=""font-size:60px;"">+</div>",,html-keyboard-response,332,1130835,0.0-19.0-0.2,68343,List2A,white,woman,,,,null,,,,,,,,,
null,"<img src=""stim_listA/touch8.gif""style=""height:400px;""></stim_listA>",,html-keyboard-response,333,1132837,0.0-19.0-1.2,68343,List2A,white,woman,,,,null,,,,,,,,,
null,is being touched by,,html-keyboard-response,334,1134840,0.0-19.0-2.2,68343,List2A,white,woman,,,,null,,,,,,,,,
5758,,,survey-text,335,1140603,0.0-19.0-3.2,68343,List2A,white,woman,,,,,"{""Q0"":""ruth is being touched by beth""}","<img src=""stim_listA/touch8.gif""style=""height:400px;""></stim_listA>",is being touched by,,,,,,
null,"<div style=""font-size:60px;"">+</div>",,html-keyboard-response,336,1141106,0.0-19.0-0.3,68343,List2A,white,woman,,,,null,,,,,,,,,
null,"<img src=""stim_listA/greet8.gif""style=""height:400px;""></stim_listA>",,html-keyboard-response,337,1143108,0.0-19.0-1.3,68343,List2A,white,woman,,,,null,,,,,,,,,
null,is being greeted by,,html-keyboard-response,338,1145111,0.0-19.0-2.3,68343,List2A,white,woman,,,,null,,,,,,,,,
21131,,,survey-text,339,1166246,0.0-19.0-3.3,68343,List2A,white,woman,,,,,"{""Q0"":""ruth is being greeted by kate""}","<img src=""stim_listA/greet8.gif""style=""height:400px;""></stim_listA>",is being greeted by,,,,,,
null,"<div style=""font-size:60px;"">+</div>",,html-keyboard-response,340,1166749,0.0-19.0-0.4,68343,List2A,white,woman,,,,null,,,,,,,,,
null,"<img src=""stim_listA/greet2.gif""style=""height:400px;""></stim_listA>",,html-keyboard-response,341,1168751,0.0-19.0-1.4,68343,List2A,white,woman,,,,null,,,,,,,,,
null,is being greeted by,,html-keyboard-response,342,1170754,0.0-19.0-2.4,68343,List2A,white,woman,,,,null,,,,,,,,,
8090,,,survey-text,343,1178849,0.0-19.0-3.4,68343,List2A,white,woman,,,,,"{""Q0"":""Luke is being greeted by jane""}","<img src=""stim_listA/greet2.gif""style=""height:400px;""></stim_listA>",is being greeted by,,,,,,
null,"<div style=""font-size:60px;"">+</div>",,html-keyboard-response,344,1179352,0.0-19.0-0.5,68343,List2A,white,woman,,,,null,,,,,,,,,
null,"<img src=""stim_listA/oppose1.gif""style=""height:400px;""></stim_listA>",,html-keyboard-response,345,1181354,0.0-19.0-1.5,68343,List2A,white,woman,,,,null,,,,,,,,,
null,is opposing,,html-keyboard-response,346,1183356,0.0-19.0-2.5,68343,List2A,white,woman,,,,null,,,,,,,,,
4458,,,survey-text,347,1187819,0.0-19.0-3.5,68343,List2A,white,woman,,,,,"{""Q0"":""Jane is opposing dave""}","<img src=""stim_listA/oppose1.gif""style=""height:400px;""></stim_listA>",is opposing,,,,,,
null,"<div style=""font-size:60px;"">+</div>",,html-keyboard-response,348,1188321,0.0-19.0-0.6,68343,List2A,white,woman,,,,null,,,,,,,,,
null,"<img src=""stim_listA/look7.gif""style=""height:400px;""></stim_listA>",,html-keyboard-response,349,1190324,0.0-19.0-1.6,68343,List2A,white,woman,,,,null,,,,,,,,,
null,is looking at,,html-keyboard-response,350,1192325,0.0-19.0-2.6,68343,List2A,white,woman,,,,null,,,,,,,,,
6450,,,survey-text,351,1198783,0.0-19.0-3.6,68343,List2A,white,woman,,,,,"{""Q0"":""beth is looking at ruth""}","<img src=""stim_listA/look7.gif""style=""height:400px;""></stim_listA>",is looking at,,,,,,
null,"<div style=""font-size:60px;"">+</div>",,html-keyboard-response,352,1199286,0.0-19.0-0.7,68343,List2A,white,woman,,,,null,,,,,,,,,
null,"<img src=""stim_listA/challenge3.gif""style=""height:400px;""></stim_listA>",,html-keyboard-response,353,1201288,0.0-19.0-1.7,68343,List2A,white,woman,,,,null,,,,,,,,,
null,is challenging,,html-keyboard-response,354,1203290,0.0-19.0-2.7,68343,List2A,white,woman,,,,null,,,,,,,,,
18359,,,survey-text,355,1221654,0.0-19.0-3.7,68343,List2A,white,woman,,,,,"{""Q0"":""beth is challenging mike""}","<img src=""stim_listA/challenge3.gif""style=""height:400px;""></stim_listA>",is challenging,,,,,,
null,"<div style=""font-size:60px;"">+</div>",,html-keyboard-response,356,1222156,0.0-19.0-0.8,68343,List2A,white,woman,,,,null,,,,,,,,,
null,"<img src=""stim_listA/shout3.gif""style=""height:400px;""></stim_listA>",,html-keyboard-response,357,1224159,0.0-19.0-1.8,68343,List2A,white,woman,,,,null,,,,,,,,,
null,is shouting at,,html-keyboard-response,358,1226161,0.0-19.0-2.8,68343,List2A,white,woman,,,,null,,,,,,,,,
4349,,,survey-text,359,1230514,0.0-19.0-3.8,68343,List2A,white,woman,,,,,"{""Q0"":""beth is shouting at fred""}","<img src=""stim_listA/shout3.gif""style=""height:400px;""></stim_listA>",is shouting at,,,,,,
null,"<div style=""font-size:60px;"">+</div>",,html-keyboard-response,360,1231017,0.0-19.0-0.9,68343,List2A,white,woman,,,,null,,,,,,,,,
null,"<img src=""stim_listA/hug8.gif""style=""height:400px;""></stim_listA>",,html-keyboard-response,361,1233019,0.0-19.0-1.9,68343,List2A,white,woman,,,,null,,,,,,,,,
null,is being hugged by,,html-keyboard-response,362,1235022,0.0-19.0-2.9,68343,List2A,white,woman,,,,null,,,,,,,,,
5896,,,survey-text,363,1240924,0.0-19.0-3.9,68343,List2A,white,woman,,,,,"{""Q0"":""Jane is being hugged by kate""}","<img src=""stim_listA/hug8.gif""style=""height:400px;""></stim_listA>",is being hugged by,,,,,,
null,"<div style=""font-size:60px;"">+</div>",,html-keyboard-response,364,1241426,0.0-19.0-0.10,68343,List2A,white,woman,,,,null,,,,,,,,,
null,"<img src=""stim_listA/touch2.gif""style=""height:400px;""></stim_listA>",,html-keyboard-response,365,1243429,0.0-19.0-1.10,68343,List2A,white,woman,,,,null,,,,,,,,,
null,is being touched by,,html-keyboard-response,366,1245432,0.0-19.0-2.10,68343,List2A,white,woman,,,,null,,,,,,,,,
6801,,,survey-text,367,1252237,0.0-19.0-3.10,68343,List2A,white,woman,,,,,"{""Q0"":""Luke is being touched by ruth""}","<img src=""stim_listA/touch2.gif""style=""height:400px;""></stim_listA>",is being touched by,,,,,,
null,"<div style=""font-size:60px;"">+</div>",,html-keyboard-response,368,1252738,0.0-19.0-0.11,68343,List2A,white,woman,,,,null,,,,,,,,,
null,"<img src=""stim_listA/copy3.gif""style=""height:400px;""></stim_listA>",,html-keyboard-response,369,1254741,0.0-19.0-1.11,68343,List2A,white,woman,,,,null,,,,,,,,,
null,is copying,,html-keyboard-response,370,1256743,0.0-19.0-2.11,68343,List2A,white,woman,,,,null,,,,,,,,,
2848,,,survey-text,371,1259596,0.0-19.0-3.11,68343,List2A,white,woman,,,,,"{""Q0"":""beth is copying mike""}","<img src=""stim_listA/copy3.gif""style=""height:400px;""></stim_listA>",is copying,,,,,,
null,"<div style=""font-size:60px;"">+</div>",,html-keyboard-response,372,1260099,0.0-19.0-0.12,68343,List2A,white,woman,,,,null,,,,,,,,,
null,"<img src=""stim_listA/hug6.gif""style=""height:400px;""></stim_listA>",,html-keyboard-response,373,1262101,0.0-19.0-1.12,68343,List2A,white,woman,,,,null,,,,,,,,,
null,is being hugged by,,html-keyboard-response,374,1264103,0.0-19.0-2.12,68343,List2A,white,woman,,,,null,,,,,,,,,
5503,,,survey-text,375,1269612,0.0-19.0-3.12,68343,List2A,white,woman,,,,,"{""Q0"":""mike is being hugged by dave""}","<img src=""stim_listA/hug6.gif""style=""height:400px;""></stim_listA>",is being hugged by,,,,,,
null,"<div style=""font-size:60px;"">+</div>",,html-keyboard-response,376,1270115,0.0-19.0-0.13,68343,List2A,white,woman,,,,null,,,,,,,,,
null,"<img src=""stim_listA/seduce2.gif""style=""height:400px;""></stim_listA>",,html-keyboard-response,377,1272118,0.0-19.0-1.13,68343,List2A,white,woman,,,,null,,,,,,,,,
null,is being seduced by,,html-keyboard-response,378,1274120,0.0-19.0-2.13,68343,List2A,white,woman,,,,null,,,,,,,,,
5452,,,survey-text,379,1279577,0.0-19.0-3.13,68343,List2A,white,woman,,,,,"{""Q0"":""ruth is being seduced by dave""}","<img src=""stim_listA/seduce2.gif""style=""height:400px;""></stim_listA>",is being seduced by,,,,,,
null,"<div style=""font-size:60px;"">+</div>",,html-keyboard-response,380,1280079,0.0-19.0-0.14,68343,List2A,white,woman,,,,null,,,,,,,,,
null,"<img src=""stim_listA/hug7.gif""style=""height:400px;""></stim_listA>",,html-keyboard-response,381,1282082,0.0-19.0-1.14,68343,List2A,white,woman,,,,null,,,,,,,,,
null,is hugging,,html-keyboard-response,382,1284086,0.0-19.0-2.14,68343,List2A,white,woman,,,,null,,,,,,,,,
3940,,,survey-text,383,1288031,0.0-19.0-3.14,68343,List2A,white,woman,,,,,"{""Q0"":""ruth is hugging beth""}","<img src=""stim_listA/hug7.gif""style=""height:400px;""></stim_listA>",is hugging,,,,,,
null,"<div style=""font-size:60px;"">+</div>",,html-keyboard-response,384,1288532,0.0-19.0-0.15,68343,List2A,white,woman,,,,null,,,,,,,,,
null,"<img src=""stim_listA/oppose2.gif""style=""height:400px;""></stim_listA>",,html-keyboard-response,385,1290535,0.0-19.0-1.15,68343,List2A,white,woman,,,,null,,,,,,,,,
null,is being opposed by,,html-keyboard-response,386,1292537,0.0-19.0-2.15,68343,List2A,white,woman,,,,null,,,,,,,,,
5242,,,survey-text,387,1297785,0.0-19.0-3.15,68343,List2A,white,woman,,,,,"{""Q0"":""Luke is being opposed by ruth""}","<img src=""stim_listA/oppose2.gif""style=""height:400px;""></stim_listA>",is being opposed by,,,,,,
null,"<div style=""font-size:60px;"">+</div>",,html-keyboard-response,388,1298287,0.0-19.0-0.16,68343,List2A,white,woman,,,,null,,,,,,,,,
null,"<img src=""stim_listA/look4.gif""style=""height:400px;""></stim_listA>",,html-keyboard-response,389,1300289,0.0-19.0-1.16,68343,List2A,white,woman,,,,null,,,,,,,,,
null,is being looked at by,,html-keyboard-response,390,1302292,0.0-19.0-2.16,68343,List2A,white,woman,,,,null,,,,,,,,,
6622,,,survey-text,391,1308919,0.0-19.0-3.16,68343,List2A,white,woman,,,,,"{""Q0"":""Kate is being looked at by mike""}","<img src=""stim_listA/look4.gif""style=""height:400px;""></stim_listA>",is being looked at by,,,,,,
null,"<div style=""font-size:60px;"">+</div>",,html-keyboard-response,392,1309420,0.0-19.0-0.17,68343,List2A,white,woman,,,,null,,,,,,,,,
null,"<img src=""stim_listA/kiss2.gif""style=""height:400px;""></stim_listA>",,html-keyboard-response,393,1311423,0.0-19.0-1.17,68343,List2A,white,woman,,,,null,,,,,,,,,
null,is being kissed by,,html-keyboard-response,394,1313425,0.0-19.0-2.17,68343,List2A,white,woman,,,,null,,,,,,,,,
5037,,,survey-text,395,1318467,0.0-19.0-3.17,68343,List2A,white,woman,,,,,"{""Q0"":""Jane is being kissed by dave""}","<img src=""stim_listA/kiss2.gif""style=""height:400px;""></stim_listA>",is being kissed by,,,,,,
null,"<div style=""font-size:60px;"">+</div>",,html-keyboard-response,396,1318970,0.0-19.0-0.18,68343,List2A,white,woman,,,,null,,,,,,,,,
null,"<img src=""stim_listA/greet1.gif""style=""height:400px;""></stim_listA>",,html-keyboard-response,397,1320974,0.0-19.0-1.18,68343,List2A,white,woman,,,,null,,,,,,,,,
null,is greeting,,html-keyboard-response,398,1322976,0.0-19.0-2.18,68343,List2A,white,woman,,,,null,,,,,,,,,
4198,,,survey-text,399,1327179,0.0-19.0-3.18,68343,List2A,white,woman,,,,,"{""Q0"":""ruth is greeting dave""}","<img src=""stim_listA/greet1.gif""style=""height:400px;""></stim_listA>",is greeting,,,,,,
null,"<div style=""font-size:60px;"">+</div>",,html-keyboard-response,400,1327682,0.0-19.0-0.19,68343,List2A,white,woman,,,,null,,,,,,,,,
null,"<img src=""stim_listA/kiss7.gif""style=""height:400px;""></stim_listA>",,html-keyboard-response,401,1329684,0.0-19.0-1.19,68343,List2A,white,woman,,,,null,,,,,,,,,
null,is kissing,,html-keyboard-response,402,1331686,0.0-19.0-2.19,68343,List2A,white,woman,,,,null,,,,,,,,,
5077,,,survey-text,403,1336768,0.0-19.0-3.19,68343,List2A,white,woman,,,,,"{""Q0"":""beth is kissing ruth""}","<img src=""stim_listA/kiss7.gif""style=""height:400px;""></stim_listA>",is kissing,,,,,,
2768,<p>Thank you for completing that task.</p><p>The final part of this session is a questionnaire that will take about 4 minutes.</p><p>Press Continue.</p>,0,html-button-response,404,1339537,0.0-20.0,68343,List2A,white,woman,,,,,,,,,,,,,
25651,,,survey-text,405,1366202,0.0-21.0,68343,List2A,white,woman,,,,,"{""Q0"":""22"",""Q1"":""english"",""Q2"":""English"",""Q3"":""United States"",""Q4"":""American"",""Q5"":""White"",""Q6"":""female""}",,,demographics,,,,,
1551,<p>Have you lived in the USA for the last 5 years or more?</p>,0,html-button-response,406,1367757,0.0-22.0,68343,List2A,white,woman,,,,,,,,fiveyears,,,,,
2218,<p>Move the slider to show the extent to which you agree with the following statements.</p>,0,html-button-response,407,1370977,0.0-23.0,68343,List2A,white,woman,,,,,,,,,,,,,
4770,,,html-slider-response,408,1376751,0.0-24.0-0.0-0.0,68343,List2A,white,woman,,,,,,,,survey_race,100,,,I am glad to be the age I am.,filler
6200,,,html-slider-response,409,1382953,0.0-24.0-0.0-0.1,68343,List2A,white,woman,,,,,,,,survey_race,15,,,Being my race is an important part of how I see myself.,important
7837,,,html-slider-response,410,1390791,0.0-24.0-0.0-0.2,68343,List2A,white,woman,,,,,,,,survey_race,48,,,I think that my race has a lot to be proud of.,proud
4404,,,html-slider-response,411,1395196,0.0-24.0-0.0-0.3,68343,List2A,white,woman,,,,,,,,survey_race,0,,,I often think about the fact that I am my race.,often
5204,,,html-slider-response,412,1400403,0.0-24.0-0.0-0.4,68343,List2A,white,woman,,,,,,,,survey_race,53,,,I am glad to be my race.,glad
2816,,,html-slider-response,413,1403220,0.0-24.0-0.0-0.5,68343,List2A,white,woman,,,,,,,,survey_race,52,,,It is pleasant to be my race.,pleasant
3294,,,html-slider-response,414,1406516,0.0-24.0-0.0-0.6,68343,List2A,white,woman,,,,,,,,survey_race,73,,,I have a lot in common with the average person of my race.,average
2793,,,html-slider-response,415,1409309,0.0-24.0-0.0-0.7,68343,List2A,white,woman,,,,,,,,survey_race,92,,,I am glad to be my age.,filler
2978,,,html-slider-response,416,1412289,0.0-24.0-0.0-0.8,68343,List2A,white,woman,,,,,,,,survey_race,68,,,I consider myself an extrovert.,filler
3294,,,html-slider-response,417,1415585,0.0-24.0-0.0-0.9,68343,List2A,white,woman,,,,,,,,survey_race,34,,,I often think about the fact that I am my age.,filler
4079,,,html-slider-response,418,1419666,0.0-24.0-0.0-0.10,68343,List2A,white,woman,,,,,,,,survey_race,14,,,The fact that I am my race is an important part of my identity.,identity
4784,,,html-slider-response,419,1424451,0.0-24.0-0.0-0.11,68343,List2A,white,woman,,,,,,,,survey_race,36,,,I enjoy being in large groups.,filler
2792,,,html-slider-response,420,1427244,0.0-24.0-0.0-0.12,68343,List2A,white,woman,,,,,,,,survey_race,79,,,I feel a bond with people the same age as me.,filler
3219,,,html-slider-response,421,1430467,0.0-24.0-0.0-0.13,68343,List2A,white,woman,,,,,,,,survey_race,68,,,People of my race have a lot in common with each other.,common
3521,,,html-slider-response,422,1433988,0.0-24.0-0.0-0.14,68343,List2A,white,woman,,,,,,,,survey_race,81,,,I am similar to the average person of my race.,similar
2826,,,html-slider-response,423,1436815,0.0-24.0-0.0-0.15,68343,List2A,white,woman,,,,,,,,survey_race,77,,,"The older I get, the wiser I feel.",filler
3740,,,html-slider-response,424,1440556,0.0-24.0-0.0-0.16,68343,List2A,white,woman,,,,,,,,survey_race,45,,,I feel committed to my race.,committed
4168,,,html-slider-response,425,1444726,0.0-24.0-0.0-0.17,68343,List2A,white,woman,,,,,,,,survey_race,79,,,People my age have a lot in common with each other.,filler
3822,,,html-slider-response,426,1448549,0.0-24.0-0.0-0.18,68343,List2A,white,woman,,,,,,,,survey_race,51,,,Being my race gives me a good feeling.,feeling
3429,,,html-slider-response,427,1451980,0.0-24.0-0.0-0.19,68343,List2A,white,woman,,,,,,,,survey_race,82,,,I have a lot in common with people of a similar age to me.,filler
2679,,,html-slider-response,428,1454660,0.0-24.0-0.0-0.20,68343,List2A,white,woman,,,,,,,,survey_race,79,,,Being my age gives me a good feeling.,filler
2858,,,html-slider-response,429,1457519,0.0-24.0-0.0-0.21,68343,List2A,white,woman,,,,,,,,survey_race,54,,,I feel solidarity with my race.,solidarity
2760,,,html-slider-response,430,1460280,0.0-24.0-0.0-0.22,68343,List2A,white,woman,,,,,,,,survey_race,40,,,I consider myself an introvert.,filler
4905,,,html-slider-response,431,1465186,0.0-24.0-0.0-0.23,68343,List2A,white,woman,,,,,,,,survey_race,56,,,I feel a bond with my race.,bond
2711,,,html-slider-response,432,1467899,0.0-24.0-0.0-0.24,68343,List2A,white,woman,,,,,,,,survey_race,83,,,I feel solidarity with people the same age as me.,filler
3028,,,html-slider-response,433,1470928,0.0-24.0-0.0-0.25,68343,List2A,white,woman,,,,,,,,survey_race,72,,,Getting older does not worry me.,filler
3810,,,html-slider-response,434,1474740,0.0-24.0-0.0-0.26,68343,List2A,white,woman,,,,,,,,survey_race,45,,,People of my race are very similar to each other.,verysimilar
2792,,,html-slider-response,435,1477533,0.0-24.0-0.0-0.27,68343,List2A,white,woman,,,,,,,,survey_race,55,,,My age is not an important part of who I am.,filler
2566,,,html-slider-response,436,1480100,0.0-24.0-1.0-0.0,68343,List2A,white,woman,,,,,,,,survey_gender,53,,,I consider myself a highly empathetic person.,filler
2443,,,html-slider-response,437,1482544,0.0-24.0-1.0-0.1,68343,List2A,white,woman,,,,,,,,survey_gender,55,,,I feel committed to my gender.,committed
2663,,,html-slider-response,438,1485209,0.0-24.0-1.0-0.2,68343,List2A,white,woman,,,,,,,,survey_gender,68,,,My friends have a lot in common with each other.,filler
3180,,,html-slider-response,439,1488391,0.0-24.0-1.0-0.3,68343,List2A,white,woman,,,,,,,,survey_gender,60,,,I think that my gender has a lot to be proud of.,proud
2921,,,html-slider-response,440,1491313,0.0-24.0-1.0-0.4,68343,List2A,white,woman,,,,,,,,survey_gender,100,,,I have a lot in common with my friends.,filler
13688,,,html-slider-response,441,1505003,0.0-24.0-1.0-0.5,68343,List2A,white,woman,,,,,,,,survey_gender,56,,,The fact that I am my gender is an important part of my identity.,identity
6384,,,html-slider-response,442,1511389,0.0-24.0-1.0-0.6,68343,List2A,white,woman,,,,,,,,survey_gender,53,,,Being my gender gives me a good feeling.,feeling
2337,,,html-slider-response,443,1513729,0.0-24.0-1.0-0.7,68343,List2A,white,woman,,,,,,,,survey_gender,52,,,It is pleasant to be my gender.,pleasant
3684,,,html-slider-response,444,1517414,0.0-24.0-1.0-0.8,68343,List2A,white,woman,,,,,,,,survey_gender,58,,,I am glad to be my gender.,glad
3729,,,html-slider-response,445,1521144,0.0-24.0-1.0-0.9,68343,List2A,white,woman,,,,,,,,survey_gender,81,,,It is not always easy for people to know what I am thinking.,filler
2850,,,html-slider-response,446,1523995,0.0-24.0-1.0-0.10,68343,List2A,white,woman,,,,,,,,survey_gender,80,,,Being around my friends gives me a good feeling.,filler
3667,,,html-slider-response,447,1527663,0.0-24.0-1.0-0.11,68343,List2A,white,woman,,,,,,,,survey_gender,21,,,Routine is not important to me.,filler
3141,,,html-slider-response,448,1530805,0.0-24.0-1.0-0.12,68343,List2A,white,woman,,,,,,,,survey_gender,57,,,Family is not more important to me than friendship.,filler
2712,,,html-slider-response,449,1533518,0.0-24.0-1.0-0.13,68343,List2A,white,woman,,,,,,,,survey_gender,61,,,I often think about my actions.,filler
3172,,,html-slider-response,450,1536692,0.0-24.0-1.0-0.14,68343,List2A,white,woman,,,,,,,,survey_gender,68,,,I feel solidarity with my friends.,filler
3747,,,html-slider-response,451,1540440,0.0-24.0-1.0-0.15,68343,List2A,white,woman,,,,,,,,survey_gender,28,,,People of my gender are very similar to each other.,verysimilar
2710,,,html-slider-response,452,1543152,0.0-24.0-1.0-0.16,68343,List2A,white,woman,,,,,,,,survey_gender,45,,,I feel solidarity with my gender.,solidarity
3854,,,html-slider-response,453,1547007,0.0-24.0-1.0-0.17,68343,List2A,white,woman,,,,,,,,survey_gender,100,,,Most of the friends in my life are very similar to me.,filler
3529,,,html-slider-response,454,1550537,0.0-24.0-1.0-0.18,68343,List2A,white,woman,,,,,,,,survey_gender,37,,,I have a lot in common with the average person of my gender.,average
3473,,,html-slider-response,455,1554011,0.0-24.0-1.0-0.19,68343,List2A,white,woman,,,,,,,,survey_gender,41,,,I am similar to the average person of my gender.,similar
3141,,,html-slider-response,456,1557153,0.0-24.0-1.0-0.20,68343,List2A,white,woman,,,,,,,,survey_gender,37,,,People of my gender have a lot in common with each other.,common
7389,,,html-slider-response,457,1564545,0.0-24.0-1.0-0.21,68343,List2A,white,woman,,,,,,,,survey_gender,59,,,Being my gender is an important part of how I see myself.,important
2377,,,html-slider-response,458,1566925,0.0-24.0-1.0-0.22,68343,List2A,white,woman,,,,,,,,survey_gender,75,,,I feel a bond with my friends.,filler
2963,,,html-slider-response,459,1569889,0.0-24.0-1.0-0.23,68343,List2A,white,woman,,,,,,,,survey_gender,100,,,I would say I am an animal person.,filler
3868,,,html-slider-response,460,1573758,0.0-24.0-1.0-0.24,68343,List2A,white,woman,,,,,,,,survey_gender,30,,,I often think about the fact that I am my gender.,often
2235,,,html-slider-response,461,1575994,0.0-24.0-1.0-0.25,68343,List2A,white,woman,,,,,,,,survey_gender,31,,,I feel a bond with my gender.,bond
2338,,,html-slider-response,462,1578334,0.0-24.0-1.0-0.26,68343,List2A,white,woman,,,,,,,,survey_gender,80,,,I am glad to have the friends that I have.,filler
2299,,,html-slider-response,463,1580634,0.0-24.0-1.0-0.27,68343,List2A,white,woman,,,,,,,,survey_gender,100,,,My friends understand me.,filler
81489,,,survey-text,464,1662133,0.0-25.0,68343,List2A,white,woman,,,,,"{""Q0"":""ccc""}",,,worker_id,,,,,
3196,,,external-html,465,1665962,0.0-26.0,68343,List2A,white,woman,debrief.html,,,,,,,,,,,,
