"rt","stimulus","button_pressed","trial_type","trial_index","time_elapsed","internal_node_id","subject","list","ppt_race","ppt_gender","url","first_guess","correct","key_press","responses","image_type","phrase_type","test_part","response","stimulus1","stimulus2","question_type","survey_item"
"502858.8999999999","Welcome to the experiment. Press Continue to begin.","0","html-button-response","0","502872","0.0-0.0","69071","List2B","black","man","","","","","","","","","","","","",""
"37100.69999999972","","","external-html","1","542752","0.0-1.0","69071","List2B","black","man","consent.html","","","","","","","","","","","",""
"376954.6000000001","<p>On the next page, you will see portraits of 8 people and their names.</p><p>Your first task is to take a few minutes to memorise the names of these people.</p><p>You will have to recall their names during the rest of the experiment, so it is</p><p>essential that you try to memorise these people and their names as best as you can.</p><br><p><strong>You will then be tested on your memory of these names and portraits.</strong></p><br><p>The experiment will start after you have completed this memory test.</p><br><p>Ready?</p>","0","html-button-response","2","919710","0.0-2.0","69071","List2B","black","man","","","","","","","","","","","","",""
"73961.59999999963","<img src='img/portrait_matrix_list2.jpg' style='width:900px;height:500px;''></img><p>If you have memorised all the portraits and names and are ready to start, press Continue.</p><p><strong>Please note: Your memory of these faces will be tested 4 times during this experiment.</strong></p>","0","html-button-response","3","994688","0.0-3.0-0.0","69071","List2B","black","man","","","","","","","","","","","","",""
"7742","<img src=""portrait/WW1.jpg""style=""height:400px;""></img>","1","html-button-response","4","1003436","0.0-3.0-1.0","69071","List2B","black","man","","true","1","","","","","","","","","",""
"null","CORRECT","","html-keyboard-response","5","1004955","0.0-3.0-2.0-0.0","69071","List2B","black","man","","","","null","","","","","","","","",""
"6318.399999999907","<img src=""portrait/BM1.jpg""style=""height:400px;""></img>","4","html-button-response","6","1011276","0.0-3.0-4.0","69071","List2B","black","man","","true","4","","","","","","","","","",""
"null","CORRECT","","html-keyboard-response","7","1012784","0.0-3.0-5.0-0.0","69071","List2B","black","man","","","","null","","","","","","","","",""
"6309.200000000186","<img src=""portrait/BW1.jpg""style=""height:400px;""></img>","0","html-button-response","8","1019095","0.0-3.0-7.0","69071","List2B","black","man","","true","0","","","","","","","","","",""
"null","CORRECT","","html-keyboard-response","9","1020599","0.0-3.0-8.0-0.0","69071","List2B","black","man","","","","null","","","","","","","","",""
"5256.699999999721","<img src=""portrait/WW2.jpg""style=""height:400px;""></img>","3","html-button-response","10","1025859","0.0-3.0-10.0","69071","List2B","black","man","","true","3","","","","","","","","","",""
"null","CORRECT","","html-keyboard-response","11","1027374","0.0-3.0-11.0-0.0","69071","List2B","black","man","","","","null","","","","","","","","",""
"4433.0999999996275","<img src=""portrait/BM2.jpg""style=""height:400px;""></img>","2","html-button-response","12","1031809","0.0-3.0-13.0","69071","List2B","black","man","","true","5","","","","","","","","","",""
"3096.5","<img src=""portrait/BM2.jpg""style=""height:400px;""></img>","5","html-button-response","13","1035910","0.0-3.0-15.0-0.0","69071","List2B","black","man","","false","5","","","","","","","","","",""
"null","CORRECT","","html-keyboard-response","14","1037427","0.0-3.0-15.0-1.0-0.0","69071","List2B","black","man","","","","null","","","","","","","","",""
"7012.200000000186","<img src=""portrait/WM2.jpg""style=""height:400px;""></img>","7","html-button-response","15","1044442","0.0-3.0-16.0","69071","List2B","black","man","","true","7","","","","","","","","","",""
"null","CORRECT","","html-keyboard-response","16","1045954","0.0-3.0-17.0-0.0","69071","List2B","black","man","","","","null","","","","","","","","",""
"5349.800000000279","<img src=""portrait/BW2.jpg""style=""height:400px;""></img>","2","html-button-response","17","1051307","0.0-3.0-19.0","69071","List2B","black","man","","true","2","","","","","","","","","",""
"null","CORRECT","","html-keyboard-response","18","1052823","0.0-3.0-20.0-0.0","69071","List2B","black","man","","","","null","","","","","","","","",""
"11882.799999999814","<img src=""portrait/WM1.jpg""style=""height:400px;""></img>","1","html-button-response","19","1064709","0.0-3.0-22.0","69071","List2B","black","man","","true","6","","","","","","","","","",""
"54988.89999999991","<img src=""portrait/WM1.jpg""style=""height:400px;""></img>","6","html-button-response","20","1120704","0.0-3.0-24.0-0.0","69071","List2B","black","man","","false","6","","","","","","","","","",""
"null","CORRECT","","html-keyboard-response","21","1122221","0.0-3.0-24.0-1.0-0.0","69071","List2B","black","man","","","","null","","","","","","","","",""
"3719.2999999998137","<p>You got 6 out of 8 right first time. Press Continue.</p>","0","html-button-response","22","1125943","0.0-3.0-25.0","69071","List2B","black","man","","","","","","","","","","","","",""
"6172.399999999907","As you did not score 100%, the memory game will repeat. Press Continue.","0","html-button-response","23","1133123","0.0-3.0-26.0-0.0","69071","List2B","black","man","","","","","","","","","","","","",""
"38010.200000000186","<img src='img/portrait_matrix_list2.jpg' style='width:900px;height:500px;''></img><p>If you have memorised all the portraits and names and are ready to start, press Continue.</p><p><strong>Please note: Your memory of these faces will be tested 4 times during this experiment.</strong></p>","0","html-button-response","24","1172150","0.0-3.1-0.1","69071","List2B","black","man","","","","","","","","","","","","",""
"5592.800000000279","<img src=""portrait/WW1.jpg""style=""height:400px;""></img>","1","html-button-response","25","1178759","0.0-3.1-1.1","69071","List2B","black","man","","true","1","","","","","","","","","",""
"null","CORRECT","","html-keyboard-response","26","1180273","0.0-3.1-2.1-0.1","69071","List2B","black","man","","","","null","","","","","","","","",""
"2383.5","<img src=""portrait/BM1.jpg""style=""height:400px;""></img>","4","html-button-response","27","1182659","0.0-3.1-4.1","69071","List2B","black","man","","true","4","","","","","","","","","",""
"null","CORRECT","","html-keyboard-response","28","1184181","0.0-3.1-5.1-0.1","69071","List2B","black","man","","","","null","","","","","","","","",""
"5298.399999999907","<img src=""portrait/BW1.jpg""style=""height:400px;""></img>","0","html-button-response","29","1189483","0.0-3.1-7.1","69071","List2B","black","man","","true","0","","","","","","","","","",""
"null","CORRECT","","html-keyboard-response","30","1191004","0.0-3.1-8.1-0.1","69071","List2B","black","man","","","","null","","","","","","","","",""
"3382.5","<img src=""portrait/WW2.jpg""style=""height:400px;""></img>","3","html-button-response","31","1194390","0.0-3.1-10.1","69071","List2B","black","man","","true","3","","","","","","","","","",""
"null","CORRECT","","html-keyboard-response","32","1195905","0.0-3.1-11.1-0.1","69071","List2B","black","man","","","","null","","","","","","","","",""
"4409","<img src=""portrait/BM2.jpg""style=""height:400px;""></img>","5","html-button-response","33","1200318","0.0-3.1-13.1","69071","List2B","black","man","","true","5","","","","","","","","","",""
"null","CORRECT","","html-keyboard-response","34","1201834","0.0-3.1-14.1-0.1","69071","List2B","black","man","","","","null","","","","","","","","",""
"4321.699999999721","<img src=""portrait/WM2.jpg""style=""height:400px;""></img>","7","html-button-response","35","1206159","0.0-3.1-16.1","69071","List2B","black","man","","true","7","","","","","","","","","",""
"null","CORRECT","","html-keyboard-response","36","1207663","0.0-3.1-17.1-0.1","69071","List2B","black","man","","","","null","","","","","","","","",""
"4786.200000000186","<img src=""portrait/BW2.jpg""style=""height:400px;""></img>","2","html-button-response","37","1212452","0.0-3.1-19.1","69071","List2B","black","man","","true","2","","","","","","","","","",""
"null","CORRECT","","html-keyboard-response","38","1213966","0.0-3.1-20.1-0.1","69071","List2B","black","man","","","","null","","","","","","","","",""
"5358.9000000003725","<img src=""portrait/WM1.jpg""style=""height:400px;""></img>","6","html-button-response","39","1219327","0.0-3.1-22.1","69071","List2B","black","man","","true","6","","","","","","","","","",""
"null","CORRECT","","html-keyboard-response","40","1220837","0.0-3.1-23.1-0.1","69071","List2B","black","man","","","","null","","","","","","","","",""
"2590.5","<p>You got 8 out of 8 right first time. Press Continue.</p>","0","html-button-response","41","1223430","0.0-3.1-25.1","69071","List2B","black","man","","","","","","","","","","","","",""
"109586.6000000001","<p>In this experiment, you will view photographs of the people from the memory game interacting.</p><p>By using the <strong>exact</strong> phrase given <i>after</i> the photograph appears and recalling the correct names of the people in the photographs, form a sentence describing the interaction. You do not need to capitalise names.</p><p>Type your answer in the space provided. Please complete every sentence before moving onto the next trial.</p><p>You will only have a few seconds to memorise each given photograph and phrase before you can respond, so try your best to focus.</p><p>An example is given below. Press 'Continue' when you are ready.</p><img src='img/speaking_example.jpg' style='width:800px;height:460px;''></img>","0","html-button-response","42","1334030","0.0-4.0","69071","List2B","black","man","","","","","","","","","","","","",""
"2350.2999999998137","<p>Before the experiment starts, you will watch two example trials. Press 'Continue'.</p>","0","html-button-response","43","1337386","0.0-5.0","69071","List2B","black","man","","","","","","","","","","","","",""
"null","<img src='img/play_eg.gif' style='height:400px;''></img>","","html-keyboard-response","44","1340394","0.0-6.0","69071","List2B","black","man","","","","null","","","","","","","","",""
"null","<p>is playing with</p>","","html-keyboard-response","45","1342403","0.0-7.0","69071","List2B","black","man","","","","null","","","","","","","","",""
"2060.399999999907","<p><b>Answer:</b> jane is playing with ruth</p>","0","html-button-response","46","1344465","0.0-8.0","69071","List2B","black","man","","","","","","","","","","","","",""
"null","<img src='img/dance_eg.gif' style='height:400px;''></img>","","html-keyboard-response","47","1347487","0.0-9.0","69071","List2B","black","man","","","","null","","","","","","","","",""
"null","<p>is being entertained by</p>","","html-keyboard-response","48","1349493","0.0-10.0","69071","List2B","black","man","","","","null","","","","","","","","",""
"2272.3000000002794","<p><b>Answer:</b> fred is being entertained by mike</p>","0","html-button-response","49","1351767","0.0-11.0","69071","List2B","black","man","","","","","","","","","","","","",""
"7685.700000000186","<p>Ready to start the experiment?</p><br><p><strong>Remember to describe the picture using a full sentence,</strong></p><p><strong>that combines the names of the people with the <i>exact</i> phrase given.</strong></p><p><strong>To receive full payment you must do this correctly.</strong></p><p><strong> You do not need to capitalise names or use punctuation.</strong></p><br><p>Press 'Continue' to begin.</p>","0","html-button-response","50","1360462","0.0-12.0","69071","List2B","black","man","","","","","","","","","","","","",""
"null","<div style=""font-size:60px;"">+</div>","","html-keyboard-response","51","1361982","0.0-13.0-0.0","69071","List2B","black","man","","","","null","","","","","","","","",""
"null","<img src=""stim_listB/copy8.gif""style=""height:400px;""></stim_listB>","","html-keyboard-response","52","1363988","0.0-13.0-1.0","69071","List2B","black","man","","","","null","","","","","","","","",""
"null","is being copied by","","html-keyboard-response","53","1365992","0.0-13.0-2.0","69071","List2B","black","man","","","","null","","","","","","","","",""
"25037.30000000028","","","survey-text","54","1391039","0.0-13.0-3.0","69071","List2B","black","man","","","","","{""Q0"":""ruth is being playful with kate""}","<img src=""stim_listB/copy8.gif""style=""height:400px;""></stim_listB>","is being copied by","","","","","",""
"null","<div style=""font-size:60px;"">+</div>","","html-keyboard-response","55","1391545","0.0-13.0-0.1","69071","List2B","black","man","","","","null","","","","","","","","",""
"null","<img src=""stim_listB/hug1.gif""style=""height:400px;""></stim_listB>","","html-keyboard-response","56","1393553","0.0-13.0-1.1","69071","List2B","black","man","","","","null","","","","","","","","",""
"null","is hugging","","html-keyboard-response","57","1395555","0.0-13.0-2.1","69071","List2B","black","man","","","","null","","","","","","","","",""
"28713.799999999814","","","survey-text","58","1424274","0.0-13.0-3.1","69071","List2B","black","man","","","","","{""Q0"":""Luke is giving jane a hug""}","<img src=""stim_listB/hug1.gif""style=""height:400px;""></stim_listB>","is hugging","","","","","",""
"null","<div style=""font-size:60px;"">+</div>","","html-keyboard-response","59","1424787","0.0-13.0-0.2","69071","List2B","black","man","","","","null","","","","","","","","",""
"null","<img src=""stim_listB/copy6.gif""style=""height:400px;""></stim_listB>","","html-keyboard-response","60","1426810","0.0-13.0-1.2","69071","List2B","black","man","","","","null","","","","","","","","",""
"null","is being copied by","","html-keyboard-response","61","1428821","0.0-13.0-2.2","69071","List2B","black","man","","","","null","","","","","","","","",""
"30260.399999999907","","","survey-text","62","1459083","0.0-13.0-3.2","69071","List2B","black","man","","","","","{""Q0"":""mike is being copied by dave""}","<img src=""stim_listB/copy6.gif""style=""height:400px;""></stim_listB>","is being copied by","","","","","",""
"null","<div style=""font-size:60px;"">+</div>","","html-keyboard-response","63","1459600","0.0-13.0-0.3","69071","List2B","black","man","","","","null","","","","","","","","",""
"null","<img src=""stim_listB/shout8.gif""style=""height:400px;""></stim_listB>","","html-keyboard-response","64","1461616","0.0-13.0-1.3","69071","List2B","black","man","","","","null","","","","","","","","",""
"null","is being shouted at by","","html-keyboard-response","65","1463624","0.0-13.0-2.3","69071","List2B","black","man","","","","null","","","","","","","","",""
"30365.100000000093","","","survey-text","66","1493993","0.0-13.0-3.3","69071","List2B","black","man","","","","","{""Q0"":""kate is being shouted at by ruth""}","<img src=""stim_listB/shout8.gif""style=""height:400px;""></stim_listB>","is being shouted at by","","","","","",""
"null","<div style=""font-size:60px;"">+</div>","","html-keyboard-response","67","1494506","0.0-13.0-0.4","69071","List2B","black","man","","","","null","","","","","","","","",""
"null","<img src=""stim_listB/oppose5.gif""style=""height:400px;""></stim_listB>","","html-keyboard-response","68","1496510","0.0-13.0-1.4","69071","List2B","black","man","","","","null","","","","","","","","",""
"null","is opposing","","html-keyboard-response","69","1498514","0.0-13.0-2.4","69071","List2B","black","man","","","","null","","","","","","","","",""
"23996.899999999907","","","survey-text","70","1522518","0.0-13.0-3.4","69071","List2B","black","man","","","","","{""Q0"":""mike is opposing dave""}","<img src=""stim_listB/oppose5.gif""style=""height:400px;""></stim_listB>","is opposing","","","","","",""
"null","<div style=""font-size:60px;"">+</div>","","html-keyboard-response","71","1523028","0.0-13.0-0.5","69071","List2B","black","man","","","","null","","","","","","","","",""
"null","<img src=""stim_listB/challenge7.gif""style=""height:400px;""></stim_listB>","","html-keyboard-response","72","1525044","0.0-13.0-1.5","69071","List2B","black","man","","","","null","","","","","","","","",""
"null","is challenging","","html-keyboard-response","73","1527053","0.0-13.0-2.5","69071","List2B","black","man","","","","null","","","","","","","","",""
"49464.59999999963","","","survey-text","74","1576521","0.0-13.0-3.5","69071","List2B","black","man","","","","","{""Q0"":""beth is challenging jane""}","<img src=""stim_listB/challenge7.gif""style=""height:400px;""></stim_listB>","is challenging","","","","","",""
"null","<div style=""font-size:60px;"">+</div>","","html-keyboard-response","75","1577033","0.0-13.0-0.6","69071","List2B","black","man","","","","null","","","","","","","","",""
"null","<img src=""stim_listB/kiss5.gif""style=""height:400px;""></stim_listB>","","html-keyboard-response","76","1579049","0.0-13.0-1.6","69071","List2B","black","man","","","","null","","","","","","","","",""
"null","is kissing","","html-keyboard-response","77","1581059","0.0-13.0-2.6","69071","List2B","black","man","","","","null","","","","","","","","",""
"24779.700000000186","","","survey-text","78","1605844","0.0-13.0-3.6","69071","List2B","black","man","","","","","{""Q0"":""fred and luke is kissing""}","<img src=""stim_listB/kiss5.gif""style=""height:400px;""></stim_listB>","is kissing","","","","","",""
"null","<div style=""font-size:60px;"">+</div>","","html-keyboard-response","79","1606359","0.0-13.0-0.7","69071","List2B","black","man","","","","null","","","","","","","","",""
"null","<img src=""stim_listB/challenge2.gif""style=""height:400px;""></stim_listB>","","html-keyboard-response","80","1608366","0.0-13.0-1.7","69071","List2B","black","man","","","","null","","","","","","","","",""
"null","is being challenged by","","html-keyboard-response","81","1610382","0.0-13.0-2.7","69071","List2B","black","man","","","","null","","","","","","","","",""
"63554.60000000056","","","survey-text","82","1673940","0.0-13.0-3.7","69071","List2B","black","man","","","","","{""Q0"":""luke is being challenged by jane""}","<img src=""stim_listB/challenge2.gif""style=""height:400px;""></stim_listB>","is being challenged by","","","","","",""
"null","<div style=""font-size:60px;"">+</div>","","html-keyboard-response","83","1674446","0.0-13.0-0.8","69071","List2B","black","man","","","","null","","","","","","","","",""
"null","<img src=""stim_listB/challenge3.gif""style=""height:400px;""></stim_listB>","","html-keyboard-response","84","1676463","0.0-13.0-1.8","69071","List2B","black","man","","","","null","","","","","","","","",""
"null","is challenging","","html-keyboard-response","85","1678472","0.0-13.0-2.8","69071","List2B","black","man","","","","null","","","","","","","","",""
"16379.299999999814","","","survey-text","86","1694857","0.0-13.0-3.8","69071","List2B","black","man","","","","","{""Q0"":""mike is challenging beth""}","<img src=""stim_listB/challenge3.gif""style=""height:400px;""></stim_listB>","is challenging","","","","","",""
"null","<div style=""font-size:60px;"">+</div>","","html-keyboard-response","87","1695374","0.0-13.0-0.9","69071","List2B","black","man","","","","null","","","","","","","","",""
"null","<img src=""stim_listB/copy4.gif""style=""height:400px;""></stim_listB>","","html-keyboard-response","88","1697391","0.0-13.0-1.9","69071","List2B","black","man","","","","null","","","","","","","","",""
"null","is being copied by","","html-keyboard-response","89","1699400","0.0-13.0-2.9","69071","List2B","black","man","","","","null","","","","","","","","",""
"17071.60000000056","","","survey-text","90","1716475","0.0-13.0-3.9","69071","List2B","black","man","","","","","{""Q0"":""kate is being copied by fred""}","<img src=""stim_listB/copy4.gif""style=""height:400px;""></stim_listB>","is being copied by","","","","","",""
"null","<div style=""font-size:60px;"">+</div>","","html-keyboard-response","91","1716978","0.0-13.0-0.10","69071","List2B","black","man","","","","null","","","","","","","","",""
"null","<img src=""stim_listB/oppose1.gif""style=""height:400px;""></stim_listB>","","html-keyboard-response","92","1718996","0.0-13.0-1.10","69071","List2B","black","man","","","","null","","","","","","","","",""
"null","is opposing","","html-keyboard-response","93","1721004","0.0-13.0-2.10","69071","List2B","black","man","","","","null","","","","","","","","",""
"13014.5","","","survey-text","94","1734022","0.0-13.0-3.10","69071","List2B","black","man","","","","","{""Q0"":""dave is opposing jane""}","<img src=""stim_listB/oppose1.gif""style=""height:400px;""></stim_listB>","is opposing","","","","","",""
"null","<div style=""font-size:60px;"">+</div>","","html-keyboard-response","95","1734525","0.0-13.0-0.11","69071","List2B","black","man","","","","null","","","","","","","","",""
"null","<img src=""stim_listB/greet1.gif""style=""height:400px;""></stim_listB>","","html-keyboard-response","96","1736540","0.0-13.0-1.11","69071","List2B","black","man","","","","null","","","","","","","","",""
"null","is greeting","","html-keyboard-response","97","1738543","0.0-13.0-2.11","69071","List2B","black","man","","","","null","","","","","","","","",""
"23316.5","","","survey-text","98","1761863","0.0-13.0-3.11","69071","List2B","black","man","","","","","{""Q0"":""luke is greeting jane""}","<img src=""stim_listB/greet1.gif""style=""height:400px;""></stim_listB>","is greeting","","","","","",""
"null","<div style=""font-size:60px;"">+</div>","","html-keyboard-response","99","1762375","0.0-13.0-0.12","69071","List2B","black","man","","","","null","","","","","","","","",""
"null","<img src=""stim_listB/seduce4.gif""style=""height:400px;""></stim_listB>","","html-keyboard-response","100","1764378","0.0-13.0-1.12","69071","List2B","black","man","","","","null","","","","","","","","",""
"null","is being seduced by","","html-keyboard-response","101","1766388","0.0-13.0-2.12","69071","List2B","black","man","","","","null","","","","","","","","",""
"142447.39999999944","","","survey-text","102","1908837","0.0-13.0-3.12","69071","List2B","black","man","","","","","{""Q0"":""mike is being seduced by beth""}","<img src=""stim_listB/seduce4.gif""style=""height:400px;""></stim_listB>","is being seduced by","","","","","",""
"null","<div style=""font-size:60px;"">+</div>","","html-keyboard-response","103","1909351","0.0-13.0-0.13","69071","List2B","black","man","","","","null","","","","","","","","",""
"null","<img src=""stim_listB/copy2.gif""style=""height:400px;""></stim_listB>","","html-keyboard-response","104","1911360","0.0-13.0-1.13","69071","List2B","black","man","","","","null","","","","","","","","",""
"null","is being copied by","","html-keyboard-response","105","1913362","0.0-13.0-2.13","69071","List2B","black","man","","","","null","","","","","","","","",""
"110569.29999999981","","","survey-text","106","2023934","0.0-13.0-3.13","69071","List2B","black","man","","","","","{""Q0"":""kate is being copied by luke""}","<img src=""stim_listB/copy2.gif""style=""height:400px;""></stim_listB>","is being copied by","","","","","",""
"null","<div style=""font-size:60px;"">+</div>","","html-keyboard-response","107","2024436","0.0-13.0-0.14","69071","List2B","black","man","","","","null","","","","","","","","",""
"null","<img src=""stim_listB/seduce8.gif""style=""height:400px;""></stim_listB>","","html-keyboard-response","108","2026450","0.0-13.0-1.14","69071","List2B","black","man","","","","null","","","","","","","","",""
"null","is being seduced by","","html-keyboard-response","109","2028459","0.0-13.0-2.14","69071","List2B","black","man","","","","null","","","","","","","","",""
"737508.2000000002","","","survey-text","110","2765970","0.0-13.0-3.14","69071","List2B","black","man","","","","","{""Q0"":""beth is being seduced by jane""}","<img src=""stim_listB/seduce8.gif""style=""height:400px;""></stim_listB>","is being seduced by","","","","","",""
"null","<div style=""font-size:60px;"">+</div>","","html-keyboard-response","111","2766483","0.0-13.0-0.15","69071","List2B","black","man","","","","null","","","","","","","","",""
"null","<img src=""stim_listB/seduce1.gif""style=""height:400px;""></stim_listB>","","html-keyboard-response","112","2768499","0.0-13.0-1.15","69071","List2B","black","man","","","","null","","","","","","","","",""
"null","is seducing","","html-keyboard-response","113","2770507","0.0-13.0-2.15","69071","List2B","black","man","","","","null","","","","","","","","",""
"18904.60000000056","","","survey-text","114","2789414","0.0-13.0-3.15","69071","List2B","black","man","","","","","{""Q0"":""luke is seducing jane""}","<img src=""stim_listB/seduce1.gif""style=""height:400px;""></stim_listB>","is seducing","","","","","",""
"null","<div style=""font-size:60px;"">+</div>","","html-keyboard-response","115","2789929","0.0-13.0-0.16","69071","List2B","black","man","","","","null","","","","","","","","",""
"null","<img src=""stim_listB/touch5.gif""style=""height:400px;""></stim_listB>","","html-keyboard-response","116","2791931","0.0-13.0-1.16","69071","List2B","black","man","","","","null","","","","","","","","",""
"null","is touching","","html-keyboard-response","117","2793938","0.0-13.0-2.16","69071","List2B","black","man","","","","null","","","","","","","","",""
"35011.799999999814","","","survey-text","118","2828953","0.0-13.0-3.16","69071","List2B","black","man","","","","","{""Q0"":""mike is touching dave""}","<img src=""stim_listB/touch5.gif""style=""height:400px;""></stim_listB>","is touching","","","","","",""
"null","<div style=""font-size:60px;"">+</div>","","html-keyboard-response","119","2829466","0.0-13.0-0.17","69071","List2B","black","man","","","","null","","","","","","","","",""
"null","<img src=""stim_listB/look7.gif""style=""height:400px;""></stim_listB>","","html-keyboard-response","120","2831475","0.0-13.0-1.17","69071","List2B","black","man","","","","null","","","","","","","","",""
"null","is looking at","","html-keyboard-response","121","2833476","0.0-13.0-2.17","69071","List2B","black","man","","","","null","","","","","","","","",""
"17605.700000000186","","","survey-text","122","2851086","0.0-13.0-3.17","69071","List2B","black","man","","","","","{""Q0"":""beth is looking at ruth""}","<img src=""stim_listB/look7.gif""style=""height:400px;""></stim_listB>","is looking at","","","","","",""
"null","<div style=""font-size:60px;"">+</div>","","html-keyboard-response","123","2851592","0.0-13.0-0.18","69071","List2B","black","man","","","","null","","","","","","","","",""
"null","<img src=""stim_listB/shout7.gif""style=""height:400px;""></stim_listB>","","html-keyboard-response","124","2853607","0.0-13.0-1.18","69071","List2B","black","man","","","","null","","","","","","","","",""
"null","is shouting at","","html-keyboard-response","125","2855616","0.0-13.0-2.18","69071","List2B","black","man","","","","null","","","","","","","","",""
"20277.89999999944","","","survey-text","126","2875898","0.0-13.0-3.18","69071","List2B","black","man","","","","","{""Q0"":""beth is shouting at ruth""}","<img src=""stim_listB/shout7.gif""style=""height:400px;""></stim_listB>","is shouting at","","","","","",""
"null","<div style=""font-size:60px;"">+</div>","","html-keyboard-response","127","2876412","0.0-13.0-0.19","69071","List2B","black","man","","","","null","","","","","","","","",""
"null","<img src=""stim_listB/kiss7.gif""style=""height:400px;""></stim_listB>","","html-keyboard-response","128","2878429","0.0-13.0-1.19","69071","List2B","black","man","","","","null","","","","","","","","",""
"null","is kissing","","html-keyboard-response","129","2881297","0.0-13.0-2.19","69071","List2B","black","man","","","","null","","","","","","","","",""
"8978.099999999627","","","survey-text","130","2890280","0.0-13.0-3.19","69071","List2B","black","man","","","","","{""Q0"":""beth is kissing ruth""}","<img src=""stim_listB/kiss7.gif""style=""height:400px;""></stim_listB>","is kissing","","","","","",""
"42517.5","<img src='img/portrait_matrix_list2.jpg' style='width:900px;height:500px;''></img><p>If you have memorised all the portraits and names and are ready to start, press Continue.</p><p><strong>Please note: Your memory of these faces will be tested 4 times during this experiment.</strong></p>","0","html-button-response","131","2932802","0.0-14.0-0.0","69071","List2B","black","man","","","","","","","","","","","","",""
"6291.5999999996275","<img src=""portrait/WW1.jpg""style=""height:400px;""></img>","1","html-button-response","132","2940106","0.0-14.0-1.0","69071","List2B","black","man","","true","1","","","","","","","","","",""
"null","CORRECT","","html-keyboard-response","133","2941623","0.0-14.0-2.0-0.0","69071","List2B","black","man","","","","null","","","","","","","","",""
"3900.7999999998137","<img src=""portrait/BW1.jpg""style=""height:400px;""></img>","0","html-button-response","134","2945526","0.0-14.0-4.0","69071","List2B","black","man","","true","0","","","","","","","","","",""
"null","CORRECT","","html-keyboard-response","135","2947037","0.0-14.0-5.0-0.0","69071","List2B","black","man","","","","null","","","","","","","","",""
"3324","<img src=""portrait/BM1.jpg""style=""height:400px;""></img>","4","html-button-response","136","2950364","0.0-14.0-7.0","69071","List2B","black","man","","true","4","","","","","","","","","",""
"null","CORRECT","","html-keyboard-response","137","2951874","0.0-14.0-8.0-0.0","69071","List2B","black","man","","","","null","","","","","","","","",""
"4021.4000000003725","<img src=""portrait/WM1.jpg""style=""height:400px;""></img>","6","html-button-response","138","2955898","0.0-14.0-10.0","69071","List2B","black","man","","true","6","","","","","","","","","",""
"null","CORRECT","","html-keyboard-response","139","2957407","0.0-14.0-11.0-0.0","69071","List2B","black","man","","","","null","","","","","","","","",""
"499.6000000005588","<img src=""portrait/BW2.jpg""style=""height:400px;""></img>","6","html-button-response","140","2957909","0.0-14.0-13.0","69071","List2B","black","man","","true","2","","","","","","","","","",""
"2675.2000000001863","<img src=""portrait/BW2.jpg""style=""height:400px;""></img>","2","html-button-response","141","2961588","0.0-14.0-15.0-0.0","69071","List2B","black","man","","false","2","","","","","","","","","",""
"null","CORRECT","","html-keyboard-response","142","2963096","0.0-14.0-15.0-1.0-0.0","69071","List2B","black","man","","","","null","","","","","","","","",""
"4307.5","<img src=""portrait/WW2.jpg""style=""height:400px;""></img>","3","html-button-response","143","2967405","0.0-14.0-16.0","69071","List2B","black","man","","true","3","","","","","","","","","",""
"null","CORRECT","","html-keyboard-response","144","2968909","0.0-14.0-17.0-0.0","69071","List2B","black","man","","","","null","","","","","","","","",""
"4882.5","<img src=""portrait/BM2.jpg""style=""height:400px;""></img>","5","html-button-response","145","2973793","0.0-14.0-19.0","69071","List2B","black","man","","true","5","","","","","","","","","",""
"null","CORRECT","","html-keyboard-response","146","2975308","0.0-14.0-20.0-0.0","69071","List2B","black","man","","","","null","","","","","","","","",""
"4769.9000000003725","<img src=""portrait/WM2.jpg""style=""height:400px;""></img>","7","html-button-response","147","2980080","0.0-14.0-22.0","69071","List2B","black","man","","true","7","","","","","","","","","",""
"null","CORRECT","","html-keyboard-response","148","2981597","0.0-14.0-23.0-0.0","69071","List2B","black","man","","","","null","","","","","","","","",""
"1965.5","<p>You got 7 out of 8 right first time. Press Continue.</p>","0","html-button-response","149","2983564","0.0-14.0-25.0","69071","List2B","black","man","","","","","","","","","","","","",""
"1934.7000000001863","As you did not score 100%, the memory game will repeat. Press Continue.","0","html-button-response","150","2986507","0.0-14.0-26.0-0.0","69071","List2B","black","man","","","","","","","","","","","","",""
"2204.2000000001863","<img src='img/portrait_matrix_list2.jpg' style='width:900px;height:500px;''></img><p>If you have memorised all the portraits and names and are ready to start, press Continue.</p><p><strong>Please note: Your memory of these faces will be tested 4 times during this experiment.</strong></p>","0","html-button-response","151","2989725","0.0-14.1-0.1","69071","List2B","black","man","","","","","","","","","","","","",""
"5177.300000000745","<img src=""portrait/WW1.jpg""style=""height:400px;""></img>","1","html-button-response","152","2995913","0.0-14.1-1.1","69071","List2B","black","man","","true","1","","","","","","","","","",""
"null","CORRECT","","html-keyboard-response","153","2997438","0.0-14.1-2.1-0.1","69071","List2B","black","man","","","","null","","","","","","","","",""
"4597.700000000186","<img src=""portrait/BW1.jpg""style=""height:400px;""></img>","0","html-button-response","154","3002037","0.0-14.1-4.1","69071","List2B","black","man","","true","0","","","","","","","","","",""
"null","CORRECT","","html-keyboard-response","155","3003547","0.0-14.1-5.1-0.1","69071","List2B","black","man","","","","null","","","","","","","","",""
"3586.5999999996275","<img src=""portrait/BM1.jpg""style=""height:400px;""></img>","4","html-button-response","156","3007135","0.0-14.1-7.1","69071","List2B","black","man","","true","4","","","","","","","","","",""
"null","CORRECT","","html-keyboard-response","157","3008638","0.0-14.1-8.1-0.1","69071","List2B","black","man","","","","null","","","","","","","","",""
"3693.5","<img src=""portrait/WM1.jpg""style=""height:400px;""></img>","6","html-button-response","158","3012333","0.0-14.1-10.1","69071","List2B","black","man","","true","6","","","","","","","","","",""
"null","CORRECT","","html-keyboard-response","159","3013851","0.0-14.1-11.1-0.1","69071","List2B","black","man","","","","null","","","","","","","","",""
"4382.399999999441","<img src=""portrait/BW2.jpg""style=""height:400px;""></img>","2","html-button-response","160","3018236","0.0-14.1-13.1","69071","List2B","black","man","","true","2","","","","","","","","","",""
"null","CORRECT","","html-keyboard-response","161","3019747","0.0-14.1-14.1-0.1","69071","List2B","black","man","","","","null","","","","","","","","",""
"6906.5","<img src=""portrait/WW2.jpg""style=""height:400px;""></img>","3","html-button-response","162","3026656","0.0-14.1-16.1","69071","List2B","black","man","","true","3","","","","","","","","","",""
"null","CORRECT","","html-keyboard-response","163","3028179","0.0-14.1-17.1-0.1","69071","List2B","black","man","","","","null","","","","","","","","",""
"3867","<img src=""portrait/BM2.jpg""style=""height:400px;""></img>","5","html-button-response","164","3032048","0.0-14.1-19.1","69071","List2B","black","man","","true","5","","","","","","","","","",""
"null","CORRECT","","html-keyboard-response","165","3033560","0.0-14.1-20.1-0.1","69071","List2B","black","man","","","","null","","","","","","","","",""
"4018.7999999998137","<img src=""portrait/WM2.jpg""style=""height:400px;""></img>","7","html-button-response","166","3037581","0.0-14.1-22.1","69071","List2B","black","man","","true","7","","","","","","","","","",""
"null","CORRECT","","html-keyboard-response","167","3039096","0.0-14.1-23.1-0.1","69071","List2B","black","man","","","","null","","","","","","","","",""
"1900.4000000003725","<p>You got 8 out of 8 right first time. Press Continue.</p>","0","html-button-response","168","3040998","0.0-14.1-25.1","69071","List2B","black","man","","","","","","","","","","","","",""
"null","<div style=""font-size:60px;"">+</div>","","html-keyboard-response","169","3042515","0.0-15.0-0.0","69071","List2B","black","man","","","","null","","","","","","","","",""
"null","<img src=""stim_listB/shout4.gif""style=""height:400px;""></stim_listB>","","html-keyboard-response","170","3044518","0.0-15.0-1.0","69071","List2B","black","man","","","","null","","","","","","","","",""
"null","is being shouted at by","","html-keyboard-response","171","3046529","0.0-15.0-2.0","69071","List2B","black","man","","","","null","","","","","","","","",""
"22686.700000000186","","","survey-text","172","3069218","0.0-15.0-3.0","69071","List2B","black","man","","","","","{""Q0"":""kate is shouting at mike""}","<img src=""stim_listB/shout4.gif""style=""height:400px;""></stim_listB>","is being shouted at by","","","","","",""
"null","<div style=""font-size:60px;"">+</div>","","html-keyboard-response","173","3069730","0.0-15.0-0.1","69071","List2B","black","man","","","","null","","","","","","","","",""
"null","<img src=""stim_listB/copy7.gif""style=""height:400px;""></stim_listB>","","html-keyboard-response","174","3071731","0.0-15.0-1.1","69071","List2B","black","man","","","","null","","","","","","","","",""
"null","is copying","","html-keyboard-response","175","3073741","0.0-15.0-2.1","69071","List2B","black","man","","","","null","","","","","","","","",""
"7706.5","","","survey-text","176","3081451","0.0-15.0-3.1","69071","List2B","black","man","","","","","{""Q0"":""jane is copying beth""}","<img src=""stim_listB/copy7.gif""style=""height:400px;""></stim_listB>","is copying","","","","","",""
"null","<div style=""font-size:60px;"">+</div>","","html-keyboard-response","177","3081958","0.0-15.0-0.2","69071","List2B","black","man","","","","null","","","","","","","","",""
"null","<img src=""stim_listB/touch4.gif""style=""height:400px;""></stim_listB>","","html-keyboard-response","178","3083961","0.0-15.0-1.2","69071","List2B","black","man","","","","null","","","","","","","","",""
"null","is being touched by","","html-keyboard-response","179","3085967","0.0-15.0-2.2","69071","List2B","black","man","","","","null","","","","","","","","",""
"15939","","","survey-text","180","3101910","0.0-15.0-3.2","69071","List2B","black","man","","","","","{""Q0"":""fred is being touched by beth""}","<img src=""stim_listB/touch4.gif""style=""height:400px;""></stim_listB>","is being touched by","","","","","",""
"null","<div style=""font-size:60px;"">+</div>","","html-keyboard-response","181","3102426","0.0-15.0-0.3","69071","List2B","black","man","","","","null","","","","","","","","",""
"null","<img src=""stim_listB/shout6.gif""style=""height:400px;""></stim_listB>","","html-keyboard-response","182","3104436","0.0-15.0-1.3","69071","List2B","black","man","","","","null","","","","","","","","",""
"null","is being shouted at by","","html-keyboard-response","183","3106447","0.0-15.0-2.3","69071","List2B","black","man","","","","null","","","","","","","","",""
"29349.299999999814","","","survey-text","184","3135799","0.0-15.0-3.3","69071","List2B","black","man","","","","","{""Q0"":""mike is being shouted at by dave""}","<img src=""stim_listB/shout6.gif""style=""height:400px;""></stim_listB>","is being shouted at by","","","","","",""
"null","<div style=""font-size:60px;"">+</div>","","html-keyboard-response","185","3136307","0.0-15.0-0.4","69071","List2B","black","man","","","","null","","","","","","","","",""
"null","<img src=""stim_listB/greet6.gif""style=""height:400px;""></stim_listB>","","html-keyboard-response","186","3138309","0.0-15.0-1.4","69071","List2B","black","man","","","","null","","","","","","","","",""
"null","is being greeted by","","html-keyboard-response","187","3140318","0.0-15.0-2.4","69071","List2B","black","man","","","","null","","","","","","","","",""
"14270.300000000745","","","survey-text","188","3154592","0.0-15.0-3.4","69071","List2B","black","man","","","","","{""Q0"":""luke is being greeted by mike""}","<img src=""stim_listB/greet6.gif""style=""height:400px;""></stim_listB>","is being greeted by","","","","","",""
"null","<div style=""font-size:60px;"">+</div>","","html-keyboard-response","189","3155108","0.0-15.0-0.5","69071","List2B","black","man","","","","null","","","","","","","","",""
"null","<img src=""stim_listB/greet3.gif""style=""height:400px;""></stim_listB>","","html-keyboard-response","190","3157124","0.0-15.0-1.5","69071","List2B","black","man","","","","null","","","","","","","","",""
"null","is greeting","","html-keyboard-response","191","3159135","0.0-15.0-2.5","69071","List2B","black","man","","","","null","","","","","","","","",""
"14487","","","survey-text","192","3173625","0.0-15.0-3.5","69071","List2B","black","man","","","","","{""Q0"":""mike is greeting beth""}","<img src=""stim_listB/greet3.gif""style=""height:400px;""></stim_listB>","is greeting","","","","","",""
"null","<div style=""font-size:60px;"">+</div>","","html-keyboard-response","193","3174128","0.0-15.0-0.6","69071","List2B","black","man","","","","null","","","","","","","","",""
"null","<img src=""stim_listB/challenge6.gif""style=""height:400px;""></stim_listB>","","html-keyboard-response","194","3176144","0.0-15.0-1.6","69071","List2B","black","man","","","","null","","","","","","","","",""
"null","is being challenged by","","html-keyboard-response","195","3178152","0.0-15.0-2.6","69071","List2B","black","man","","","","null","","","","","","","","",""
"37706.89999999944","","","survey-text","196","3215861","0.0-15.0-3.6","69071","List2B","black","man","","","","","{""Q0"":""mike is being challenged by luke""}","<img src=""stim_listB/challenge6.gif""style=""height:400px;""></stim_listB>","is being challenged by","","","","","",""
"null","<div style=""font-size:60px;"">+</div>","","html-keyboard-response","197","3216376","0.0-15.0-0.7","69071","List2B","black","man","","","","null","","","","","","","","",""
"null","<img src=""stim_listB/hug2.gif""style=""height:400px;""></stim_listB>","","html-keyboard-response","198","3218391","0.0-15.0-1.7","69071","List2B","black","man","","","","null","","","","","","","","",""
"null","is being hugged by","","html-keyboard-response","199","3220400","0.0-15.0-2.7","69071","List2B","black","man","","","","null","","","","","","","","",""
"15216.599999999627","","","survey-text","200","3235619","0.0-15.0-3.7","69071","List2B","black","man","","","","","{""Q0"":""dave is being hugged by jane""}","<img src=""stim_listB/hug2.gif""style=""height:400px;""></stim_listB>","is being hugged by","","","","","",""
"null","<div style=""font-size:60px;"">+</div>","","html-keyboard-response","201","3236136","0.0-15.0-0.8","69071","List2B","black","man","","","","null","","","","","","","","",""
"null","<img src=""stim_listB/oppose6.gif""style=""height:400px;""></stim_listB>","","html-keyboard-response","202","3238153","0.0-15.0-1.8","69071","List2B","black","man","","","","null","","","","","","","","",""
"null","is being opposed by","","html-keyboard-response","203","3240162","0.0-15.0-2.8","69071","List2B","black","man","","","","null","","","","","","","","",""
"19716.39999999944","","","survey-text","204","3259881","0.0-15.0-3.8","69071","List2B","black","man","","","","","{""Q0"":""fred is being opposed by luke""}","<img src=""stim_listB/oppose6.gif""style=""height:400px;""></stim_listB>","is being opposed by","","","","","",""
"null","<div style=""font-size:60px;"">+</div>","","html-keyboard-response","205","3260384","0.0-15.0-0.9","69071","List2B","black","man","","","","null","","","","","","","","",""
"null","<img src=""stim_listB/look3.gif""style=""height:400px;""></stim_listB>","","html-keyboard-response","206","3262389","0.0-15.0-1.9","69071","List2B","black","man","","","","null","","","","","","","","",""
"null","is looking at","","html-keyboard-response","207","3264398","0.0-15.0-2.9","69071","List2B","black","man","","","","null","","","","","","","","",""
"12363.099999999627","","","survey-text","208","3276764","0.0-15.0-3.9","69071","List2B","black","man","","","","","{""Q0"":""fred is looking at beth""}","<img src=""stim_listB/look3.gif""style=""height:400px;""></stim_listB>","is looking at","","","","","",""
"null","<div style=""font-size:60px;"">+</div>","","html-keyboard-response","209","3277278","0.0-15.0-0.10","69071","List2B","black","man","","","","null","","","","","","","","",""
"null","<img src=""stim_listB/shout2.gif""style=""height:400px;""></stim_listB>","","html-keyboard-response","210","3279293","0.0-15.0-1.10","69071","List2B","black","man","","","","null","","","","","","","","",""
"null","is being shouted at by","","html-keyboard-response","211","3281306","0.0-15.0-2.10","69071","List2B","black","man","","","","null","","","","","","","","",""
"20788.800000000745","","","survey-text","212","3302098","0.0-15.0-3.10","69071","List2B","black","man","","","","","{""Q0"":""drake is being shouted at jane""}","<img src=""stim_listB/shout2.gif""style=""height:400px;""></stim_listB>","is being shouted at by","","","","","",""
"null","<div style=""font-size:60px;"">+</div>","","html-keyboard-response","213","3302602","0.0-15.0-0.11","69071","List2B","black","man","","","","null","","","","","","","","",""
"null","<img src=""stim_listB/touch6.gif""style=""height:400px;""></stim_listB>","","html-keyboard-response","214","3304618","0.0-15.0-1.11","69071","List2B","black","man","","","","null","","","","","","","","",""
"null","is being touched by","","html-keyboard-response","215","3306629","0.0-15.0-2.11","69071","List2B","black","man","","","","null","","","","","","","","",""
"15259.200000000186","","","survey-text","216","3321891","0.0-15.0-3.11","69071","List2B","black","man","","","","","{""Q0"":""fred is being touched by luke""}","<img src=""stim_listB/touch6.gif""style=""height:400px;""></stim_listB>","is being touched by","","","","","",""
"null","<div style=""font-size:60px;"">+</div>","","html-keyboard-response","217","3322393","0.0-15.0-0.12","69071","List2B","black","man","","","","null","","","","","","","","",""
"null","<img src=""stim_listB/touch2.gif""style=""height:400px;""></stim_listB>","","html-keyboard-response","218","3324395","0.0-15.0-1.12","69071","List2B","black","man","","","","null","","","","","","","","",""
"null","is being touched by","","html-keyboard-response","219","3326405","0.0-15.0-2.12","69071","List2B","black","man","","","","null","","","","","","","","",""
"17931.099999999627","","","survey-text","220","3344338","0.0-15.0-3.12","69071","List2B","black","man","","","","","{""Q0"":""luke is being touched by ruth""}","<img src=""stim_listB/touch2.gif""style=""height:400px;""></stim_listB>","is being touched by","","","","","",""
"null","<div style=""font-size:60px;"">+</div>","","html-keyboard-response","221","3344850","0.0-15.0-0.13","69071","List2B","black","man","","","","null","","","","","","","","",""
"null","<img src=""stim_listB/touch1.gif""style=""height:400px;""></stim_listB>","","html-keyboard-response","222","3346868","0.0-15.0-1.13","69071","List2B","black","man","","","","null","","","","","","","","",""
"null","is touching","","html-keyboard-response","223","3348875","0.0-15.0-2.13","69071","List2B","black","man","","","","null","","","","","","","","",""
"11852","","","survey-text","224","3360731","0.0-15.0-3.13","69071","List2B","black","man","","","","","{""Q0"":""dave is touching jane""}","<img src=""stim_listB/touch1.gif""style=""height:400px;""></stim_listB>","is touching","","","","","",""
"null","<div style=""font-size:60px;"">+</div>","","html-keyboard-response","225","3361240","0.0-15.0-0.14","69071","List2B","black","man","","","","null","","","","","","","","",""
"null","<img src=""stim_listB/greet2.gif""style=""height:400px;""></stim_listB>","","html-keyboard-response","226","3363256","0.0-15.0-1.14","69071","List2B","black","man","","","","null","","","","","","","","",""
"null","is being greeted by","","html-keyboard-response","227","3365265","0.0-15.0-2.14","69071","List2B","black","man","","","","null","","","","","","","","",""
"13567.800000000745","","","survey-text","228","3378835","0.0-15.0-3.14","69071","List2B","black","man","","","","","{""Q0"":""luke is being greeted by ruth""}","<img src=""stim_listB/greet2.gif""style=""height:400px;""></stim_listB>","is being greeted by","","","","","",""
"null","<div style=""font-size:60px;"">+</div>","","html-keyboard-response","229","3379345","0.0-15.0-0.15","69071","List2B","black","man","","","","null","","","","","","","","",""
"null","<img src=""stim_listB/seduce5.gif""style=""height:400px;""></stim_listB>","","html-keyboard-response","230","3381362","0.0-15.0-1.15","69071","List2B","black","man","","","","null","","","","","","","","",""
"null","is seducing","","html-keyboard-response","231","3383365","0.0-15.0-2.15","69071","List2B","black","man","","","","null","","","","","","","","",""
"11754.799999999814","","","survey-text","232","3395122","0.0-15.0-3.15","69071","List2B","black","man","","","","","{""Q0"":""luke is seducing mike""}","<img src=""stim_listB/seduce5.gif""style=""height:400px;""></stim_listB>","is seducing","","","","","",""
"null","<div style=""font-size:60px;"">+</div>","","html-keyboard-response","233","3395637","0.0-15.0-0.16","69071","List2B","black","man","","","","null","","","","","","","","",""
"null","<img src=""stim_listB/look6.gif""style=""height:400px;""></stim_listB>","","html-keyboard-response","234","3397639","0.0-15.0-1.16","69071","List2B","black","man","","","","null","","","","","","","","",""
"null","is being looked at by","","html-keyboard-response","235","3399648","0.0-15.0-2.16","69071","List2B","black","man","","","","null","","","","","","","","",""
"21710.10000000056","","","survey-text","236","3421360","0.0-15.0-3.16","69071","List2B","black","man","","","","","{""Q0"":""mike is being looked by dave""}","<img src=""stim_listB/look6.gif""style=""height:400px;""></stim_listB>","is being looked at by","","","","","",""
"null","<div style=""font-size:60px;"">+</div>","","html-keyboard-response","237","3421875","0.0-15.0-0.17","69071","List2B","black","man","","","","null","","","","","","","","",""
"null","<img src=""stim_listB/greet4.gif""style=""height:400px;""></stim_listB>","","html-keyboard-response","238","3423892","0.0-15.0-1.17","69071","List2B","black","man","","","","null","","","","","","","","",""
"null","is being greeted by","","html-keyboard-response","239","3425901","0.0-15.0-2.17","69071","List2B","black","man","","","","null","","","","","","","","",""
"15424.299999999814","","","survey-text","240","3441329","0.0-15.0-3.17","69071","List2B","black","man","","","","","{""Q0"":""fred is being greeted by kate""}","<img src=""stim_listB/greet4.gif""style=""height:400px;""></stim_listB>","is being greeted by","","","","","",""
"null","<div style=""font-size:60px;"">+</div>","","html-keyboard-response","241","3441843","0.0-15.0-0.18","69071","List2B","black","man","","","","null","","","","","","","","",""
"null","<img src=""stim_listB/greet8.gif""style=""height:400px;""></stim_listB>","","html-keyboard-response","242","3443858","0.0-15.0-1.18","69071","List2B","black","man","","","","null","","","","","","","","",""
"null","is being greeted by","","html-keyboard-response","243","3445872","0.0-15.0-2.18","69071","List2B","black","man","","","","null","","","","","","","","",""
"55510.89999999944","","","survey-text","244","3501386","0.0-15.0-3.18","69071","List2B","black","man","","","","","{""Q0"":""kate is being greeted by ruth""}","<img src=""stim_listB/greet8.gif""style=""height:400px;""></stim_listB>","is being greeted by","","","","","",""
"null","<div style=""font-size:60px;"">+</div>","","html-keyboard-response","245","3501895","0.0-15.0-0.19","69071","List2B","black","man","","","","null","","","","","","","","",""
"null","<img src=""stim_listB/oppose4.gif""style=""height:400px;""></stim_listB>","","html-keyboard-response","246","3503912","0.0-15.0-1.19","69071","List2B","black","man","","","","null","","","","","","","","",""
"null","is being opposed by","","html-keyboard-response","247","3505922","0.0-15.0-2.19","69071","List2B","black","man","","","","null","","","","","","","","",""
"21144.900000000373","","","survey-text","248","3527069","0.0-15.0-3.19","69071","List2B","black","man","","","","","{""Q0"":""fred is being opposed by ruth""}","<img src=""stim_listB/oppose4.gif""style=""height:400px;""></stim_listB>","is being opposed by","","","","","",""
"6795.700000000186","<img src='img/portrait_matrix_list2.jpg' style='width:900px;height:500px;''></img><p>If you have memorised all the portraits and names and are ready to start, press Continue.</p><p><strong>Please note: Your memory of these faces will be tested 4 times during this experiment.</strong></p>","0","html-button-response","249","3533868","0.0-16.0-0.0","69071","List2B","black","man","","","","","","","","","","","","",""
"5449","<img src=""portrait/BM1.jpg""style=""height:400px;""></img>","4","html-button-response","250","3540326","0.0-16.0-1.0","69071","List2B","black","man","","true","4","","","","","","","","","",""
"null","CORRECT","","html-keyboard-response","251","3541842","0.0-16.0-2.0-0.0","69071","List2B","black","man","","","","null","","","","","","","","",""
"3635.2000000001863","<img src=""portrait/WM1.jpg""style=""height:400px;""></img>","6","html-button-response","252","3545479","0.0-16.0-4.0","69071","List2B","black","man","","true","6","","","","","","","","","",""
"null","CORRECT","","html-keyboard-response","253","3546995","0.0-16.0-5.0-0.0","69071","List2B","black","man","","","","null","","","","","","","","",""
"3602.899999999441","<img src=""portrait/WW1.jpg""style=""height:400px;""></img>","1","html-button-response","254","3550599","0.0-16.0-7.0","69071","List2B","black","man","","true","1","","","","","","","","","",""
"null","CORRECT","","html-keyboard-response","255","3552116","0.0-16.0-8.0-0.0","69071","List2B","black","man","","","","null","","","","","","","","",""
"6961.5","<img src=""portrait/WM2.jpg""style=""height:400px;""></img>","7","html-button-response","256","3559079","0.0-16.0-10.0","69071","List2B","black","man","","true","7","","","","","","","","","",""
"null","CORRECT","","html-keyboard-response","257","3560593","0.0-16.0-11.0-0.0","69071","List2B","black","man","","","","null","","","","","","","","",""
"3679.5999999996275","<img src=""portrait/WW2.jpg""style=""height:400px;""></img>","3","html-button-response","258","3564275","0.0-16.0-13.0","69071","List2B","black","man","","true","3","","","","","","","","","",""
"null","CORRECT","","html-keyboard-response","259","3565794","0.0-16.0-14.0-0.0","69071","List2B","black","man","","","","null","","","","","","","","",""
"4113.5","<img src=""portrait/BW1.jpg""style=""height:400px;""></img>","0","html-button-response","260","3569909","0.0-16.0-16.0","69071","List2B","black","man","","true","0","","","","","","","","","",""
"null","CORRECT","","html-keyboard-response","261","3571425","0.0-16.0-17.0-0.0","69071","List2B","black","man","","","","null","","","","","","","","",""
"6040.799999999814","<img src=""portrait/BW2.jpg""style=""height:400px;""></img>","2","html-button-response","262","3577468","0.0-16.0-19.0","69071","List2B","black","man","","true","2","","","","","","","","","",""
"null","CORRECT","","html-keyboard-response","263","3578985","0.0-16.0-20.0-0.0","69071","List2B","black","man","","","","null","","","","","","","","",""
"3548.100000000559","<img src=""portrait/BM2.jpg""style=""height:400px;""></img>","5","html-button-response","264","3582536","0.0-16.0-22.0","69071","List2B","black","man","","true","5","","","","","","","","","",""
"null","CORRECT","","html-keyboard-response","265","3584057","0.0-16.0-23.0-0.0","69071","List2B","black","man","","","","null","","","","","","","","",""
"4023.9000000003725","<p>You got 8 out of 8 right first time. Press Continue.</p>","0","html-button-response","266","3588083","0.0-16.0-25.0","69071","List2B","black","man","","","","","","","","","","","","",""
"null","<div style=""font-size:60px;"">+</div>","","html-keyboard-response","267","3589606","0.0-17.0-0.0","69071","List2B","black","man","","","","null","","","","","","","","",""
"null","<img src=""stim_listB/look4.gif""style=""height:400px;""></stim_listB>","","html-keyboard-response","268","3591623","0.0-17.0-1.0","69071","List2B","black","man","","","","null","","","","","","","","",""
"null","is being looked at by","","html-keyboard-response","269","3593630","0.0-17.0-2.0","69071","List2B","black","man","","","","null","","","","","","","","",""
"20367.699999999255","","","survey-text","270","3614001","0.0-17.0-3.0","69071","List2B","black","man","","","","","{""Q0"":""mike is being looked at by kate""}","<img src=""stim_listB/look4.gif""style=""height:400px;""></stim_listB>","is being looked at by","","","","","",""
"null","<div style=""font-size:60px;"">+</div>","","html-keyboard-response","271","3614504","0.0-17.0-0.1","69071","List2B","black","man","","","","null","","","","","","","","",""
"null","<img src=""stim_listB/oppose3.gif""style=""height:400px;""></stim_listB>","","html-keyboard-response","272","3616519","0.0-17.0-1.1","69071","List2B","black","man","","","","null","","","","","","","","",""
"null","is opposing","","html-keyboard-response","273","3618528","0.0-17.0-2.1","69071","List2B","black","man","","","","null","","","","","","","","",""
"59305.89999999944","","","survey-text","274","3677837","0.0-17.0-3.1","69071","List2B","black","man","","","","","{""Q0"":""mike is opposing kate""}","<img src=""stim_listB/oppose3.gif""style=""height:400px;""></stim_listB>","is opposing","","","","","",""
"null","<div style=""font-size:60px;"">+</div>","","html-keyboard-response","275","3678353","0.0-17.0-0.2","69071","List2B","black","man","","","","null","","","","","","","","",""
"null","<img src=""stim_listB/hug5.gif""style=""height:400px;""></stim_listB>","","html-keyboard-response","276","3680356","0.0-17.0-1.2","69071","List2B","black","man","","","","null","","","","","","","","",""
"null","is hugging","","html-keyboard-response","277","3682364","0.0-17.0-2.2","69071","List2B","black","man","","","","null","","","","","","","","",""
"17088.39999999944","","","survey-text","278","3699455","0.0-17.0-3.2","69071","List2B","black","man","","","","","{""Q0"":""luke is hugging fred""}","<img src=""stim_listB/hug5.gif""style=""height:400px;""></stim_listB>","is hugging","","","","","",""
"null","<div style=""font-size:60px;"">+</div>","","html-keyboard-response","279","3699958","0.0-17.0-0.3","69071","List2B","black","man","","","","null","","","","","","","","",""
"null","<img src=""stim_listB/hug4.gif""style=""height:400px;""></stim_listB>","","html-keyboard-response","280","3701974","0.0-17.0-1.3","69071","List2B","black","man","","","","null","","","","","","","","",""
"null","is being hugged by","","html-keyboard-response","281","3703981","0.0-17.0-2.3","69071","List2B","black","man","","","","null","","","","","","","","",""
"20423.700000000186","","","survey-text","282","3724407","0.0-17.0-3.3","69071","List2B","black","man","","","","","{""Q0"":""mike is being hugged bykate""}","<img src=""stim_listB/hug4.gif""style=""height:400px;""></stim_listB>","is being hugged by","","","","","",""
"null","<div style=""font-size:60px;"">+</div>","","html-keyboard-response","283","3724919","0.0-17.0-0.4","69071","List2B","black","man","","","","null","","","","","","","","",""
"null","<img src=""stim_listB/challenge4.gif""style=""height:400px;""></stim_listB>","","html-keyboard-response","284","3726936","0.0-17.0-1.4","69071","List2B","black","man","","","","null","","","","","","","","",""
"null","is being challenged by","","html-keyboard-response","285","3728938","0.0-17.0-2.4","69071","List2B","black","man","","","","null","","","","","","","","",""
"20821.400000000373","","","survey-text","286","3749762","0.0-17.0-3.4","69071","List2B","black","man","","","","","{""Q0"":""fred is being challenged by kate""}","<img src=""stim_listB/challenge4.gif""style=""height:400px;""></stim_listB>","is being challenged by","","","","","",""
"null","<div style=""font-size:60px;"">+</div>","","html-keyboard-response","287","3750273","0.0-17.0-0.5","69071","List2B","black","man","","","","null","","","","","","","","",""
"null","<img src=""stim_listB/shout5.gif""style=""height:400px;""></stim_listB>","","html-keyboard-response","288","3752276","0.0-17.0-1.5","69071","List2B","black","man","","","","null","","","","","","","","",""
"null","is shouting at","","html-keyboard-response","289","3754282","0.0-17.0-2.5","69071","List2B","black","man","","","","null","","","","","","","","",""
"10405.5","","","survey-text","290","3764691","0.0-17.0-3.5","69071","List2B","black","man","","","","","{""Q0"":""fred is shouting at luke""}","<img src=""stim_listB/shout5.gif""style=""height:400px;""></stim_listB>","is shouting at","","","","","",""
"null","<div style=""font-size:60px;"">+</div>","","html-keyboard-response","291","3765197","0.0-17.0-0.6","69071","List2B","black","man","","","","null","","","","","","","","",""
"null","<img src=""stim_listB/look8.gif""style=""height:400px;""></stim_listB>","","html-keyboard-response","292","3767210","0.0-17.0-1.6","69071","List2B","black","man","","","","null","","","","","","","","",""
"null","is being looked at by","","html-keyboard-response","293","3769223","0.0-17.0-2.6","69071","List2B","black","man","","","","null","","","","","","","","",""
"15361.799999999814","","","survey-text","294","3784588","0.0-17.0-3.6","69071","List2B","black","man","","","","","{""Q0"":""kate is being looked at by jane""}","<img src=""stim_listB/look8.gif""style=""height:400px;""></stim_listB>","is being looked at by","","","","","",""
"null","<div style=""font-size:60px;"">+</div>","","html-keyboard-response","295","3785091","0.0-17.0-0.7","69071","List2B","black","man","","","","null","","","","","","","","",""
"null","<img src=""stim_listB/greet7.gif""style=""height:400px;""></stim_listB>","","html-keyboard-response","296","3787102","0.0-17.0-1.7","69071","List2B","black","man","","","","null","","","","","","","","",""
"null","is greeting","","html-keyboard-response","297","3789114","0.0-17.0-2.7","69071","List2B","black","man","","","","null","","","","","","","","",""
"15746.5","","","survey-text","298","3804864","0.0-17.0-3.7","69071","List2B","black","man","","","","","{""Q0"":""beth is being touched by jane""}","<img src=""stim_listB/greet7.gif""style=""height:400px;""></stim_listB>","is greeting","","","","","",""
"null","<div style=""font-size:60px;"">+</div>","","html-keyboard-response","299","3805379","0.0-17.0-0.8","69071","List2B","black","man","","","","null","","","","","","","","",""
"null","<img src=""stim_listB/shout1.gif""style=""height:400px;""></stim_listB>","","html-keyboard-response","300","3807396","0.0-17.0-1.8","69071","List2B","black","man","","","","null","","","","","","","","",""
"null","is shouting at","","html-keyboard-response","301","3809406","0.0-17.0-2.8","69071","List2B","black","man","","","","null","","","","","","","","",""
"11126.599999999627","","","survey-text","302","3820535","0.0-17.0-3.8","69071","List2B","black","man","","","","","{""Q0"":""ruth is shouting at luke""}","<img src=""stim_listB/shout1.gif""style=""height:400px;""></stim_listB>","is shouting at","","","","","",""
"null","<div style=""font-size:60px;"">+</div>","","html-keyboard-response","303","3821043","0.0-17.0-0.9","69071","List2B","black","man","","","","null","","","","","","","","",""
"null","<img src=""stim_listB/kiss4.gif""style=""height:400px;""></stim_listB>","","html-keyboard-response","304","3823059","0.0-17.0-1.9","69071","List2B","black","man","","","","null","","","","","","","","",""
"null","is being kissed by","","html-keyboard-response","305","3825067","0.0-17.0-2.9","69071","List2B","black","man","","","","null","","","","","","","","",""
"13612.5","","","survey-text","306","3838682","0.0-17.0-3.9","69071","List2B","black","man","","","","","{""Q0"":""mike is being kissed by kate""}","<img src=""stim_listB/kiss4.gif""style=""height:400px;""></stim_listB>","is being kissed by","","","","","",""
"null","<div style=""font-size:60px;"">+</div>","","html-keyboard-response","307","3839197","0.0-17.0-0.10","69071","List2B","black","man","","","","null","","","","","","","","",""
"null","<img src=""stim_listB/kiss8.gif""style=""height:400px;""></stim_listB>","","html-keyboard-response","308","3841211","0.0-17.0-1.10","69071","List2B","black","man","","","","null","","","","","","","","",""
"null","is being kissed by","","html-keyboard-response","309","3843223","0.0-17.0-2.10","69071","List2B","black","man","","","","null","","","","","","","","",""
"11445.299999999814","","","survey-text","310","3854671","0.0-17.0-3.10","69071","List2B","black","man","","","","","{""Q0"":""kate is being kissed by jane""}","<img src=""stim_listB/kiss8.gif""style=""height:400px;""></stim_listB>","is being kissed by","","","","","",""
"null","<div style=""font-size:60px;"">+</div>","","html-keyboard-response","311","3855176","0.0-17.0-0.11","69071","List2B","black","man","","","","null","","","","","","","","",""
"null","<img src=""stim_listB/look5.gif""style=""height:400px;""></stim_listB>","","html-keyboard-response","312","3857192","0.0-17.0-1.11","69071","List2B","black","man","","","","null","","","","","","","","",""
"null","is looking at","","html-keyboard-response","313","3859202","0.0-17.0-2.11","69071","List2B","black","man","","","","null","","","","","","","","",""
"9438.200000000186","","","survey-text","314","3868643","0.0-17.0-3.11","69071","List2B","black","man","","","","","{""Q0"":""luke is looking at fred""}","<img src=""stim_listB/look5.gif""style=""height:400px;""></stim_listB>","is looking at","","","","","",""
"null","<div style=""font-size:60px;"">+</div>","","html-keyboard-response","315","3869152","0.0-17.0-0.12","69071","List2B","black","man","","","","null","","","","","","","","",""
"null","<img src=""stim_listB/hug6.gif""style=""height:400px;""></stim_listB>","","html-keyboard-response","316","3871169","0.0-17.0-1.12","69071","List2B","black","man","","","","null","","","","","","","","",""
"null","is being hugged by","","html-keyboard-response","317","3873179","0.0-17.0-2.12","69071","List2B","black","man","","","","null","","","","","","","","",""
"10243.099999999627","","","survey-text","318","3883425","0.0-17.0-3.12","69071","List2B","black","man","","","","","{""Q0"":""mike is being hugged by mike""}","<img src=""stim_listB/hug6.gif""style=""height:400px;""></stim_listB>","is being hugged by","","","","","",""
"null","<div style=""font-size:60px;"">+</div>","","html-keyboard-response","319","3883940","0.0-17.0-0.13","69071","List2B","black","man","","","","null","","","","","","","","",""
"null","<img src=""stim_listB/seduce2.gif""style=""height:400px;""></stim_listB>","","html-keyboard-response","320","3885952","0.0-17.0-1.13","69071","List2B","black","man","","","","null","","","","","","","","",""
"null","is being seduced by","","html-keyboard-response","321","3887961","0.0-17.0-2.13","69071","List2B","black","man","","","","null","","","","","","","","",""
"14200.5","","","survey-text","322","3902165","0.0-17.0-3.13","69071","List2B","black","man","","","","","{""Q0"":""dave is being seduced by ruth""}","<img src=""stim_listB/seduce2.gif""style=""height:400px;""></stim_listB>","is being seduced by","","","","","",""
"null","<div style=""font-size:60px;"">+</div>","","html-keyboard-response","323","3902671","0.0-17.0-0.14","69071","List2B","black","man","","","","null","","","","","","","","",""
"null","<img src=""stim_listB/copy5.gif""style=""height:400px;""></stim_listB>","","html-keyboard-response","324","3904684","0.0-17.0-1.14","69071","List2B","black","man","","","","null","","","","","","","","",""
"null","is copying","","html-keyboard-response","325","3906696","0.0-17.0-2.14","69071","List2B","black","man","","","","null","","","","","","","","",""
"7965.199999999255","","","survey-text","326","3914664","0.0-17.0-3.14","69071","List2B","black","man","","","","","{""Q0"":""dave is copying fred""}","<img src=""stim_listB/copy5.gif""style=""height:400px;""></stim_listB>","is copying","","","","","",""
"null","<div style=""font-size:60px;"">+</div>","","html-keyboard-response","327","3915166","0.0-17.0-0.15","69071","List2B","black","man","","","","null","","","","","","","","",""
"null","<img src=""stim_listB/seduce7.gif""style=""height:400px;""></stim_listB>","","html-keyboard-response","328","3917183","0.0-17.0-1.15","69071","List2B","black","man","","","","null","","","","","","","","",""
"null","is seducing","","html-keyboard-response","329","3919184","0.0-17.0-2.15","69071","List2B","black","man","","","","null","","","","","","","","",""
"12893.899999999441","","","survey-text","330","3932081","0.0-17.0-3.15","69071","List2B","black","man","","","","","{""Q0"":""ruth is seducing jane""}","<img src=""stim_listB/seduce7.gif""style=""height:400px;""></stim_listB>","is seducing","","","","","",""
"null","<div style=""font-size:60px;"">+</div>","","html-keyboard-response","331","3932595","0.0-17.0-0.16","69071","List2B","black","man","","","","null","","","","","","","","",""
"null","<img src=""stim_listB/challenge8.gif""style=""height:400px;""></stim_listB>","","html-keyboard-response","332","3934601","0.0-17.0-1.16","69071","List2B","black","man","","","","null","","","","","","","","",""
"null","is being challenged by","","html-keyboard-response","333","3936604","0.0-17.0-2.16","69071","List2B","black","man","","","","null","","","","","","","","",""
"16701.799999999814","","","survey-text","334","3953308","0.0-17.0-3.16","69071","List2B","black","man","","","","","{""Q0"":""kate is being challenged by ruth""}","<img src=""stim_listB/challenge8.gif""style=""height:400px;""></stim_listB>","is being challenged by","","","","","",""
"null","<div style=""font-size:60px;"">+</div>","","html-keyboard-response","335","3953821","0.0-17.0-0.17","69071","List2B","black","man","","","","null","","","","","","","","",""
"null","<img src=""stim_listB/copy3.gif""style=""height:400px;""></stim_listB>","","html-keyboard-response","336","3955838","0.0-17.0-1.17","69071","List2B","black","man","","","","null","","","","","","","","",""
"null","is copying","","html-keyboard-response","337","3957846","0.0-17.0-2.17","69071","List2B","black","man","","","","null","","","","","","","","",""
"10347.700000000186","","","survey-text","338","3968197","0.0-17.0-3.17","69071","List2B","black","man","","","","","{""Q0"":""mike is copying kate""}","<img src=""stim_listB/copy3.gif""style=""height:400px;""></stim_listB>","is copying","","","","","",""
"null","<div style=""font-size:60px;"">+</div>","","html-keyboard-response","339","3968712","0.0-17.0-0.18","69071","List2B","black","man","","","","null","","","","","","","","",""
"null","<img src=""stim_listB/greet5.gif""style=""height:400px;""></stim_listB>","","html-keyboard-response","340","3970729","0.0-17.0-1.18","69071","List2B","black","man","","","","null","","","","","","","","",""
"null","is greeting","","html-keyboard-response","341","3972731","0.0-17.0-2.18","69071","List2B","black","man","","","","null","","","","","","","","",""
"12399.699999999255","","","survey-text","342","3985135","0.0-17.0-3.18","69071","List2B","black","man","","","","","{""Q0"":""fred is greeting dave""}","<img src=""stim_listB/greet5.gif""style=""height:400px;""></stim_listB>","is greeting","","","","","",""
"null","<div style=""font-size:60px;"">+</div>","","html-keyboard-response","343","3985637","0.0-17.0-0.19","69071","List2B","black","man","","","","null","","","","","","","","",""
"null","<img src=""stim_listB/shout3.gif""style=""height:400px;""></stim_listB>","","html-keyboard-response","344","3987654","0.0-17.0-1.19","69071","List2B","black","man","","","","null","","","","","","","","",""
"null","is shouting at","","html-keyboard-response","345","3989656","0.0-17.0-2.19","69071","List2B","black","man","","","","null","","","","","","","","",""
"10656.700000000186","","","survey-text","346","4000316","0.0-17.0-3.19","69071","List2B","black","man","","","","","{""Q0"":""fred is shouting at beth""}","<img src=""stim_listB/shout3.gif""style=""height:400px;""></stim_listB>","is shouting at","","","","","",""
"2619.2000000001863","<img src='img/portrait_matrix_list2.jpg' style='width:900px;height:500px;''></img><p>If you have memorised all the portraits and names and are ready to start, press Continue.</p><p><strong>Please note: Your memory of these faces will be tested 4 times during this experiment.</strong></p>","0","html-button-response","347","4002937","0.0-18.0-0.0","69071","List2B","black","man","","","","","","","","","","","","",""
"4079.4000000003725","<img src=""portrait/BW2.jpg""style=""height:400px;""></img>","2","html-button-response","348","4008027","0.0-18.0-1.0","69071","List2B","black","man","","true","2","","","","","","","","","",""
"null","CORRECT","","html-keyboard-response","349","4009542","0.0-18.0-2.0-0.0","69071","List2B","black","man","","","","null","","","","","","","","",""
"3988.199999999255","<img src=""portrait/BW1.jpg""style=""height:400px;""></img>","0","html-button-response","350","4013532","0.0-18.0-4.0","69071","List2B","black","man","","true","0","","","","","","","","","",""
"null","CORRECT","","html-keyboard-response","351","4015040","0.0-18.0-5.0-0.0","69071","List2B","black","man","","","","null","","","","","","","","",""
"3061.399999999441","<img src=""portrait/WW1.jpg""style=""height:400px;""></img>","1","html-button-response","352","4018103","0.0-18.0-7.0","69071","List2B","black","man","","true","1","","","","","","","","","",""
"null","CORRECT","","html-keyboard-response","353","4019628","0.0-18.0-8.0-0.0","69071","List2B","black","man","","","","null","","","","","","","","",""
"3069.399999999441","<img src=""portrait/BM2.jpg""style=""height:400px;""></img>","5","html-button-response","354","4022700","0.0-18.0-10.0","69071","List2B","black","man","","true","5","","","","","","","","","",""
"null","CORRECT","","html-keyboard-response","355","4024213","0.0-18.0-11.0-0.0","69071","List2B","black","man","","","","null","","","","","","","","",""
"3060.600000000559","<img src=""portrait/WM1.jpg""style=""height:400px;""></img>","6","html-button-response","356","4027281","0.0-18.0-13.0","69071","List2B","black","man","","true","6","","","","","","","","","",""
"null","CORRECT","","html-keyboard-response","357","4028796","0.0-18.0-14.0-0.0","69071","List2B","black","man","","","","null","","","","","","","","",""
"2959.9000000003725","<img src=""portrait/WW2.jpg""style=""height:400px;""></img>","3","html-button-response","358","4031758","0.0-18.0-16.0","69071","List2B","black","man","","true","3","","","","","","","","","",""
"null","CORRECT","","html-keyboard-response","359","4033273","0.0-18.0-17.0-0.0","69071","List2B","black","man","","","","null","","","","","","","","",""
"2385.0999999996275","<img src=""portrait/WM2.jpg""style=""height:400px;""></img>","7","html-button-response","360","4035660","0.0-18.0-19.0","69071","List2B","black","man","","true","7","","","","","","","","","",""
"null","CORRECT","","html-keyboard-response","361","4037182","0.0-18.0-20.0-0.0","69071","List2B","black","man","","","","null","","","","","","","","",""
"3325.7000000001863","<img src=""portrait/BM1.jpg""style=""height:400px;""></img>","4","html-button-response","362","4040510","0.0-18.0-22.0","69071","List2B","black","man","","true","4","","","","","","","","","",""
"null","CORRECT","","html-keyboard-response","363","4042018","0.0-18.0-23.0-0.0","69071","List2B","black","man","","","","null","","","","","","","","",""
"1338.5999999996275","<p>You got 8 out of 8 right first time. Press Continue.</p>","0","html-button-response","364","4043359","0.0-18.0-25.0","69071","List2B","black","man","","","","","","","","","","","","",""
"null","<div style=""font-size:60px;"">+</div>","","html-keyboard-response","365","4044871","0.0-19.0-0.0","69071","List2B","black","man","","","","null","","","","","","","","",""
"null","<img src=""stim_listB/look2.gif""style=""height:400px;""></stim_listB>","","html-keyboard-response","366","4046886","0.0-19.0-1.0","69071","List2B","black","man","","","","null","","","","","","","","",""
"null","is being looked at by","","html-keyboard-response","367","4048896","0.0-19.0-2.0","69071","List2B","black","man","","","","null","","","","","","","","",""
"11444","","","survey-text","368","4060343","0.0-19.0-3.0","69071","List2B","black","man","","","","","{""Q0"":""jane is being looked by dave""}","<img src=""stim_listB/look2.gif""style=""height:400px;""></stim_listB>","is being looked at by","","","","","",""
"null","<div style=""font-size:60px;"">+</div>","","html-keyboard-response","369","4060844","0.0-19.0-0.1","69071","List2B","black","man","","","","null","","","","","","","","",""
"null","<img src=""stim_listB/touch3.gif""style=""height:400px;""></stim_listB>","","html-keyboard-response","370","4062850","0.0-19.0-1.1","69071","List2B","black","man","","","","null","","","","","","","","",""
"null","is touching","","html-keyboard-response","371","4064860","0.0-19.0-2.1","69071","List2B","black","man","","","","null","","","","","","","","",""
"8187.399999999441","","","survey-text","372","4073050","0.0-19.0-3.1","69071","List2B","black","man","","","","","{""Q0"":""mike is touching kate""}","<img src=""stim_listB/touch3.gif""style=""height:400px;""></stim_listB>","is touching","","","","","",""
"null","<div style=""font-size:60px;"">+</div>","","html-keyboard-response","373","4073567","0.0-19.0-0.2","69071","List2B","black","man","","","","null","","","","","","","","",""
"null","<img src=""stim_listB/hug3.gif""style=""height:400px;""></stim_listB>","","html-keyboard-response","374","4075583","0.0-19.0-1.2","69071","List2B","black","man","","","","null","","","","","","","","",""
"null","is hugging","","html-keyboard-response","375","4077593","0.0-19.0-2.2","69071","List2B","black","man","","","","null","","","","","","","","",""
"6911.800000000745","","","survey-text","376","4084508","0.0-19.0-3.2","69071","List2B","black","man","","","","","{""Q0"":""fred is hugging betgh""}","<img src=""stim_listB/hug3.gif""style=""height:400px;""></stim_listB>","is hugging","","","","","",""
"null","<div style=""font-size:60px;"">+</div>","","html-keyboard-response","377","4085023","0.0-19.0-0.3","69071","List2B","black","man","","","","null","","","","","","","","",""
"null","<img src=""stim_listB/seduce3.gif""style=""height:400px;""></stim_listB>","","html-keyboard-response","378","4087040","0.0-19.0-1.3","69071","List2B","black","man","","","","null","","","","","","","","",""
"null","is seducing","","html-keyboard-response","379","4089049","0.0-19.0-2.3","69071","List2B","black","man","","","","null","","","","","","","","",""
"7226.800000000745","","","survey-text","380","4096279","0.0-19.0-3.3","69071","List2B","black","man","","","","","{""Q0"":""fred is seducing beth""}","<img src=""stim_listB/seduce3.gif""style=""height:400px;""></stim_listB>","is seducing","","","","","",""
"null","<div style=""font-size:60px;"">+</div>","","html-keyboard-response","381","4096794","0.0-19.0-0.4","69071","List2B","black","man","","","","null","","","","","","","","",""
"null","<img src=""stim_listB/oppose7.gif""style=""height:400px;""></stim_listB>","","html-keyboard-response","382","4098810","0.0-19.0-1.4","69071","List2B","black","man","","","","null","","","","","","","","",""
"null","is opposing","","html-keyboard-response","383","4100820","0.0-19.0-2.4","69071","List2B","black","man","","","","null","","","","","","","","",""
"10877.299999999814","","","survey-text","384","4111700","0.0-19.0-3.4","69071","List2B","black","man","","","","","{""Q0"":""kate is opposing jane""}","<img src=""stim_listB/oppose7.gif""style=""height:400px;""></stim_listB>","is opposing","","","","","",""
"null","<div style=""font-size:60px;"">+</div>","","html-keyboard-response","385","4112206","0.0-19.0-0.5","69071","List2B","black","man","","","","null","","","","","","","","",""
"null","<img src=""stim_listB/touch8.gif""style=""height:400px;""></stim_listB>","","html-keyboard-response","386","4114208","0.0-19.0-1.5","69071","List2B","black","man","","","","null","","","","","","","","",""
"null","is being touched by","","html-keyboard-response","387","4116216","0.0-19.0-2.5","69071","List2B","black","man","","","","null","","","","","","","","",""
"47000.09999999963","","","survey-text","388","4163219","0.0-19.0-3.5","69071","List2B","black","man","","","","","{""Q0"":""ruth is being touched by beth""}","<img src=""stim_listB/touch8.gif""style=""height:400px;""></stim_listB>","is being touched by","","","","","",""
"null","<div style=""font-size:60px;"">+</div>","","html-keyboard-response","389","4163733","0.0-19.0-0.6","69071","List2B","black","man","","","","null","","","","","","","","",""
"null","<img src=""stim_listB/challenge5.gif""style=""height:400px;""></stim_listB>","","html-keyboard-response","390","4165735","0.0-19.0-1.6","69071","List2B","black","man","","","","null","","","","","","","","",""
"null","is challenging","","html-keyboard-response","391","4167736","0.0-19.0-2.6","69071","List2B","black","man","","","","null","","","","","","","","",""
"10365.700000000186","","","survey-text","392","4178104","0.0-19.0-3.6","69071","List2B","black","man","","","","","{""Q0"":""fred is opposing dave""}","<img src=""stim_listB/challenge5.gif""style=""height:400px;""></stim_listB>","is challenging","","","","","",""
"null","<div style=""font-size:60px;"">+</div>","","html-keyboard-response","393","4178608","0.0-19.0-0.7","69071","List2B","black","man","","","","null","","","","","","","","",""
"null","<img src=""stim_listB/look1.gif""style=""height:400px;""></stim_listB>","","html-keyboard-response","394","4180611","0.0-19.0-1.7","69071","List2B","black","man","","","","null","","","","","","","","",""
"null","is looking at","","html-keyboard-response","395","4182613","0.0-19.0-2.7","69071","List2B","black","man","","","","null","","","","","","","","",""
"8727.700000000186","","","survey-text","396","4191344","0.0-19.0-3.7","69071","List2B","black","man","","","","","{""Q0"":""luke is looking at ruth""}","<img src=""stim_listB/look1.gif""style=""height:400px;""></stim_listB>","is looking at","","","","","",""
"null","<div style=""font-size:60px;"">+</div>","","html-keyboard-response","397","4191846","0.0-19.0-0.8","69071","List2B","black","man","","","","null","","","","","","","","",""
"null","<img src=""stim_listB/challenge1.gif""style=""height:400px;""></stim_listB>","","html-keyboard-response","398","4193848","0.0-19.0-1.8","69071","List2B","black","man","","","","null","","","","","","","","",""
"null","is challenging","","html-keyboard-response","399","4195851","0.0-19.0-2.8","69071","List2B","black","man","","","","null","","","","","","","","",""
"10719.100000000559","","","survey-text","400","4206573","0.0-19.0-3.8","69071","List2B","black","man","","","","","{""Q0"":""dave is challenging ruth""}","<img src=""stim_listB/challenge1.gif""style=""height:400px;""></stim_listB>","is challenging","","","","","",""
"null","<div style=""font-size:60px;"">+</div>","","html-keyboard-response","401","4207086","0.0-19.0-0.9","69071","List2B","black","man","","","","null","","","","","","","","",""
"null","<img src=""stim_listB/oppose2.gif""style=""height:400px;""></stim_listB>","","html-keyboard-response","402","4209088","0.0-19.0-1.9","69071","List2B","black","man","","","","null","","","","","","","","",""
"null","is being opposed by","","html-keyboard-response","403","4211094","0.0-19.0-2.9","69071","List2B","black","man","","","","null","","","","","","","","",""
"9814.399999999441","","","survey-text","404","4220912","0.0-19.0-3.9","69071","List2B","black","man","","","","","{""Q0"":""ruth is being opposed by luke""}","<img src=""stim_listB/oppose2.gif""style=""height:400px;""></stim_listB>","is being opposed by","","","","","",""
"null","<div style=""font-size:60px;"">+</div>","","html-keyboard-response","405","4221426","0.0-19.0-0.10","69071","List2B","black","man","","","","null","","","","","","","","",""
"null","<img src=""stim_listB/oppose8.gif""style=""height:400px;""></stim_listB>","","html-keyboard-response","406","4223442","0.0-19.0-1.10","69071","List2B","black","man","","","","null","","","","","","","","",""
"null","is being opposed by","","html-keyboard-response","407","4225457","0.0-19.0-2.10","69071","List2B","black","man","","","","null","","","","","","","","",""
"16764.799999999814","","","survey-text","408","4242226","0.0-19.0-3.10","69071","List2B","black","man","","","","","{""Q0"":""beth is being opposed by ruth""}","<img src=""stim_listB/oppose8.gif""style=""height:400px;""></stim_listB>","is being opposed by","","","","","",""
"null","<div style=""font-size:60px;"">+</div>","","html-keyboard-response","409","4242729","0.0-19.0-0.11","69071","List2B","black","man","","","","null","","","","","","","","",""
"null","<img src=""stim_listB/hug7.gif""style=""height:400px;""></stim_listB>","","html-keyboard-response","410","4244732","0.0-19.0-1.11","69071","List2B","black","man","","","","null","","","","","","","","",""
"null","is hugging","","html-keyboard-response","411","4246734","0.0-19.0-2.11","69071","List2B","black","man","","","","null","","","","","","","","",""
"9192.900000000373","","","survey-text","412","4255929","0.0-19.0-3.11","69071","List2B","black","man","","","","","{""Q0"":""ruth is hugging beth""}","<img src=""stim_listB/hug7.gif""style=""height:400px;""></stim_listB>","is hugging","","","","","",""
"null","<div style=""font-size:60px;"">+</div>","","html-keyboard-response","413","4256438","0.0-19.0-0.12","69071","List2B","black","man","","","","null","","","","","","","","",""
"null","<img src=""stim_listB/copy1.gif""style=""height:400px;""></stim_listB>","","html-keyboard-response","414","4258440","0.0-19.0-1.12","69071","List2B","black","man","","","","null","","","","","","","","",""
"null","is copying","","html-keyboard-response","415","4260447","0.0-19.0-2.12","69071","List2B","black","man","","","","null","","","","","","","","",""
"7384.5999999996275","","","survey-text","416","4267835","0.0-19.0-3.12","69071","List2B","black","man","","","","","{""Q0"":""dave is copying ruth""}","<img src=""stim_listB/copy1.gif""style=""height:400px;""></stim_listB>","is copying","","","","","",""
"null","<div style=""font-size:60px;"">+</div>","","html-keyboard-response","417","4268351","0.0-19.0-0.13","69071","List2B","black","man","","","","null","","","","","","","","",""
"null","<img src=""stim_listB/kiss1.gif""style=""height:400px;""></stim_listB>","","html-keyboard-response","418","4270367","0.0-19.0-1.13","69071","List2B","black","man","","","","null","","","","","","","","",""
"null","is kissing","","html-keyboard-response","419","4272378","0.0-19.0-2.13","69071","List2B","black","man","","","","null","","","","","","","","",""
"10123.700000000186","","","survey-text","420","4282504","0.0-19.0-3.13","69071","List2B","black","man","","","","","{""Q0"":""ruth is kissing luke""}","<img src=""stim_listB/kiss1.gif""style=""height:400px;""></stim_listB>","is kissing","","","","","",""
"null","<div style=""font-size:60px;"">+</div>","","html-keyboard-response","421","4283007","0.0-19.0-0.14","69071","List2B","black","man","","","","null","","","","","","","","",""
"null","<img src=""stim_listB/kiss3.gif""style=""height:400px;""></stim_listB>","","html-keyboard-response","422","4285024","0.0-19.0-1.14","69071","List2B","black","man","","","","null","","","","","","","","",""
"null","is kissing","","html-keyboard-response","423","4287027","0.0-19.0-2.14","69071","List2B","black","man","","","","null","","","","","","","","",""
"11828.300000000745","","","survey-text","424","4298858","0.0-19.0-3.14","69071","List2B","black","man","","","","","{""Q0"":""fred is kissing kate""}","<img src=""stim_listB/kiss3.gif""style=""height:400px;""></stim_listB>","is kissing","","","","","",""
"null","<div style=""font-size:60px;"">+</div>","","html-keyboard-response","425","4299365","0.0-19.0-0.15","69071","List2B","black","man","","","","null","","","","","","","","",""
"null","<img src=""stim_listB/hug8.gif""style=""height:400px;""></stim_listB>","","html-keyboard-response","426","4301381","0.0-19.0-1.15","69071","List2B","black","man","","","","null","","","","","","","","",""
"null","is being hugged by","","html-keyboard-response","427","4303389","0.0-19.0-2.15","69071","List2B","black","man","","","","null","","","","","","","","",""
"12562.199999999255","","","survey-text","428","4315954","0.0-19.0-3.15","69071","List2B","black","man","","","","","{""Q0"":""jane is being hugged by katew""}","<img src=""stim_listB/hug8.gif""style=""height:400px;""></stim_listB>","is being hugged by","","","","","",""
"null","<div style=""font-size:60px;"">+</div>","","html-keyboard-response","429","4316462","0.0-19.0-0.16","69071","List2B","black","man","","","","null","","","","","","","","",""
"null","<img src=""stim_listB/seduce6.gif""style=""height:400px;""></stim_listB>","","html-keyboard-response","430","4318478","0.0-19.0-1.16","69071","List2B","black","man","","","","null","","","","","","","","",""
"null","is being seduced by","","html-keyboard-response","431","4320488","0.0-19.0-2.16","69071","List2B","black","man","","","","null","","","","","","","","",""
"10150.099999999627","","","survey-text","432","4330641","0.0-19.0-3.16","69071","List2B","black","man","","","","","{""Q0"":""fred is being seduced by dave""}","<img src=""stim_listB/seduce6.gif""style=""height:400px;""></stim_listB>","is being seduced by","","","","","",""
"null","<div style=""font-size:60px;"">+</div>","","html-keyboard-response","433","4331148","0.0-19.0-0.17","69071","List2B","black","man","","","","null","","","","","","","","",""
"null","<img src=""stim_listB/kiss6.gif""style=""height:400px;""></stim_listB>","","html-keyboard-response","434","4333164","0.0-19.0-1.17","69071","List2B","black","man","","","","null","","","","","","","","",""
"null","is being kissed by","","html-keyboard-response","435","4335173","0.0-19.0-2.17","69071","List2B","black","man","","","","null","","","","","","","","",""
"10153.5","","","survey-text","436","4345330","0.0-19.0-3.17","69071","List2B","black","man","","","","","{""Q0"":""mike is being kissed by dave""}","<img src=""stim_listB/kiss6.gif""style=""height:400px;""></stim_listB>","is being kissed by","","","","","",""
"null","<div style=""font-size:60px;"">+</div>","","html-keyboard-response","437","4345832","0.0-19.0-0.18","69071","List2B","black","man","","","","null","","","","","","","","",""
"null","<img src=""stim_listB/touch7.gif""style=""height:400px;""></stim_listB>","","html-keyboard-response","438","4347841","0.0-19.0-1.18","69071","List2B","black","man","","","","null","","","","","","","","",""
"null","is touching","","html-keyboard-response","439","4349843","0.0-19.0-2.18","69071","List2B","black","man","","","","null","","","","","","","","",""
"20234.60000000056","","","survey-text","440","4370083","0.0-19.0-3.18","69071","List2B","black","man","","","","","{""Q0"":""jane is touching kate""}","<img src=""stim_listB/touch7.gif""style=""height:400px;""></stim_listB>","is touching","","","","","",""
"null","<div style=""font-size:60px;"">+</div>","","html-keyboard-response","441","4370590","0.0-19.0-0.19","69071","List2B","black","man","","","","null","","","","","","","","",""
"null","<img src=""stim_listB/kiss2.gif""style=""height:400px;""></stim_listB>","","html-keyboard-response","442","4372606","0.0-19.0-1.19","69071","List2B","black","man","","","","null","","","","","","","","",""
"null","is being kissed by","","html-keyboard-response","443","4374622","0.0-19.0-2.19","69071","List2B","black","man","","","","null","","","","","","","","",""
"29921.200000000186","","","survey-text","444","4404546","0.0-19.0-3.19","69071","List2B","black","man","","","","","{""Q0"":""luke is kissing kate""}","<img src=""stim_listB/kiss2.gif""style=""height:400px;""></stim_listB>","is being kissed by","","","","","",""
"2926.7000000001863","<p>Thank you for completing that task.</p><p>The final part of this session is a questionnaire that will take about 4 minutes.</p><p>Press Continue.</p>","0","html-button-response","445","4407475","0.0-20.0","69071","List2B","black","man","","","","","","","","","","","","",""
"33697.5","","","survey-text","446","4442188","0.0-21.0","69071","List2B","black","man","","","","","{""Q0"":""28"",""Q1"":""english"",""Q2"":""english"",""Q3"":""united states"",""Q4"":""usa"",""Q5"":""black"",""Q6"":""male""}","","","demographics","","","","",""
"1829.5999999996275","<p>Have you lived in the USA for the last 5 years or more?</p>","0","html-button-response","447","4444026","0.0-22.0","69071","List2B","black","man","","","","","","","","fiveyears","","","","",""
"6194.100000000559","<p>Move the slider to show the extent to which you agree with the following statements.</p>","0","html-button-response","448","4451225","0.0-23.0","69071","List2B","black","man","","","","","","","","","","","","",""
"2983.300000000745","","","html-slider-response","449","4455216","0.0-24.0-0.0-0.0","69071","List2B","black","man","","","","","","","","survey_race","100","","","People of my race have a lot in common with each other.","common"
"2727.5","","","html-slider-response","450","4457946","0.0-24.0-0.0-0.1","69071","List2B","black","man","","","","","","","","survey_race","100","","","I am glad to be my age.","filler"
"3972.100000000559","","","html-slider-response","451","4461921","0.0-24.0-0.0-0.2","69071","List2B","black","man","","","","","","","","survey_race","77","","","I enjoy being in large groups.","filler"
"5469.899999999441","","","html-slider-response","452","4467394","0.0-24.0-0.0-0.3","69071","List2B","black","man","","","","","","","","survey_race","100","","","The fact that I am my race is an important part of my identity.","identity"
"6213.700000000186","","","html-slider-response","453","4473612","0.0-24.0-0.0-0.4","69071","List2B","black","man","","","","","","","","survey_race","95","","","I feel a bond with people the same age as me.","filler"
"3295.5999999996275","","","html-slider-response","454","4476912","0.0-24.0-0.0-0.5","69071","List2B","black","man","","","","","","","","survey_race","100","","","I have a lot in common with people of a similar age to me.","filler"
"5500.200000000186","","","html-slider-response","455","4482415","0.0-24.0-0.0-0.6","69071","List2B","black","man","","","","","","","","survey_race","81","","","Being my race is an important part of how I see myself.","important"
"3389.0999999996275","","","html-slider-response","456","4485807","0.0-24.0-0.0-0.7","69071","List2B","black","man","","","","","","","","survey_race","96","","","Being my age gives me a good feeling.","filler"
"3726.399999999441","","","html-slider-response","457","4489537","0.0-24.0-0.0-0.8","69071","List2B","black","man","","","","","","","","survey_race","91","","","People of my race are very similar to each other.","verysimilar"
"3141.0999999996275","","","html-slider-response","458","4492682","0.0-24.0-0.0-0.9","69071","List2B","black","man","","","","","","","","survey_race","100","","","I think that my race has a lot to be proud of.","proud"
"2808.0999999996275","","","html-slider-response","459","4495493","0.0-24.0-0.0-0.10","69071","List2B","black","man","","","","","","","","survey_race","100","","","I feel solidarity with people the same age as me.","filler"
"3779.4000000003725","","","html-slider-response","460","4499274","0.0-24.0-0.0-0.11","69071","List2B","black","man","","","","","","","","survey_race","79","","","I often think about the fact that I am my race.","often"
"3956.4000000003725","","","html-slider-response","461","4503235","0.0-24.0-0.0-0.12","69071","List2B","black","man","","","","","","","","survey_race","64","","","I have a lot in common with the average person of my race.","average"
"6742.700000000186","","","html-slider-response","462","4509981","0.0-24.0-0.0-0.13","69071","List2B","black","man","","","","","","","","survey_race","100","","","The older I get, the wiser I feel.","filler"
"3273.899999999441","","","html-slider-response","463","4513259","0.0-24.0-0.0-0.14","69071","List2B","black","man","","","","","","","","survey_race","100","","","I am glad to be the age I am.","filler"
"6274.600000000559","","","html-slider-response","464","4519536","0.0-24.0-0.0-0.15","69071","List2B","black","man","","","","","","","","survey_race","100","","","I feel solidarity with my race.","solidarity"
"5356.5999999996275","","","html-slider-response","465","4524896","0.0-24.0-0.0-0.16","69071","List2B","black","man","","","","","","","","survey_race","100","","","I am glad to be my race.","glad"
"3175.5999999996275","","","html-slider-response","466","4528076","0.0-24.0-0.0-0.17","69071","List2B","black","man","","","","","","","","survey_race","100","","","It is pleasant to be my race.","pleasant"
"3651.2000000001863","","","html-slider-response","467","4531729","0.0-24.0-0.0-0.18","69071","List2B","black","man","","","","","","","","survey_race","74","","","I consider myself an extrovert.","filler"
"7551.700000000186","","","html-slider-response","468","4539285","0.0-24.0-0.0-0.19","69071","List2B","black","man","","","","","","","","survey_race","44","","","I often think about the fact that I am my age.","filler"
"3075.699999999255","","","html-slider-response","469","4542365","0.0-24.0-0.0-0.20","69071","List2B","black","man","","","","","","","","survey_race","34","","","I consider myself an introvert.","filler"
"3112.5999999996275","","","html-slider-response","470","4545481","0.0-24.0-0.0-0.21","69071","List2B","black","man","","","","","","","","survey_race","74","","","I am similar to the average person of my race.","similar"
"6649.200000000186","","","html-slider-response","471","4552136","0.0-24.0-0.0-0.22","69071","List2B","black","man","","","","","","","","survey_race","40","","","My age is not an important part of who I am.","filler"
"4202.399999999441","","","html-slider-response","472","4556342","0.0-24.0-0.0-0.23","69071","List2B","black","man","","","","","","","","survey_race","91","","","Getting older does not worry me.","filler"
"3653.5999999996275","","","html-slider-response","473","4560000","0.0-24.0-0.0-0.24","69071","List2B","black","man","","","","","","","","survey_race","88","","","People my age have a lot in common with each other.","filler"
"3070.5999999996275","","","html-slider-response","474","4563074","0.0-24.0-0.0-0.25","69071","List2B","black","man","","","","","","","","survey_race","98","","","Being my race gives me a good feeling.","feeling"
"3643.2999999998137","","","html-slider-response","475","4566720","0.0-24.0-0.0-0.26","69071","List2B","black","man","","","","","","","","survey_race","100","","","I feel committed to my race.","committed"
"3061","","","html-slider-response","476","4569784","0.0-24.0-0.0-0.27","69071","List2B","black","man","","","","","","","","survey_race","100","","","I feel a bond with my race.","bond"
"4955","","","html-slider-response","477","4574743","0.0-24.0-1.0-0.0","69071","List2B","black","man","","","","","","","","survey_gender","100","","","Being my gender gives me a good feeling.","feeling"
"3492.399999999441","","","html-slider-response","478","4578240","0.0-24.0-1.0-0.1","69071","List2B","black","man","","","","","","","","survey_gender","100","","","I am glad to be my gender.","glad"
"3974.4000000003725","","","html-slider-response","479","4582218","0.0-24.0-1.0-0.2","69071","List2B","black","man","","","","","","","","survey_gender","100","","","I feel a bond with my friends.","filler"
