"rt","stimulus","button_pressed","trial_type","trial_index","time_elapsed","internal_node_id","subject","list","ppt_race","ppt_gender","url","first_guess","correct","key_press","responses","image_type","phrase_type","test_part","response","stimulus1","stimulus2","question_type","survey_item"
"14522.89999961853","Welcome to the experiment. Press Continue to begin.","0","html-button-response","0","14526","0.0-0.0","6923","List2A","white","man","","","","","","","","","","","","",""
"358595.30000019073","","","external-html","1","374398","0.0-1.0","6923","List2A","white","man","consent.html","","","","","","","","","","","",""
"14007.400000095367","<p>On the next page, you will see portraits of 8 people and their names.</p><p>Your first task is to take a few minutes to memorise the names of these people.</p><p>You will have to recall their names during the rest of the experiment, so it is</p><p>essential that you try to memorise these people and their names as best as you can.</p><br><p><strong>You will then be tested on your memory of these names and portraits.</strong></p><br><p>The experiment will start after you have completed this memory test.</p><br><p>Ready?</p>","0","html-button-response","2","388406","0.0-2.0","6923","List2A","white","man","","","","","","","","","","","","",""
"119398.09999990463","<img src='img/portrait_matrix_list2.jpg' style='width:900px;height:500px;''></img><p>If you have memorised all the portraits and names and are ready to start, press Continue.</p><p><strong>Please note: Your memory of these faces will be tested 4 times during this experiment.</strong></p>","0","html-button-response","3","508808","0.0-3.0-0.0","6923","List2A","white","man","","","","","","","","","","","","",""
"6160.099999904633","<img src=""portrait/WW2.jpg""style=""height:400px;""></img>","3","html-button-response","4","515986","0.0-3.0-1.0","6923","List2A","white","man","","true","3","","","","","","","","","",""
"null","CORRECT","","html-keyboard-response","5","517503","0.0-3.0-2.0-0.0","6923","List2A","white","man","","","","null","","","","","","","","",""
"10337.400000095367","<img src=""portrait/BM1.jpg""style=""height:400px;""></img>","4","html-button-response","6","527847","0.0-3.0-4.0","6923","List2A","white","man","","true","4","","","","","","","","","",""
"null","CORRECT","","html-keyboard-response","7","529363","0.0-3.0-5.0-0.0","6923","List2A","white","man","","","","null","","","","","","","","",""
"8146.699999809265","<img src=""portrait/WM2.jpg""style=""height:400px;""></img>","7","html-button-response","8","537512","0.0-3.0-7.0","6923","List2A","white","man","","true","7","","","","","","","","","",""
"null","CORRECT","","html-keyboard-response","9","539034","0.0-3.0-8.0-0.0","6923","List2A","white","man","","","","null","","","","","","","","",""
"12374.60000038147","<img src=""portrait/WW1.jpg""style=""height:400px;""></img>","1","html-button-response","10","551409","0.0-3.0-10.0","6923","List2A","white","man","","true","1","","","","","","","","","",""
"null","CORRECT","","html-keyboard-response","11","552921","0.0-3.0-11.0-0.0","6923","List2A","white","man","","","","null","","","","","","","","",""
"3653.7000002861023","<img src=""portrait/WM1.jpg""style=""height:400px;""></img>","6","html-button-response","12","556577","0.0-3.0-13.0","6923","List2A","white","man","","true","6","","","","","","","","","",""
"null","CORRECT","","html-keyboard-response","13","558091","0.0-3.0-14.0-0.0","6923","List2A","white","man","","","","null","","","","","","","","",""
"5923.800000190735","<img src=""portrait/BM2.jpg""style=""height:400px;""></img>","5","html-button-response","14","564017","0.0-3.0-16.0","6923","List2A","white","man","","true","5","","","","","","","","","",""
"null","CORRECT","","html-keyboard-response","15","565527","0.0-3.0-17.0-0.0","6923","List2A","white","man","","","","null","","","","","","","","",""
"2737.5999999046326","<img src=""portrait/BW2.jpg""style=""height:400px;""></img>","2","html-button-response","16","568266","0.0-3.0-19.0","6923","List2A","white","man","","true","2","","","","","","","","","",""
"null","CORRECT","","html-keyboard-response","17","569781","0.0-3.0-20.0-0.0","6923","List2A","white","man","","","","null","","","","","","","","",""
"4453.300000190735","<img src=""portrait/BW1.jpg""style=""height:400px;""></img>","0","html-button-response","18","574236","0.0-3.0-22.0","6923","List2A","white","man","","true","0","","","","","","","","","",""
"null","CORRECT","","html-keyboard-response","19","575755","0.0-3.0-23.0-0.0","6923","List2A","white","man","","","","null","","","","","","","","",""
"3225.2000002861023","<p>You got 8 out of 8 right first time. Press Continue.</p>","0","html-button-response","20","578981","0.0-3.0-25.0","6923","List2A","white","man","","","","","","","","","","","","",""
"80549.19999980927","<p>In this experiment, you will view photographs of the people from the memory game interacting.</p><p>By using the <strong>exact</strong> phrase given <i>after</i> the photograph appears and recalling the correct names of the people in the photographs, form a sentence describing the interaction. You do not need to capitalise names.</p><p>Type your answer in the space provided. Please complete every sentence before moving onto the next trial.</p><p>You will only have a few seconds to memorise each given photograph and phrase before you can respond, so try your best to focus.</p><p>An example is given below. Press 'Continue' when you are ready.</p><img src='img/speaking_example.jpg' style='width:800px;height:460px;''></img>","0","html-button-response","21","660545","0.0-4.0","6923","List2A","white","man","","","","","","","","","","","","",""
"2503.699999809265","<p>Before the experiment starts, you will watch two example trials. Press 'Continue'.</p>","0","html-button-response","22","664063","0.0-5.0","6923","List2A","white","man","","","","","","","","","","","","",""
"null","<img src='img/play_eg.gif' style='height:400px;''></img>","","html-keyboard-response","23","667080","0.0-6.0","6923","List2A","white","man","","","","null","","","","","","","","",""
"null","<p>is playing with</p>","","html-keyboard-response","24","669086","0.0-7.0","6923","List2A","white","man","","","","null","","","","","","","","",""
"7996.400000095367","<p><b>Answer:</b> jane is playing with ruth</p>","0","html-button-response","25","677084","0.0-8.0","6923","List2A","white","man","","","","","","","","","","","","",""
"null","<img src='img/dance_eg.gif' style='height:400px;''></img>","","html-keyboard-response","26","680112","0.0-9.0","6923","List2A","white","man","","","","null","","","","","","","","",""
"null","<p>is being entertained by</p>","","html-keyboard-response","27","682114","0.0-10.0","6923","List2A","white","man","","","","null","","","","","","","","",""
"6490.300000190735","<p><b>Answer:</b> fred is being entertained by mike</p>","0","html-button-response","28","688605","0.0-11.0","6923","List2A","white","man","","","","","","","","","","","","",""
"10788.800000190735","<p>Ready to start the experiment?</p><br><p><strong>Remember to describe the picture using a full sentence,</strong></p><p><strong>that combines the names of the people with the <i>exact</i> phrase given.</strong></p><p><strong>To receive full payment you must do this correctly.</strong></p><p><strong> You do not need to capitalise names or use punctuation.</strong></p><br><p>Press 'Continue' to begin.</p>","0","html-button-response","29","700396","0.0-12.0","6923","List2A","white","man","","","","","","","","","","","","",""
"null","<div style=""font-size:60px;"">+</div>","","html-keyboard-response","30","701914","0.0-13.0-0.0","6923","List2A","white","man","","","","null","","","","","","","","",""
"null","<img src=""stim_listA/challenge7.gif""style=""height:400px;""></stim_listA>","","html-keyboard-response","31","703925","0.0-13.0-1.0","6923","List2A","white","man","","","","null","","","","","","","","",""
"null","is challenging","","html-keyboard-response","32","705926","0.0-13.0-2.0","6923","List2A","white","man","","","","null","","","","","","","","",""
"24401.900000095367","","","survey-text","33","730330","0.0-13.0-3.0","6923","List2A","white","man","","","","","{""Q0"":""beth is challenging jane""}","<img src=""stim_listA/challenge7.gif""style=""height:400px;""></stim_listA>","is challenging","","","","","",""
"null","<div style=""font-size:60px;"">+</div>","","html-keyboard-response","34","730839","0.0-13.0-0.1","6923","List2A","white","man","","","","null","","","","","","","","",""
"null","<img src=""stim_listA/copy7.gif""style=""height:400px;""></stim_listA>","","html-keyboard-response","35","732841","0.0-13.0-1.1","6923","List2A","white","man","","","","null","","","","","","","","",""
"null","is copying","","html-keyboard-response","36","734849","0.0-13.0-2.1","6923","List2A","white","man","","","","null","","","","","","","","",""
"11111.200000286102","","","survey-text","37","745963","0.0-13.0-3.1","6923","List2A","white","man","","","","","{""Q0"":""beth is copying ruth""}","<img src=""stim_listA/copy7.gif""style=""height:400px;""></stim_listA>","is copying","","","","","",""
"null","<div style=""font-size:60px;"">+</div>","","html-keyboard-response","38","746478","0.0-13.0-0.2","6923","List2A","white","man","","","","null","","","","","","","","",""
"null","<img src=""stim_listA/hug7.gif""style=""height:400px;""></stim_listA>","","html-keyboard-response","39","748479","0.0-13.0-1.2","6923","List2A","white","man","","","","null","","","","","","","","",""
"null","is hugging","","html-keyboard-response","40","750485","0.0-13.0-2.2","6923","List2A","white","man","","","","null","","","","","","","","",""
"30201.800000190735","","","survey-text","41","780689","0.0-13.0-3.2","6923","List2A","white","man","","","","","{""Q0"":""beth is hugging ruth""}","<img src=""stim_listA/hug7.gif""style=""height:400px;""></stim_listA>","is hugging","","","","","",""
"null","<div style=""font-size:60px;"">+</div>","","html-keyboard-response","42","781203","0.0-13.0-0.3","6923","List2A","white","man","","","","null","","","","","","","","",""
"null","<img src=""stim_listA/shout8.gif""style=""height:400px;""></stim_listA>","","html-keyboard-response","43","783218","0.0-13.0-1.3","6923","List2A","white","man","","","","null","","","","","","","","",""
"null","is being shouted at by","","html-keyboard-response","44","785222","0.0-13.0-2.3","6923","List2A","white","man","","","","null","","","","","","","","",""
"13643","","","survey-text","45","798868","0.0-13.0-3.3","6923","List2A","white","man","","","","","{""Q0"":""kate is being shouted at by jane""}","<img src=""stim_listA/shout8.gif""style=""height:400px;""></stim_listA>","is being shouted at by","","","","","",""
"null","<div style=""font-size:60px;"">+</div>","","html-keyboard-response","46","799370","0.0-13.0-0.4","6923","List2A","white","man","","","","null","","","","","","","","",""
"null","<img src=""stim_listA/challenge6.gif""style=""height:400px;""></stim_listA>","","html-keyboard-response","47","801373","0.0-13.0-1.4","6923","List2A","white","man","","","","null","","","","","","","","",""
"null","is being challenged by","","html-keyboard-response","48","803379","0.0-13.0-2.4","6923","List2A","white","man","","","","null","","","","","","","","",""
"15962.599999904633","","","survey-text","49","819345","0.0-13.0-3.4","6923","List2A","white","man","","","","","{""Q0"":""mike is being challenged by luke""}","<img src=""stim_listA/challenge6.gif""style=""height:400px;""></stim_listA>","is being challenged by","","","","","",""
"null","<div style=""font-size:60px;"">+</div>","","html-keyboard-response","50","819858","0.0-13.0-0.5","6923","List2A","white","man","","","","null","","","","","","","","",""
"null","<img src=""stim_listA/kiss1.gif""style=""height:400px;""></stim_listA>","","html-keyboard-response","51","821875","0.0-13.0-1.5","6923","List2A","white","man","","","","null","","","","","","","","",""
"null","is kissing","","html-keyboard-response","52","823878","0.0-13.0-2.5","6923","List2A","white","man","","","","null","","","","","","","","",""
"17835.599999904633","","","survey-text","53","841716","0.0-13.0-3.5","6923","List2A","white","man","","","","","{""Q0"":""luke is kissing ruth""}","<img src=""stim_listA/kiss1.gif""style=""height:400px;""></stim_listA>","is kissing","","","","","",""
"null","<div style=""font-size:60px;"">+</div>","","html-keyboard-response","54","842218","0.0-13.0-0.6","6923","List2A","white","man","","","","null","","","","","","","","",""
"null","<img src=""stim_listA/shout1.gif""style=""height:400px;""></stim_listA>","","html-keyboard-response","55","844220","0.0-13.0-1.6","6923","List2A","white","man","","","","null","","","","","","","","",""
"null","is shouting at","","html-keyboard-response","56","846223","0.0-13.0-2.6","6923","List2A","white","man","","","","null","","","","","","","","",""
"12779.099999904633","","","survey-text","57","859006","0.0-13.0-3.6","6923","List2A","white","man","","","","","{""Q0"":""ruth is shouting at luke""}","<img src=""stim_listA/shout1.gif""style=""height:400px;""></stim_listA>","is shouting at","","","","","",""
"null","<div style=""font-size:60px;"">+</div>","","html-keyboard-response","58","859508","0.0-13.0-0.7","6923","List2A","white","man","","","","null","","","","","","","","",""
"null","<img src=""stim_listA/seduce1.gif""style=""height:400px;""></stim_listA>","","html-keyboard-response","59","861522","0.0-13.0-1.7","6923","List2A","white","man","","","","null","","","","","","","","",""
"null","is seducing","","html-keyboard-response","60","863523","0.0-13.0-2.7","6923","List2A","white","man","","","","null","","","","","","","","",""
"7536.89999961853","","","survey-text","61","871062","0.0-13.0-3.7","6923","List2A","white","man","","","","","{""Q0"":""jane is seducing luke""}","<img src=""stim_listA/seduce1.gif""style=""height:400px;""></stim_listA>","is seducing","","","","","",""
"null","<div style=""font-size:60px;"">+</div>","","html-keyboard-response","62","871563","0.0-13.0-0.8","6923","List2A","white","man","","","","null","","","","","","","","",""
"null","<img src=""stim_listA/greet4.gif""style=""height:400px;""></stim_listA>","","html-keyboard-response","63","873578","0.0-13.0-1.8","6923","List2A","white","man","","","","null","","","","","","","","",""
"null","is being greeted by","","html-keyboard-response","64","875592","0.0-13.0-2.8","6923","List2A","white","man","","","","null","","","","","","","","",""
"13864.599999904633","","","survey-text","65","889459","0.0-13.0-3.8","6923","List2A","white","man","","","","","{""Q0"":""kate is being greeted by fred""}","<img src=""stim_listA/greet4.gif""style=""height:400px;""></stim_listA>","is being greeted by","","","","","",""
"null","<div style=""font-size:60px;"">+</div>","","html-keyboard-response","66","889960","0.0-13.0-0.9","6923","List2A","white","man","","","","null","","","","","","","","",""
"null","<img src=""stim_listA/look7.gif""style=""height:400px;""></stim_listA>","","html-keyboard-response","67","891977","0.0-13.0-1.9","6923","List2A","white","man","","","","null","","","","","","","","",""
"null","is looking at","","html-keyboard-response","68","893992","0.0-13.0-2.9","6923","List2A","white","man","","","","null","","","","","","","","",""
"8004.699999809265","","","survey-text","69","901999","0.0-13.0-3.9","6923","List2A","white","man","","","","","{""Q0"":""beth is looking at ruth""}","<img src=""stim_listA/look7.gif""style=""height:400px;""></stim_listA>","is looking at","","","","","",""
"null","<div style=""font-size:60px;"">+</div>","","html-keyboard-response","70","902515","0.0-13.0-0.10","6923","List2A","white","man","","","","null","","","","","","","","",""
"null","<img src=""stim_listA/oppose1.gif""style=""height:400px;""></stim_listA>","","html-keyboard-response","71","904518","0.0-13.0-1.10","6923","List2A","white","man","","","","null","","","","","","","","",""
"null","is opposing","","html-keyboard-response","72","906521","0.0-13.0-2.10","6923","List2A","white","man","","","","null","","","","","","","","",""
"5893.599999904633","","","survey-text","73","912418","0.0-13.0-3.10","6923","List2A","white","man","","","","","{""Q0"":""dave is opposing jane""}","<img src=""stim_listA/oppose1.gif""style=""height:400px;""></stim_listA>","is opposing","","","","","",""
"null","<div style=""font-size:60px;"">+</div>","","html-keyboard-response","74","912920","0.0-13.0-0.11","6923","List2A","white","man","","","","null","","","","","","","","",""
"null","<img src=""stim_listA/kiss8.gif""style=""height:400px;""></stim_listA>","","html-keyboard-response","75","914934","0.0-13.0-1.11","6923","List2A","white","man","","","","null","","","","","","","","",""
"null","is being kissed by","","html-keyboard-response","76","916942","0.0-13.0-2.11","6923","List2A","white","man","","","","null","","","","","","","","",""
"9756.900000095367","","","survey-text","77","926702","0.0-13.0-3.11","6923","List2A","white","man","","","","","{""Q0"":""kate is being kissed by jane""}","<img src=""stim_listA/kiss8.gif""style=""height:400px;""></stim_listA>","is being kissed by","","","","","",""
"null","<div style=""font-size:60px;"">+</div>","","html-keyboard-response","78","927214","0.0-13.0-0.12","6923","List2A","white","man","","","","null","","","","","","","","",""
"null","<img src=""stim_listA/touch4.gif""style=""height:400px;""></stim_listA>","","html-keyboard-response","79","929221","0.0-13.0-1.12","6923","List2A","white","man","","","","null","","","","","","","","",""
"null","is being touched by","","html-keyboard-response","80","931235","0.0-13.0-2.12","6923","List2A","white","man","","","","null","","","","","","","","",""
"9007.700000286102","","","survey-text","81","940245","0.0-13.0-3.12","6923","List2A","white","man","","","","","{""Q0"":""fred is being touched by beth""}","<img src=""stim_listA/touch4.gif""style=""height:400px;""></stim_listA>","is being touched by","","","","","",""
"null","<div style=""font-size:60px;"">+</div>","","html-keyboard-response","82","940757","0.0-13.0-0.13","6923","List2A","white","man","","","","null","","","","","","","","",""
"null","<img src=""stim_listA/shout7.gif""style=""height:400px;""></stim_listA>","","html-keyboard-response","83","942772","0.0-13.0-1.13","6923","List2A","white","man","","","","null","","","","","","","","",""
"null","is shouting at","","html-keyboard-response","84","944782","0.0-13.0-2.13","6923","List2A","white","man","","","","null","","","","","","","","",""
"11164.300000190735","","","survey-text","85","955949","0.0-13.0-3.13","6923","List2A","white","man","","","","","{""Q0"":""beth is shouting at ruth""}","<img src=""stim_listA/shout7.gif""style=""height:400px;""></stim_listA>","is shouting at","","","","","",""
"null","<div style=""font-size:60px;"">+</div>","","html-keyboard-response","86","956462","0.0-13.0-0.14","6923","List2A","white","man","","","","null","","","","","","","","",""
"null","<img src=""stim_listA/challenge8.gif""style=""height:400px;""></stim_listA>","","html-keyboard-response","87","958467","0.0-13.0-1.14","6923","List2A","white","man","","","","null","","","","","","","","",""
"null","is being challenged by","","html-keyboard-response","88","960479","0.0-13.0-2.14","6923","List2A","white","man","","","","null","","","","","","","","",""
"9962.199999809265","","","survey-text","89","970443","0.0-13.0-3.14","6923","List2A","white","man","","","","","{""Q0"":""kate is being challenged by ruth""}","<img src=""stim_listA/challenge8.gif""style=""height:400px;""></stim_listA>","is being challenged by","","","","","",""
"null","<div style=""font-size:60px;"">+</div>","","html-keyboard-response","90","970947","0.0-13.0-0.15","6923","List2A","white","man","","","","null","","","","","","","","",""
"null","<img src=""stim_listA/hug5.gif""style=""height:400px;""></stim_listA>","","html-keyboard-response","91","972950","0.0-13.0-1.15","6923","List2A","white","man","","","","null","","","","","","","","",""
"null","is hugging","","html-keyboard-response","92","974963","0.0-13.0-2.15","6923","List2A","white","man","","","","null","","","","","","","","",""
"5548.299999713898","","","survey-text","93","980514","0.0-13.0-3.15","6923","List2A","white","man","","","","","{""Q0"":""luke is hugging fred""}","<img src=""stim_listA/hug5.gif""style=""height:400px;""></stim_listA>","is hugging","","","","","",""
"null","<div style=""font-size:60px;"">+</div>","","html-keyboard-response","94","981024","0.0-13.0-0.16","6923","List2A","white","man","","","","null","","","","","","","","",""
"null","<img src=""stim_listA/greet6.gif""style=""height:400px;""></stim_listA>","","html-keyboard-response","95","983033","0.0-13.0-1.16","6923","List2A","white","man","","","","null","","","","","","","","",""
"null","is being greeted by","","html-keyboard-response","96","985041","0.0-13.0-2.16","6923","List2A","white","man","","","","null","","","","","","","","",""
"14156.200000286102","","","survey-text","97","999201","0.0-13.0-3.16","6923","List2A","white","man","","","","","{""Q0"":""mike is being greeted by luke""}","<img src=""stim_listA/greet6.gif""style=""height:400px;""></stim_listA>","is being greeted by","","","","","",""
"null","<div style=""font-size:60px;"">+</div>","","html-keyboard-response","98","999716","0.0-13.0-0.17","6923","List2A","white","man","","","","null","","","","","","","","",""
"null","<img src=""stim_listA/copy3.gif""style=""height:400px;""></stim_listA>","","html-keyboard-response","99","1001725","0.0-13.0-1.17","6923","List2A","white","man","","","","null","","","","","","","","",""
"null","is copying","","html-keyboard-response","100","1003740","0.0-13.0-2.17","6923","List2A","white","man","","","","null","","","","","","","","",""
"5547.699999809265","","","survey-text","101","1009289","0.0-13.0-3.17","6923","List2A","white","man","","","","","{""Q0"":""mike is copying beth""}","<img src=""stim_listA/copy3.gif""style=""height:400px;""></stim_listA>","is copying","","","","","",""
"null","<div style=""font-size:60px;"">+</div>","","html-keyboard-response","102","1009799","0.0-13.0-0.18","6923","List2A","white","man","","","","null","","","","","","","","",""
"null","<img src=""stim_listA/hug2.gif""style=""height:400px;""></stim_listA>","","html-keyboard-response","103","1011804","0.0-13.0-1.18","6923","List2A","white","man","","","","null","","","","","","","","",""
"null","is being hugged by","","html-keyboard-response","104","1013807","0.0-13.0-2.18","6923","List2A","white","man","","","","null","","","","","","","","",""
"8156.199999809265","","","survey-text","105","1021965","0.0-13.0-3.18","6923","List2A","white","man","","","","","{""Q0"":""dave is being hugged by jane""}","<img src=""stim_listA/hug2.gif""style=""height:400px;""></stim_listA>","is being hugged by","","","","","",""
"null","<div style=""font-size:60px;"">+</div>","","html-keyboard-response","106","1022481","0.0-13.0-0.19","6923","List2A","white","man","","","","null","","","","","","","","",""
"null","<img src=""stim_listA/touch1.gif""style=""height:400px;""></stim_listA>","","html-keyboard-response","107","1024485","0.0-13.0-1.19","6923","List2A","white","man","","","","null","","","","","","","","",""
"null","is touching","","html-keyboard-response","108","1026496","0.0-13.0-2.19","6923","List2A","white","man","","","","null","","","","","","","","",""
"6107.700000286102","","","survey-text","109","1032606","0.0-13.0-3.19","6923","List2A","white","man","","","","","{""Q0"":""dave is touching jane""}","<img src=""stim_listA/touch1.gif""style=""height:400px;""></stim_listA>","is touching","","","","","",""
"10543.5","<img src='img/portrait_matrix_list2.jpg' style='width:900px;height:500px;''></img><p>If you have memorised all the portraits and names and are ready to start, press Continue.</p><p><strong>Please note: Your memory of these faces will be tested 4 times during this experiment.</strong></p>","0","html-button-response","110","1043152","0.0-14.0-0.0","6923","List2A","white","man","","","","","","","","","","","","",""
"11940.799999713898","<img src=""portrait/WW1.jpg""style=""height:400px;""></img>","1","html-button-response","111","1056109","0.0-14.0-1.0","6923","List2A","white","man","","true","1","","","","","","","","","",""
"null","CORRECT","","html-keyboard-response","112","1057617","0.0-14.0-2.0-0.0","6923","List2A","white","man","","","","null","","","","","","","","",""
"3065.4000000953674","<img src=""portrait/WM1.jpg""style=""height:400px;""></img>","6","html-button-response","113","1060685","0.0-14.0-4.0","6923","List2A","white","man","","true","6","","","","","","","","","",""
"null","CORRECT","","html-keyboard-response","114","1062191","0.0-14.0-5.0-0.0","6923","List2A","white","man","","","","null","","","","","","","","",""
"2836.4000000953674","<img src=""portrait/BM2.jpg""style=""height:400px;""></img>","5","html-button-response","115","1065030","0.0-14.0-7.0","6923","List2A","white","man","","true","5","","","","","","","","","",""
"null","CORRECT","","html-keyboard-response","116","1066545","0.0-14.0-8.0-0.0","6923","List2A","white","man","","","","null","","","","","","","","",""
"2080.9000000953674","<img src=""portrait/WW2.jpg""style=""height:400px;""></img>","3","html-button-response","117","1068628","0.0-14.0-10.0","6923","List2A","white","man","","true","3","","","","","","","","","",""
"null","CORRECT","","html-keyboard-response","118","1070146","0.0-14.0-11.0-0.0","6923","List2A","white","man","","","","null","","","","","","","","",""
"2254","<img src=""portrait/WM2.jpg""style=""height:400px;""></img>","7","html-button-response","119","1072403","0.0-14.0-13.0","6923","List2A","white","man","","true","7","","","","","","","","","",""
"null","CORRECT","","html-keyboard-response","120","1073920","0.0-14.0-14.0-0.0","6923","List2A","white","man","","","","null","","","","","","","","",""
"2139.0999999046326","<img src=""portrait/BW2.jpg""style=""height:400px;""></img>","2","html-button-response","121","1076062","0.0-14.0-16.0","6923","List2A","white","man","","true","2","","","","","","","","","",""
"null","CORRECT","","html-keyboard-response","122","1077581","0.0-14.0-17.0-0.0","6923","List2A","white","man","","","","null","","","","","","","","",""
"2133.6000003814697","<img src=""portrait/BW1.jpg""style=""height:400px;""></img>","0","html-button-response","123","1079716","0.0-14.0-19.0","6923","List2A","white","man","","true","0","","","","","","","","","",""
"null","CORRECT","","html-keyboard-response","124","1081228","0.0-14.0-20.0-0.0","6923","List2A","white","man","","","","null","","","","","","","","",""
"2123.9000000953674","<img src=""portrait/BM1.jpg""style=""height:400px;""></img>","4","html-button-response","125","1083354","0.0-14.0-22.0","6923","List2A","white","man","","true","4","","","","","","","","","",""
"null","CORRECT","","html-keyboard-response","126","1084867","0.0-14.0-23.0-0.0","6923","List2A","white","man","","","","null","","","","","","","","",""
"1860.5999999046326","<p>You got 8 out of 8 right first time. Press Continue.</p>","0","html-button-response","127","1086730","0.0-14.0-25.0","6923","List2A","white","man","","","","","","","","","","","","",""
"null","<div style=""font-size:60px;"">+</div>","","html-keyboard-response","128","1088242","0.0-15.0-0.0","6923","List2A","white","man","","","","null","","","","","","","","",""
"null","<img src=""stim_listA/shout3.gif""style=""height:400px;""></stim_listA>","","html-keyboard-response","129","1090246","0.0-15.0-1.0","6923","List2A","white","man","","","","null","","","","","","","","",""
"null","is shouting at","","html-keyboard-response","130","1092262","0.0-15.0-2.0","6923","List2A","white","man","","","","null","","","","","","","","",""
"7274","","","survey-text","131","1099539","0.0-15.0-3.0","6923","List2A","white","man","","","","","{""Q0"":""fred is shouting at beth""}","<img src=""stim_listA/shout3.gif""style=""height:400px;""></stim_listA>","is shouting at","","","","","",""
"null","<div style=""font-size:60px;"">+</div>","","html-keyboard-response","132","1100046","0.0-15.0-0.1","6923","List2A","white","man","","","","null","","","","","","","","",""
"null","<img src=""stim_listA/hug4.gif""style=""height:400px;""></stim_listA>","","html-keyboard-response","133","1102050","0.0-15.0-1.1","6923","List2A","white","man","","","","null","","","","","","","","",""
"null","is being hugged by","","html-keyboard-response","134","1104053","0.0-15.0-2.1","6923","List2A","white","man","","","","null","","","","","","","","",""
"5737.200000286102","","","survey-text","135","1109793","0.0-15.0-3.1","6923","List2A","white","man","","","","","{""Q0"":""kate is being hugged by mike""}","<img src=""stim_listA/hug4.gif""style=""height:400px;""></stim_listA>","is being hugged by","","","","","",""
"null","<div style=""font-size:60px;"">+</div>","","html-keyboard-response","136","1110299","0.0-15.0-0.2","6923","List2A","white","man","","","","null","","","","","","","","",""
"null","<img src=""stim_listA/hug1.gif""style=""height:400px;""></stim_listA>","","html-keyboard-response","137","1112319","0.0-15.0-1.2","6923","List2A","white","man","","","","null","","","","","","","","",""
"null","is hugging","","html-keyboard-response","138","1114334","0.0-15.0-2.2","6923","List2A","white","man","","","","null","","","","","","","","",""
"5912.099999904633","","","survey-text","139","1120249","0.0-15.0-3.2","6923","List2A","white","man","","","","","{""Q0"":""luke is hugging ruth""}","<img src=""stim_listA/hug1.gif""style=""height:400px;""></stim_listA>","is hugging","","","","","",""
"null","<div style=""font-size:60px;"">+</div>","","html-keyboard-response","140","1120753","0.0-15.0-0.3","6923","List2A","white","man","","","","null","","","","","","","","",""
"null","<img src=""stim_listA/kiss4.gif""style=""height:400px;""></stim_listA>","","html-keyboard-response","141","1122766","0.0-15.0-1.3","6923","List2A","white","man","","","","null","","","","","","","","",""
"null","is being kissed by","","html-keyboard-response","142","1124777","0.0-15.0-2.3","6923","List2A","white","man","","","","null","","","","","","","","",""
"10542.700000286102","","","survey-text","143","1135323","0.0-15.0-3.3","6923","List2A","white","man","","","","","{""Q0"":""kate is being kissed by mike""}","<img src=""stim_listA/kiss4.gif""style=""height:400px;""></stim_listA>","is being kissed by","","","","","",""
"null","<div style=""font-size:60px;"">+</div>","","html-keyboard-response","144","1135832","0.0-15.0-0.4","6923","List2A","white","man","","","","null","","","","","","","","",""
"null","<img src=""stim_listA/look6.gif""style=""height:400px;""></stim_listA>","","html-keyboard-response","145","1137837","0.0-15.0-1.4","6923","List2A","white","man","","","","null","","","","","","","","",""
"null","is being looked at by","","html-keyboard-response","146","1139852","0.0-15.0-2.4","6923","List2A","white","man","","","","null","","","","","","","","",""
"8483.800000190735","","","survey-text","147","1148339","0.0-15.0-3.4","6923","List2A","white","man","","","","","{""Q0"":""mike is being looked at by dave""}","<img src=""stim_listA/look6.gif""style=""height:400px;""></stim_listA>","is being looked at by","","","","","",""
"null","<div style=""font-size:60px;"">+</div>","","html-keyboard-response","148","1148842","0.0-15.0-0.5","6923","List2A","white","man","","","","null","","","","","","","","",""
"null","<img src=""stim_listA/shout6.gif""style=""height:400px;""></stim_listA>","","html-keyboard-response","149","1150844","0.0-15.0-1.5","6923","List2A","white","man","","","","null","","","","","","","","",""
"null","is being shouted at by","","html-keyboard-response","150","1152856","0.0-15.0-2.5","6923","List2A","white","man","","","","null","","","","","","","","",""
"11582.099999904633","","","survey-text","151","1164441","0.0-15.0-3.5","6923","List2A","white","man","","","","","{""Q0"":""dave is being shouted at by mike""}","<img src=""stim_listA/shout6.gif""style=""height:400px;""></stim_listA>","is being shouted at by","","","","","",""
"null","<div style=""font-size:60px;"">+</div>","","html-keyboard-response","152","1164944","0.0-15.0-0.6","6923","List2A","white","man","","","","null","","","","","","","","",""
"null","<img src=""stim_listA/shout2.gif""style=""height:400px;""></stim_listA>","","html-keyboard-response","153","1166951","0.0-15.0-1.6","6923","List2A","white","man","","","","null","","","","","","","","",""
"null","is being shouted at by","","html-keyboard-response","154","1168965","0.0-15.0-2.6","6923","List2A","white","man","","","","null","","","","","","","","",""
"12788.5","","","survey-text","155","1181756","0.0-15.0-3.6","6923","List2A","white","man","","","","","{""Q0"":""dave is being shouted at by jane""}","<img src=""stim_listA/shout2.gif""style=""height:400px;""></stim_listA>","is being shouted at by","","","","","",""
"null","<div style=""font-size:60px;"">+</div>","","html-keyboard-response","156","1182257","0.0-15.0-0.7","6923","List2A","white","man","","","","null","","","","","","","","",""
"null","<img src=""stim_listA/challenge5.gif""style=""height:400px;""></stim_listA>","","html-keyboard-response","157","1184269","0.0-15.0-1.7","6923","List2A","white","man","","","","null","","","","","","","","",""
"null","is challenging","","html-keyboard-response","158","1186271","0.0-15.0-2.7","6923","List2A","white","man","","","","null","","","","","","","","",""
"10268.199999809265","","","survey-text","159","1196542","0.0-15.0-3.7","6923","List2A","white","man","","","","","{""Q0"":""dave is challenging fred""}","<img src=""stim_listA/challenge5.gif""style=""height:400px;""></stim_listA>","is challenging","","","","","",""
"null","<div style=""font-size:60px;"">+</div>","","html-keyboard-response","160","1197055","0.0-15.0-0.8","6923","List2A","white","man","","","","null","","","","","","","","",""
"null","<img src=""stim_listA/oppose7.gif""style=""height:400px;""></stim_listA>","","html-keyboard-response","161","1199061","0.0-15.0-1.8","6923","List2A","white","man","","","","null","","","","","","","","",""
"null","is opposing","","html-keyboard-response","162","1201072","0.0-15.0-2.8","6923","List2A","white","man","","","","null","","","","","","","","",""
"5523.400000095367","","","survey-text","163","1206599","0.0-15.0-3.8","6923","List2A","white","man","","","","","{""Q0"":""kate is opposing jane""}","<img src=""stim_listA/oppose7.gif""style=""height:400px;""></stim_listA>","is opposing","","","","","",""
"null","<div style=""font-size:60px;"">+</div>","","html-keyboard-response","164","1207109","0.0-15.0-0.9","6923","List2A","white","man","","","","null","","","","","","","","",""
"null","<img src=""stim_listA/kiss6.gif""style=""height:400px;""></stim_listA>","","html-keyboard-response","165","1209125","0.0-15.0-1.9","6923","List2A","white","man","","","","null","","","","","","","","",""
"null","is being kissed by","","html-keyboard-response","166","1211140","0.0-15.0-2.9","6923","List2A","white","man","","","","null","","","","","","","","",""
"7642.800000190735","","","survey-text","167","1218786","0.0-15.0-3.9","6923","List2A","white","man","","","","","{""Q0"":""dave is being kissed by mike""}","<img src=""stim_listA/kiss6.gif""style=""height:400px;""></stim_listA>","is being kissed by","","","","","",""
"null","<div style=""font-size:60px;"">+</div>","","html-keyboard-response","168","1219288","0.0-15.0-0.10","6923","List2A","white","man","","","","null","","","","","","","","",""
"null","<img src=""stim_listA/greet7.gif""style=""height:400px;""></stim_listA>","","html-keyboard-response","169","1221298","0.0-15.0-1.10","6923","List2A","white","man","","","","null","","","","","","","","",""
"null","is greeting","","html-keyboard-response","170","1223307","0.0-15.0-2.10","6923","List2A","white","man","","","","null","","","","","","","","",""
"5803.099999904633","","","survey-text","171","1229113","0.0-15.0-3.10","6923","List2A","white","man","","","","","{""Q0"":""jane is greeting beth""}","<img src=""stim_listA/greet7.gif""style=""height:400px;""></stim_listA>","is greeting","","","","","",""
"null","<div style=""font-size:60px;"">+</div>","","html-keyboard-response","172","1229615","0.0-15.0-0.11","6923","List2A","white","man","","","","null","","","","","","","","",""
"null","<img src=""stim_listA/oppose2.gif""style=""height:400px;""></stim_listA>","","html-keyboard-response","173","1231619","0.0-15.0-1.11","6923","List2A","white","man","","","","null","","","","","","","","",""
"null","is being opposed by","","html-keyboard-response","174","1233636","0.0-15.0-2.11","6923","List2A","white","man","","","","null","","","","","","","","",""
"8310.5","","","survey-text","175","1241949","0.0-15.0-3.11","6923","List2A","white","man","","","","","{""Q0"":""ruth is being opposed by luke""}","<img src=""stim_listA/oppose2.gif""style=""height:400px;""></stim_listA>","is being opposed by","","","","","",""
"null","<div style=""font-size:60px;"">+</div>","","html-keyboard-response","176","1242462","0.0-15.0-0.12","6923","List2A","white","man","","","","null","","","","","","","","",""
"null","<img src=""stim_listA/copy5.gif""style=""height:400px;""></stim_listA>","","html-keyboard-response","177","1244464","0.0-15.0-1.12","6923","List2A","white","man","","","","null","","","","","","","","",""
"null","is copying","","html-keyboard-response","178","1246470","0.0-15.0-2.12","6923","List2A","white","man","","","","null","","","","","","","","",""
"5631.800000190735","","","survey-text","179","1252105","0.0-15.0-3.12","6923","List2A","white","man","","","","","{""Q0"":""dave is copying fred""}","<img src=""stim_listA/copy5.gif""style=""height:400px;""></stim_listA>","is copying","","","","","",""
"null","<div style=""font-size:60px;"">+</div>","","html-keyboard-response","180","1252621","0.0-15.0-0.13","6923","List2A","white","man","","","","null","","","","","","","","",""
"null","<img src=""stim_listA/seduce6.gif""style=""height:400px;""></stim_listA>","","html-keyboard-response","181","1254632","0.0-15.0-1.13","6923","List2A","white","man","","","","null","","","","","","","","",""
"null","is being seduced by","","html-keyboard-response","182","1256637","0.0-15.0-2.13","6923","List2A","white","man","","","","null","","","","","","","","",""
"6959.900000095367","","","survey-text","183","1263600","0.0-15.0-3.13","6923","List2A","white","man","","","","","{""Q0"":""dave is being seduced by fred""}","<img src=""stim_listA/seduce6.gif""style=""height:400px;""></stim_listA>","is being seduced by","","","","","",""
"null","<div style=""font-size:60px;"">+</div>","","html-keyboard-response","184","1264113","0.0-15.0-0.14","6923","List2A","white","man","","","","null","","","","","","","","",""
"null","<img src=""stim_listA/copy6.gif""style=""height:400px;""></stim_listA>","","html-keyboard-response","185","1266119","0.0-15.0-1.14","6923","List2A","white","man","","","","null","","","","","","","","",""
"null","is being copied by","","html-keyboard-response","186","1268129","0.0-15.0-2.14","6923","List2A","white","man","","","","null","","","","","","","","",""
"11836.299999713898","","","survey-text","187","1279969","0.0-15.0-3.14","6923","List2A","white","man","","","","","{""Q0"":""mike is being copied by luke""}","<img src=""stim_listA/copy6.gif""style=""height:400px;""></stim_listA>","is being copied by","","","","","",""
"null","<div style=""font-size:60px;"">+</div>","","html-keyboard-response","188","1280475","0.0-15.0-0.15","6923","List2A","white","man","","","","null","","","","","","","","",""
"null","<img src=""stim_listA/oppose3.gif""style=""height:400px;""></stim_listA>","","html-keyboard-response","189","1282487","0.0-15.0-1.15","6923","List2A","white","man","","","","null","","","","","","","","",""
"null","is opposing","","html-keyboard-response","190","1284497","0.0-15.0-2.15","6923","List2A","white","man","","","","null","","","","","","","","",""
"6354.599999904633","","","survey-text","191","1290854","0.0-15.0-3.15","6923","List2A","white","man","","","","","{""Q0"":""mike is opposing kate""}","<img src=""stim_listA/oppose3.gif""style=""height:400px;""></stim_listA>","is opposing","","","","","",""
"null","<div style=""font-size:60px;"">+</div>","","html-keyboard-response","192","1291365","0.0-15.0-0.16","6923","List2A","white","man","","","","null","","","","","","","","",""
"null","<img src=""stim_listA/seduce5.gif""style=""height:400px;""></stim_listA>","","html-keyboard-response","193","1293368","0.0-15.0-1.16","6923","List2A","white","man","","","","null","","","","","","","","",""
"null","is seducing","","html-keyboard-response","194","1295381","0.0-15.0-2.16","6923","List2A","white","man","","","","null","","","","","","","","",""
"6708.699999809265","","","survey-text","195","1302092","0.0-15.0-3.16","6923","List2A","white","man","","","","","{""Q0"":""mike is seducing luke""}","<img src=""stim_listA/seduce5.gif""style=""height:400px;""></stim_listA>","is seducing","","","","","",""
"null","<div style=""font-size:60px;"">+</div>","","html-keyboard-response","196","1302600","0.0-15.0-0.17","6923","List2A","white","man","","","","null","","","","","","","","",""
"null","<img src=""stim_listA/hug8.gif""style=""height:400px;""></stim_listA>","","html-keyboard-response","197","1304613","0.0-15.0-1.17","6923","List2A","white","man","","","","null","","","","","","","","",""
"null","is being hugged by","","html-keyboard-response","198","1306624","0.0-15.0-2.17","6923","List2A","white","man","","","","null","","","","","","","","",""
"6891.699999809265","","","survey-text","199","1313519","0.0-15.0-3.17","6923","List2A","white","man","","","","","{""Q0"":""kate is being hugged by jane""}","<img src=""stim_listA/hug8.gif""style=""height:400px;""></stim_listA>","is being hugged by","","","","","",""
"null","<div style=""font-size:60px;"">+</div>","","html-keyboard-response","200","1314023","0.0-15.0-0.18","6923","List2A","white","man","","","","null","","","","","","","","",""
"null","<img src=""stim_listA/copy4.gif""style=""height:400px;""></stim_listA>","","html-keyboard-response","201","1316027","0.0-15.0-1.18","6923","List2A","white","man","","","","null","","","","","","","","",""
"null","is being copied by","","html-keyboard-response","202","1318044","0.0-15.0-2.18","6923","List2A","white","man","","","","null","","","","","","","","",""
"6965.10000038147","","","survey-text","203","1325011","0.0-15.0-3.18","6923","List2A","white","man","","","","","{""Q0"":""kate is being copied by fred""}","<img src=""stim_listA/copy4.gif""style=""height:400px;""></stim_listA>","is being copied by","","","","","",""
"null","<div style=""font-size:60px;"">+</div>","","html-keyboard-response","204","1325527","0.0-15.0-0.19","6923","List2A","white","man","","","","null","","","","","","","","",""
"null","<img src=""stim_listA/shout4.gif""style=""height:400px;""></stim_listA>","","html-keyboard-response","205","1327530","0.0-15.0-1.19","6923","List2A","white","man","","","","null","","","","","","","","",""
"null","is being shouted at by","","html-keyboard-response","206","1329532","0.0-15.0-2.19","6923","List2A","white","man","","","","null","","","","","","","","",""
"10252.400000095367","","","survey-text","207","1339788","0.0-15.0-3.19","6923","List2A","white","man","","","","","{""Q0"":""kate is being shouted at by mike""}","<img src=""stim_listA/shout4.gif""style=""height:400px;""></stim_listA>","is being shouted at by","","","","","",""
"5945.900000095367","<img src='img/portrait_matrix_list2.jpg' style='width:900px;height:500px;''></img><p>If you have memorised all the portraits and names and are ready to start, press Continue.</p><p><strong>Please note: Your memory of these faces will be tested 4 times during this experiment.</strong></p>","0","html-button-response","208","1345736","0.0-16.0-0.0","6923","List2A","white","man","","","","","","","","","","","","",""
"1862.1999998092651","<img src=""portrait/WW2.jpg""style=""height:400px;""></img>","3","html-button-response","209","1348603","0.0-16.0-1.0","6923","List2A","white","man","","true","3","","","","","","","","","",""
"null","CORRECT","","html-keyboard-response","210","1350117","0.0-16.0-2.0-0.0","6923","List2A","white","man","","","","null","","","","","","","","",""
"2163.300000190735","<img src=""portrait/WW1.jpg""style=""height:400px;""></img>","1","html-button-response","211","1352283","0.0-16.0-4.0","6923","List2A","white","man","","true","1","","","","","","","","","",""
"null","CORRECT","","html-keyboard-response","212","1353796","0.0-16.0-5.0-0.0","6923","List2A","white","man","","","","null","","","","","","","","",""
"2665.1000003814697","<img src=""portrait/BW1.jpg""style=""height:400px;""></img>","0","html-button-response","213","1356464","0.0-16.0-7.0","6923","List2A","white","man","","true","0","","","","","","","","","",""
"null","CORRECT","","html-keyboard-response","214","1357977","0.0-16.0-8.0-0.0","6923","List2A","white","man","","","","null","","","","","","","","",""
"2330","<img src=""portrait/BW2.jpg""style=""height:400px;""></img>","2","html-button-response","215","1360310","0.0-16.0-10.0","6923","List2A","white","man","","true","2","","","","","","","","","",""
"null","CORRECT","","html-keyboard-response","216","1361841","0.0-16.0-11.0-0.0","6923","List2A","white","man","","","","null","","","","","","","","",""
"2067.7999997138977","<img src=""portrait/BM2.jpg""style=""height:400px;""></img>","5","html-button-response","217","1363911","0.0-16.0-13.0","6923","List2A","white","man","","true","5","","","","","","","","","",""
"null","CORRECT","","html-keyboard-response","218","1365434","0.0-16.0-14.0-0.0","6923","List2A","white","man","","","","null","","","","","","","","",""
"1803.1999998092651","<img src=""portrait/WM2.jpg""style=""height:400px;""></img>","7","html-button-response","219","1367242","0.0-16.0-16.0","6923","List2A","white","man","","true","7","","","","","","","","","",""
"null","CORRECT","","html-keyboard-response","220","1368772","0.0-16.0-17.0-0.0","6923","List2A","white","man","","","","null","","","","","","","","",""
"1967.7000002861023","<img src=""portrait/WM1.jpg""style=""height:400px;""></img>","6","html-button-response","221","1370742","0.0-16.0-19.0","6923","List2A","white","man","","true","6","","","","","","","","","",""
"null","CORRECT","","html-keyboard-response","222","1372255","0.0-16.0-20.0-0.0","6923","List2A","white","man","","","","null","","","","","","","","",""
"1811.7999997138977","<img src=""portrait/BM1.jpg""style=""height:400px;""></img>","4","html-button-response","223","1374070","0.0-16.0-22.0","6923","List2A","white","man","","true","4","","","","","","","","","",""
"null","CORRECT","","html-keyboard-response","224","1375593","0.0-16.0-23.0-0.0","6923","List2A","white","man","","","","null","","","","","","","","",""
"1622","<p>You got 8 out of 8 right first time. Press Continue.</p>","0","html-button-response","225","1377216","0.0-16.0-25.0","6923","List2A","white","man","","","","","","","","","","","","",""
"null","<div style=""font-size:60px;"">+</div>","","html-keyboard-response","226","1378725","0.0-17.0-0.0","6923","List2A","white","man","","","","null","","","","","","","","",""
"null","<img src=""stim_listA/touch6.gif""style=""height:400px;""></stim_listA>","","html-keyboard-response","227","1380729","0.0-17.0-1.0","6923","List2A","white","man","","","","null","","","","","","","","",""
"null","is being touched by","","html-keyboard-response","228","1382740","0.0-17.0-2.0","6923","List2A","white","man","","","","null","","","","","","","","",""
"8182.10000038147","","","survey-text","229","1390925","0.0-17.0-3.0","6923","List2A","white","man","","","","","{""Q0"":""fred is being touched by luke""}","<img src=""stim_listA/touch6.gif""style=""height:400px;""></stim_listA>","is being touched by","","","","","",""
"null","<div style=""font-size:60px;"">+</div>","","html-keyboard-response","230","1391431","0.0-17.0-0.1","6923","List2A","white","man","","","","null","","","","","","","","",""
"null","<img src=""stim_listA/greet5.gif""style=""height:400px;""></stim_listA>","","html-keyboard-response","231","1393441","0.0-17.0-1.1","6923","List2A","white","man","","","","null","","","","","","","","",""
"null","is greeting","","html-keyboard-response","232","1395443","0.0-17.0-2.1","6923","List2A","white","man","","","","null","","","","","","","","",""
"6450.60000038147","","","survey-text","233","1401895","0.0-17.0-3.1","6923","List2A","white","man","","","","","{""Q0"":""dave is greeting fred""}","<img src=""stim_listA/greet5.gif""style=""height:400px;""></stim_listA>","is greeting","","","","","",""
"null","<div style=""font-size:60px;"">+</div>","","html-keyboard-response","234","1402411","0.0-17.0-0.2","6923","List2A","white","man","","","","null","","","","","","","","",""
"null","<img src=""stim_listA/seduce4.gif""style=""height:400px;""></stim_listA>","","html-keyboard-response","235","1404412","0.0-17.0-1.2","6923","List2A","white","man","","","","null","","","","","","","","",""
"null","is being seduced by","","html-keyboard-response","236","1406423","0.0-17.0-2.2","6923","List2A","white","man","","","","null","","","","","","","","",""
"9524.400000095367","","","survey-text","237","1415949","0.0-17.0-3.2","6923","List2A","white","man","","","","","{""Q0"":""kate is being seduced by fred""}","<img src=""stim_listA/seduce4.gif""style=""height:400px;""></stim_listA>","is being seduced by","","","","","",""
"null","<div style=""font-size:60px;"">+</div>","","html-keyboard-response","238","1416459","0.0-17.0-0.3","6923","List2A","white","man","","","","null","","","","","","","","",""
"null","<img src=""stim_listA/oppose5.gif""style=""height:400px;""></stim_listA>","","html-keyboard-response","239","1418461","0.0-17.0-1.3","6923","List2A","white","man","","","","null","","","","","","","","",""
"null","is opposing","","html-keyboard-response","240","1420477","0.0-17.0-2.3","6923","List2A","white","man","","","","null","","","","","","","","",""
"4902.099999904633","","","survey-text","241","1425380","0.0-17.0-3.3","6923","List2A","white","man","","","","","{""Q0"":""mike is opposing dave""}","<img src=""stim_listA/oppose5.gif""style=""height:400px;""></stim_listA>","is opposing","","","","","",""
"null","<div style=""font-size:60px;"">+</div>","","html-keyboard-response","242","1425884","0.0-17.0-0.4","6923","List2A","white","man","","","","null","","","","","","","","",""
"null","<img src=""stim_listA/challenge1.gif""style=""height:400px;""></stim_listA>","","html-keyboard-response","243","1427887","0.0-17.0-1.4","6923","List2A","white","man","","","","null","","","","","","","","",""
"null","is challenging","","html-keyboard-response","244","1429895","0.0-17.0-2.4","6923","List2A","white","man","","","","null","","","","","","","","",""
"6994.300000190735","","","survey-text","245","1436891","0.0-17.0-3.4","6923","List2A","white","man","","","","","{""Q0"":""ruth is challenging dave""}","<img src=""stim_listA/challenge1.gif""style=""height:400px;""></stim_listA>","is challenging","","","","","",""
"null","<div style=""font-size:60px;"">+</div>","","html-keyboard-response","246","1437401","0.0-17.0-0.5","6923","List2A","white","man","","","","null","","","","","","","","",""
"null","<img src=""stim_listA/kiss5.gif""style=""height:400px;""></stim_listA>","","html-keyboard-response","247","1439402","0.0-17.0-1.5","6923","List2A","white","man","","","","null","","","","","","","","",""
"null","is kissing","","html-keyboard-response","248","1441413","0.0-17.0-2.5","6923","List2A","white","man","","","","null","","","","","","","","",""
"6211.800000190735","","","survey-text","249","1447627","0.0-17.0-3.5","6923","List2A","white","man","","","","","{""Q0"":""luke is kissing fred""}","<img src=""stim_listA/kiss5.gif""style=""height:400px;""></stim_listA>","is kissing","","","","","",""
"null","<div style=""font-size:60px;"">+</div>","","html-keyboard-response","250","1448128","0.0-17.0-0.6","6923","List2A","white","man","","","","null","","","","","","","","",""
"null","<img src=""stim_listA/oppose6.gif""style=""height:400px;""></stim_listA>","","html-keyboard-response","251","1450131","0.0-17.0-1.6","6923","List2A","white","man","","","","null","","","","","","","","",""
"null","is being opposed by","","html-keyboard-response","252","1452139","0.0-17.0-2.6","6923","List2A","white","man","","","","null","","","","","","","","",""
"8385.400000095367","","","survey-text","253","1460527","0.0-17.0-3.6","6923","List2A","white","man","","","","","{""Q0"":""fred is being opposed by luke""}","<img src=""stim_listA/oppose6.gif""style=""height:400px;""></stim_listA>","is being opposed by","","","","","",""
"null","<div style=""font-size:60px;"">+</div>","","html-keyboard-response","254","1461030","0.0-17.0-0.7","6923","List2A","white","man","","","","null","","","","","","","","",""
"null","<img src=""stim_listA/greet8.gif""style=""height:400px;""></stim_listA>","","html-keyboard-response","255","1463032","0.0-17.0-1.7","6923","List2A","white","man","","","","null","","","","","","","","",""
"null","is being greeted by","","html-keyboard-response","256","1465039","0.0-17.0-2.7","6923","List2A","white","man","","","","null","","","","","","","","",""
"9264.400000095367","","","survey-text","257","1474306","0.0-17.0-3.7","6923","List2A","white","man","","","","","{""Q0"":""kate is being greeted by ruth""}","<img src=""stim_listA/greet8.gif""style=""height:400px;""></stim_listA>","is being greeted by","","","","","",""
"null","<div style=""font-size:60px;"">+</div>","","html-keyboard-response","258","1474820","0.0-17.0-0.8","6923","List2A","white","man","","","","null","","","","","","","","",""
"null","<img src=""stim_listA/touch2.gif""style=""height:400px;""></stim_listA>","","html-keyboard-response","259","1476821","0.0-17.0-1.8","6923","List2A","white","man","","","","null","","","","","","","","",""
"null","is being touched by","","html-keyboard-response","260","1478832","0.0-17.0-2.8","6923","List2A","white","man","","","","null","","","","","","","","",""
"8013.200000286102","","","survey-text","261","1486846","0.0-17.0-3.8","6923","List2A","white","man","","","","","{""Q0"":""ruth is being touched by luke""}","<img src=""stim_listA/touch2.gif""style=""height:400px;""></stim_listA>","is being touched by","","","","","",""
"null","<div style=""font-size:60px;"">+</div>","","html-keyboard-response","262","1487351","0.0-17.0-0.9","6923","List2A","white","man","","","","null","","","","","","","","",""
"null","<img src=""stim_listA/greet2.gif""style=""height:400px;""></stim_listA>","","html-keyboard-response","263","1489358","0.0-17.0-1.9","6923","List2A","white","man","","","","null","","","","","","","","",""
"null","is being greeted by","","html-keyboard-response","264","1491371","0.0-17.0-2.9","6923","List2A","white","man","","","","null","","","","","","","","",""
"7383.300000190735","","","survey-text","265","1498757","0.0-17.0-3.9","6923","List2A","white","man","","","","","{""Q0"":""luke is being greeted by jane""}","<img src=""stim_listA/greet2.gif""style=""height:400px;""></stim_listA>","is being greeted by","","","","","",""
"null","<div style=""font-size:60px;"">+</div>","","html-keyboard-response","266","1499262","0.0-17.0-0.10","6923","List2A","white","man","","","","null","","","","","","","","",""
"null","<img src=""stim_listA/challenge4.gif""style=""height:400px;""></stim_listA>","","html-keyboard-response","267","1501265","0.0-17.0-1.10","6923","List2A","white","man","","","","null","","","","","","","","",""
"null","is being challenged by","","html-keyboard-response","268","1503273","0.0-17.0-2.10","6923","List2A","white","man","","","","null","","","","","","","","",""
"8645.299999713898","","","survey-text","269","1511921","0.0-17.0-3.10","6923","List2A","white","man","","","","","{""Q0"":""kate is being challenged by fred""}","<img src=""stim_listA/challenge4.gif""style=""height:400px;""></stim_listA>","is being challenged by","","","","","",""
"null","<div style=""font-size:60px;"">+</div>","","html-keyboard-response","270","1512434","0.0-17.0-0.11","6923","List2A","white","man","","","","null","","","","","","","","",""
"null","<img src=""stim_listA/look8.gif""style=""height:400px;""></stim_listA>","","html-keyboard-response","271","1514445","0.0-17.0-1.11","6923","List2A","white","man","","","","null","","","","","","","","",""
"null","is being looked at by","","html-keyboard-response","272","1516449","0.0-17.0-2.11","6923","List2A","white","man","","","","null","","","","","","","","",""
"8628.39999961853","","","survey-text","273","1525079","0.0-17.0-3.11","6923","List2A","white","man","","","","","{""Q0"":""kate is being looked at by jane""}","<img src=""stim_listA/look8.gif""style=""height:400px;""></stim_listA>","is being looked at by","","","","","",""
"null","<div style=""font-size:60px;"">+</div>","","html-keyboard-response","274","1525594","0.0-17.0-0.12","6923","List2A","white","man","","","","null","","","","","","","","",""
"null","<img src=""stim_listA/copy1.gif""style=""height:400px;""></stim_listA>","","html-keyboard-response","275","1527599","0.0-17.0-1.12","6923","List2A","white","man","","","","null","","","","","","","","",""
"null","is copying","","html-keyboard-response","276","1529608","0.0-17.0-2.12","6923","List2A","white","man","","","","null","","","","","","","","",""
"10303.400000095367","","","survey-text","277","1539914","0.0-17.0-3.12","6923","List2A","white","man","","","","","{""Q0"":""dave is copying ruth""}","<img src=""stim_listA/copy1.gif""style=""height:400px;""></stim_listA>","is copying","","","","","",""
"null","<div style=""font-size:60px;"">+</div>","","html-keyboard-response","278","1540420","0.0-17.0-0.13","6923","List2A","white","man","","","","null","","","","","","","","",""
"null","<img src=""stim_listA/touch3.gif""style=""height:400px;""></stim_listA>","","html-keyboard-response","279","1542425","0.0-17.0-1.13","6923","List2A","white","man","","","","null","","","","","","","","",""
"null","is touching","","html-keyboard-response","280","1544431","0.0-17.0-2.13","6923","List2A","white","man","","","","null","","","","","","","","",""
"6357.700000286102","","","survey-text","281","1550791","0.0-17.0-3.13","6923","List2A","white","man","","","","","{""Q0"":""mike is touching kate""}","<img src=""stim_listA/touch3.gif""style=""height:400px;""></stim_listA>","is touching","","","","","",""
"null","<div style=""font-size:60px;"">+</div>","","html-keyboard-response","282","1551306","0.0-17.0-0.14","6923","List2A","white","man","","","","null","","","","","","","","",""
"null","<img src=""stim_listA/copy2.gif""style=""height:400px;""></stim_listA>","","html-keyboard-response","283","1553319","0.0-17.0-1.14","6923","List2A","white","man","","","","null","","","","","","","","",""
"null","is being copied by","","html-keyboard-response","284","1555336","0.0-17.0-2.14","6923","List2A","white","man","","","","null","","","","","","","","",""
"7061.5","","","survey-text","285","1562400","0.0-17.0-3.14","6923","List2A","white","man","","","","","{""Q0"":""jane is being copied by luke""}","<img src=""stim_listA/copy2.gif""style=""height:400px;""></stim_listA>","is being copied by","","","","","",""
"null","<div style=""font-size:60px;"">+</div>","","html-keyboard-response","286","1562905","0.0-17.0-0.15","6923","List2A","white","man","","","","null","","","","","","","","",""
"null","<img src=""stim_listA/challenge3.gif""style=""height:400px;""></stim_listA>","","html-keyboard-response","287","1564920","0.0-17.0-1.15","6923","List2A","white","man","","","","null","","","","","","","","",""
"null","is challenging","","html-keyboard-response","288","1566932","0.0-17.0-2.15","6923","List2A","white","man","","","","null","","","","","","","","",""
"5782","","","survey-text","289","1572716","0.0-17.0-3.15","6923","List2A","white","man","","","","","{""Q0"":""mike is challenging beth""}","<img src=""stim_listA/challenge3.gif""style=""height:400px;""></stim_listA>","is challenging","","","","","",""
"null","<div style=""font-size:60px;"">+</div>","","html-keyboard-response","290","1573232","0.0-17.0-0.16","6923","List2A","white","man","","","","null","","","","","","","","",""
"null","<img src=""stim_listA/touch7.gif""style=""height:400px;""></stim_listA>","","html-keyboard-response","291","1575250","0.0-17.0-1.16","6923","List2A","white","man","","","","null","","","","","","","","",""
"null","is touching","","html-keyboard-response","292","1577265","0.0-17.0-2.16","6923","List2A","white","man","","","","null","","","","","","","","",""
"5113.099999904633","","","survey-text","293","1582380","0.0-17.0-3.16","6923","List2A","white","man","","","","","{""Q0"":""kate is touching jane""}","<img src=""stim_listA/touch7.gif""style=""height:400px;""></stim_listA>","is touching","","","","","",""
"null","<div style=""font-size:60px;"">+</div>","","html-keyboard-response","294","1582887","0.0-17.0-0.17","6923","List2A","white","man","","","","null","","","","","","","","",""
"null","<img src=""stim_listA/oppose4.gif""style=""height:400px;""></stim_listA>","","html-keyboard-response","295","1584890","0.0-17.0-1.17","6923","List2A","white","man","","","","null","","","","","","","","",""
"null","is being opposed by","","html-keyboard-response","296","1586902","0.0-17.0-2.17","6923","List2A","white","man","","","","null","","","","","","","","",""
"6917","","","survey-text","297","1593822","0.0-17.0-3.17","6923","List2A","white","man","","","","","{""Q0"":""beth is being opposed by fred""}","<img src=""stim_listA/oppose4.gif""style=""height:400px;""></stim_listA>","is being opposed by","","","","","",""
"null","<div style=""font-size:60px;"">+</div>","","html-keyboard-response","298","1594336","0.0-17.0-0.18","6923","List2A","white","man","","","","null","","","","","","","","",""
"null","<img src=""stim_listA/greet1.gif""style=""height:400px;""></stim_listA>","","html-keyboard-response","299","1596344","0.0-17.0-1.18","6923","List2A","white","man","","","","null","","","","","","","","",""
"null","is greeting","","html-keyboard-response","300","1598360","0.0-17.0-2.18","6923","List2A","white","man","","","","null","","","","","","","","",""
"5628.099999904633","","","survey-text","301","1603992","0.0-17.0-3.18","6923","List2A","white","man","","","","","{""Q0"":""dave is greeting ruth""}","<img src=""stim_listA/greet1.gif""style=""height:400px;""></stim_listA>","is greeting","","","","","",""
"null","<div style=""font-size:60px;"">+</div>","","html-keyboard-response","302","1604499","0.0-17.0-0.19","6923","List2A","white","man","","","","null","","","","","","","","",""
"null","<img src=""stim_listA/look2.gif""style=""height:400px;""></stim_listA>","","html-keyboard-response","303","1606507","0.0-17.0-1.19","6923","List2A","white","man","","","","null","","","","","","","","",""
"null","is being looked at by","","html-keyboard-response","304","1608512","0.0-17.0-2.19","6923","List2A","white","man","","","","null","","","","","","","","",""
"12361.900000095367","","","survey-text","305","1620877","0.0-17.0-3.19","6923","List2A","white","man","","","","","{""Q0"":""jane is being looked at by dave""}","<img src=""stim_listA/look2.gif""style=""height:400px;""></stim_listA>","is being looked at by","","","","","",""
"8590.5","<img src='img/portrait_matrix_list2.jpg' style='width:900px;height:500px;''></img><p>If you have memorised all the portraits and names and are ready to start, press Continue.</p><p><strong>Please note: Your memory of these faces will be tested 4 times during this experiment.</strong></p>","0","html-button-response","306","1629470","0.0-18.0-0.0","6923","List2A","white","man","","","","","","","","","","","","",""
"10017.699999809265","<img src=""portrait/WW1.jpg""style=""height:400px;""></img>","1","html-button-response","307","1640490","0.0-18.0-1.0","6923","List2A","white","man","","true","1","","","","","","","","","",""
"null","CORRECT","","html-keyboard-response","308","1642017","0.0-18.0-2.0-0.0","6923","List2A","white","man","","","","null","","","","","","","","",""
"2599.300000190735","<img src=""portrait/WM2.jpg""style=""height:400px;""></img>","7","html-button-response","309","1644619","0.0-18.0-4.0","6923","List2A","white","man","","true","7","","","","","","","","","",""
"null","CORRECT","","html-keyboard-response","310","1646141","0.0-18.0-5.0-0.0","6923","List2A","white","man","","","","null","","","","","","","","",""
"2210.5","<img src=""portrait/BW1.jpg""style=""height:400px;""></img>","0","html-button-response","311","1648354","0.0-18.0-7.0","6923","List2A","white","man","","true","0","","","","","","","","","",""
"null","CORRECT","","html-keyboard-response","312","1649864","0.0-18.0-8.0-0.0","6923","List2A","white","man","","","","null","","","","","","","","",""
"2547.4000000953674","<img src=""portrait/BM2.jpg""style=""height:400px;""></img>","5","html-button-response","313","1652415","0.0-18.0-10.0","6923","List2A","white","man","","true","5","","","","","","","","","",""
"null","CORRECT","","html-keyboard-response","314","1653932","0.0-18.0-11.0-0.0","6923","List2A","white","man","","","","null","","","","","","","","",""
"2033.3000001907349","<img src=""portrait/WW2.jpg""style=""height:400px;""></img>","3","html-button-response","315","1655969","0.0-18.0-13.0","6923","List2A","white","man","","true","3","","","","","","","","","",""
"null","CORRECT","","html-keyboard-response","316","1657473","0.0-18.0-14.0-0.0","6923","List2A","white","man","","","","null","","","","","","","","",""
"2596.0999999046326","<img src=""portrait/WM1.jpg""style=""height:400px;""></img>","6","html-button-response","317","1660072","0.0-18.0-16.0","6923","List2A","white","man","","true","6","","","","","","","","","",""
"null","CORRECT","","html-keyboard-response","318","1661591","0.0-18.0-17.0-0.0","6923","List2A","white","man","","","","null","","","","","","","","",""
"2071.9000000953674","<img src=""portrait/BM1.jpg""style=""height:400px;""></img>","4","html-button-response","319","1663665","0.0-18.0-19.0","6923","List2A","white","man","","true","4","","","","","","","","","",""
"null","CORRECT","","html-keyboard-response","320","1665183","0.0-18.0-20.0-0.0","6923","List2A","white","man","","","","null","","","","","","","","",""
"2220.8999996185303","<img src=""portrait/BW2.jpg""style=""height:400px;""></img>","2","html-button-response","321","1667406","0.0-18.0-22.0","6923","List2A","white","man","","true","2","","","","","","","","","",""
"null","CORRECT","","html-keyboard-response","322","1668917","0.0-18.0-23.0-0.0","6923","List2A","white","man","","","","null","","","","","","","","",""
"2063.7999997138977","<p>You got 8 out of 8 right first time. Press Continue.</p>","0","html-button-response","323","1670984","0.0-18.0-25.0","6923","List2A","white","man","","","","","","","","","","","","",""
"null","<div style=""font-size:60px;"">+</div>","","html-keyboard-response","324","1672495","0.0-19.0-0.0","6923","List2A","white","man","","","","null","","","","","","","","",""
"null","<img src=""stim_listA/greet3.gif""style=""height:400px;""></stim_listA>","","html-keyboard-response","325","1674497","0.0-19.0-1.0","6923","List2A","white","man","","","","null","","","","","","","","",""
"null","is greeting","","html-keyboard-response","326","1676503","0.0-19.0-2.0","6923","List2A","white","man","","","","null","","","","","","","","",""
"20827.5","","","survey-text","327","1697332","0.0-19.0-3.0","6923","List2A","white","man","","","","","{""Q0"":""missed it""}","<img src=""stim_listA/greet3.gif""style=""height:400px;""></stim_listA>","is greeting","","","","","",""
"null","<div style=""font-size:60px;"">+</div>","","html-keyboard-response","328","1697837","0.0-19.0-0.1","6923","List2A","white","man","","","","null","","","","","","","","",""
"null","<img src=""stim_listA/kiss3.gif""style=""height:400px;""></stim_listA>","","html-keyboard-response","329","1699846","0.0-19.0-1.1","6923","List2A","white","man","","","","null","","","","","","","","",""
"null","is kissing","","html-keyboard-response","330","1701863","0.0-19.0-2.1","6923","List2A","white","man","","","","null","","","","","","","","",""
"5896","","","survey-text","331","1707763","0.0-19.0-3.1","6923","List2A","white","man","","","","","{""Q0"":""fred is kissing beth""}","<img src=""stim_listA/kiss3.gif""style=""height:400px;""></stim_listA>","is kissing","","","","","",""
"null","<div style=""font-size:60px;"">+</div>","","html-keyboard-response","332","1708275","0.0-19.0-0.2","6923","List2A","white","man","","","","null","","","","","","","","",""
"null","<img src=""stim_listA/touch5.gif""style=""height:400px;""></stim_listA>","","html-keyboard-response","333","1710278","0.0-19.0-1.2","6923","List2A","white","man","","","","null","","","","","","","","",""
"null","is touching","","html-keyboard-response","334","1712283","0.0-19.0-2.2","6923","List2A","white","man","","","","null","","","","","","","","",""
"5932.699999809265","","","survey-text","335","1718219","0.0-19.0-3.2","6923","List2A","white","man","","","","","{""Q0"":""dave is touching mike""}","<img src=""stim_listA/touch5.gif""style=""height:400px;""></stim_listA>","is touching","","","","","",""
"null","<div style=""font-size:60px;"">+</div>","","html-keyboard-response","336","1718732","0.0-19.0-0.3","6923","List2A","white","man","","","","null","","","","","","","","",""
"null","<img src=""stim_listA/touch8.gif""style=""height:400px;""></stim_listA>","","html-keyboard-response","337","1720734","0.0-19.0-1.3","6923","List2A","white","man","","","","null","","","","","","","","",""
"null","is being touched by","","html-keyboard-response","338","1722747","0.0-19.0-2.3","6923","List2A","white","man","","","","null","","","","","","","","",""
"6491.5","","","survey-text","339","1729241","0.0-19.0-3.3","6923","List2A","white","man","","","","","{""Q0"":""beth is being touched by ruth""}","<img src=""stim_listA/touch8.gif""style=""height:400px;""></stim_listA>","is being touched by","","","","","",""
"null","<div style=""font-size:60px;"">+</div>","","html-keyboard-response","340","1729751","0.0-19.0-0.4","6923","List2A","white","man","","","","null","","","","","","","","",""
"null","<img src=""stim_listA/look1.gif""style=""height:400px;""></stim_listA>","","html-keyboard-response","341","1731754","0.0-19.0-1.4","6923","List2A","white","man","","","","null","","","","","","","","",""
"null","is looking at","","html-keyboard-response","342","1733769","0.0-19.0-2.4","6923","List2A","white","man","","","","null","","","","","","","","",""
"6214.799999713898","","","survey-text","343","1739986","0.0-19.0-3.4","6923","List2A","white","man","","","","","{""Q0"":""luke is looking at ruth""}","<img src=""stim_listA/look1.gif""style=""height:400px;""></stim_listA>","is looking at","","","","","",""
"null","<div style=""font-size:60px;"">+</div>","","html-keyboard-response","344","1740497","0.0-19.0-0.5","6923","List2A","white","man","","","","null","","","","","","","","",""
"null","<img src=""stim_listA/kiss7.gif""style=""height:400px;""></stim_listA>","","html-keyboard-response","345","1742498","0.0-19.0-1.5","6923","List2A","white","man","","","","null","","","","","","","","",""
"null","is kissing","","html-keyboard-response","346","1744506","0.0-19.0-2.5","6923","List2A","white","man","","","","null","","","","","","","","",""
"4760.300000190735","","","survey-text","347","1749268","0.0-19.0-3.5","6923","List2A","white","man","","","","","{""Q0"":""ruth is kissing beth""}","<img src=""stim_listA/kiss7.gif""style=""height:400px;""></stim_listA>","is kissing","","","","","",""
"null","<div style=""font-size:60px;"">+</div>","","html-keyboard-response","348","1749776","0.0-19.0-0.6","6923","List2A","white","man","","","","null","","","","","","","","",""
"null","<img src=""stim_listA/seduce7.gif""style=""height:400px;""></stim_listA>","","html-keyboard-response","349","1751786","0.0-19.0-1.6","6923","List2A","white","man","","","","null","","","","","","","","",""
"null","is seducing","","html-keyboard-response","350","1753788","0.0-19.0-2.6","6923","List2A","white","man","","","","null","","","","","","","","",""
"7182.099999904633","","","survey-text","351","1760973","0.0-19.0-3.6","6923","List2A","white","man","","","","","{""Q0"":""ruth is seducing kate""}","<img src=""stim_listA/seduce7.gif""style=""height:400px;""></stim_listA>","is seducing","","","","","",""
"null","<div style=""font-size:60px;"">+</div>","","html-keyboard-response","352","1761489","0.0-19.0-0.7","6923","List2A","white","man","","","","null","","","","","","","","",""
"null","<img src=""stim_listA/challenge2.gif""style=""height:400px;""></stim_listA>","","html-keyboard-response","353","1763500","0.0-19.0-1.7","6923","List2A","white","man","","","","null","","","","","","","","",""
"null","is being challenged by","","html-keyboard-response","354","1765503","0.0-19.0-2.7","6923","List2A","white","man","","","","null","","","","","","","","",""
"10327.5","","","survey-text","355","1775833","0.0-19.0-3.7","6923","List2A","white","man","","","","","{""Q0"":""jane is being challenged by luke""}","<img src=""stim_listA/challenge2.gif""style=""height:400px;""></stim_listA>","is being challenged by","","","","","",""
"null","<div style=""font-size:60px;"">+</div>","","html-keyboard-response","356","1776345","0.0-19.0-0.8","6923","List2A","white","man","","","","null","","","","","","","","",""
"null","<img src=""stim_listA/hug3.gif""style=""height:400px;""></stim_listA>","","html-keyboard-response","357","1778350","0.0-19.0-1.8","6923","List2A","white","man","","","","null","","","","","","","","",""
"null","is hugging","","html-keyboard-response","358","1780358","0.0-19.0-2.8","6923","List2A","white","man","","","","null","","","","","","","","",""
"5266.799999713898","","","survey-text","359","1785628","0.0-19.0-3.8","6923","List2A","white","man","","","","","{""Q0"":""fred is hugging beth""}","<img src=""stim_listA/hug3.gif""style=""height:400px;""></stim_listA>","is hugging","","","","","",""
"null","<div style=""font-size:60px;"">+</div>","","html-keyboard-response","360","1786143","0.0-19.0-0.9","6923","List2A","white","man","","","","null","","","","","","","","",""
"null","<img src=""stim_listA/oppose8.gif""style=""height:400px;""></stim_listA>","","html-keyboard-response","361","1788147","0.0-19.0-1.9","6923","List2A","white","man","","","","null","","","","","","","","",""
"null","is being opposed by","","html-keyboard-response","362","1790163","0.0-19.0-2.9","6923","List2A","white","man","","","","null","","","","","","","","",""
"7497.39999961853","","","survey-text","363","1797663","0.0-19.0-3.9","6923","List2A","white","man","","","","","{""Q0"":""beth is being opposed by ruth""}","<img src=""stim_listA/oppose8.gif""style=""height:400px;""></stim_listA>","is being opposed by","","","","","",""
"null","<div style=""font-size:60px;"">+</div>","","html-keyboard-response","364","1798166","0.0-19.0-0.10","6923","List2A","white","man","","","","null","","","","","","","","",""
"null","<img src=""stim_listA/seduce2.gif""style=""height:400px;""></stim_listA>","","html-keyboard-response","365","1800169","0.0-19.0-1.10","6923","List2A","white","man","","","","null","","","","","","","","",""
"null","is being seduced by","","html-keyboard-response","366","1802183","0.0-19.0-2.10","6923","List2A","white","man","","","","null","","","","","","","","",""
"5355.5","","","survey-text","367","1807541","0.0-19.0-3.10","6923","List2A","white","man","","","","","{""Q0"":""ruth is being seduced by dave""}","<img src=""stim_listA/seduce2.gif""style=""height:400px;""></stim_listA>","is being seduced by","","","","","",""
"null","<div style=""font-size:60px;"">+</div>","","html-keyboard-response","368","1808051","0.0-19.0-0.11","6923","List2A","white","man","","","","null","","","","","","","","",""
"null","<img src=""stim_listA/kiss2.gif""style=""height:400px;""></stim_listA>","","html-keyboard-response","369","1810054","0.0-19.0-1.11","6923","List2A","white","man","","","","null","","","","","","","","",""
"null","is being kissed by","","html-keyboard-response","370","1812067","0.0-19.0-2.11","6923","List2A","white","man","","","","null","","","","","","","","",""
"5886.299999713898","","","survey-text","371","1817956","0.0-19.0-3.11","6923","List2A","white","man","","","","","{""Q0"":""jane is being kissed by dave""}","<img src=""stim_listA/kiss2.gif""style=""height:400px;""></stim_listA>","is being kissed by","","","","","",""
"null","<div style=""font-size:60px;"">+</div>","","html-keyboard-response","372","1818472","0.0-19.0-0.12","6923","List2A","white","man","","","","null","","","","","","","","",""
"null","<img src=""stim_listA/shout5.gif""style=""height:400px;""></stim_listA>","","html-keyboard-response","373","1820482","0.0-19.0-1.12","6923","List2A","white","man","","","","null","","","","","","","","",""
"null","is shouting at","","html-keyboard-response","374","1822487","0.0-19.0-2.12","6923","List2A","white","man","","","","null","","","","","","","","",""
"9487.699999809265","","","survey-text","375","1831977","0.0-19.0-3.12","6923","List2A","white","man","","","","","{""Q0"":""fred is shouting at luke""}","<img src=""stim_listA/shout5.gif""style=""height:400px;""></stim_listA>","is shouting at","","","","","",""
"null","<div style=""font-size:60px;"">+</div>","","html-keyboard-response","376","1832490","0.0-19.0-0.13","6923","List2A","white","man","","","","null","","","","","","","","",""
"null","<img src=""stim_listA/copy8.gif""style=""height:400px;""></stim_listA>","","html-keyboard-response","377","1834493","0.0-19.0-1.13","6923","List2A","white","man","","","","null","","","","","","","","",""
"null","is being copied by","","html-keyboard-response","378","1836506","0.0-19.0-2.13","6923","List2A","white","man","","","","null","","","","","","","","",""
"7092","","","survey-text","379","1843601","0.0-19.0-3.13","6923","List2A","white","man","","","","","{""Q0"":""ruth is being copied by kate""}","<img src=""stim_listA/copy8.gif""style=""height:400px;""></stim_listA>","is being copied by","","","","","",""
"null","<div style=""font-size:60px;"">+</div>","","html-keyboard-response","380","1844110","0.0-19.0-0.14","6923","List2A","white","man","","","","null","","","","","","","","",""
"null","<img src=""stim_listA/look5.gif""style=""height:400px;""></stim_listA>","","html-keyboard-response","381","1846113","0.0-19.0-1.14","6923","List2A","white","man","","","","null","","","","","","","","",""
"null","is looking at","","html-keyboard-response","382","1848115","0.0-19.0-2.14","6923","List2A","white","man","","","","null","","","","","","","","",""
"7237.599999904633","","","survey-text","383","1855354","0.0-19.0-3.14","6923","List2A","white","man","","","","","{""Q0"":""luke is looking at fred""}","<img src=""stim_listA/look5.gif""style=""height:400px;""></stim_listA>","is looking at","","","","","",""
"null","<div style=""font-size:60px;"">+</div>","","html-keyboard-response","384","1855871","0.0-19.0-0.15","6923","List2A","white","man","","","","null","","","","","","","","",""
"null","<img src=""stim_listA/look3.gif""style=""height:400px;""></stim_listA>","","html-keyboard-response","385","1857874","0.0-19.0-1.15","6923","List2A","white","man","","","","null","","","","","","","","",""
"null","is looking at","","html-keyboard-response","386","1859880","0.0-19.0-2.15","6923","List2A","white","man","","","","null","","","","","","","","",""
"5184","","","survey-text","387","1865067","0.0-19.0-3.15","6923","List2A","white","man","","","","","{""Q0"":""fred is looking at beth""}","<img src=""stim_listA/look3.gif""style=""height:400px;""></stim_listA>","is looking at","","","","","",""
"null","<div style=""font-size:60px;"">+</div>","","html-keyboard-response","388","1865571","0.0-19.0-0.16","6923","List2A","white","man","","","","null","","","","","","","","",""
"null","<img src=""stim_listA/seduce3.gif""style=""height:400px;""></stim_listA>","","html-keyboard-response","389","1867576","0.0-19.0-1.16","6923","List2A","white","man","","","","null","","","","","","","","",""
"null","is seducing","","html-keyboard-response","390","1869582","0.0-19.0-2.16","6923","List2A","white","man","","","","null","","","","","","","","",""
"4578.700000286102","","","survey-text","391","1874166","0.0-19.0-3.16","6923","List2A","white","man","","","","","{""Q0"":""fred is seducing kate""}","<img src=""stim_listA/seduce3.gif""style=""height:400px;""></stim_listA>","is seducing","","","","","",""
"null","<div style=""font-size:60px;"">+</div>","","html-keyboard-response","392","1874673","0.0-19.0-0.17","6923","List2A","white","man","","","","null","","","","","","","","",""
"null","<img src=""stim_listA/hug6.gif""style=""height:400px;""></stim_listA>","","html-keyboard-response","393","1876688","0.0-19.0-1.17","6923","List2A","white","man","","","","null","","","","","","","","",""
"null","is being hugged by","","html-keyboard-response","394","1878691","0.0-19.0-2.17","6923","List2A","white","man","","","","null","","","","","","","","",""
"16068.400000095367","","","survey-text","395","1894762","0.0-19.0-3.17","6923","List2A","white","man","","","","","{""Q0"":""dave is hugging mike""}","<img src=""stim_listA/hug6.gif""style=""height:400px;""></stim_listA>","is being hugged by","","","","","",""
"null","<div style=""font-size:60px;"">+</div>","","html-keyboard-response","396","1895276","0.0-19.0-0.18","6923","List2A","white","man","","","","null","","","","","","","","",""
"null","<img src=""stim_listA/seduce8.gif""style=""height:400px;""></stim_listA>","","html-keyboard-response","397","1897279","0.0-19.0-1.18","6923","List2A","white","man","","","","null","","","","","","","","",""
"null","is being seduced by","","html-keyboard-response","398","1899290","0.0-19.0-2.18","6923","List2A","white","man","","","","null","","","","","","","","",""
"8942.60000038147","","","survey-text","399","1908236","0.0-19.0-3.18","6923","List2A","white","man","","","","","{""Q0"":""beth is being seduced by jane""}","<img src=""stim_listA/seduce8.gif""style=""height:400px;""></stim_listA>","is being seduced by","","","","","",""
"null","<div style=""font-size:60px;"">+</div>","","html-keyboard-response","400","1908746","0.0-19.0-0.19","6923","List2A","white","man","","","","null","","","","","","","","",""
"null","<img src=""stim_listA/look4.gif""style=""height:400px;""></stim_listA>","","html-keyboard-response","401","1910751","0.0-19.0-1.19","6923","List2A","white","man","","","","null","","","","","","","","",""
"null","is being looked at by","","html-keyboard-response","402","1912765","0.0-19.0-2.19","6923","List2A","white","man","","","","null","","","","","","","","",""
"6430.599999904633","","","survey-text","403","1919199","0.0-19.0-3.19","6923","List2A","white","man","","","","","{""Q0"":""kate is being looked at by mike""}","<img src=""stim_listA/look4.gif""style=""height:400px;""></stim_listA>","is being looked at by","","","","","",""
"3718.4000000953674","<p>Thank you for completing that task.</p><p>The final part of this session is a questionnaire that will take about 4 minutes.</p><p>Press Continue.</p>","0","html-button-response","404","1922919","0.0-20.0","6923","List2A","white","man","","","","","","","","","","","","",""
"63944","","","survey-text","405","1987880","0.0-21.0","6923","List2A","white","man","","","","","{""Q0"":""34"",""Q1"":""English"",""Q2"":""English"",""Q3"":""USA"",""Q4"":""American"",""Q5"":""White"",""Q6"":""Male""}","","","demographics","","","","",""
"2709.300000190735","<p>Have you lived in the USA for the last 5 years or more?</p>","0","html-button-response","406","1990592","0.0-22.0","6923","List2A","white","man","","","","","","","","fiveyears","","","","",""
"2664","<p>Move the slider to show the extent to which you agree with the following statements.</p>","0","html-button-response","407","1994268","0.0-23.0","6923","List2A","white","man","","","","","","","","","","","","",""
"27861.099999904633","","","html-slider-response","408","2023145","0.0-24.0-0.0-0.0","6923","List2A","white","man","","","","","","","","survey_gender","31","","","People of my gender are very similar to each other.","verysimilar"
"10073","","","html-slider-response","409","2033222","0.0-24.0-0.0-0.1","6923","List2A","white","man","","","","","","","","survey_gender","91","","","I consider myself a highly empathetic person.","filler"
"14997","","","html-slider-response","410","2048222","0.0-24.0-0.0-0.2","6923","List2A","white","man","","","","","","","","survey_gender","50","","","It is pleasant to be my gender.","pleasant"
"6464.300000190735","","","html-slider-response","411","2054689","0.0-24.0-0.0-0.3","6923","List2A","white","man","","","","","","","","survey_gender","62","","","I feel a bond with my friends.","filler"
"11757.099999904633","","","html-slider-response","412","2066449","0.0-24.0-0.0-0.4","6923","List2A","white","man","","","","","","","","survey_gender","12","","","Being my gender is an important part of how I see myself.","important"
"13442.199999809265","","","html-slider-response","413","2079893","0.0-24.0-0.0-0.5","6923","List2A","white","man","","","","","","","","survey_gender","94","","","I would say I am an animal person.","filler"
"10564.400000095367","","","html-slider-response","414","2090461","0.0-24.0-0.0-0.6","6923","List2A","white","man","","","","","","","","survey_gender","55","","","I feel a bond with my gender.","bond"
"7427","","","html-slider-response","415","2097889","0.0-24.0-0.0-0.7","6923","List2A","white","man","","","","","","","","survey_gender","30","","","I often think about the fact that I am my gender.","often"
"7918.5","","","html-slider-response","416","2105811","0.0-24.0-0.0-0.8","6923","List2A","white","man","","","","","","","","survey_gender","49","","","I think that my gender has a lot to be proud of.","proud"
"6666.5","","","html-slider-response","417","2112482","0.0-24.0-0.0-0.9","6923","List2A","white","man","","","","","","","","survey_gender","50","","","I am glad to be my gender.","glad"
"17262.900000095367","","","html-slider-response","418","2129748","0.0-24.0-0.0-0.10","6923","List2A","white","man","","","","","","","","survey_gender","26","","","People of my gender have a lot in common with each other.","common"
"7686.199999809265","","","html-slider-response","419","2137436","0.0-24.0-0.0-0.11","6923","List2A","white","man","","","","","","","","survey_gender","58","","","My friends have a lot in common with each other.","filler"
"7685.900000095367","","","html-slider-response","420","2145123","0.0-24.0-0.0-0.12","6923","List2A","white","man","","","","","","","","survey_gender","50","","","I feel solidarity with my gender.","solidarity"
"4831.700000286102","","","html-slider-response","421","2149957","0.0-24.0-0.0-0.13","6923","List2A","white","man","","","","","","","","survey_gender","62","","","I feel solidarity with my friends.","filler"
"6888.599999904633","","","html-slider-response","422","2156849","0.0-24.0-0.0-0.14","6923","List2A","white","man","","","","","","","","survey_gender","25","","","The fact that I am my gender is an important part of my identity.","identity"
"5808.199999809265","","","html-slider-response","423","2162661","0.0-24.0-0.0-0.15","6923","List2A","white","man","","","","","","","","survey_gender","63","","","I am glad to have the friends that I have.","filler"
"4332.300000190735","","","html-slider-response","424","2166996","0.0-24.0-0.0-0.16","6923","List2A","white","man","","","","","","","","survey_gender","62","","","I have a lot in common with my friends.","filler"
"6783.5","","","html-slider-response","425","2173783","0.0-24.0-0.0-0.17","6923","List2A","white","man","","","","","","","","survey_gender","51","","","I have a lot in common with the average person of my gender.","average"
"6496.5","","","html-slider-response","426","2180283","0.0-24.0-0.0-0.18","6923","List2A","white","man","","","","","","","","survey_gender","43","","","Routine is not important to me.","filler"
"6254.89999961853","","","html-slider-response","427","2186540","0.0-24.0-0.0-0.19","6923","List2A","white","man","","","","","","","","survey_gender","66","","","Being around my friends gives me a good feeling.","filler"
"6208.800000190735","","","html-slider-response","428","2192751","0.0-24.0-0.0-0.20","6923","List2A","white","man","","","","","","","","survey_gender","49","","","I feel committed to my gender.","committed"
"10930.699999809265","","","html-slider-response","429","2203685","0.0-24.0-0.0-0.21","6923","List2A","white","man","","","","","","","","survey_gender","64","","","I am similar to the average person of my gender.","similar"
"9117.099999904633","","","html-slider-response","430","2212805","0.0-24.0-0.0-0.22","6923","List2A","white","man","","","","","","","","survey_gender","21","","","My friends understand me.","filler"
"7453.699999809265","","","html-slider-response","431","2220262","0.0-24.0-0.0-0.23","6923","List2A","white","man","","","","","","","","survey_gender","63","","","It is not always easy for people to know what I am thinking.","filler"
"7622.5","","","html-slider-response","432","2227888","0.0-24.0-0.0-0.24","6923","List2A","white","man","","","","","","","","survey_gender","37","","","Most of the friends in my life are very similar to me.","filler"
"16623.099999904633","","","html-slider-response","433","2244515","0.0-24.0-0.0-0.25","6923","List2A","white","man","","","","","","","","survey_gender","35","","","Family is not more important to me than friendship.","filler"
"13374.5","","","html-slider-response","434","2257891","0.0-24.0-0.0-0.26","6923","List2A","white","man","","","","","","","","survey_gender","95","","","I often think about my actions.","filler"
"7200.199999809265","","","html-slider-response","435","2265094","0.0-24.0-0.0-0.27","6923","List2A","white","man","","","","","","","","survey_gender","47","","","Being my gender gives me a good feeling.","feeling"
"9561.099999904633","","","html-slider-response","436","2274657","0.0-24.0-1.0-0.0","6923","List2A","white","man","","","","","","","","survey_race","19","","","I feel solidarity with my race.","solidarity"
"8290.700000286102","","","html-slider-response","437","2282951","0.0-24.0-1.0-0.1","6923","List2A","white","man","","","","","","","","survey_race","5","","","I feel committed to my race.","committed"
"7672.5","","","html-slider-response","438","2290627","0.0-24.0-1.0-0.2","6923","List2A","white","man","","","","","","","","survey_race","18","","","I am similar to the average person of my race.","similar"
"6358.800000190735","","","html-slider-response","439","2296988","0.0-24.0-1.0-0.3","6923","List2A","white","man","","","","","","","","survey_race","24","","","Being my age gives me a good feeling.","filler"
"6584.799999713898","","","html-slider-response","440","2303576","0.0-24.0-1.0-0.4","6923","List2A","white","man","","","","","","","","survey_race","79","","","The older I get, the wiser I feel.","filler"
"6236.60000038147","","","html-slider-response","441","2309816","0.0-24.0-1.0-0.5","6923","List2A","white","man","","","","","","","","survey_race","35","","","I feel solidarity with people the same age as me.","filler"
"8702.699999809265","","","html-slider-response","442","2318522","0.0-24.0-1.0-0.6","6923","List2A","white","man","","","","","","","","survey_race","18","","","I have a lot in common with the average person of my race.","average"
"4345.5","","","html-slider-response","443","2322872","0.0-24.0-1.0-0.7","6923","List2A","white","man","","","","","","","","survey_race","73","","","I often think about the fact that I am my race.","often"
"4738.299999713898","","","html-slider-response","444","2327614","0.0-24.0-1.0-0.8","6923","List2A","white","man","","","","","","","","survey_race","80","","","I consider myself an introvert.","filler"
"4732.299999713898","","","html-slider-response","445","2332349","0.0-24.0-1.0-0.9","6923","List2A","white","man","","","","","","","","survey_race","76","","","I often think about the fact that I am my age.","filler"
"8916.400000095367","","","html-slider-response","446","2341267","0.0-24.0-1.0-0.10","6923","List2A","white","man","","","","","","","","survey_race","29","","","People of my race are very similar to each other.","verysimilar"
"3865.199999809265","","","html-slider-response","447","2345136","0.0-24.0-1.0-0.11","6923","List2A","white","man","","","","","","","","survey_race","25","","","I am glad to be the age I am.","filler"
"4241.5","","","html-slider-response","448","2349379","0.0-24.0-1.0-0.12","6923","List2A","white","man","","","","","","","","survey_race","25","","","People of my race have a lot in common with each other.","common"
"4759.5","","","html-slider-response","449","2354140","0.0-24.0-1.0-0.13","6923","List2A","white","man","","","","","","","","survey_race","23","","","My age is not an important part of who I am.","filler"
"11149.099999904633","","","html-slider-response","450","2365292","0.0-24.0-1.0-0.14","6923","List2A","white","man","","","","","","","","survey_race","63","","","Being my race is an important part of how I see myself.","important"
"3589.0999999046326","","","html-slider-response","451","2368885","0.0-24.0-1.0-0.15","6923","List2A","white","man","","","","","","","","survey_race","29","","","I am glad to be my age.","filler"
"7236.799999713898","","","html-slider-response","452","2376124","0.0-24.0-1.0-0.16","6923","List2A","white","man","","","","","","","","survey_race","64","","","The fact that I am my race is an important part of my identity.","identity"
"9585.599999904633","","","html-slider-response","453","2385713","0.0-24.0-1.0-0.17","6923","List2A","white","man","","","","","","","","survey_race","61","","","People my age have a lot in common with each other.","filler"
"6415.099999904633","","","html-slider-response","454","2392131","0.0-24.0-1.0-0.18","6923","List2A","white","man","","","","","","","","survey_race","13","","","I enjoy being in large groups.","filler"
"4848.200000286102","","","html-slider-response","455","2396983","0.0-24.0-1.0-0.19","6923","List2A","white","man","","","","","","","","survey_race","14","","","It is pleasant to be my race.","pleasant"
"4608.300000190735","","","html-slider-response","456","2401594","0.0-24.0-1.0-0.20","6923","List2A","white","man","","","","","","","","survey_race","60","","","I feel a bond with people the same age as me.","filler"
"5847","","","html-slider-response","457","2407444","0.0-24.0-1.0-0.21","6923","List2A","white","man","","","","","","","","survey_race","37","","","I am glad to be my race.","glad"
"8649.400000095367","","","html-slider-response","458","2416095","0.0-24.0-1.0-0.22","6923","List2A","white","man","","","","","","","","survey_race","58","","","I have a lot in common with people of a similar age to me.","filler"
"6096.5","","","html-slider-response","459","2422196","0.0-24.0-1.0-0.23","6923","List2A","white","man","","","","","","","","survey_race","22","","","I feel a bond with my race.","bond"
"5528.799999713898","","","html-slider-response","460","2427728","0.0-24.0-1.0-0.24","6923","List2A","white","man","","","","","","","","survey_race","6","","","I consider myself an extrovert.","filler"
"5513.599999904633","","","html-slider-response","461","2433246","0.0-24.0-1.0-0.25","6923","List2A","white","man","","","","","","","","survey_race","6","","","Getting older does not worry me.","filler"
"9910.900000095367","","","html-slider-response","462","2443160","0.0-24.0-1.0-0.26","6923","List2A","white","man","","","","","","","","survey_race","6","","","Being my race gives me a good feeling.","feeling"
"9842.699999809265","","","html-slider-response","463","2453007","0.0-24.0-1.0-0.27","6923","List2A","white","man","","","","","","","","survey_race","13","","","I think that my race has a lot to be proud of.","proud"
"8132","","","survey-text","464","2461143","0.0-25.0","6923","List2A","white","man","","","","","{""Q0"":""614eb8b06d3d1fcc1d0d6596""}","","","worker_id","","","","",""
"46056.7999997139","","","external-html","465","2507593","0.0-26.0","6923","List2A","white","man","debrief.html","","","","","","","","","","","",""
