"rt","stimulus","button_pressed","trial_type","trial_index","time_elapsed","internal_node_id","subject","list","ppt_race","ppt_gender","url","first_guess","correct","key_press","responses","image_type","phrase_type","test_part","response","stimulus1","stimulus2","question_type","survey_item"
"3877.699999988079","Welcome to the experiment. Press Continue to begin.","0","html-button-response","0","3902","0.0-0.0","69491","List1A","black","woman","","","","","","","","","","","","",""
"200815.09999999404","","","external-html","1","205878","0.0-1.0","69491","List1A","black","woman","consent.html","","","","","","","","","","","",""
"32898.5","<p>On the next page, you will see portraits of 8 people and their names.</p><p>Your first task is to take a few minutes to memorise the names of these people.</p><p>You will have to recall their names during the rest of the experiment, so it is</p><p>essential that you try to memorise these people and their names as best as you can.</p><br><p><strong>You will then be tested on your memory of these names and portraits.</strong></p><br><p>The experiment will start after you have completed this memory test.</p><br><p>Ready?</p>","0","html-button-response","2","238784","0.0-2.0","69491","List1A","black","woman","","","","","","","","","","","","",""
"207517","<img src='img/portrait_matrix_list1.jpg' style='width:900px;height:500px;''></img><p>If you have memorised all the portraits and names and are ready to start, press Continue.</p><p><strong>Please note: Your memory of these faces will be tested 4 times during this experiment.</strong></p>","0","html-button-response","3","447324","0.0-3.0-0.0","69491","List1A","black","woman","","","","","","","","","","","","",""
"15019.60000000894","<img src=""portrait/WW2.jpg""style=""height:400px;""></img>","3","html-button-response","4","463356","0.0-3.0-1.0","69491","List1A","black","woman","","true","3","","","","","","","","","",""
"null","CORRECT","","html-keyboard-response","5","464874","0.0-3.0-2.0-0.0","69491","List1A","black","woman","","","","null","","","","","","","","",""
"6605.699999988079","<img src=""portrait/BM2.jpg""style=""height:400px;""></img>","5","html-button-response","6","471493","0.0-3.0-4.0","69491","List1A","black","woman","","true","5","","","","","","","","","",""
"null","CORRECT","","html-keyboard-response","7","473004","0.0-3.0-5.0-0.0","69491","List1A","black","woman","","","","null","","","","","","","","",""
"14950.20000000298","<img src=""portrait/BW1.jpg""style=""height:400px;""></img>","0","html-button-response","8","487965","0.0-3.0-7.0","69491","List1A","black","woman","","true","0","","","","","","","","","",""
"null","CORRECT","","html-keyboard-response","9","489478","0.0-3.0-8.0-0.0","69491","List1A","black","woman","","","","null","","","","","","","","",""
"25584.29999999702","<img src=""portrait/WW1.jpg""style=""height:400px;""></img>","1","html-button-response","10","515073","0.0-3.0-10.0","69491","List1A","black","woman","","true","1","","","","","","","","","",""
"null","CORRECT","","html-keyboard-response","11","516585","0.0-3.0-11.0-0.0","69491","List1A","black","woman","","","","null","","","","","","","","",""
"7352.70000000298","<img src=""portrait/BW2.jpg""style=""height:400px;""></img>","2","html-button-response","12","523948","0.0-3.0-13.0","69491","List1A","black","woman","","true","2","","","","","","","","","",""
"null","CORRECT","","html-keyboard-response","13","525461","0.0-3.0-14.0-0.0","69491","List1A","black","woman","","","","null","","","","","","","","",""
"12106.79999999702","<img src=""portrait/WM2.jpg""style=""height:400px;""></img>","7","html-button-response","14","537578","0.0-3.0-16.0","69491","List1A","black","woman","","true","7","","","","","","","","","",""
"null","CORRECT","","html-keyboard-response","15","539090","0.0-3.0-17.0-0.0","69491","List1A","black","woman","","","","null","","","","","","","","",""
"10502","<img src=""portrait/BM1.jpg""style=""height:400px;""></img>","4","html-button-response","16","549601","0.0-3.0-19.0","69491","List1A","black","woman","","true","4","","","","","","","","","",""
"null","CORRECT","","html-keyboard-response","17","551114","0.0-3.0-20.0-0.0","69491","List1A","black","woman","","","","null","","","","","","","","",""
"9003.29999999702","<img src=""portrait/WM1.jpg""style=""height:400px;""></img>","6","html-button-response","18","560130","0.0-3.0-22.0","69491","List1A","black","woman","","true","6","","","","","","","","","",""
"null","CORRECT","","html-keyboard-response","19","561641","0.0-3.0-23.0-0.0","69491","List1A","black","woman","","","","null","","","","","","","","",""
"3178","<p>You got 8 out of 8 right first time. Press Continue.</p>","0","html-button-response","20","564832","0.0-3.0-25.0","69491","List1A","black","woman","","","","","","","","","","","","",""
"67370","<p>In this experiment, you will view photographs of the people from the memory game interacting.</p><p>By using the <strong>exact</strong> phrase given <i>after</i> the photograph appears and recalling the correct names of the people in the photographs, form a sentence describing the interaction. You do not need to capitalise names.</p><p>Type your answer in the space provided. Please complete every sentence before moving onto the next trial.</p><p>You will only have a few seconds to memorise each given photograph and phrase before you can respond, so try your best to focus.</p><p>An example is given below. Press 'Continue' when you are ready.</p><img src='img/speaking_example.jpg' style='width:800px;height:460px;''></img>","0","html-button-response","21","633225","0.0-4.0","69491","List1A","black","woman","","","","","","","","","","","","",""
"4332.600000008941","<p>Before the experiment starts, you will watch two example trials. Press 'Continue'.</p>","0","html-button-response","22","638569","0.0-5.0","69491","List1A","black","woman","","","","","","","","","","","","",""
"null","<img src='img/play_eg.gif' style='height:400px;''></img>","","html-keyboard-response","23","641586","0.0-6.0","69491","List1A","black","woman","","","","null","","","","","","","","",""
"null","<p>is playing with</p>","","html-keyboard-response","24","643595","0.0-7.0","69491","List1A","black","woman","","","","null","","","","","","","","",""
"5121.79999999702","<p><b>Answer:</b> kate is playing with beth</p>","0","html-button-response","25","648724","0.0-8.0","69491","List1A","black","woman","","","","","","","","","","","","",""
"null","<img src='img/dance_eg.gif' style='height:400px;''></img>","","html-keyboard-response","26","651736","0.0-9.0","69491","List1A","black","woman","","","","null","","","","","","","","",""
"null","<p>is being entertained by</p>","","html-keyboard-response","27","653742","0.0-10.0","69491","List1A","black","woman","","","","null","","","","","","","","",""
"3583.2000000029802","<p><b>Answer:</b> luke is being entertained by dave</p>","0","html-button-response","28","657333","0.0-11.0","69491","List1A","black","woman","","","","","","","","","","","","",""
"19951.5","<p>Ready to start the experiment?</p><br><p><strong>Remember to describe the picture using a full sentence,</strong></p><p><strong>that combines the names of the people with the <i>exact</i> phrase given.</strong></p><p><strong>To receive full payment you must do this correctly.</strong></p><p><strong> You do not need to capitalise names or use punctuation.</strong></p><br><p>Press 'Continue' to begin.</p>","0","html-button-response","29","678298","0.0-12.0","69491","List1A","black","woman","","","","","","","","","","","","",""
"null","<div style=""font-size:60px;"">+</div>","","html-keyboard-response","30","679806","0.0-13.0-0.0","69491","List1A","black","woman","","","","null","","","","","","","","",""
"null","<img src=""stim_listA/kiss5.gif""style=""height:400px;""></stim_listA>","","html-keyboard-response","31","681834","0.0-13.0-1.0","69491","List1A","black","woman","","","","null","","","","","","","","",""
"null","is kissing","","html-keyboard-response","32","683842","0.0-13.0-2.0","69491","List1A","black","woman","","","","null","","","","","","","","",""
"18576.5","","","survey-text","33","702457","0.0-13.0-3.0","69491","List1A","black","woman","","","","","{""Q0"":""Fred is kissing Luke""}","<img src=""stim_listA/kiss5.gif""style=""height:400px;""></stim_listA>","is kissing","","","","","",""
"null","<div style=""font-size:60px;"">+</div>","","html-keyboard-response","34","702964","0.0-13.0-0.1","69491","List1A","black","woman","","","","null","","","","","","","","",""
"null","<img src=""stim_listA/seduce5.gif""style=""height:400px;""></stim_listA>","","html-keyboard-response","35","704973","0.0-13.0-1.1","69491","List1A","black","woman","","","","null","","","","","","","","",""
"null","is seducing","","html-keyboard-response","36","706983","0.0-13.0-2.1","69491","List1A","black","woman","","","","null","","","","","","","","",""
"27836.80000001192","","","survey-text","37","734838","0.0-13.0-3.1","69491","List1A","black","woman","","","","","{""Q0"":""Fred is seducing Dave""}","<img src=""stim_listA/seduce5.gif""style=""height:400px;""></stim_listA>","is seducing","","","","","",""
"null","<div style=""font-size:60px;"">+</div>","","html-keyboard-response","38","735345","0.0-13.0-0.2","69491","List1A","black","woman","","","","null","","","","","","","","",""
"null","<img src=""stim_listA/greet2.gif""style=""height:400px;""></stim_listA>","","html-keyboard-response","39","737357","0.0-13.0-1.2","69491","List1A","black","woman","","","","null","","","","","","","","",""
"null","is being greeted by","","html-keyboard-response","40","739365","0.0-13.0-2.2","69491","List1A","black","woman","","","","null","","","","","","","","",""
"21305.30000001192","","","survey-text","41","760686","0.0-13.0-3.2","69491","List1A","black","woman","","","","","{""Q0"":""Fred is being greeted by Kate""}","<img src=""stim_listA/greet2.gif""style=""height:400px;""></stim_listA>","is being greeted by","","","","","",""
"null","<div style=""font-size:60px;"">+</div>","","html-keyboard-response","42","761190","0.0-13.0-0.3","69491","List1A","black","woman","","","","null","","","","","","","","",""
"null","<img src=""stim_listA/look1.gif""style=""height:400px;""></stim_listA>","","html-keyboard-response","43","763201","0.0-13.0-1.3","69491","List1A","black","woman","","","","null","","","","","","","","",""
"null","is looking at","","html-keyboard-response","44","765209","0.0-13.0-2.3","69491","List1A","black","woman","","","","null","","","","","","","","",""
"15550.29999999702","","","survey-text","45","780774","0.0-13.0-3.3","69491","List1A","black","woman","","","","","{""Q0"":""Fred is looking at Beth""}","<img src=""stim_listA/look1.gif""style=""height:400px;""></stim_listA>","is looking at","","","","","",""
"null","<div style=""font-size:60px;"">+</div>","","html-keyboard-response","46","781281","0.0-13.0-0.4","69491","List1A","black","woman","","","","null","","","","","","","","",""
"null","<img src=""stim_listA/hug8.gif""style=""height:400px;""></stim_listA>","","html-keyboard-response","47","783291","0.0-13.0-1.4","69491","List1A","black","woman","","","","null","","","","","","","","",""
"null","is being hugged by","","html-keyboard-response","48","785298","0.0-13.0-2.4","69491","List1A","black","woman","","","","null","","","","","","","","",""
"22925.10000000894","","","survey-text","49","808242","0.0-13.0-3.4","69491","List1A","black","woman","","","","","{""Q0"":""Jane is being hugged by Kate""}","<img src=""stim_listA/hug8.gif""style=""height:400px;""></stim_listA>","is being hugged by","","","","","",""
"null","<div style=""font-size:60px;"">+</div>","","html-keyboard-response","50","808749","0.0-13.0-0.5","69491","List1A","black","woman","","","","null","","","","","","","","",""
"null","<img src=""stim_listA/kiss7.gif""style=""height:400px;""></stim_listA>","","html-keyboard-response","51","810759","0.0-13.0-1.5","69491","List1A","black","woman","","","","null","","","","","","","","",""
"null","is kissing","","html-keyboard-response","52","812768","0.0-13.0-2.5","69491","List1A","black","woman","","","","null","","","","","","","","",""
"43521.09999999404","","","survey-text","53","856306","0.0-13.0-3.5","69491","List1A","black","woman","","","","","{""Q0"":""Beth is kissing Ruth""}","<img src=""stim_listA/kiss7.gif""style=""height:400px;""></stim_listA>","is kissing","","","","","",""
"null","<div style=""font-size:60px;"">+</div>","","html-keyboard-response","54","856814","0.0-13.0-0.6","69491","List1A","black","woman","","","","null","","","","","","","","",""
"null","<img src=""stim_listA/greet3.gif""style=""height:400px;""></stim_listA>","","html-keyboard-response","55","858827","0.0-13.0-1.6","69491","List1A","black","woman","","","","null","","","","","","","","",""
"null","is greeting","","html-keyboard-response","56","860834","0.0-13.0-2.6","69491","List1A","black","woman","","","","null","","","","","","","","",""
"28240.5","","","survey-text","57","889089","0.0-13.0-3.6","69491","List1A","black","woman","","","","","{""Q0"":""Dave is greeting Ruth""}","<img src=""stim_listA/greet3.gif""style=""height:400px;""></stim_listA>","is greeting","","","","","",""
"null","<div style=""font-size:60px;"">+</div>","","html-keyboard-response","58","889599","0.0-13.0-0.7","69491","List1A","black","woman","","","","null","","","","","","","","",""
"null","<img src=""stim_listA/challenge6.gif""style=""height:400px;""></stim_listA>","","html-keyboard-response","59","891612","0.0-13.0-1.7","69491","List1A","black","woman","","","","null","","","","","","","","",""
"null","is being challenged by","","html-keyboard-response","60","893621","0.0-13.0-2.7","69491","List1A","black","woman","","","","null","","","","","","","","",""
"13630.39999999106","","","survey-text","61","907270","0.0-13.0-3.7","69491","List1A","black","woman","","","","","{""Q0"":""Dave is being challenged by Fred""}","<img src=""stim_listA/challenge6.gif""style=""height:400px;""></stim_listA>","is being challenged by","","","","","",""
"null","<div style=""font-size:60px;"">+</div>","","html-keyboard-response","62","907781","0.0-13.0-0.8","69491","List1A","black","woman","","","","null","","","","","","","","",""
"null","<img src=""stim_listA/oppose6.gif""style=""height:400px;""></stim_listA>","","html-keyboard-response","63","909795","0.0-13.0-1.8","69491","List1A","black","woman","","","","null","","","","","","","","",""
"null","is being opposed by","","html-keyboard-response","64","911804","0.0-13.0-2.8","69491","List1A","black","woman","","","","null","","","","","","","","",""
"20578.29999999702","","","survey-text","65","932400","0.0-13.0-3.8","69491","List1A","black","woman","","","","","{""Q0"":""Luke is being opposed by Fred""}","<img src=""stim_listA/oppose6.gif""style=""height:400px;""></stim_listA>","is being opposed by","","","","","",""
"null","<div style=""font-size:60px;"">+</div>","","html-keyboard-response","66","932909","0.0-13.0-0.9","69491","List1A","black","woman","","","","null","","","","","","","","",""
"null","<img src=""stim_listA/challenge7.gif""style=""height:400px;""></stim_listA>","","html-keyboard-response","67","934921","0.0-13.0-1.9","69491","List1A","black","woman","","","","null","","","","","","","","",""
"null","is challenging","","html-keyboard-response","68","936954","0.0-13.0-2.9","69491","List1A","black","woman","","","","null","","","","","","","","",""
"48524.79999999702","","","survey-text","69","985496","0.0-13.0-3.9","69491","List1A","black","woman","","","","","{""Q0"":""Kate is challenging Ruth""}","<img src=""stim_listA/challenge7.gif""style=""height:400px;""></stim_listA>","is challenging","","","","","",""
"null","<div style=""font-size:60px;"">+</div>","","html-keyboard-response","70","986004","0.0-13.0-0.10","69491","List1A","black","woman","","","","null","","","","","","","","",""
"null","<img src=""stim_listA/look8.gif""style=""height:400px;""></stim_listA>","","html-keyboard-response","71","988016","0.0-13.0-1.10","69491","List1A","black","woman","","","","null","","","","","","","","",""
"null","is being looked at by","","html-keyboard-response","72","990024","0.0-13.0-2.10","69491","List1A","black","woman","","","","null","","","","","","","","",""
"67631.80000001192","","","survey-text","73","1057675","0.0-13.0-3.10","69491","List1A","black","woman","","","","","{""Q0"":""Jane is being looked at by Kate""}","<img src=""stim_listA/look8.gif""style=""height:400px;""></stim_listA>","is being looked at by","","","","","",""
"null","<div style=""font-size:60px;"">+</div>","","html-keyboard-response","74","1058185","0.0-13.0-0.11","69491","List1A","black","woman","","","","null","","","","","","","","",""
"null","<img src=""stim_listA/hug5.gif""style=""height:400px;""></stim_listA>","","html-keyboard-response","75","1060199","0.0-13.0-1.11","69491","List1A","black","woman","","","","null","","","","","","","","",""
"null","is hugging","","html-keyboard-response","76","1062208","0.0-13.0-2.11","69491","List1A","black","woman","","","","null","","","","","","","","",""
"11065.699999988079","","","survey-text","77","1073292","0.0-13.0-3.11","69491","List1A","black","woman","","","","","{""Q0"":""Fred is hugging Luke""}","<img src=""stim_listA/hug5.gif""style=""height:400px;""></stim_listA>","is hugging","","","","","",""
"null","<div style=""font-size:60px;"">+</div>","","html-keyboard-response","78","1073804","0.0-13.0-0.12","69491","List1A","black","woman","","","","null","","","","","","","","",""
"null","<img src=""stim_listA/hug2.gif""style=""height:400px;""></stim_listA>","","html-keyboard-response","79","1075816","0.0-13.0-1.12","69491","List1A","black","woman","","","","null","","","","","","","","",""
"null","is being hugged by","","html-keyboard-response","80","1077822","0.0-13.0-2.12","69491","List1A","black","woman","","","","null","","","","","","","","",""
"23926.09999999404","","","survey-text","81","1101766","0.0-13.0-3.12","69491","List1A","black","woman","","","","","{""Q0"":""Kate is being hugged by Mike""}","<img src=""stim_listA/hug2.gif""style=""height:400px;""></stim_listA>","is being hugged by","","","","","",""
"null","<div style=""font-size:60px;"">+</div>","","html-keyboard-response","82","1102273","0.0-13.0-0.13","69491","List1A","black","woman","","","","null","","","","","","","","",""
"null","<img src=""stim_listA/copy8.gif""style=""height:400px;""></stim_listA>","","html-keyboard-response","83","1104286","0.0-13.0-1.13","69491","List1A","black","woman","","","","null","","","","","","","","",""
"null","is being copied by","","html-keyboard-response","84","1106295","0.0-13.0-2.13","69491","List1A","black","woman","","","","null","","","","","","","","",""
"18834.79999999702","","","survey-text","85","1125148","0.0-13.0-3.13","69491","List1A","black","woman","","","","","{""Q0"":""Jane is being copied by Beth""}","<img src=""stim_listA/copy8.gif""style=""height:400px;""></stim_listA>","is being copied by","","","","","",""
"null","<div style=""font-size:60px;"">+</div>","","html-keyboard-response","86","1125654","0.0-13.0-0.14","69491","List1A","black","woman","","","","null","","","","","","","","",""
"null","<img src=""stim_listA/touch4.gif""style=""height:400px;""></stim_listA>","","html-keyboard-response","87","1127667","0.0-13.0-1.14","69491","List1A","black","woman","","","","null","","","","","","","","",""
"null","is being touched by","","html-keyboard-response","88","1129674","0.0-13.0-2.14","69491","List1A","black","woman","","","","null","","","","","","","","",""
"15430.10000000894","","","survey-text","89","1145120","0.0-13.0-3.14","69491","List1A","black","woman","","","","","{""Q0"":""Ruth is being touched by Luke""}","<img src=""stim_listA/touch4.gif""style=""height:400px;""></stim_listA>","is being touched by","","","","","",""
"null","<div style=""font-size:60px;"">+</div>","","html-keyboard-response","90","1145624","0.0-13.0-0.15","69491","List1A","black","woman","","","","null","","","","","","","","",""
"null","<img src=""stim_listA/touch7.gif""style=""height:400px;""></stim_listA>","","html-keyboard-response","91","1147634","0.0-13.0-1.15","69491","List1A","black","woman","","","","null","","","","","","","","",""
"null","is touching","","html-keyboard-response","92","1149641","0.0-13.0-2.15","69491","List1A","black","woman","","","","null","","","","","","","","",""
"15441","","","survey-text","93","1165100","0.0-13.0-3.15","69491","List1A","black","woman","","","","","{""Q0"":""Kate is touching Jane""}","<img src=""stim_listA/touch7.gif""style=""height:400px;""></stim_listA>","is touching","","","","","",""
"null","<div style=""font-size:60px;"">+</div>","","html-keyboard-response","94","1165609","0.0-13.0-0.16","69491","List1A","black","woman","","","","null","","","","","","","","",""
"null","<img src=""stim_listA/hug7.gif""style=""height:400px;""></stim_listA>","","html-keyboard-response","95","1167621","0.0-13.0-1.16","69491","List1A","black","woman","","","","null","","","","","","","","",""
"null","is hugging","","html-keyboard-response","96","1169628","0.0-13.0-2.16","69491","List1A","black","woman","","","","null","","","","","","","","",""
"20068.5","","","survey-text","97","1189713","0.0-13.0-3.16","69491","List1A","black","woman","","","","","{""Q0"":""Beth is hugging Ruth""}","<img src=""stim_listA/hug7.gif""style=""height:400px;""></stim_listA>","is hugging","","","","","",""
"null","<div style=""font-size:60px;"">+</div>","","html-keyboard-response","98","1190221","0.0-13.0-0.17","69491","List1A","black","woman","","","","null","","","","","","","","",""
"null","<img src=""stim_listA/copy7.gif""style=""height:400px;""></stim_listA>","","html-keyboard-response","99","1192233","0.0-13.0-1.17","69491","List1A","black","woman","","","","null","","","","","","","","",""
"null","is copying","","html-keyboard-response","100","1194242","0.0-13.0-2.17","69491","List1A","black","woman","","","","null","","","","","","","","",""
"26086.40000000596","","","survey-text","101","1220348","0.0-13.0-3.17","69491","List1A","black","woman","","","","","{""Q0"":""Kate is copying Ruth""}","<img src=""stim_listA/copy7.gif""style=""height:400px;""></stim_listA>","is copying","","","","","",""
"null","<div style=""font-size:60px;"">+</div>","","html-keyboard-response","102","1220857","0.0-13.0-0.18","69491","List1A","black","woman","","","","null","","","","","","","","",""
"null","<img src=""stim_listA/oppose4.gif""style=""height:400px;""></stim_listA>","","html-keyboard-response","103","1222868","0.0-13.0-1.18","69491","List1A","black","woman","","","","null","","","","","","","","",""
"null","is being opposed by","","html-keyboard-response","104","1224876","0.0-13.0-2.18","69491","List1A","black","woman","","","","null","","","","","","","","",""
"16066.5","","","survey-text","105","1240956","0.0-13.0-3.18","69491","List1A","black","woman","","","","","{""Q0"":""Ruth is being opposed by Luke""}","<img src=""stim_listA/oppose4.gif""style=""height:400px;""></stim_listA>","is being opposed by","","","","","",""
"null","<div style=""font-size:60px;"">+</div>","","html-keyboard-response","106","1241461","0.0-13.0-0.19","69491","List1A","black","woman","","","","null","","","","","","","","",""
"null","<img src=""stim_listA/look7.gif""style=""height:400px;""></stim_listA>","","html-keyboard-response","107","1243475","0.0-13.0-1.19","69491","List1A","black","woman","","","","null","","","","","","","","",""
"null","is looking at","","html-keyboard-response","108","1245483","0.0-13.0-2.19","69491","List1A","black","woman","","","","null","","","","","","","","",""
"21981.79999999702","","","survey-text","109","1267479","0.0-13.0-3.19","69491","List1A","black","woman","","","","","{""Q0"":""Beth is looking at Ruth""}","<img src=""stim_listA/look7.gif""style=""height:400px;""></stim_listA>","is looking at","","","","","",""
"14272.20000000298","<img src='img/portrait_matrix_list1.jpg' style='width:900px;height:500px;''></img><p>If you have memorised all the portraits and names and are ready to start, press Continue.</p><p><strong>Please note: Your memory of these faces will be tested 4 times during this experiment.</strong></p>","0","html-button-response","110","1281760","0.0-14.0-0.0","69491","List1A","black","woman","","","","","","","","","","","","",""
"4350.20000000298","<img src=""portrait/WM1.jpg""style=""height:400px;""></img>","6","html-button-response","111","1287130","0.0-14.0-1.0","69491","List1A","black","woman","","true","6","","","","","","","","","",""
"null","CORRECT","","html-keyboard-response","112","1288662","0.0-14.0-2.0-0.0","69491","List1A","black","woman","","","","null","","","","","","","","",""
"2869.5999999940395","<img src=""portrait/BW2.jpg""style=""height:400px;""></img>","2","html-button-response","113","1291541","0.0-14.0-4.0","69491","List1A","black","woman","","true","2","","","","","","","","","",""
"null","CORRECT","","html-keyboard-response","114","1293053","0.0-14.0-5.0-0.0","69491","List1A","black","woman","","","","null","","","","","","","","",""
"9155.29999999702","<img src=""portrait/BW1.jpg""style=""height:400px;""></img>","0","html-button-response","115","1302222","0.0-14.0-7.0","69491","List1A","black","woman","","true","0","","","","","","","","","",""
"null","CORRECT","","html-keyboard-response","116","1303729","0.0-14.0-8.0-0.0","69491","List1A","black","woman","","","","null","","","","","","","","",""
"5237.5999999940395","<img src=""portrait/BM1.jpg""style=""height:400px;""></img>","4","html-button-response","117","1308980","0.0-14.0-10.0","69491","List1A","black","woman","","true","4","","","","","","","","","",""
"null","CORRECT","","html-keyboard-response","118","1310496","0.0-14.0-11.0-0.0","69491","List1A","black","woman","","","","null","","","","","","","","",""
"7391.79999999702","<img src=""portrait/WW1.jpg""style=""height:400px;""></img>","1","html-button-response","119","1317901","0.0-14.0-13.0","69491","List1A","black","woman","","true","1","","","","","","","","","",""
"null","CORRECT","","html-keyboard-response","120","1319411","0.0-14.0-14.0-0.0","69491","List1A","black","woman","","","","null","","","","","","","","",""
"2373.7999999970198","<img src=""portrait/WW2.jpg""style=""height:400px;""></img>","3","html-button-response","121","1321796","0.0-14.0-16.0","69491","List1A","black","woman","","true","3","","","","","","","","","",""
"null","CORRECT","","html-keyboard-response","122","1323306","0.0-14.0-17.0-0.0","69491","List1A","black","woman","","","","null","","","","","","","","",""
"5347.0999999940395","<img src=""portrait/WM2.jpg""style=""height:400px;""></img>","7","html-button-response","123","1328665","0.0-14.0-19.0","69491","List1A","black","woman","","true","7","","","","","","","","","",""
"null","CORRECT","","html-keyboard-response","124","1330176","0.0-14.0-20.0-0.0","69491","List1A","black","woman","","","","null","","","","","","","","",""
"4827.29999999702","<img src=""portrait/BM2.jpg""style=""height:400px;""></img>","5","html-button-response","125","1335017","0.0-14.0-22.0","69491","List1A","black","woman","","true","5","","","","","","","","","",""
"null","CORRECT","","html-keyboard-response","126","1336528","0.0-14.0-23.0-0.0","69491","List1A","black","woman","","","","null","","","","","","","","",""
"2099.5999999940395","<p>You got 8 out of 8 right first time. Press Continue.</p>","0","html-button-response","127","1338646","0.0-14.0-25.0","69491","List1A","black","woman","","","","","","","","","","","","",""
"null","<div style=""font-size:60px;"">+</div>","","html-keyboard-response","128","1340191","0.0-15.0-0.0","69491","List1A","black","woman","","","","null","","","","","","","","",""
"null","<img src=""stim_listA/seduce6.gif""style=""height:400px;""></stim_listA>","","html-keyboard-response","129","1342204","0.0-15.0-1.0","69491","List1A","black","woman","","","","null","","","","","","","","",""
"null","is being seduced by","","html-keyboard-response","130","1344215","0.0-15.0-2.0","69491","List1A","black","woman","","","","null","","","","","","","","",""
"17626.70000000298","","","survey-text","131","1361862","0.0-15.0-3.0","69491","List1A","black","woman","","","","","{""Q0"":""Luke is being seduced by Mike""}","<img src=""stim_listA/seduce6.gif""style=""height:400px;""></stim_listA>","is being seduced by","","","","","",""
"null","<div style=""font-size:60px;"">+</div>","","html-keyboard-response","132","1362370","0.0-15.0-0.1","69491","List1A","black","woman","","","","null","","","","","","","","",""
"null","<img src=""stim_listA/kiss2.gif""style=""height:400px;""></stim_listA>","","html-keyboard-response","133","1364379","0.0-15.0-1.1","69491","List1A","black","woman","","","","null","","","","","","","","",""
"null","is being kissed by","","html-keyboard-response","134","1366386","0.0-15.0-2.1","69491","List1A","black","woman","","","","null","","","","","","","","",""
"12086.5","","","survey-text","135","1378487","0.0-15.0-3.1","69491","List1A","black","woman","","","","","{""Q0"":""Kate is being kissed by Mike""}","<img src=""stim_listA/kiss2.gif""style=""height:400px;""></stim_listA>","is being kissed by","","","","","",""
"null","<div style=""font-size:60px;"">+</div>","","html-keyboard-response","136","1378998","0.0-15.0-0.2","69491","List1A","black","woman","","","","null","","","","","","","","",""
"null","<img src=""stim_listA/challenge8.gif""style=""height:400px;""></stim_listA>","","html-keyboard-response","137","1381008","0.0-15.0-1.2","69491","List1A","black","woman","","","","null","","","","","","","","",""
"null","is being challenged by","","html-keyboard-response","138","1383015","0.0-15.0-2.2","69491","List1A","black","woman","","","","null","","","","","","","","",""
"16936.80000001192","","","survey-text","139","1399970","0.0-15.0-3.2","69491","List1A","black","woman","","","","","{""Q0"":""Jane is being challenged by Beth""}","<img src=""stim_listA/challenge8.gif""style=""height:400px;""></stim_listA>","is being challenged by","","","","","",""
"null","<div style=""font-size:60px;"">+</div>","","html-keyboard-response","140","1400478","0.0-15.0-0.3","69491","List1A","black","woman","","","","null","","","","","","","","",""
"null","<img src=""stim_listA/touch6.gif""style=""height:400px;""></stim_listA>","","html-keyboard-response","141","1402488","0.0-15.0-1.3","69491","List1A","black","woman","","","","null","","","","","","","","",""
"null","is being touched by","","html-keyboard-response","142","1404493","0.0-15.0-2.3","69491","List1A","black","woman","","","","null","","","","","","","","",""
"10475.10000000894","","","survey-text","143","1414984","0.0-15.0-3.3","69491","List1A","black","woman","","","","","{""Q0"":""Luke is being touched by Fred""}","<img src=""stim_listA/touch6.gif""style=""height:400px;""></stim_listA>","is being touched by","","","","","",""
"null","<div style=""font-size:60px;"">+</div>","","html-keyboard-response","144","1415487","0.0-15.0-0.4","69491","List1A","black","woman","","","","null","","","","","","","","",""
"null","<img src=""stim_listA/hug1.gif""style=""height:400px;""></stim_listA>","","html-keyboard-response","145","1417493","0.0-15.0-1.4","69491","List1A","black","woman","","","","null","","","","","","","","",""
"null","is hugging","","html-keyboard-response","146","1419499","0.0-15.0-2.4","69491","List1A","black","woman","","","","null","","","","","","","","",""
"12850.79999999702","","","survey-text","147","1432365","0.0-15.0-3.4","69491","List1A","black","woman","","","","","{""Q0"":""Fred is hugging Beth""}","<img src=""stim_listA/hug1.gif""style=""height:400px;""></stim_listA>","is hugging","","","","","",""
"null","<div style=""font-size:60px;"">+</div>","","html-keyboard-response","148","1432872","0.0-15.0-0.5","69491","List1A","black","woman","","","","null","","","","","","","","",""
"null","<img src=""stim_listA/shout2.gif""style=""height:400px;""></stim_listA>","","html-keyboard-response","149","1434882","0.0-15.0-1.5","69491","List1A","black","woman","","","","null","","","","","","","","",""
"null","is being shouted at by","","html-keyboard-response","150","1436888","0.0-15.0-2.5","69491","List1A","black","woman","","","","null","","","","","","","","",""
"17250.79999999702","","","survey-text","151","1454154","0.0-15.0-3.5","69491","List1A","black","woman","","","","","{""Q0"":""Kate is being shouted at by Mike""}","<img src=""stim_listA/shout2.gif""style=""height:400px;""></stim_listA>","is being shouted at by","","","","","",""
"null","<div style=""font-size:60px;"">+</div>","","html-keyboard-response","152","1454664","0.0-15.0-0.6","69491","List1A","black","woman","","","","null","","","","","","","","",""
"null","<img src=""stim_listA/challenge2.gif""style=""height:400px;""></stim_listA>","","html-keyboard-response","153","1456676","0.0-15.0-1.6","69491","List1A","black","woman","","","","null","","","","","","","","",""
"null","is being challenged by","","html-keyboard-response","154","1458682","0.0-15.0-2.6","69491","List1A","black","woman","","","","null","","","","","","","","",""
"13223.90000000596","","","survey-text","155","1471924","0.0-15.0-3.6","69491","List1A","black","woman","","","","","{""Q0"":""Fred is being challenged by Kate""}","<img src=""stim_listA/challenge2.gif""style=""height:400px;""></stim_listA>","is being challenged by","","","","","",""
"null","<div style=""font-size:60px;"">+</div>","","html-keyboard-response","156","1472431","0.0-15.0-0.7","69491","List1A","black","woman","","","","null","","","","","","","","",""
"null","<img src=""stim_listA/look3.gif""style=""height:400px;""></stim_listA>","","html-keyboard-response","157","1474443","0.0-15.0-1.7","69491","List1A","black","woman","","","","null","","","","","","","","",""
"null","is looking at","","html-keyboard-response","158","1476451","0.0-15.0-2.7","69491","List1A","black","woman","","","","null","","","","","","","","",""
"12764.20000000298","","","survey-text","159","1489231","0.0-15.0-3.7","69491","List1A","black","woman","","","","","{""Q0"":""Luke is looking at Ruth""}","<img src=""stim_listA/look3.gif""style=""height:400px;""></stim_listA>","is looking at","","","","","",""
"null","<div style=""font-size:60px;"">+</div>","","html-keyboard-response","160","1489741","0.0-15.0-0.8","69491","List1A","black","woman","","","","null","","","","","","","","",""
"null","<img src=""stim_listA/seduce4.gif""style=""height:400px;""></stim_listA>","","html-keyboard-response","161","1491752","0.0-15.0-1.8","69491","List1A","black","woman","","","","null","","","","","","","","",""
"null","is being seduced by","","html-keyboard-response","162","1493758","0.0-15.0-2.8","69491","List1A","black","woman","","","","null","","","","","","","","",""
"17036.80000001192","","","survey-text","163","1510810","0.0-15.0-3.8","69491","List1A","black","woman","","","","","{""Q0"":""Ruth is being seduced by Dave""}","<img src=""stim_listA/seduce4.gif""style=""height:400px;""></stim_listA>","is being seduced by","","","","","",""
"null","<div style=""font-size:60px;"">+</div>","","html-keyboard-response","164","1511319","0.0-15.0-0.9","69491","List1A","black","woman","","","","null","","","","","","","","",""
"null","<img src=""stim_listA/touch2.gif""style=""height:400px;""></stim_listA>","","html-keyboard-response","165","1513332","0.0-15.0-1.9","69491","List1A","black","woman","","","","null","","","","","","","","",""
"null","is being touched by","","html-keyboard-response","166","1515341","0.0-15.0-2.9","69491","List1A","black","woman","","","","null","","","","","","","","",""
"11670.60000000894","","","survey-text","167","1527031","0.0-15.0-3.9","69491","List1A","black","woman","","","","","{""Q0"":""Beth is being touched by Fred""}","<img src=""stim_listA/touch2.gif""style=""height:400px;""></stim_listA>","is being touched by","","","","","",""
"null","<div style=""font-size:60px;"">+</div>","","html-keyboard-response","168","1527541","0.0-15.0-0.10","69491","List1A","black","woman","","","","null","","","","","","","","",""
"null","<img src=""stim_listA/kiss8.gif""style=""height:400px;""></stim_listA>","","html-keyboard-response","169","1529554","0.0-15.0-1.10","69491","List1A","black","woman","","","","null","","","","","","","","",""
"null","is being kissed by","","html-keyboard-response","170","1531563","0.0-15.0-2.10","69491","List1A","black","woman","","","","null","","","","","","","","",""
"12172.79999999702","","","survey-text","171","1543756","0.0-15.0-3.10","69491","List1A","black","woman","","","","","{""Q0"":""Jane is being kissed by Kate""}","<img src=""stim_listA/kiss8.gif""style=""height:400px;""></stim_listA>","is being kissed by","","","","","",""
"null","<div style=""font-size:60px;"">+</div>","","html-keyboard-response","172","1544264","0.0-15.0-0.11","69491","List1A","black","woman","","","","null","","","","","","","","",""
"null","<img src=""stim_listA/look5.gif""style=""height:400px;""></stim_listA>","","html-keyboard-response","173","1546276","0.0-15.0-1.11","69491","List1A","black","woman","","","","null","","","","","","","","",""
"null","is looking at","","html-keyboard-response","174","1548284","0.0-15.0-2.11","69491","List1A","black","woman","","","","null","","","","","","","","",""
"11695.59999999404","","","survey-text","175","1559996","0.0-15.0-3.11","69491","List1A","black","woman","","","","","{""Q0"":""Fred is looking at Luke""}","<img src=""stim_listA/look5.gif""style=""height:400px;""></stim_listA>","is looking at","","","","","",""
"null","<div style=""font-size:60px;"">+</div>","","html-keyboard-response","176","1560502","0.0-15.0-0.12","69491","List1A","black","woman","","","","null","","","","","","","","",""
"null","<img src=""stim_listA/copy2.gif""style=""height:400px;""></stim_listA>","","html-keyboard-response","177","1562512","0.0-15.0-1.12","69491","List1A","black","woman","","","","null","","","","","","","","",""
"null","is being copied by","","html-keyboard-response","178","1564522","0.0-15.0-2.12","69491","List1A","black","woman","","","","null","","","","","","","","",""
"8753","","","survey-text","179","1573291","0.0-15.0-3.12","69491","List1A","black","woman","","","","","{""Q0"":""Kate is being copied by Fred""}","<img src=""stim_listA/copy2.gif""style=""height:400px;""></stim_listA>","is being copied by","","","","","",""
"null","<div style=""font-size:60px;"">+</div>","","html-keyboard-response","180","1573797","0.0-15.0-0.13","69491","List1A","black","woman","","","","null","","","","","","","","",""
"null","<img src=""stim_listA/shout3.gif""style=""height:400px;""></stim_listA>","","html-keyboard-response","181","1575810","0.0-15.0-1.13","69491","List1A","black","woman","","","","null","","","","","","","","",""
"null","is shouting at","","html-keyboard-response","182","1577819","0.0-15.0-2.13","69491","List1A","black","woman","","","","null","","","","","","","","",""
"12504.70000000298","","","survey-text","183","1590344","0.0-15.0-3.13","69491","List1A","black","woman","","","","","{""Q0"":""Luke is shouting at Ruth""}","<img src=""stim_listA/shout3.gif""style=""height:400px;""></stim_listA>","is shouting at","","","","","",""
"null","<div style=""font-size:60px;"">+</div>","","html-keyboard-response","184","1590854","0.0-15.0-0.14","69491","List1A","black","woman","","","","null","","","","","","","","",""
"null","<img src=""stim_listA/touch5.gif""style=""height:400px;""></stim_listA>","","html-keyboard-response","185","1592866","0.0-15.0-1.14","69491","List1A","black","woman","","","","null","","","","","","","","",""
"null","is touching","","html-keyboard-response","186","1594875","0.0-15.0-2.14","69491","List1A","black","woman","","","","null","","","","","","","","",""
"8131.899999991059","","","survey-text","187","1603026","0.0-15.0-3.14","69491","List1A","black","woman","","","","","{""Q0"":""Mike is touching Dave""}","<img src=""stim_listA/touch5.gif""style=""height:400px;""></stim_listA>","is touching","","","","","",""
"null","<div style=""font-size:60px;"">+</div>","","html-keyboard-response","188","1603535","0.0-15.0-0.15","69491","List1A","black","woman","","","","null","","","","","","","","",""
"null","<img src=""stim_listA/look2.gif""style=""height:400px;""></stim_listA>","","html-keyboard-response","189","1605548","0.0-15.0-1.15","69491","List1A","black","woman","","","","null","","","","","","","","",""
"null","is being looked at by","","html-keyboard-response","190","1607558","0.0-15.0-2.15","69491","List1A","black","woman","","","","null","","","","","","","","",""
"12142.70000000298","","","survey-text","191","1619718","0.0-15.0-3.15","69491","List1A","black","woman","","","","","{""Q0"":""Mike is being looked at by Kate""}","<img src=""stim_listA/look2.gif""style=""height:400px;""></stim_listA>","is being looked at by","","","","","",""
"null","<div style=""font-size:60px;"">+</div>","","html-keyboard-response","192","1620224","0.0-15.0-0.16","69491","List1A","black","woman","","","","null","","","","","","","","",""
"null","<img src=""stim_listA/look6.gif""style=""height:400px;""></stim_listA>","","html-keyboard-response","193","1622235","0.0-15.0-1.16","69491","List1A","black","woman","","","","null","","","","","","","","",""
"null","is being looked at by","","html-keyboard-response","194","1624242","0.0-15.0-2.16","69491","List1A","black","woman","","","","null","","","","","","","","",""
"11167.40000000596","","","survey-text","195","1635425","0.0-15.0-3.16","69491","List1A","black","woman","","","","","{""Q0"":""Fred is being looked at by Mike""}","<img src=""stim_listA/look6.gif""style=""height:400px;""></stim_listA>","is being looked at by","","","","","",""
"null","<div style=""font-size:60px;"">+</div>","","html-keyboard-response","196","1635936","0.0-15.0-0.17","69491","List1A","black","woman","","","","null","","","","","","","","",""
"null","<img src=""stim_listA/copy4.gif""style=""height:400px;""></stim_listA>","","html-keyboard-response","197","1637948","0.0-15.0-1.17","69491","List1A","black","woman","","","","null","","","","","","","","",""
"null","is being copied by","","html-keyboard-response","198","1639958","0.0-15.0-2.17","69491","List1A","black","woman","","","","null","","","","","","","","",""
"10060.79999999702","","","survey-text","199","1650037","0.0-15.0-3.17","69491","List1A","black","woman","","","","","{""Q0"":""Jane is being copied by Luke""}","<img src=""stim_listA/copy4.gif""style=""height:400px;""></stim_listA>","is being copied by","","","","","",""
"null","<div style=""font-size:60px;"">+</div>","","html-keyboard-response","200","1650546","0.0-15.0-0.18","69491","List1A","black","woman","","","","null","","","","","","","","",""
"null","<img src=""stim_listA/oppose8.gif""style=""height:400px;""></stim_listA>","","html-keyboard-response","201","1652559","0.0-15.0-1.18","69491","List1A","black","woman","","","","null","","","","","","","","",""
"null","is being opposed by","","html-keyboard-response","202","1654569","0.0-15.0-2.18","69491","List1A","black","woman","","","","null","","","","","","","","",""
"16454.90000000596","","","survey-text","203","1671042","0.0-15.0-3.18","69491","List1A","black","woman","","","","","{""Q0"":""Ruth is being opposed by Beth""}","<img src=""stim_listA/oppose8.gif""style=""height:400px;""></stim_listA>","is being opposed by","","","","","",""
"null","<div style=""font-size:60px;"">+</div>","","html-keyboard-response","204","1671553","0.0-15.0-0.19","69491","List1A","black","woman","","","","null","","","","","","","","",""
"null","<img src=""stim_listA/greet1.gif""style=""height:400px;""></stim_listA>","","html-keyboard-response","205","1673566","0.0-15.0-1.19","69491","List1A","black","woman","","","","null","","","","","","","","",""
"null","is greeting","","html-keyboard-response","206","1675573","0.0-15.0-2.19","69491","List1A","black","woman","","","","null","","","","","","","","",""
"8046","","","survey-text","207","1683637","0.0-15.0-3.19","69491","List1A","black","woman","","","","","{""Q0"":""Beth is greeting Mike""}","<img src=""stim_listA/greet1.gif""style=""height:400px;""></stim_listA>","is greeting","","","","","",""
"7365.29999999702","<img src='img/portrait_matrix_list1.jpg' style='width:900px;height:500px;''></img><p>If you have memorised all the portraits and names and are ready to start, press Continue.</p><p><strong>Please note: Your memory of these faces will be tested 4 times during this experiment.</strong></p>","0","html-button-response","208","1691011","0.0-16.0-0.0","69491","List1A","black","woman","","","","","","","","","","","","",""
"2053.9000000059605","<img src=""portrait/BM1.jpg""style=""height:400px;""></img>","4","html-button-response","209","1694102","0.0-16.0-1.0","69491","List1A","black","woman","","true","4","","","","","","","","","",""
"null","CORRECT","","html-keyboard-response","210","1695608","0.0-16.0-2.0-0.0","69491","List1A","black","woman","","","","null","","","","","","","","",""
"2358.3999999910593","<img src=""portrait/WM1.jpg""style=""height:400px;""></img>","6","html-button-response","211","1697975","0.0-16.0-4.0","69491","List1A","black","woman","","true","6","","","","","","","","","",""
"null","CORRECT","","html-keyboard-response","212","1699491","0.0-16.0-5.0-0.0","69491","List1A","black","woman","","","","null","","","","","","","","",""
"1760.3999999910593","<img src=""portrait/WW2.jpg""style=""height:400px;""></img>","3","html-button-response","213","1701263","0.0-16.0-7.0","69491","List1A","black","woman","","true","3","","","","","","","","","",""
"null","CORRECT","","html-keyboard-response","214","1702777","0.0-16.0-8.0-0.0","69491","List1A","black","woman","","","","null","","","","","","","","",""
"1848.0999999940395","<img src=""portrait/WM2.jpg""style=""height:400px;""></img>","7","html-button-response","215","1704643","0.0-16.0-10.0","69491","List1A","black","woman","","true","7","","","","","","","","","",""
"null","CORRECT","","html-keyboard-response","216","1706158","0.0-16.0-11.0-0.0","69491","List1A","black","woman","","","","null","","","","","","","","",""
"2407.2999999970198","<img src=""portrait/BW1.jpg""style=""height:400px;""></img>","0","html-button-response","217","1708578","0.0-16.0-13.0","69491","List1A","black","woman","","true","0","","","","","","","","","",""
"null","CORRECT","","html-keyboard-response","218","1710093","0.0-16.0-14.0-0.0","69491","List1A","black","woman","","","","null","","","","","","","","",""
"2312.5999999940395","<img src=""portrait/BW2.jpg""style=""height:400px;""></img>","2","html-button-response","219","1712419","0.0-16.0-16.0","69491","List1A","black","woman","","true","2","","","","","","","","","",""
"null","CORRECT","","html-keyboard-response","220","1713936","0.0-16.0-17.0-0.0","69491","List1A","black","woman","","","","null","","","","","","","","",""
"4121.79999999702","<img src=""portrait/BM2.jpg""style=""height:400px;""></img>","5","html-button-response","221","1718074","0.0-16.0-19.0","69491","List1A","black","woman","","true","5","","","","","","","","","",""
"null","CORRECT","","html-keyboard-response","222","1719585","0.0-16.0-20.0-0.0","69491","List1A","black","woman","","","","null","","","","","","","","",""
"4224.5","<img src=""portrait/WW1.jpg""style=""height:400px;""></img>","1","html-button-response","223","1723821","0.0-16.0-22.0","69491","List1A","black","woman","","true","1","","","","","","","","","",""
"null","CORRECT","","html-keyboard-response","224","1725338","0.0-16.0-23.0-0.0","69491","List1A","black","woman","","","","null","","","","","","","","",""
"1857.6000000089407","<p>You got 8 out of 8 right first time. Press Continue.</p>","0","html-button-response","225","1727228","0.0-16.0-25.0","69491","List1A","black","woman","","","","","","","","","","","","",""
"null","<div style=""font-size:60px;"">+</div>","","html-keyboard-response","226","1728737","0.0-17.0-0.0","69491","List1A","black","woman","","","","null","","","","","","","","",""
"null","<img src=""stim_listA/shout8.gif""style=""height:400px;""></stim_listA>","","html-keyboard-response","227","1730750","0.0-17.0-1.0","69491","List1A","black","woman","","","","null","","","","","","","","",""
"null","is being shouted at by","","html-keyboard-response","228","1732757","0.0-17.0-2.0","69491","List1A","black","woman","","","","null","","","","","","","","",""
"13794.09999999404","","","survey-text","229","1746570","0.0-17.0-3.0","69491","List1A","black","woman","","","","","{""Q0"":""Jane is being shouted at by Kate""}","<img src=""stim_listA/shout8.gif""style=""height:400px;""></stim_listA>","is being shouted at by","","","","","",""
"null","<div style=""font-size:60px;"">+</div>","","html-keyboard-response","230","1747075","0.0-17.0-0.1","69491","List1A","black","woman","","","","null","","","","","","","","",""
"null","<img src=""stim_listA/touch3.gif""style=""height:400px;""></stim_listA>","","html-keyboard-response","231","1749087","0.0-17.0-1.1","69491","List1A","black","woman","","","","null","","","","","","","","",""
"null","is touching","","html-keyboard-response","232","1751095","0.0-17.0-2.1","69491","List1A","black","woman","","","","null","","","","","","","","",""
"12923.60000000894","","","survey-text","233","1764037","0.0-17.0-3.1","69491","List1A","black","woman","","","","","{""Q0"":""Dave is touching Jane""}","<img src=""stim_listA/touch3.gif""style=""height:400px;""></stim_listA>","is touching","","","","","",""
"null","<div style=""font-size:60px;"">+</div>","","html-keyboard-response","234","1764545","0.0-17.0-0.2","69491","List1A","black","woman","","","","null","","","","","","","","",""
"null","<img src=""stim_listA/oppose2.gif""style=""height:400px;""></stim_listA>","","html-keyboard-response","235","1766559","0.0-17.0-1.2","69491","List1A","black","woman","","","","null","","","","","","","","",""
"null","is being opposed by","","html-keyboard-response","236","1768565","0.0-17.0-2.2","69491","List1A","black","woman","","","","null","","","","","","","","",""
"10666.20000000298","","","survey-text","237","1779244","0.0-17.0-3.2","69491","List1A","black","woman","","","","","{""Q0"":""Beth is being opposed by Fred""}","<img src=""stim_listA/oppose2.gif""style=""height:400px;""></stim_listA>","is being opposed by","","","","","",""
"null","<div style=""font-size:60px;"">+</div>","","html-keyboard-response","238","1779751","0.0-17.0-0.3","69491","List1A","black","woman","","","","null","","","","","","","","",""
"null","<img src=""stim_listA/oppose3.gif""style=""height:400px;""></stim_listA>","","html-keyboard-response","239","1781779","0.0-17.0-1.3","69491","List1A","black","woman","","","","null","","","","","","","","",""
"null","is opposing","","html-keyboard-response","240","1783789","0.0-17.0-2.3","69491","List1A","black","woman","","","","null","","","","","","","","",""
"12902.5","","","survey-text","241","1796708","0.0-17.0-3.3","69491","List1A","black","woman","","","","","{""Q0"":""Dave is opposed by Jane""}","<img src=""stim_listA/oppose3.gif""style=""height:400px;""></stim_listA>","is opposing","","","","","",""
"null","<div style=""font-size:60px;"">+</div>","","html-keyboard-response","242","1797217","0.0-17.0-0.4","69491","List1A","black","woman","","","","null","","","","","","","","",""
"null","<img src=""stim_listA/kiss6.gif""style=""height:400px;""></stim_listA>","","html-keyboard-response","243","1799231","0.0-17.0-1.4","69491","List1A","black","woman","","","","null","","","","","","","","",""
"null","is being kissed by","","html-keyboard-response","244","1801237","0.0-17.0-2.4","69491","List1A","black","woman","","","","null","","","","","","","","",""
"20145.40000000596","","","survey-text","245","1821398","0.0-17.0-3.4","69491","List1A","black","woman","","","","","{""Q0"":""Dave is being kissed by Mike""}","<img src=""stim_listA/kiss6.gif""style=""height:400px;""></stim_listA>","is being kissed by","","","","","",""
"null","<div style=""font-size:60px;"">+</div>","","html-keyboard-response","246","1821907","0.0-17.0-0.5","69491","List1A","black","woman","","","","null","","","","","","","","",""
"null","<img src=""stim_listA/shout7.gif""style=""height:400px;""></stim_listA>","","html-keyboard-response","247","1823922","0.0-17.0-1.5","69491","List1A","black","woman","","","","null","","","","","","","","",""
"null","is shouting at","","html-keyboard-response","248","1825928","0.0-17.0-2.5","69491","List1A","black","woman","","","","null","","","","","","","","",""
"15230","","","survey-text","249","1841173","0.0-17.0-3.5","69491","List1A","black","woman","","","","","{""Q0"":""Beth is shouting at Ruth""}","<img src=""stim_listA/shout7.gif""style=""height:400px;""></stim_listA>","is shouting at","","","","","",""
"null","<div style=""font-size:60px;"">+</div>","","html-keyboard-response","250","1841682","0.0-17.0-0.6","69491","List1A","black","woman","","","","null","","","","","","","","",""
"null","<img src=""stim_listA/kiss3.gif""style=""height:400px;""></stim_listA>","","html-keyboard-response","251","1843696","0.0-17.0-1.6","69491","List1A","black","woman","","","","null","","","","","","","","",""
"null","is kissing","","html-keyboard-response","252","1845707","0.0-17.0-2.6","69491","List1A","black","woman","","","","null","","","","","","","","",""
"9390.29999999702","","","survey-text","253","1855114","0.0-17.0-3.6","69491","List1A","black","woman","","","","","{""Q0"":""Luke is kissing Ruth""}","<img src=""stim_listA/kiss3.gif""style=""height:400px;""></stim_listA>","is kissing","","","","","",""
"null","<div style=""font-size:60px;"">+</div>","","html-keyboard-response","254","1855619","0.0-17.0-0.7","69491","List1A","black","woman","","","","null","","","","","","","","",""
"null","<img src=""stim_listA/copy6.gif""style=""height:400px;""></stim_listA>","","html-keyboard-response","255","1857634","0.0-17.0-1.7","69491","List1A","black","woman","","","","null","","","","","","","","",""
"null","is being copied by","","html-keyboard-response","256","1859644","0.0-17.0-2.7","69491","List1A","black","woman","","","","null","","","","","","","","",""
"12371.20000000298","","","survey-text","257","1872036","0.0-17.0-3.7","69491","List1A","black","woman","","","","","{""Q0"":""Dave is being copied by Fred""}","<img src=""stim_listA/copy6.gif""style=""height:400px;""></stim_listA>","is being copied by","","","","","",""
"null","<div style=""font-size:60px;"">+</div>","","html-keyboard-response","258","1872547","0.0-17.0-0.8","69491","List1A","black","woman","","","","null","","","","","","","","",""
"null","<img src=""stim_listA/hug6.gif""style=""height:400px;""></stim_listA>","","html-keyboard-response","259","1874560","0.0-17.0-1.8","69491","List1A","black","woman","","","","null","","","","","","","","",""
"null","is being hugged by","","html-keyboard-response","260","1876569","0.0-17.0-2.8","69491","List1A","black","woman","","","","null","","","","","","","","",""
"14920.70000000298","","","survey-text","261","1891506","0.0-17.0-3.8","69491","List1A","black","woman","","","","","{""Q0"":""Dave is being hugged by Mike""}","<img src=""stim_listA/hug6.gif""style=""height:400px;""></stim_listA>","is being hugged by","","","","","",""
"null","<div style=""font-size:60px;"">+</div>","","html-keyboard-response","262","1892011","0.0-17.0-0.9","69491","List1A","black","woman","","","","null","","","","","","","","",""
"null","<img src=""stim_listA/challenge5.gif""style=""height:400px;""></stim_listA>","","html-keyboard-response","263","1894025","0.0-17.0-1.9","69491","List1A","black","woman","","","","null","","","","","","","","",""
"null","is challenging","","html-keyboard-response","264","1896035","0.0-17.0-2.9","69491","List1A","black","woman","","","","null","","","","","","","","",""
"14192.70000000298","","","survey-text","265","1910246","0.0-17.0-3.9","69491","List1A","black","woman","","","","","{""Q0"":""Luke is being challenged by Mike""}","<img src=""stim_listA/challenge5.gif""style=""height:400px;""></stim_listA>","is challenging","","","","","",""
"null","<div style=""font-size:60px;"">+</div>","","html-keyboard-response","266","1910757","0.0-17.0-0.10","69491","List1A","black","woman","","","","null","","","","","","","","",""
"null","<img src=""stim_listA/challenge1.gif""style=""height:400px;""></stim_listA>","","html-keyboard-response","267","1912769","0.0-17.0-1.10","69491","List1A","black","woman","","","","null","","","","","","","","",""
"null","is challenging","","html-keyboard-response","268","1914779","0.0-17.0-2.10","69491","List1A","black","woman","","","","null","","","","","","","","",""
"14309.59999999404","","","survey-text","269","1929108","0.0-17.0-3.10","69491","List1A","black","woman","","","","","{""Q0"":""Mike is challenging Beth""}","<img src=""stim_listA/challenge1.gif""style=""height:400px;""></stim_listA>","is challenging","","","","","",""
"null","<div style=""font-size:60px;"">+</div>","","html-keyboard-response","270","1929617","0.0-17.0-0.11","69491","List1A","black","woman","","","","null","","","","","","","","",""
"null","<img src=""stim_listA/greet5.gif""style=""height:400px;""></stim_listA>","","html-keyboard-response","271","1931630","0.0-17.0-1.11","69491","List1A","black","woman","","","","null","","","","","","","","",""
"null","is greeting","","html-keyboard-response","272","1933637","0.0-17.0-2.11","69491","List1A","black","woman","","","","null","","","","","","","","",""
"10300.40000000596","","","survey-text","273","1943955","0.0-17.0-3.11","69491","List1A","black","woman","","","","","{""Q0"":""Mike is greeting Luke""}","<img src=""stim_listA/greet5.gif""style=""height:400px;""></stim_listA>","is greeting","","","","","",""
"null","<div style=""font-size:60px;"">+</div>","","html-keyboard-response","274","1944465","0.0-17.0-0.12","69491","List1A","black","woman","","","","null","","","","","","","","",""
"null","<img src=""stim_listA/shout4.gif""style=""height:400px;""></stim_listA>","","html-keyboard-response","275","1946478","0.0-17.0-1.12","69491","List1A","black","woman","","","","null","","","","","","","","",""
"null","is being shouted at by","","html-keyboard-response","276","1948487","0.0-17.0-2.12","69491","List1A","black","woman","","","","null","","","","","","","","",""
"11582.59999999404","","","survey-text","277","1960087","0.0-17.0-3.12","69491","List1A","black","woman","","","","","{""Q0"":""Jane is being shouted at by Dave""}","<img src=""stim_listA/shout4.gif""style=""height:400px;""></stim_listA>","is being shouted at by","","","","","",""
"null","<div style=""font-size:60px;"">+</div>","","html-keyboard-response","278","1960596","0.0-17.0-0.13","69491","List1A","black","woman","","","","null","","","","","","","","",""
"null","<img src=""stim_listA/shout1.gif""style=""height:400px;""></stim_listA>","","html-keyboard-response","279","1962610","0.0-17.0-1.13","69491","List1A","black","woman","","","","null","","","","","","","","",""
"null","is shouting at","","html-keyboard-response","280","1964620","0.0-17.0-2.13","69491","List1A","black","woman","","","","null","","","","","","","","",""
"14206.09999999404","","","survey-text","281","1978845","0.0-17.0-3.13","69491","List1A","black","woman","","","","","{""Q0"":""Fred is shouting at Beth""}","<img src=""stim_listA/shout1.gif""style=""height:400px;""></stim_listA>","is shouting at","","","","","",""
"null","<div style=""font-size:60px;"">+</div>","","html-keyboard-response","282","1979352","0.0-17.0-0.14","69491","List1A","black","woman","","","","null","","","","","","","","",""
"null","<img src=""stim_listA/kiss1.gif""style=""height:400px;""></stim_listA>","","html-keyboard-response","283","1981362","0.0-17.0-1.14","69491","List1A","black","woman","","","","null","","","","","","","","",""
"null","is kissing","","html-keyboard-response","284","1983370","0.0-17.0-2.14","69491","List1A","black","woman","","","","null","","","","","","","","",""
"9387.70000000298","","","survey-text","285","1992773","0.0-17.0-3.14","69491","List1A","black","woman","","","","","{""Q0"":""Fred is kissing Beth""}","<img src=""stim_listA/kiss1.gif""style=""height:400px;""></stim_listA>","is kissing","","","","","",""
"null","<div style=""font-size:60px;"">+</div>","","html-keyboard-response","286","1993277","0.0-17.0-0.15","69491","List1A","black","woman","","","","null","","","","","","","","",""
"null","<img src=""stim_listA/seduce1.gif""style=""height:400px;""></stim_listA>","","html-keyboard-response","287","1995289","0.0-17.0-1.15","69491","List1A","black","woman","","","","null","","","","","","","","",""
"null","is seducing","","html-keyboard-response","288","1997297","0.0-17.0-2.15","69491","List1A","black","woman","","","","null","","","","","","","","",""
"8335.70000000298","","","survey-text","289","2005650","0.0-17.0-3.15","69491","List1A","black","woman","","","","","{""Q0"":""Fred is seducing Kate""}","<img src=""stim_listA/seduce1.gif""style=""height:400px;""></stim_listA>","is seducing","","","","","",""
"null","<div style=""font-size:60px;"">+</div>","","html-keyboard-response","290","2006155","0.0-17.0-0.16","69491","List1A","black","woman","","","","null","","","","","","","","",""
"null","<img src=""stim_listA/greet8.gif""style=""height:400px;""></stim_listA>","","html-keyboard-response","291","2008169","0.0-17.0-1.16","69491","List1A","black","woman","","","","null","","","","","","","","",""
"null","is being greeted by","","html-keyboard-response","292","2010179","0.0-17.0-2.16","69491","List1A","black","woman","","","","null","","","","","","","","",""
"12558.40000000596","","","survey-text","293","2022755","0.0-17.0-3.16","69491","List1A","black","woman","","","","","{""Q0"":""Jane is being greeted by Beth""}","<img src=""stim_listA/greet8.gif""style=""height:400px;""></stim_listA>","is being greeted by","","","","","",""
"null","<div style=""font-size:60px;"">+</div>","","html-keyboard-response","294","2023260","0.0-17.0-0.17","69491","List1A","black","woman","","","","null","","","","","","","","",""
"null","<img src=""stim_listA/seduce7.gif""style=""height:400px;""></stim_listA>","","html-keyboard-response","295","2025273","0.0-17.0-1.17","69491","List1A","black","woman","","","","null","","","","","","","","",""
"null","is seducing","","html-keyboard-response","296","2027281","0.0-17.0-2.17","69491","List1A","black","woman","","","","null","","","","","","","","",""
"7773","","","survey-text","297","2035068","0.0-17.0-3.17","69491","List1A","black","woman","","","","","{""Q0"":""Beth is seducing Jane""}","<img src=""stim_listA/seduce7.gif""style=""height:400px;""></stim_listA>","is seducing","","","","","",""
"null","<div style=""font-size:60px;"">+</div>","","html-keyboard-response","298","2035573","0.0-17.0-0.18","69491","List1A","black","woman","","","","null","","","","","","","","",""
"null","<img src=""stim_listA/touch8.gif""style=""height:400px;""></stim_listA>","","html-keyboard-response","299","2037586","0.0-17.0-1.18","69491","List1A","black","woman","","","","null","","","","","","","","",""
"null","is being touched by","","html-keyboard-response","300","2039597","0.0-17.0-2.18","69491","List1A","black","woman","","","","null","","","","","","","","",""
"11319","","","survey-text","301","2050930","0.0-17.0-3.18","69491","List1A","black","woman","","","","","{""Q0"":""Ruth is being touched by Beth""}","<img src=""stim_listA/touch8.gif""style=""height:400px;""></stim_listA>","is being touched by","","","","","",""
"null","<div style=""font-size:60px;"">+</div>","","html-keyboard-response","302","2051435","0.0-17.0-0.19","69491","List1A","black","woman","","","","null","","","","","","","","",""
"null","<img src=""stim_listA/oppose7.gif""style=""height:400px;""></stim_listA>","","html-keyboard-response","303","2053448","0.0-17.0-1.19","69491","List1A","black","woman","","","","null","","","","","","","","",""
"null","is opposing","","html-keyboard-response","304","2055458","0.0-17.0-2.19","69491","List1A","black","woman","","","","null","","","","","","","","",""
"21081","","","survey-text","305","2076557","0.0-17.0-3.19","69491","List1A","black","woman","","","","","{""Q0"":""Kate is opposing Jane""}","<img src=""stim_listA/oppose7.gif""style=""height:400px;""></stim_listA>","is opposing","","","","","",""
"14604.59999999404","<img src='img/portrait_matrix_list1.jpg' style='width:900px;height:500px;''></img><p>If you have memorised all the portraits and names and are ready to start, press Continue.</p><p><strong>Please note: Your memory of these faces will be tested 4 times during this experiment.</strong></p>","0","html-button-response","306","2091172","0.0-18.0-0.0","69491","List1A","black","woman","","","","","","","","","","","","",""
"5332.899999991059","<img src=""portrait/WM1.jpg""style=""height:400px;""></img>","6","html-button-response","307","2097546","0.0-18.0-1.0","69491","List1A","black","woman","","true","6","","","","","","","","","",""
"null","CORRECT","","html-keyboard-response","308","2099061","0.0-18.0-2.0-0.0","69491","List1A","black","woman","","","","null","","","","","","","","",""
"2649.6000000089407","<img src=""portrait/WW1.jpg""style=""height:400px;""></img>","1","html-button-response","309","2101721","0.0-18.0-4.0","69491","List1A","black","woman","","true","1","","","","","","","","","",""
"null","CORRECT","","html-keyboard-response","310","2103233","0.0-18.0-5.0-0.0","69491","List1A","black","woman","","","","null","","","","","","","","",""
"2093.6000000089407","<img src=""portrait/BW1.jpg""style=""height:400px;""></img>","0","html-button-response","311","2105339","0.0-18.0-7.0","69491","List1A","black","woman","","true","0","","","","","","","","","",""
"null","CORRECT","","html-keyboard-response","312","2106850","0.0-18.0-8.0-0.0","69491","List1A","black","woman","","","","null","","","","","","","","",""
"2453.3999999910593","<img src=""portrait/BM2.jpg""style=""height:400px;""></img>","5","html-button-response","313","2109317","0.0-18.0-10.0","69491","List1A","black","woman","","true","5","","","","","","","","","",""
"null","CORRECT","","html-keyboard-response","314","2110831","0.0-18.0-11.0-0.0","69491","List1A","black","woman","","","","null","","","","","","","","",""
"1827.5999999940395","<img src=""portrait/WM2.jpg""style=""height:400px;""></img>","7","html-button-response","315","2112672","0.0-18.0-13.0","69491","List1A","black","woman","","true","7","","","","","","","","","",""
"null","CORRECT","","html-keyboard-response","316","2114182","0.0-18.0-14.0-0.0","69491","List1A","black","woman","","","","null","","","","","","","","",""
"2130.7000000029802","<img src=""portrait/BM1.jpg""style=""height:400px;""></img>","4","html-button-response","317","2116323","0.0-18.0-16.0","69491","List1A","black","woman","","true","4","","","","","","","","","",""
"null","CORRECT","","html-keyboard-response","318","2117835","0.0-18.0-17.0-0.0","69491","List1A","black","woman","","","","null","","","","","","","","",""
"2408.1000000089407","<img src=""portrait/BW2.jpg""style=""height:400px;""></img>","2","html-button-response","319","2120253","0.0-18.0-19.0","69491","List1A","black","woman","","true","2","","","","","","","","","",""
"null","CORRECT","","html-keyboard-response","320","2121767","0.0-18.0-20.0-0.0","69491","List1A","black","woman","","","","null","","","","","","","","",""
"2551.6000000089407","<img src=""portrait/WW2.jpg""style=""height:400px;""></img>","3","html-button-response","321","2124328","0.0-18.0-22.0","69491","List1A","black","woman","","true","3","","","","","","","","","",""
"null","CORRECT","","html-keyboard-response","322","2125836","0.0-18.0-23.0-0.0","69491","List1A","black","woman","","","","null","","","","","","","","",""
"2081.9000000059605","<p>You got 8 out of 8 right first time. Press Continue.</p>","0","html-button-response","323","2127929","0.0-18.0-25.0","69491","List1A","black","woman","","","","","","","","","","","","",""
"null","<div style=""font-size:60px;"">+</div>","","html-keyboard-response","324","2129443","0.0-19.0-0.0","69491","List1A","black","woman","","","","null","","","","","","","","",""
"null","<img src=""stim_listA/hug4.gif""style=""height:400px;""></stim_listA>","","html-keyboard-response","325","2131459","0.0-19.0-1.0","69491","List1A","black","woman","","","","null","","","","","","","","",""
"null","is being hugged by","","html-keyboard-response","326","2133469","0.0-19.0-2.0","69491","List1A","black","woman","","","","null","","","","","","","","",""
"11565.39999999106","","","survey-text","327","2145052","0.0-19.0-3.0","69491","List1A","black","woman","","","","","{""Q0"":""Jane is being hugged by Dave""}","<img src=""stim_listA/hug4.gif""style=""height:400px;""></stim_listA>","is being hugged by","","","","","",""
"null","<div style=""font-size:60px;"">+</div>","","html-keyboard-response","328","2145560","0.0-19.0-0.1","69491","List1A","black","woman","","","","null","","","","","","","","",""
"null","<img src=""stim_listA/challenge3.gif""style=""height:400px;""></stim_listA>","","html-keyboard-response","329","2147574","0.0-19.0-1.1","69491","List1A","black","woman","","","","null","","","","","","","","",""
"null","is challenging","","html-keyboard-response","330","2149584","0.0-19.0-2.1","69491","List1A","black","woman","","","","null","","","","","","","","",""
"10445.29999999702","","","survey-text","331","2160045","0.0-19.0-3.1","69491","List1A","black","woman","","","","","{""Q0"":""Dave is challenging Ruth""}","<img src=""stim_listA/challenge3.gif""style=""height:400px;""></stim_listA>","is challenging","","","","","",""
"null","<div style=""font-size:60px;"">+</div>","","html-keyboard-response","332","2160550","0.0-19.0-0.2","69491","List1A","black","woman","","","","null","","","","","","","","",""
"null","<img src=""stim_listA/seduce2.gif""style=""height:400px;""></stim_listA>","","html-keyboard-response","333","2162563","0.0-19.0-1.2","69491","List1A","black","woman","","","","null","","","","","","","","",""
"null","is being seduced by","","html-keyboard-response","334","2164571","0.0-19.0-2.2","69491","List1A","black","woman","","","","null","","","","","","","","",""
"12226.59999999404","","","survey-text","335","2176817","0.0-19.0-3.2","69491","List1A","black","woman","","","","","{""Q0"":""Beth is being seduced by Mike""}","<img src=""stim_listA/seduce2.gif""style=""height:400px;""></stim_listA>","is being seduced by","","","","","",""
"null","<div style=""font-size:60px;"">+</div>","","html-keyboard-response","336","2177328","0.0-19.0-0.3","69491","List1A","black","woman","","","","null","","","","","","","","",""
"null","<img src=""stim_listA/greet7.gif""style=""height:400px;""></stim_listA>","","html-keyboard-response","337","2179341","0.0-19.0-1.3","69491","List1A","black","woman","","","","null","","","","","","","","",""
"null","is greeting","","html-keyboard-response","338","2181350","0.0-19.0-2.3","69491","List1A","black","woman","","","","null","","","","","","","","",""
"9365.40000000596","","","survey-text","339","2190732","0.0-19.0-3.3","69491","List1A","black","woman","","","","","{""Q0"":""Kate is greeting Ruth""}","<img src=""stim_listA/greet7.gif""style=""height:400px;""></stim_listA>","is greeting","","","","","",""
"null","<div style=""font-size:60px;"">+</div>","","html-keyboard-response","340","2191241","0.0-19.0-0.4","69491","List1A","black","woman","","","","null","","","","","","","","",""
"null","<img src=""stim_listA/greet4.gif""style=""height:400px;""></stim_listA>","","html-keyboard-response","341","2193254","0.0-19.0-1.4","69491","List1A","black","woman","","","","null","","","","","","","","",""
"null","is being greeted by","","html-keyboard-response","342","2195263","0.0-19.0-2.4","69491","List1A","black","woman","","","","null","","","","","","","","",""
"12455.5","","","survey-text","343","2207737","0.0-19.0-3.4","69491","List1A","black","woman","","","","","{""Q0"":""Jane is being greeted by Luke""}","<img src=""stim_listA/greet4.gif""style=""height:400px;""></stim_listA>","is being greeted by","","","","","",""
"null","<div style=""font-size:60px;"">+</div>","","html-keyboard-response","344","2208246","0.0-19.0-0.5","69491","List1A","black","woman","","","","null","","","","","","","","",""
"null","<img src=""stim_listA/greet6.gif""style=""height:400px;""></stim_listA>","","html-keyboard-response","345","2210259","0.0-19.0-1.5","69491","List1A","black","woman","","","","null","","","","","","","","",""
"null","is being greeted by","","html-keyboard-response","346","2212268","0.0-19.0-2.5","69491","List1A","black","woman","","","","null","","","","","","","","",""
"10222.5","","","survey-text","347","2222509","0.0-19.0-3.5","69491","List1A","black","woman","","","","","{""Q0"":""Dave is being greeted by Fred""}","<img src=""stim_listA/greet6.gif""style=""height:400px;""></stim_listA>","is being greeted by","","","","","",""
"null","<div style=""font-size:60px;"">+</div>","","html-keyboard-response","348","2223016","0.0-19.0-0.6","69491","List1A","black","woman","","","","null","","","","","","","","",""
"null","<img src=""stim_listA/copy1.gif""style=""height:400px;""></stim_listA>","","html-keyboard-response","349","2225028","0.0-19.0-1.6","69491","List1A","black","woman","","","","null","","","","","","","","",""
"null","is copying","","html-keyboard-response","350","2227036","0.0-19.0-2.6","69491","List1A","black","woman","","","","null","","","","","","","","",""
"7740.9000000059605","","","survey-text","351","2234791","0.0-19.0-3.6","69491","List1A","black","woman","","","","","{""Q0"":""Mike is copying Beth""}","<img src=""stim_listA/copy1.gif""style=""height:400px;""></stim_listA>","is copying","","","","","",""
"null","<div style=""font-size:60px;"">+</div>","","html-keyboard-response","352","2235296","0.0-19.0-0.7","69491","List1A","black","woman","","","","null","","","","","","","","",""
"null","<img src=""stim_listA/copy5.gif""style=""height:400px;""></stim_listA>","","html-keyboard-response","353","2237308","0.0-19.0-1.7","69491","List1A","black","woman","","","","null","","","","","","","","",""
"null","is copying","","html-keyboard-response","354","2239315","0.0-19.0-2.7","69491","List1A","black","woman","","","","null","","","","","","","","",""
"10409","","","survey-text","355","2249744","0.0-19.0-3.7","69491","List1A","black","woman","","","","","{""Q0"":""Mike is copying Luke""}","<img src=""stim_listA/copy5.gif""style=""height:400px;""></stim_listA>","is copying","","","","","",""
"null","<div style=""font-size:60px;"">+</div>","","html-keyboard-response","356","2250255","0.0-19.0-0.8","69491","List1A","black","woman","","","","null","","","","","","","","",""
"null","<img src=""stim_listA/touch1.gif""style=""height:400px;""></stim_listA>","","html-keyboard-response","357","2252265","0.0-19.0-1.8","69491","List1A","black","woman","","","","null","","","","","","","","",""
"null","is touching","","html-keyboard-response","358","2254273","0.0-19.0-2.8","69491","List1A","black","woman","","","","null","","","","","","","","",""
"9245.20000000298","","","survey-text","359","2263536","0.0-19.0-3.8","69491","List1A","black","woman","","","","","{""Q0"":""Mike is touching Kate""}","<img src=""stim_listA/touch1.gif""style=""height:400px;""></stim_listA>","is touching","","","","","",""
"null","<div style=""font-size:60px;"">+</div>","","html-keyboard-response","360","2264045","0.0-19.0-0.9","69491","List1A","black","woman","","","","null","","","","","","","","",""
"null","<img src=""stim_listA/seduce3.gif""style=""height:400px;""></stim_listA>","","html-keyboard-response","361","2266059","0.0-19.0-1.9","69491","List1A","black","woman","","","","null","","","","","","","","",""
"null","is seducing","","html-keyboard-response","362","2268070","0.0-19.0-2.9","69491","List1A","black","woman","","","","null","","","","","","","","",""
"8147.399999991059","","","survey-text","363","2276236","0.0-19.0-3.9","69491","List1A","black","woman","","","","","{""Q0"":""Luke is seducing Jane""}","<img src=""stim_listA/seduce3.gif""style=""height:400px;""></stim_listA>","is seducing","","","","","",""
"null","<div style=""font-size:60px;"">+</div>","","html-keyboard-response","364","2276748","0.0-19.0-0.10","69491","List1A","black","woman","","","","null","","","","","","","","",""
"null","<img src=""stim_listA/oppose5.gif""style=""height:400px;""></stim_listA>","","html-keyboard-response","365","2278762","0.0-19.0-1.10","69491","List1A","black","woman","","","","null","","","","","","","","",""
"null","is opposing","","html-keyboard-response","366","2280772","0.0-19.0-2.10","69491","List1A","black","woman","","","","null","","","","","","","","",""
"10383.59999999404","","","survey-text","367","2291175","0.0-19.0-3.10","69491","List1A","black","woman","","","","","{""Q0"":""Mike is opposing Dave""}","<img src=""stim_listA/oppose5.gif""style=""height:400px;""></stim_listA>","is opposing","","","","","",""
"null","<div style=""font-size:60px;"">+</div>","","html-keyboard-response","368","2291686","0.0-19.0-0.11","69491","List1A","black","woman","","","","null","","","","","","","","",""
"null","<img src=""stim_listA/shout5.gif""style=""height:400px;""></stim_listA>","","html-keyboard-response","369","2293700","0.0-19.0-1.11","69491","List1A","black","woman","","","","null","","","","","","","","",""
"null","is shouting at","","html-keyboard-response","370","2295710","0.0-19.0-2.11","69491","List1A","black","woman","","","","null","","","","","","","","",""
"9963","","","survey-text","371","2305691","0.0-19.0-3.11","69491","List1A","black","woman","","","","","{""Q0"":""Fred is shouting at Luke""}","<img src=""stim_listA/shout5.gif""style=""height:400px;""></stim_listA>","is shouting at","","","","","",""
"null","<div style=""font-size:60px;"">+</div>","","html-keyboard-response","372","2306201","0.0-19.0-0.12","69491","List1A","black","woman","","","","null","","","","","","","","",""
"null","<img src=""stim_listA/look4.gif""style=""height:400px;""></stim_listA>","","html-keyboard-response","373","2308215","0.0-19.0-1.12","69491","List1A","black","woman","","","","null","","","","","","","","",""
"null","is being looked at by","","html-keyboard-response","374","2310224","0.0-19.0-2.12","69491","List1A","black","woman","","","","null","","","","","","","","",""
"13370.79999999702","","","survey-text","375","2323611","0.0-19.0-3.12","69491","List1A","black","woman","","","","","{""Q0"":""Jane is being looked at by Dave""}","<img src=""stim_listA/look4.gif""style=""height:400px;""></stim_listA>","is being looked at by","","","","","",""
"null","<div style=""font-size:60px;"">+</div>","","html-keyboard-response","376","2324117","0.0-19.0-0.13","69491","List1A","black","woman","","","","null","","","","","","","","",""
"null","<img src=""stim_listA/copy3.gif""style=""height:400px;""></stim_listA>","","html-keyboard-response","377","2326126","0.0-19.0-1.13","69491","List1A","black","woman","","","","null","","","","","","","","",""
"null","is copying","","html-keyboard-response","378","2328135","0.0-19.0-2.13","69491","List1A","black","woman","","","","null","","","","","","","","",""
"8913.20000000298","","","survey-text","379","2337066","0.0-19.0-3.13","69491","List1A","black","woman","","","","","{""Q0"":""Ruth is copying Dave""}","<img src=""stim_listA/copy3.gif""style=""height:400px;""></stim_listA>","is copying","","","","","",""
"null","<div style=""font-size:60px;"">+</div>","","html-keyboard-response","380","2337576","0.0-19.0-0.14","69491","List1A","black","woman","","","","null","","","","","","","","",""
"null","<img src=""stim_listA/challenge4.gif""style=""height:400px;""></stim_listA>","","html-keyboard-response","381","2339587","0.0-19.0-1.14","69491","List1A","black","woman","","","","null","","","","","","","","",""
"null","is being challenged by","","html-keyboard-response","382","2341591","0.0-19.0-2.14","69491","List1A","black","woman","","","","null","","","","","","","","",""
"10989.09999999404","","","survey-text","383","2352596","0.0-19.0-3.14","69491","List1A","black","woman","","","","","{""Q0"":""Jane is being challenged by Luke""}","<img src=""stim_listA/challenge4.gif""style=""height:400px;""></stim_listA>","is being challenged by","","","","","",""
"null","<div style=""font-size:60px;"">+</div>","","html-keyboard-response","384","2353105","0.0-19.0-0.15","69491","List1A","black","woman","","","","null","","","","","","","","",""
"null","<img src=""stim_listA/hug3.gif""style=""height:400px;""></stim_listA>","","html-keyboard-response","385","2355120","0.0-19.0-1.15","69491","List1A","black","woman","","","","null","","","","","","","","",""
"null","is hugging","","html-keyboard-response","386","2357129","0.0-19.0-2.15","69491","List1A","black","woman","","","","null","","","","","","","","",""
"10888.59999999404","","","survey-text","387","2368037","0.0-19.0-3.15","69491","List1A","black","woman","","","","","{""Q0"":""Luke is hugging Ruth""}","<img src=""stim_listA/hug3.gif""style=""height:400px;""></stim_listA>","is hugging","","","","","",""
"null","<div style=""font-size:60px;"">+</div>","","html-keyboard-response","388","2368548","0.0-19.0-0.16","69491","List1A","black","woman","","","","null","","","","","","","","",""
"null","<img src=""stim_listA/shout6.gif""style=""height:400px;""></stim_listA>","","html-keyboard-response","389","2370562","0.0-19.0-1.16","69491","List1A","black","woman","","","","null","","","","","","","","",""
"null","is being shouted at by","","html-keyboard-response","390","2372585","0.0-19.0-2.16","69491","List1A","black","woman","","","","null","","","","","","","","",""
"13722.90000000596","","","survey-text","391","2386334","0.0-19.0-3.16","69491","List1A","black","woman","","","","","{""Q0"":""Dave is being shouted at by Mike""}","<img src=""stim_listA/shout6.gif""style=""height:400px;""></stim_listA>","is being shouted at by","","","","","",""
"null","<div style=""font-size:60px;"">+</div>","","html-keyboard-response","392","2386846","0.0-19.0-0.17","69491","List1A","black","woman","","","","null","","","","","","","","",""
"null","<img src=""stim_listA/oppose1.gif""style=""height:400px;""></stim_listA>","","html-keyboard-response","393","2388859","0.0-19.0-1.17","69491","List1A","black","woman","","","","null","","","","","","","","",""
"null","is opposing","","html-keyboard-response","394","2390868","0.0-19.0-2.17","69491","List1A","black","woman","","","","null","","","","","","","","",""
"7271.70000000298","","","survey-text","395","2398158","0.0-19.0-3.17","69491","List1A","black","woman","","","","","{""Q0"":""Mike is opposing Kate""}","<img src=""stim_listA/oppose1.gif""style=""height:400px;""></stim_listA>","is opposing","","","","","",""
"null","<div style=""font-size:60px;"">+</div>","","html-keyboard-response","396","2398664","0.0-19.0-0.18","69491","List1A","black","woman","","","","null","","","","","","","","",""
"null","<img src=""stim_listA/seduce8.gif""style=""height:400px;""></stim_listA>","","html-keyboard-response","397","2400677","0.0-19.0-1.18","69491","List1A","black","woman","","","","null","","","","","","","","",""
"null","is being seduced by","","html-keyboard-response","398","2402686","0.0-19.0-2.18","69491","List1A","black","woman","","","","null","","","","","","","","",""
"10699","","","survey-text","399","2413403","0.0-19.0-3.18","69491","List1A","black","woman","","","","","{""Q0"":""Ruth is being seduced by Kate""}","<img src=""stim_listA/seduce8.gif""style=""height:400px;""></stim_listA>","is being seduced by","","","","","",""
"null","<div style=""font-size:60px;"">+</div>","","html-keyboard-response","400","2413909","0.0-19.0-0.19","69491","List1A","black","woman","","","","null","","","","","","","","",""
"null","<img src=""stim_listA/kiss4.gif""style=""height:400px;""></stim_listA>","","html-keyboard-response","401","2415921","0.0-19.0-1.19","69491","List1A","black","woman","","","","null","","","","","","","","",""
"null","is being kissed by","","html-keyboard-response","402","2417931","0.0-19.0-2.19","69491","List1A","black","woman","","","","null","","","","","","","","",""
"9821.5","","","survey-text","403","2427765","0.0-19.0-3.19","69491","List1A","black","woman","","","","","{""Q0"":""Jane is being kissed by Dave""}","<img src=""stim_listA/kiss4.gif""style=""height:400px;""></stim_listA>","is being kissed by","","","","","",""
"5771.5","<p>Thank you for completing that task.</p><p>The final part of this session is a questionnaire that will take about 4 minutes.</p><p>Press Continue.</p>","0","html-button-response","404","2433542","0.0-20.0","69491","List1A","black","woman","","","","","","","","","","","","",""
"49824","","","survey-text","405","2484438","0.0-21.0","69491","List1A","black","woman","","","","","{""Q0"":""33"",""Q1"":""English"",""Q2"":""English"",""Q3"":""United States"",""Q4"":""Jamaican"",""Q5"":""Black/ Caribbean"",""Q6"":""Female""}","","","demographics","","","","",""
"10896.300000011921","<p>Have you lived in the USA for the last 5 years or more?</p>","0","html-button-response","406","2495349","0.0-22.0","69491","List1A","black","woman","","","","","","","","fiveyears","","","","",""
"8419.10000000894","<p>Move the slider to show the extent to which you agree with the following statements.</p>","0","html-button-response","407","2504779","0.0-23.0","69491","List1A","black","woman","","","","","","","","","","","","",""
"9162.20000000298","","","html-slider-response","408","2514962","0.0-24.0-0.0-0.0","69491","List1A","black","woman","","","","","","","","survey_race","85","","","I am similar to the average person of my race.","similar"
"9107.29999999702","","","html-slider-response","409","2524085","0.0-24.0-0.0-0.1","69491","List1A","black","woman","","","","","","","","survey_race","12","","","I often think about the fact that I am my race.","often"
"6347.29999999702","","","html-slider-response","410","2530449","0.0-24.0-0.0-0.2","69491","List1A","black","woman","","","","","","","","survey_race","92","","","I have a lot in common with people of a similar age to me.","filler"
"3050","","","html-slider-response","411","2533514","0.0-24.0-0.0-0.3","69491","List1A","black","woman","","","","","","","","survey_race","100","","","I consider myself an introvert.","filler"
"5445","","","html-slider-response","412","2538970","0.0-24.0-0.0-0.4","69491","List1A","black","woman","","","","","","","","survey_race","66","","","People of my race have a lot in common with each other.","common"
"7920","","","html-slider-response","413","2546903","0.0-24.0-0.0-0.5","69491","List1A","black","woman","","","","","","","","survey_race","75","","","I often think about the fact that I am my age.","filler"
"3451","","","html-slider-response","414","2550367","0.0-24.0-0.0-0.6","69491","List1A","black","woman","","","","","","","","survey_race","82","","","I am glad to be my age.","filler"
"3823","","","html-slider-response","415","2554201","0.0-24.0-0.0-0.7","69491","List1A","black","woman","","","","","","","","survey_race","87","","","I feel committed to my race.","committed"
"6602.70000000298","","","html-slider-response","416","2560817","0.0-24.0-0.0-0.8","69491","List1A","black","woman","","","","","","","","survey_race","65","","","I have a lot in common with the average person of my race.","average"
"5897.899999991059","","","html-slider-response","417","2566728","0.0-24.0-0.0-0.9","69491","List1A","black","woman","","","","","","","","survey_race","57","","","I feel solidarity with people the same age as me.","filler"
"8988.79999999702","","","html-slider-response","418","2575732","0.0-24.0-0.0-0.10","69491","List1A","black","woman","","","","","","","","survey_race","32","","","The older I get, the wiser I feel.","filler"
"4404.600000008941","","","html-slider-response","419","2580152","0.0-24.0-0.0-0.11","69491","List1A","black","woman","","","","","","","","survey_race","55","","","I feel a bond with people the same age as me.","filler"
"5732.800000011921","","","html-slider-response","420","2585897","0.0-24.0-0.0-0.12","69491","List1A","black","woman","","","","","","","","survey_race","52","","","Being my race gives me a good feeling.","feeling"
"6427.899999991059","","","html-slider-response","421","2592336","0.0-24.0-0.0-0.13","69491","List1A","black","woman","","","","","","","","survey_race","39","","","Being my race is an important part of how I see myself.","important"
"2990.8999999910593","","","html-slider-response","422","2595340","0.0-24.0-0.0-0.14","69491","List1A","black","woman","","","","","","","","survey_race","55","","","I feel solidarity with my race.","solidarity"
"4692.0999999940395","","","html-slider-response","423","2600042","0.0-24.0-0.0-0.15","69491","List1A","black","woman","","","","","","","","survey_race","0","","","I enjoy being in large groups.","filler"
"4969","","","html-slider-response","424","2605023","0.0-24.0-0.0-0.16","69491","List1A","black","woman","","","","","","","","survey_race","53","","","People of my race are very similar to each other.","verysimilar"
"8759.29999999702","","","html-slider-response","425","2613797","0.0-24.0-0.0-0.17","69491","List1A","black","woman","","","","","","","","survey_race","83","","","My age is not an important part of who I am.","filler"
"4191.5999999940395","","","html-slider-response","426","2618001","0.0-24.0-0.0-0.18","69491","List1A","black","woman","","","","","","","","survey_race","46","","","It is pleasant to be my race.","pleasant"
"4068.9000000059605","","","html-slider-response","427","2622085","0.0-24.0-0.0-0.19","69491","List1A","black","woman","","","","","","","","survey_race","42","","","I am glad to be the age I am.","filler"
"4581.399999991059","","","html-slider-response","428","2626679","0.0-24.0-0.0-0.20","69491","List1A","black","woman","","","","","","","","survey_race","58","","","I think that my race has a lot to be proud of.","proud"
"7634.79999999702","","","html-slider-response","429","2634331","0.0-24.0-0.0-0.21","69491","List1A","black","woman","","","","","","","","survey_race","52","","","The fact that I am my race is an important part of my identity.","identity"
"4159.79999999702","","","html-slider-response","430","2638502","0.0-24.0-0.0-0.22","69491","List1A","black","woman","","","","","","","","survey_race","96","","","I am glad to be my race.","glad"
"4582.899999991059","","","html-slider-response","431","2643099","0.0-24.0-0.0-0.23","69491","List1A","black","woman","","","","","","","","survey_race","58","","","People my age have a lot in common with each other.","filler"
"4163.5","","","html-slider-response","432","2647277","0.0-24.0-0.0-0.24","69491","List1A","black","woman","","","","","","","","survey_race","38","","","Getting older does not worry me.","filler"
"3000.9000000059605","","","html-slider-response","433","2650288","0.0-24.0-0.0-0.25","69491","List1A","black","woman","","","","","","","","survey_race","56","","","I feel a bond with my race.","bond"
"3367.5","","","html-slider-response","434","2653663","0.0-24.0-0.0-0.26","69491","List1A","black","woman","","","","","","","","survey_race","0","","","I consider myself an extrovert.","filler"
"4040.5","","","html-slider-response","435","2657720","0.0-24.0-0.0-0.27","69491","List1A","black","woman","","","","","","","","survey_race","55","","","Being my age gives me a good feeling.","filler"
"4335.79999999702","","","html-slider-response","436","2662070","0.0-24.0-1.0-0.0","69491","List1A","black","woman","","","","","","","","survey_gender","85","","","I would say I am an animal person.","filler"
"4015.7999999970198","","","html-slider-response","437","2666101","0.0-24.0-1.0-0.1","69491","List1A","black","woman","","","","","","","","survey_gender","60","","","I am glad to have the friends that I have.","filler"
"5006.5999999940395","","","html-slider-response","438","2671121","0.0-24.0-1.0-0.2","69491","List1A","black","woman","","","","","","","","survey_gender","100","","","Being my gender is an important part of how I see myself.","important"
"2887.8999999910593","","","html-slider-response","439","2674024","0.0-24.0-1.0-0.3","69491","List1A","black","woman","","","","","","","","survey_gender","100","","","I feel committed to my gender.","committed"
"3275.0999999940395","","","html-slider-response","440","2677313","0.0-24.0-1.0-0.4","69491","List1A","black","woman","","","","","","","","survey_gender","58","","","Being around my friends gives me a good feeling.","filler"
"2878.2000000029802","","","html-slider-response","441","2680205","0.0-24.0-1.0-0.5","69491","List1A","black","woman","","","","","","","","survey_gender","100","","","I consider myself a highly empathetic person.","filler"
"3322.8999999910593","","","html-slider-response","442","2683536","0.0-24.0-1.0-0.6","69491","List1A","black","woman","","","","","","","","survey_gender","32","","","My friends understand me.","filler"
"3899.0999999940395","","","html-slider-response","443","2687447","0.0-24.0-1.0-0.7","69491","List1A","black","woman","","","","","","","","survey_gender","100","","","I think that my gender has a lot to be proud of.","proud"
"6137.5","","","html-slider-response","444","2693594","0.0-24.0-1.0-0.8","69491","List1A","black","woman","","","","","","","","survey_gender","55","","","Family is not more important to me than friendship.","filler"
"4733.70000000298","","","html-slider-response","445","2698338","0.0-24.0-1.0-0.9","69491","List1A","black","woman","","","","","","","","survey_gender","100","","","It is not always easy for people to know what I am thinking.","filler"
"3505.7999999970198","","","html-slider-response","446","2701855","0.0-24.0-1.0-0.10","69491","List1A","black","woman","","","","","","","","survey_gender","22","","","Routine is not important to me.","filler"
"4323.399999991059","","","html-slider-response","447","2706188","0.0-24.0-1.0-0.11","69491","List1A","black","woman","","","","","","","","survey_gender","81","","","People of my gender have a lot in common with each other.","common"
"9869.10000000894","","","html-slider-response","448","2716069","0.0-24.0-1.0-0.12","69491","List1A","black","woman","","","","","","","","survey_gender","55","","","People of my gender are very similar to each other.","verysimilar"
"4067","","","html-slider-response","449","2720154","0.0-24.0-1.0-0.13","69491","List1A","black","woman","","","","","","","","survey_gender","92","","","Being my gender gives me a good feeling.","feeling"
"3376.7000000029802","","","html-slider-response","450","2723543","0.0-24.0-1.0-0.14","69491","List1A","black","woman","","","","","","","","survey_gender","86","","","I feel a bond with my gender.","bond"
"5967.4000000059605","","","html-slider-response","451","2729524","0.0-24.0-1.0-0.15","69491","List1A","black","woman","","","","","","","","survey_gender","60","","","Most of the friends in my life are very similar to me.","filler"
"3546.1000000089407","","","html-slider-response","452","2733082","0.0-24.0-1.0-0.16","69491","List1A","black","woman","","","","","","","","survey_gender","58","","","I have a lot in common with my friends.","filler"
"2290.5","","","html-slider-response","453","2735383","0.0-24.0-1.0-0.17","69491","List1A","black","woman","","","","","","","","survey_gender","58","","","I feel solidarity with my gender.","solidarity"
"2349.5","","","html-slider-response","454","2737742","0.0-24.0-1.0-0.18","69491","List1A","black","woman","","","","","","","","survey_gender","58","","","I feel solidarity with my friends.","filler"
"4256","","","html-slider-response","455","2742011","0.0-24.0-1.0-0.19","69491","List1A","black","woman","","","","","","","","survey_gender","16","","","I often think about the fact that I am my gender.","often"
"3771.3999999910593","","","html-slider-response","456","2745796","0.0-24.0-1.0-0.20","69491","List1A","black","woman","","","","","","","","survey_gender","63","","","I am similar to the average person of my gender.","similar"
"3362.1000000089407","","","html-slider-response","457","2749171","0.0-24.0-1.0-0.21","69491","List1A","black","woman","","","","","","","","survey_gender","54","","","My friends have a lot in common with each other.","filler"
"3568.9000000059605","","","html-slider-response","458","2752753","0.0-24.0-1.0-0.22","69491","List1A","black","woman","","","","","","","","survey_gender","69","","","The fact that I am my gender is an important part of my identity.","identity"
"2309.9000000059605","","","html-slider-response","459","2755077","0.0-24.0-1.0-0.23","69491","List1A","black","woman","","","","","","","","survey_gender","58","","","I feel a bond with my friends.","filler"
"2254.199999988079","","","html-slider-response","460","2757342","0.0-24.0-1.0-0.24","69491","List1A","black","woman","","","","","","","","survey_gender","68","","","I am glad to be my gender.","glad"
"6467.300000011921","","","html-slider-response","461","2763821","0.0-24.0-1.0-0.25","69491","List1A","black","woman","","","","","","","","survey_gender","92","","","I often think about my actions.","filler"
"4041.8999999910593","","","html-slider-response","462","2767876","0.0-24.0-1.0-0.26","69491","List1A","black","woman","","","","","","","","survey_gender","52","","","I have a lot in common with the average person of my gender.","average"
"2386.2000000029802","","","html-slider-response","463","2770276","0.0-24.0-1.0-0.27","69491","List1A","black","woman","","","","","","","","survey_gender","65","","","It is pleasant to be my gender.","pleasant"
"8135.29999999702","","","survey-text","464","2778437","0.0-25.0","69491","List1A","black","woman","","","","","{""Q0"":""615094274b7e356f6d0e26dd""}","","","worker_id","","","","",""
"70006","","","external-html","465","2848894","0.0-26.0","69491","List1A","black","woman","debrief.html","","","","","","","","","","","",""
