rt,stimulus,button_pressed,trial_type,trial_index,time_elapsed,internal_node_id,subject,list,ppt_race,ppt_gender,url,first_guess,correct,key_press,responses,image_type,phrase_type,test_part,response,stimulus1,stimulus2,question_type,survey_item
2141.1,Welcome to the experiment. Press Continue to begin.,0,html-button-response,0,2145,0.0-0.0,69591,List1B,white,man,,,,,,,,,,,,,
14723.9,,,external-html,1,18091,0.0-1.0,69591,List1B,white,man,consent.html,,,,,,,,,,,,
14615.2,"<p>On the next page, you will see portraits of 8 people and their names.</p><p>Your first task is to take a few minutes to memorise the names of these people.</p><p>You will have to recall their names during the rest of the experiment, so it is</p><p>essential that you try to memorise these people and their names as best as you can.</p><br><p><strong>You will then be tested on your memory of these names and portraits.</strong></p><br><p>The experiment will start after you have completed this memory test.</p><br><p>Ready?</p>",0,html-button-response,2,32708,0.0-2.0,69591,List1B,white,man,,,,,,,,,,,,,
64089.7,"<img src='img/portrait_matrix_list1.jpg' style='width:900px;height:500px;''></img><p>If you have memorised all the portraits and names and are ready to start, press Continue.</p><p><strong>Please note: Your memory of these faces will be tested 4 times during this experiment.</strong></p>",0,html-button-response,3,97806,0.0-3.0-0.0,69591,List1B,white,man,,,,,,,,,,,,,
6691.6,"<img src=""portrait/WW1.jpg""style=""height:400px;""></img>",1,html-button-response,4,105510,0.0-3.0-1.0,69591,List1B,white,man,,TRUE,1,,,,,,,,,,
null,CORRECT,,html-keyboard-response,5,107025,0.0-3.0-2.0-0.0,69591,List1B,white,man,,,,null,,,,,,,,,
4357.1,"<img src=""portrait/BM2.jpg""style=""height:400px;""></img>",5,html-button-response,6,111386,0.0-3.0-4.0,69591,List1B,white,man,,TRUE,5,,,,,,,,,,
null,CORRECT,,html-keyboard-response,7,112906,0.0-3.0-5.0-0.0,69591,List1B,white,man,,,,null,,,,,,,,,
3745.6,"<img src=""portrait/WW2.jpg""style=""height:400px;""></img>",3,html-button-response,8,116654,0.0-3.0-7.0,69591,List1B,white,man,,TRUE,3,,,,,,,,,,
null,CORRECT,,html-keyboard-response,9,118170,0.0-3.0-8.0-0.0,69591,List1B,white,man,,,,null,,,,,,,,,
4824.2,"<img src=""portrait/BW1.jpg""style=""height:400px;""></img>",5,html-button-response,10,122997,0.0-3.0-10.0,69591,List1B,white,man,,TRUE,0,,,,,,,,,,
3685.6,"<img src=""portrait/BW1.jpg""style=""height:400px;""></img>",4,html-button-response,11,127697,0.0-3.0-12.0-0.0,69591,List1B,white,man,,FALSE,0,,,,,,,,,,
null,INCORRECT,,html-keyboard-response,12,129224,0.0-3.0-12.0-2.0-0.0,69591,List1B,white,man,,,,null,,,,,,,,,
3464.1,"<img src=""portrait/BM1.jpg""style=""height:400px;""></img>",4,html-button-response,13,132690,0.0-3.0-13.0,69591,List1B,white,man,,TRUE,4,,,,,,,,,,
null,CORRECT,,html-keyboard-response,14,134213,0.0-3.0-14.0-0.0,69591,List1B,white,man,,,,null,,,,,,,,,
6677.4,"<img src=""portrait/WM2.jpg""style=""height:400px;""></img>",7,html-button-response,15,140891,0.0-3.0-16.0,69591,List1B,white,man,,TRUE,7,,,,,,,,,,
null,CORRECT,,html-keyboard-response,16,142413,0.0-3.0-17.0-0.0,69591,List1B,white,man,,,,null,,,,,,,,,
3591,"<img src=""portrait/BW2.jpg""style=""height:400px;""></img>",2,html-button-response,17,146006,0.0-3.0-19.0,69591,List1B,white,man,,TRUE,2,,,,,,,,,,
null,CORRECT,,html-keyboard-response,18,147538,0.0-3.0-20.0-0.0,69591,List1B,white,man,,,,null,,,,,,,,,
5632.3,"<img src=""portrait/WM1.jpg""style=""height:400px;""></img>",6,html-button-response,19,153172,0.0-3.0-22.0,69591,List1B,white,man,,TRUE,6,,,,,,,,,,
null,CORRECT,,html-keyboard-response,20,154690,0.0-3.0-23.0-0.0,69591,List1B,white,man,,,,null,,,,,,,,,
2263.9,<p>You got 7 out of 8 right first time. Press Continue.</p>,0,html-button-response,21,156957,0.0-3.0-25.0,69591,List1B,white,man,,,,,,,,,,,,,
3414.4,"As you did not score 100%, the memory game will repeat. Press Continue.",0,html-button-response,22,161382,0.0-3.0-26.0-0.0,69591,List1B,white,man,,,,,,,,,,,,,
19050.5,"<img src='img/portrait_matrix_list1.jpg' style='width:900px;height:500px;''></img><p>If you have memorised all the portraits and names and are ready to start, press Continue.</p><p><strong>Please note: Your memory of these faces will be tested 4 times during this experiment.</strong></p>",0,html-button-response,23,181447,0.0-3.1-0.1,69591,List1B,white,man,,,,,,,,,,,,,
5444.3,"<img src=""portrait/WW1.jpg""style=""height:400px;""></img>",1,html-button-response,24,187904,0.0-3.1-1.1,69591,List1B,white,man,,TRUE,1,,,,,,,,,,
null,CORRECT,,html-keyboard-response,25,189413,0.0-3.1-2.1-0.1,69591,List1B,white,man,,,,null,,,,,,,,,
5412.7,"<img src=""portrait/BM2.jpg""style=""height:400px;""></img>",5,html-button-response,26,194827,0.0-3.1-4.1,69591,List1B,white,man,,TRUE,5,,,,,,,,,,
null,CORRECT,,html-keyboard-response,27,196344,0.0-3.1-5.1-0.1,69591,List1B,white,man,,,,null,,,,,,,,,
4409.6,"<img src=""portrait/WW2.jpg""style=""height:400px;""></img>",3,html-button-response,28,200755,0.0-3.1-7.1,69591,List1B,white,man,,TRUE,3,,,,,,,,,,
null,CORRECT,,html-keyboard-response,29,202272,0.0-3.1-8.1-0.1,69591,List1B,white,man,,,,null,,,,,,,,,
3019.1,"<img src=""portrait/BW1.jpg""style=""height:400px;""></img>",0,html-button-response,30,205293,0.0-3.1-10.1,69591,List1B,white,man,,TRUE,0,,,,,,,,,,
null,CORRECT,,html-keyboard-response,31,206806,0.0-3.1-11.1-0.1,69591,List1B,white,man,,,,null,,,,,,,,,
3864.4,"<img src=""portrait/BM1.jpg""style=""height:400px;""></img>",4,html-button-response,32,210672,0.0-3.1-13.1,69591,List1B,white,man,,TRUE,4,,,,,,,,,,
null,CORRECT,,html-keyboard-response,33,212212,0.0-3.1-14.1-0.1,69591,List1B,white,man,,,,null,,,,,,,,,
3858.1,"<img src=""portrait/WM2.jpg""style=""height:400px;""></img>",7,html-button-response,34,216072,0.0-3.1-16.1,69591,List1B,white,man,,TRUE,7,,,,,,,,,,
null,CORRECT,,html-keyboard-response,35,217607,0.0-3.1-17.1-0.1,69591,List1B,white,man,,,,null,,,,,,,,,
2857.9,"<img src=""portrait/BW2.jpg""style=""height:400px;""></img>",2,html-button-response,36,220467,0.0-3.1-19.1,69591,List1B,white,man,,TRUE,2,,,,,,,,,,
null,CORRECT,,html-keyboard-response,37,221986,0.0-3.1-20.1-0.1,69591,List1B,white,man,,,,null,,,,,,,,,
5471.3,"<img src=""portrait/WM1.jpg""style=""height:400px;""></img>",6,html-button-response,38,227460,0.0-3.1-22.1,69591,List1B,white,man,,TRUE,6,,,,,,,,,,
null,CORRECT,,html-keyboard-response,39,228977,0.0-3.1-23.1-0.1,69591,List1B,white,man,,,,null,,,,,,,,,
1676.5,<p>You got 8 out of 8 right first time. Press Continue.</p>,0,html-button-response,40,230656,0.0-3.1-25.1,69591,List1B,white,man,,,,,,,,,,,,,
62478.5,"<p>In this experiment, you will view photographs of the people from the memory game interacting.</p><p>By using the <strong>exact</strong> phrase given <i>after</i> the photograph appears and recalling the correct names of the people in the photographs, form a sentence describing the interaction. You do not need to capitalise names.</p><p>Type your answer in the space provided. Please complete every sentence before moving onto the next trial.</p><p>You will only have a few seconds to memorise each given photograph and phrase before you can respond, so try your best to focus.</p><p>An example is given below. Press 'Continue' when you are ready.</p><img src='img/speaking_example.jpg' style='width:800px;height:460px;''></img>",0,html-button-response,41,294150,0.0-4.0,69591,List1B,white,man,,,,,,,,,,,,,
3086.1,"<p>Before the experiment starts, you will watch two example trials. Press 'Continue'.</p>",0,html-button-response,42,298260,0.0-5.0,69591,List1B,white,man,,,,,,,,,,,,,
null,<img src='img/play_eg.gif' style='height:400px;''></img>,,html-keyboard-response,43,301279,0.0-6.0,69591,List1B,white,man,,,,null,,,,,,,,,
null,<p>is playing with</p>,,html-keyboard-response,44,303289,0.0-7.0,69591,List1B,white,man,,,,null,,,,,,,,,
4856,<p><b>Answer:</b> kate is playing with beth</p>,0,html-button-response,45,308147,0.0-8.0,69591,List1B,white,man,,,,,,,,,,,,,
null,<img src='img/dance_eg.gif' style='height:400px;''></img>,,html-keyboard-response,46,311157,0.0-9.0,69591,List1B,white,man,,,,null,,,,,,,,,
null,<p>is being entertained by</p>,,html-keyboard-response,47,313163,0.0-10.0,69591,List1B,white,man,,,,null,,,,,,,,,
5284.1,<p><b>Answer:</b> luke is being entertained by dave</p>,0,html-button-response,48,318449,0.0-11.0,69591,List1B,white,man,,,,,,,,,,,,,
14509.1,"<p>Ready to start the experiment?</p><br><p><strong>Remember to describe the picture using a full sentence,</strong></p><p><strong>that combines the names of the people with the <i>exact</i> phrase given.</strong></p><p><strong>To receive full payment you must do this correctly.</strong></p><p><strong> You do not need to capitalise names or use punctuation.</strong></p><br><p>Press 'Continue' to begin.</p>",0,html-button-response,49,333968,0.0-12.0,69591,List1B,white,man,,,,,,,,,,,,,
null,"<div style=""font-size:60px;"">+</div>",,html-keyboard-response,50,335478,0.0-13.0-0.0,69591,List1B,white,man,,,,null,,,,,,,,,
null,"<img src=""stim_listB/shout1.gif""style=""height:400px;""></stim_listB>",,html-keyboard-response,51,337488,0.0-13.0-1.0,69591,List1B,white,man,,,,null,,,,,,,,,
null,is shouting at,,html-keyboard-response,52,339500,0.0-13.0-2.0,69591,List1B,white,man,,,,null,,,,,,,,,
33166.3,,,survey-text,53,372672,0.0-13.0-3.0,69591,List1B,white,man,,,,,"{""Q0"":""fred is shouting at beth""}","<img src=""stim_listB/shout1.gif""style=""height:400px;""></stim_listB>",is shouting at,,,,,,
null,"<div style=""font-size:60px;"">+</div>",,html-keyboard-response,54,373182,0.0-13.0-0.1,69591,List1B,white,man,,,,null,,,,,,,,,
null,"<img src=""stim_listB/look5.gif""style=""height:400px;""></stim_listB>",,html-keyboard-response,55,375188,0.0-13.0-1.1,69591,List1B,white,man,,,,null,,,,,,,,,
null,is looking at,,html-keyboard-response,56,377203,0.0-13.0-2.1,69591,List1B,white,man,,,,null,,,,,,,,,
21421.9,,,survey-text,57,398629,0.0-13.0-3.1,69591,List1B,white,man,,,,,"{""Q0"":""fred is talking to luke""}","<img src=""stim_listB/look5.gif""style=""height:400px;""></stim_listB>",is looking at,,,,,,
null,"<div style=""font-size:60px;"">+</div>",,html-keyboard-response,58,399148,0.0-13.0-0.2,69591,List1B,white,man,,,,null,,,,,,,,,
null,"<img src=""stim_listB/touch8.gif""style=""height:400px;""></stim_listB>",,html-keyboard-response,59,401161,0.0-13.0-1.2,69591,List1B,white,man,,,,null,,,,,,,,,
null,is being touched by,,html-keyboard-response,60,403167,0.0-13.0-2.2,69591,List1B,white,man,,,,null,,,,,,,,,
19851.6,,,survey-text,61,423026,0.0-13.0-3.2,69591,List1B,white,man,,,,,"{""Q0"":""beth is being touch by ruth""}","<img src=""stim_listB/touch8.gif""style=""height:400px;""></stim_listB>",is being touched by,,,,,,
null,"<div style=""font-size:60px;"">+</div>",,html-keyboard-response,62,423530,0.0-13.0-0.3,69591,List1B,white,man,,,,null,,,,,,,,,
null,"<img src=""stim_listB/oppose8.gif""style=""height:400px;""></stim_listB>",,html-keyboard-response,63,425537,0.0-13.0-1.3,69591,List1B,white,man,,,,null,,,,,,,,,
null,is being opposed by,,html-keyboard-response,64,427543,0.0-13.0-2.3,69591,List1B,white,man,,,,null,,,,,,,,,
20923.1,,,survey-text,65,448470,0.0-13.0-3.3,69591,List1B,white,man,,,,,"{""Q0"":""beth is being opposed by ruth""}","<img src=""stim_listB/oppose8.gif""style=""height:400px;""></stim_listB>",is being opposed by,,,,,,
null,"<div style=""font-size:60px;"">+</div>",,html-keyboard-response,66,448985,0.0-13.0-0.4,69591,List1B,white,man,,,,null,,,,,,,,,
null,"<img src=""stim_listB/copy5.gif""style=""height:400px;""></stim_listB>",,html-keyboard-response,67,450997,0.0-13.0-1.4,69591,List1B,white,man,,,,null,,,,,,,,,
null,is copying,,html-keyboard-response,68,453007,0.0-13.0-2.4,69591,List1B,white,man,,,,null,,,,,,,,,
14912.8,,,survey-text,69,467923,0.0-13.0-3.4,69591,List1B,white,man,,,,,"{""Q0"":""mike is copying luke""}","<img src=""stim_listB/copy5.gif""style=""height:400px;""></stim_listB>",is copying,,,,,,
null,"<div style=""font-size:60px;"">+</div>",,html-keyboard-response,70,468427,0.0-13.0-0.5,69591,List1B,white,man,,,,null,,,,,,,,,
null,"<img src=""stim_listB/hug2.gif""style=""height:400px;""></stim_listB>",,html-keyboard-response,71,470436,0.0-13.0-1.5,69591,List1B,white,man,,,,null,,,,,,,,,
null,is being hugged by,,html-keyboard-response,72,472440,0.0-13.0-2.5,69591,List1B,white,man,,,,null,,,,,,,,,
13035.6,,,survey-text,73,485479,0.0-13.0-3.5,69591,List1B,white,man,,,,,"{""Q0"":""mike is being hugged by kate""}","<img src=""stim_listB/hug2.gif""style=""height:400px;""></stim_listB>",is being hugged by,,,,,,
null,"<div style=""font-size:60px;"">+</div>",,html-keyboard-response,74,485983,0.0-13.0-0.6,69591,List1B,white,man,,,,null,,,,,,,,,
null,"<img src=""stim_listB/shout3.gif""style=""height:400px;""></stim_listB>",,html-keyboard-response,75,487990,0.0-13.0-1.6,69591,List1B,white,man,,,,null,,,,,,,,,
null,is shouting at,,html-keyboard-response,76,489996,0.0-13.0-2.6,69591,List1B,white,man,,,,null,,,,,,,,,
14710.5,,,survey-text,77,504710,0.0-13.0-3.6,69591,List1B,white,man,,,,,"{""Q0"":""luke is shouting at ruth""}","<img src=""stim_listB/shout3.gif""style=""height:400px;""></stim_listB>",is shouting at,,,,,,
null,"<div style=""font-size:60px;"">+</div>",,html-keyboard-response,78,505215,0.0-13.0-0.7,69591,List1B,white,man,,,,null,,,,,,,,,
null,"<img src=""stim_listB/touch4.gif""style=""height:400px;""></stim_listB>",,html-keyboard-response,79,507219,0.0-13.0-1.7,69591,List1B,white,man,,,,null,,,,,,,,,
null,is being touched by,,html-keyboard-response,80,509228,0.0-13.0-2.7,69591,List1B,white,man,,,,null,,,,,,,,,
12286.4,,,survey-text,81,521518,0.0-13.0-3.7,69591,List1B,white,man,,,,,"{""Q0"":""luke is being touched by ruth""}","<img src=""stim_listB/touch4.gif""style=""height:400px;""></stim_listB>",is being touched by,,,,,,
null,"<div style=""font-size:60px;"">+</div>",,html-keyboard-response,82,522033,0.0-13.0-0.8,69591,List1B,white,man,,,,null,,,,,,,,,
null,"<img src=""stim_listB/seduce6.gif""style=""height:400px;""></stim_listB>",,html-keyboard-response,83,524049,0.0-13.0-1.8,69591,List1B,white,man,,,,null,,,,,,,,,
null,is being seduced by,,html-keyboard-response,84,526059,0.0-13.0-2.8,69591,List1B,white,man,,,,null,,,,,,,,,
18307.2,,,survey-text,85,544371,0.0-13.0-3.8,69591,List1B,white,man,,,,,"{""Q0"":""mike is being seduced by luke""}","<img src=""stim_listB/seduce6.gif""style=""height:400px;""></stim_listB>",is being seduced by,,,,,,
null,"<div style=""font-size:60px;"">+</div>",,html-keyboard-response,86,544874,0.0-13.0-0.9,69591,List1B,white,man,,,,null,,,,,,,,,
null,"<img src=""stim_listB/copy7.gif""style=""height:400px;""></stim_listB>",,html-keyboard-response,87,546880,0.0-13.0-1.9,69591,List1B,white,man,,,,null,,,,,,,,,
null,is copying,,html-keyboard-response,88,548888,0.0-13.0-2.9,69591,List1B,white,man,,,,null,,,,,,,,,
41683,,,survey-text,89,590575,0.0-13.0-3.9,69591,List1B,white,man,,,,,"{""Q0"":""kate is copying ruth""}","<img src=""stim_listB/copy7.gif""style=""height:400px;""></stim_listB>",is copying,,,,,,
null,"<div style=""font-size:60px;"">+</div>",,html-keyboard-response,90,591079,0.0-13.0-0.10,69591,List1B,white,man,,,,null,,,,,,,,,
null,"<img src=""stim_listB/hug8.gif""style=""height:400px;""></stim_listB>",,html-keyboard-response,91,593088,0.0-13.0-1.10,69591,List1B,white,man,,,,null,,,,,,,,,
null,is being hugged by,,html-keyboard-response,92,595094,0.0-13.0-2.10,69591,List1B,white,man,,,,null,,,,,,,,,
14757.7,,,survey-text,93,609856,0.0-13.0-3.10,69591,List1B,white,man,,,,,"{""Q0"":""jane is being hugged by kate""}","<img src=""stim_listB/hug8.gif""style=""height:400px;""></stim_listB>",is being hugged by,,,,,,
null,"<div style=""font-size:60px;"">+</div>",,html-keyboard-response,94,610360,0.0-13.0-0.11,69591,List1B,white,man,,,,null,,,,,,,,,
null,"<img src=""stim_listB/challenge1.gif""style=""height:400px;""></stim_listB>",,html-keyboard-response,95,612377,0.0-13.0-1.11,69591,List1B,white,man,,,,null,,,,,,,,,
null,is challenging,,html-keyboard-response,96,614390,0.0-13.0-2.11,69591,List1B,white,man,,,,null,,,,,,,,,
15639.4,,,survey-text,97,630033,0.0-13.0-3.11,69591,List1B,white,man,,,,,"{""Q0"":""mike is challenging beth""}","<img src=""stim_listB/challenge1.gif""style=""height:400px;""></stim_listB>",is challenging,,,,,,
null,"<div style=""font-size:60px;"">+</div>",,html-keyboard-response,98,630546,0.0-13.0-0.12,69591,List1B,white,man,,,,null,,,,,,,,,
null,"<img src=""stim_listB/kiss8.gif""style=""height:400px;""></stim_listB>",,html-keyboard-response,99,632558,0.0-13.0-1.12,69591,List1B,white,man,,,,null,,,,,,,,,
null,is being kissed by,,html-keyboard-response,100,634561,0.0-13.0-2.12,69591,List1B,white,man,,,,null,,,,,,,,,
11869.6,,,survey-text,101,646435,0.0-13.0-3.12,69591,List1B,white,man,,,,,"{""Q0"":""kate is being kissed by jane""}","<img src=""stim_listB/kiss8.gif""style=""height:400px;""></stim_listB>",is being kissed by,,,,,,
null,"<div style=""font-size:60px;"">+</div>",,html-keyboard-response,102,646943,0.0-13.0-0.13,69591,List1B,white,man,,,,null,,,,,,,,,
null,"<img src=""stim_listB/kiss2.gif""style=""height:400px;""></stim_listB>",,html-keyboard-response,103,648949,0.0-13.0-1.13,69591,List1B,white,man,,,,null,,,,,,,,,
null,is being kissed by,,html-keyboard-response,104,650956,0.0-13.0-2.13,69591,List1B,white,man,,,,null,,,,,,,,,
9422.2,,,survey-text,105,660382,0.0-13.0-3.13,69591,List1B,white,man,,,,,"{""Q0"":""kate is being kissed by mike""}","<img src=""stim_listB/kiss2.gif""style=""height:400px;""></stim_listB>",is being kissed by,,,,,,
null,"<div style=""font-size:60px;"">+</div>",,html-keyboard-response,106,660893,0.0-13.0-0.14,69591,List1B,white,man,,,,null,,,,,,,,,
null,"<img src=""stim_listB/seduce1.gif""style=""height:400px;""></stim_listB>",,html-keyboard-response,107,662896,0.0-13.0-1.14,69591,List1B,white,man,,,,null,,,,,,,,,
null,is seducing,,html-keyboard-response,108,664902,0.0-13.0-2.14,69591,List1B,white,man,,,,null,,,,,,,,,
11301.2,,,survey-text,109,676205,0.0-13.0-3.14,69591,List1B,white,man,,,,,"{""Q0"":""fred is seducing kate""}","<img src=""stim_listB/seduce1.gif""style=""height:400px;""></stim_listB>",is seducing,,,,,,
null,"<div style=""font-size:60px;"">+</div>",,html-keyboard-response,110,676716,0.0-13.0-0.15,69591,List1B,white,man,,,,null,,,,,,,,,
null,"<img src=""stim_listB/seduce7.gif""style=""height:400px;""></stim_listB>",,html-keyboard-response,111,678731,0.0-13.0-1.15,69591,List1B,white,man,,,,null,,,,,,,,,
null,is seducing,,html-keyboard-response,112,680738,0.0-13.0-2.15,69591,List1B,white,man,,,,null,,,,,,,,,
15295.3,,,survey-text,113,696037,0.0-13.0-3.15,69591,List1B,white,man,,,,,"{""Q0"":""jane is seducing beth""}","<img src=""stim_listB/seduce7.gif""style=""height:400px;""></stim_listB>",is seducing,,,,,,
null,"<div style=""font-size:60px;"">+</div>",,html-keyboard-response,114,696549,0.0-13.0-0.16,69591,List1B,white,man,,,,null,,,,,,,,,
null,"<img src=""stim_listB/challenge5.gif""style=""height:400px;""></stim_listB>",,html-keyboard-response,115,698564,0.0-13.0-1.16,69591,List1B,white,man,,,,null,,,,,,,,,
null,is challenging,,html-keyboard-response,116,700577,0.0-13.0-2.16,69591,List1B,white,man,,,,null,,,,,,,,,
14710.1,,,survey-text,117,715290,0.0-13.0-3.16,69591,List1B,white,man,,,,,"{""Q0"":""mike is challenging luke""}","<img src=""stim_listB/challenge5.gif""style=""height:400px;""></stim_listB>",is challenging,,,,,,
null,"<div style=""font-size:60px;"">+</div>",,html-keyboard-response,118,715793,0.0-13.0-0.17,69591,List1B,white,man,,,,null,,,,,,,,,
null,"<img src=""stim_listB/touch1.gif""style=""height:400px;""></stim_listB>",,html-keyboard-response,119,717797,0.0-13.0-1.17,69591,List1B,white,man,,,,null,,,,,,,,,
null,is touching,,html-keyboard-response,120,719809,0.0-13.0-2.17,69591,List1B,white,man,,,,null,,,,,,,,,
16750.9,,,survey-text,121,736564,0.0-13.0-3.17,69591,List1B,white,man,,,,,"{""Q0"":""mike is touching kate""}","<img src=""stim_listB/touch1.gif""style=""height:400px;""></stim_listB>",is touching,,,,,,
null,"<div style=""font-size:60px;"">+</div>",,html-keyboard-response,122,737067,0.0-13.0-0.18,69591,List1B,white,man,,,,null,,,,,,,,,
null,"<img src=""stim_listB/touch6.gif""style=""height:400px;""></stim_listB>",,html-keyboard-response,123,739078,0.0-13.0-1.18,69591,List1B,white,man,,,,null,,,,,,,,,
null,is being touched by,,html-keyboard-response,124,741081,0.0-13.0-2.18,69591,List1B,white,man,,,,null,,,,,,,,,
19349.5,,,survey-text,125,760434,0.0-13.0-3.18,69591,List1B,white,man,,,,,"{""Q0"":""fred is being touched by luke""}","<img src=""stim_listB/touch6.gif""style=""height:400px;""></stim_listB>",is being touched by,,,,,,
null,"<div style=""font-size:60px;"">+</div>",,html-keyboard-response,126,760937,0.0-13.0-0.19,69591,List1B,white,man,,,,null,,,,,,,,,
null,"<img src=""stim_listB/greet5.gif""style=""height:400px;""></stim_listB>",,html-keyboard-response,127,762944,0.0-13.0-1.19,69591,List1B,white,man,,,,null,,,,,,,,,
null,is greeting,,html-keyboard-response,128,764960,0.0-13.0-2.19,69591,List1B,white,man,,,,null,,,,,,,,,
11568,,,survey-text,129,776533,0.0-13.0-3.19,69591,List1B,white,man,,,,,"{""Q0"":""mike is greeting luke""}","<img src=""stim_listB/greet5.gif""style=""height:400px;""></stim_listB>",is greeting,,,,,,
17101.8,"<img src='img/portrait_matrix_list1.jpg' style='width:900px;height:500px;''></img><p>If you have memorised all the portraits and names and are ready to start, press Continue.</p><p><strong>Please note: Your memory of these faces will be tested 4 times during this experiment.</strong></p>",0,html-button-response,130,793637,0.0-14.0-0.0,69591,List1B,white,man,,,,,,,,,,,,,
3748.8,"<img src=""portrait/WW2.jpg""style=""height:400px;""></img>",3,html-button-response,131,798398,0.0-14.0-1.0,69591,List1B,white,man,,TRUE,3,,,,,,,,,,
null,CORRECT,,html-keyboard-response,132,799915,0.0-14.0-2.0-0.0,69591,List1B,white,man,,,,null,,,,,,,,,
3933.9,"<img src=""portrait/BM1.jpg""style=""height:400px;""></img>",4,html-button-response,133,803851,0.0-14.0-4.0,69591,List1B,white,man,,TRUE,4,,,,,,,,,,
null,CORRECT,,html-keyboard-response,134,805365,0.0-14.0-5.0-0.0,69591,List1B,white,man,,,,null,,,,,,,,,
3932.6,"<img src=""portrait/BM2.jpg""style=""height:400px;""></img>",5,html-button-response,135,809300,0.0-14.0-7.0,69591,List1B,white,man,,TRUE,5,,,,,,,,,,
null,CORRECT,,html-keyboard-response,136,810810,0.0-14.0-8.0-0.0,69591,List1B,white,man,,,,null,,,,,,,,,
4284.5,"<img src=""portrait/WM1.jpg""style=""height:400px;""></img>",6,html-button-response,137,815097,0.0-14.0-10.0,69591,List1B,white,man,,TRUE,6,,,,,,,,,,
null,CORRECT,,html-keyboard-response,138,816609,0.0-14.0-11.0-0.0,69591,List1B,white,man,,,,null,,,,,,,,,
4342.1,"<img src=""portrait/WM2.jpg""style=""height:400px;""></img>",7,html-button-response,139,820953,0.0-14.0-13.0,69591,List1B,white,man,,TRUE,7,,,,,,,,,,
null,CORRECT,,html-keyboard-response,140,822483,0.0-14.0-14.0-0.0,69591,List1B,white,man,,,,null,,,,,,,,,
3888.3,"<img src=""portrait/WW1.jpg""style=""height:400px;""></img>",1,html-button-response,141,826373,0.0-14.0-16.0,69591,List1B,white,man,,TRUE,1,,,,,,,,,,
null,CORRECT,,html-keyboard-response,142,827900,0.0-14.0-17.0-0.0,69591,List1B,white,man,,,,null,,,,,,,,,
3932.1,"<img src=""portrait/BW2.jpg""style=""height:400px;""></img>",2,html-button-response,143,831834,0.0-14.0-19.0,69591,List1B,white,man,,TRUE,2,,,,,,,,,,
null,CORRECT,,html-keyboard-response,144,833373,0.0-14.0-20.0-0.0,69591,List1B,white,man,,,,null,,,,,,,,,
3534.8,"<img src=""portrait/BW1.jpg""style=""height:400px;""></img>",0,html-button-response,145,836910,0.0-14.0-22.0,69591,List1B,white,man,,TRUE,0,,,,,,,,,,
null,CORRECT,,html-keyboard-response,146,838429,0.0-14.0-23.0-0.0,69591,List1B,white,man,,,,null,,,,,,,,,
1757.1,<p>You got 8 out of 8 right first time. Press Continue.</p>,0,html-button-response,147,840189,0.0-14.0-25.0,69591,List1B,white,man,,,,,,,,,,,,,
null,"<div style=""font-size:60px;"">+</div>",,html-keyboard-response,148,841709,0.0-15.0-0.0,69591,List1B,white,man,,,,null,,,,,,,,,
null,"<img src=""stim_listB/shout4.gif""style=""height:400px;""></stim_listB>",,html-keyboard-response,149,843720,0.0-15.0-1.0,69591,List1B,white,man,,,,null,,,,,,,,,
null,is being shouted at by,,html-keyboard-response,150,845731,0.0-15.0-2.0,69591,List1B,white,man,,,,null,,,,,,,,,
17911,,,survey-text,151,863646,0.0-15.0-3.0,69591,List1B,white,man,,,,,"{""Q0"":""dave is being shouted at by jane""}","<img src=""stim_listB/shout4.gif""style=""height:400px;""></stim_listB>",is being shouted at by,,,,,,
null,"<div style=""font-size:60px;"">+</div>",,html-keyboard-response,152,864157,0.0-15.0-0.1,69591,List1B,white,man,,,,null,,,,,,,,,
null,"<img src=""stim_listB/kiss3.gif""style=""height:400px;""></stim_listB>",,html-keyboard-response,153,866166,0.0-15.0-1.1,69591,List1B,white,man,,,,null,,,,,,,,,
null,is kissing,,html-keyboard-response,154,868176,0.0-15.0-2.1,69591,List1B,white,man,,,,null,,,,,,,,,
9651.7,,,survey-text,155,877832,0.0-15.0-3.1,69591,List1B,white,man,,,,,"{""Q0"":""ruth is kissing luke""}","<img src=""stim_listB/kiss3.gif""style=""height:400px;""></stim_listB>",is kissing,,,,,,
null,"<div style=""font-size:60px;"">+</div>",,html-keyboard-response,156,878345,0.0-15.0-0.2,69591,List1B,white,man,,,,null,,,,,,,,,
null,"<img src=""stim_listB/touch3.gif""style=""height:400px;""></stim_listB>",,html-keyboard-response,157,880359,0.0-15.0-1.2,69591,List1B,white,man,,,,null,,,,,,,,,
null,is touching,,html-keyboard-response,158,882365,0.0-15.0-2.2,69591,List1B,white,man,,,,null,,,,,,,,,
11357.7,,,survey-text,159,893726,0.0-15.0-3.2,69591,List1B,white,man,,,,,"{""Q0"":""dave is touching jane""}","<img src=""stim_listB/touch3.gif""style=""height:400px;""></stim_listB>",is touching,,,,,,
null,"<div style=""font-size:60px;"">+</div>",,html-keyboard-response,160,894228,0.0-15.0-0.3,69591,List1B,white,man,,,,null,,,,,,,,,
null,"<img src=""stim_listB/look7.gif""style=""height:400px;""></stim_listB>",,html-keyboard-response,161,896233,0.0-15.0-1.3,69591,List1B,white,man,,,,null,,,,,,,,,
null,is looking at,,html-keyboard-response,162,898237,0.0-15.0-2.3,69591,List1B,white,man,,,,null,,,,,,,,,
11999.6,,,survey-text,163,910241,0.0-15.0-3.3,69591,List1B,white,man,,,,,"{""Q0"":""beth is looking at ruth""}","<img src=""stim_listB/look7.gif""style=""height:400px;""></stim_listB>",is looking at,,,,,,
null,"<div style=""font-size:60px;"">+</div>",,html-keyboard-response,164,910744,0.0-15.0-0.4,69591,List1B,white,man,,,,null,,,,,,,,,
null,"<img src=""stim_listB/greet2.gif""style=""height:400px;""></stim_listB>",,html-keyboard-response,165,912749,0.0-15.0-1.4,69591,List1B,white,man,,,,null,,,,,,,,,
null,is being greeted by,,html-keyboard-response,166,914755,0.0-15.0-2.4,69591,List1B,white,man,,,,null,,,,,,,,,
16338.5,,,survey-text,167,931098,0.0-15.0-3.4,69591,List1B,white,man,,,,,"{""Q0"":""fred is being greeted by kate""}","<img src=""stim_listB/greet2.gif""style=""height:400px;""></stim_listB>",is being greeted by,,,,,,
null,"<div style=""font-size:60px;"">+</div>",,html-keyboard-response,168,931600,0.0-15.0-0.5,69591,List1B,white,man,,,,null,,,,,,,,,
null,"<img src=""stim_listB/touch2.gif""style=""height:400px;""></stim_listB>",,html-keyboard-response,169,933609,0.0-15.0-1.5,69591,List1B,white,man,,,,null,,,,,,,,,
null,is being touched by,,html-keyboard-response,170,935619,0.0-15.0-2.5,69591,List1B,white,man,,,,null,,,,,,,,,
12821.9,,,survey-text,171,948444,0.0-15.0-3.5,69591,List1B,white,man,,,,,"{""Q0"":""fred is being touched by beth""}","<img src=""stim_listB/touch2.gif""style=""height:400px;""></stim_listB>",is being touched by,,,,,,
null,"<div style=""font-size:60px;"">+</div>",,html-keyboard-response,172,948953,0.0-15.0-0.6,69591,List1B,white,man,,,,null,,,,,,,,,
null,"<img src=""stim_listB/challenge3.gif""style=""height:400px;""></stim_listB>",,html-keyboard-response,173,950959,0.0-15.0-1.6,69591,List1B,white,man,,,,null,,,,,,,,,
null,is challenging,,html-keyboard-response,174,952980,0.0-15.0-2.6,69591,List1B,white,man,,,,null,,,,,,,,,
15072.4,,,survey-text,175,968056,0.0-15.0-3.6,69591,List1B,white,man,,,,,"{""Q0"":""dave is challenging ruth""}","<img src=""stim_listB/challenge3.gif""style=""height:400px;""></stim_listB>",is challenging,,,,,,
null,"<div style=""font-size:60px;"">+</div>",,html-keyboard-response,176,968561,0.0-15.0-0.7,69591,List1B,white,man,,,,null,,,,,,,,,
null,"<img src=""stim_listB/oppose5.gif""style=""height:400px;""></stim_listB>",,html-keyboard-response,177,970571,0.0-15.0-1.7,69591,List1B,white,man,,,,null,,,,,,,,,
null,is opposing,,html-keyboard-response,178,972577,0.0-15.0-2.7,69591,List1B,white,man,,,,null,,,,,,,,,
10467.9,,,survey-text,179,983048,0.0-15.0-3.7,69591,List1B,white,man,,,,,"{""Q0"":""dave is opposing mike""}","<img src=""stim_listB/oppose5.gif""style=""height:400px;""></stim_listB>",is opposing,,,,,,
null,"<div style=""font-size:60px;"">+</div>",,html-keyboard-response,180,983555,0.0-15.0-0.8,69591,List1B,white,man,,,,null,,,,,,,,,
null,"<img src=""stim_listB/greet4.gif""style=""height:400px;""></stim_listB>",,html-keyboard-response,181,985561,0.0-15.0-1.8,69591,List1B,white,man,,,,null,,,,,,,,,
null,is being greeted by,,html-keyboard-response,182,987568,0.0-15.0-2.8,69591,List1B,white,man,,,,null,,,,,,,,,
14112.9,,,survey-text,183,1001684,0.0-15.0-3.8,69591,List1B,white,man,,,,,"{""Q0"":""jane is being greeted by luke""}","<img src=""stim_listB/greet4.gif""style=""height:400px;""></stim_listB>",is being greeted by,,,,,,
null,"<div style=""font-size:60px;"">+</div>",,html-keyboard-response,184,1002206,0.0-15.0-0.9,69591,List1B,white,man,,,,null,,,,,,,,,
null,"<img src=""stim_listB/look6.gif""style=""height:400px;""></stim_listB>",,html-keyboard-response,185,1004215,0.0-15.0-1.9,69591,List1B,white,man,,,,null,,,,,,,,,
null,is being looked at by,,html-keyboard-response,186,1006219,0.0-15.0-2.9,69591,List1B,white,man,,,,null,,,,,,,,,
18283.9,,,survey-text,187,1024504,0.0-15.0-3.9,69591,List1B,white,man,,,,,"{""Q0"":""dave is being looked at by mike""}","<img src=""stim_listB/look6.gif""style=""height:400px;""></stim_listB>",is being looked at by,,,,,,
null,"<div style=""font-size:60px;"">+</div>",,html-keyboard-response,188,1025007,0.0-15.0-0.10,69591,List1B,white,man,,,,null,,,,,,,,,
null,"<img src=""stim_listB/kiss4.gif""style=""height:400px;""></stim_listB>",,html-keyboard-response,189,1027012,0.0-15.0-1.10,69591,List1B,white,man,,,,null,,,,,,,,,
null,is being kissed by,,html-keyboard-response,190,1029016,0.0-15.0-2.10,69591,List1B,white,man,,,,null,,,,,,,,,
13875.8,,,survey-text,191,1042896,0.0-15.0-3.10,69591,List1B,white,man,,,,,"{""Q0"":""dave is being kissed by jane""}","<img src=""stim_listB/kiss4.gif""style=""height:400px;""></stim_listB>",is being kissed by,,,,,,
null,"<div style=""font-size:60px;"">+</div>",,html-keyboard-response,192,1043398,0.0-15.0-0.11,69591,List1B,white,man,,,,null,,,,,,,,,
null,"<img src=""stim_listB/greet7.gif""style=""height:400px;""></stim_listB>",,html-keyboard-response,193,1045407,0.0-15.0-1.11,69591,List1B,white,man,,,,null,,,,,,,,,
null,is greeting,,html-keyboard-response,194,1047421,0.0-15.0-2.11,69591,List1B,white,man,,,,null,,,,,,,,,
15739.4,,,survey-text,195,1063164,0.0-15.0-3.11,69591,List1B,white,man,,,,,"{""Q0"":""ruth is greeting kate""}","<img src=""stim_listB/greet7.gif""style=""height:400px;""></stim_listB>",is greeting,,,,,,
null,"<div style=""font-size:60px;"">+</div>",,html-keyboard-response,196,1063678,0.0-15.0-0.12,69591,List1B,white,man,,,,null,,,,,,,,,
null,"<img src=""stim_listB/shout2.gif""style=""height:400px;""></stim_listB>",,html-keyboard-response,197,1065684,0.0-15.0-1.12,69591,List1B,white,man,,,,null,,,,,,,,,
null,is being shouted at by,,html-keyboard-response,198,1067705,0.0-15.0-2.12,69591,List1B,white,man,,,,null,,,,,,,,,
12510.2,,,survey-text,199,1080216,0.0-15.0-3.12,69591,List1B,white,man,,,,,"{""Q0"":""mike is being shouted at by kate""}","<img src=""stim_listB/shout2.gif""style=""height:400px;""></stim_listB>",is being shouted at by,,,,,,
null,"<div style=""font-size:60px;"">+</div>",,html-keyboard-response,200,1080719,0.0-15.0-0.13,69591,List1B,white,man,,,,null,,,,,,,,,
null,"<img src=""stim_listB/touch7.gif""style=""height:400px;""></stim_listB>",,html-keyboard-response,201,1082729,0.0-15.0-1.13,69591,List1B,white,man,,,,null,,,,,,,,,
null,is touching,,html-keyboard-response,202,1084743,0.0-15.0-2.13,69591,List1B,white,man,,,,null,,,,,,,,,
13057.8,,,survey-text,203,1097803,0.0-15.0-3.13,69591,List1B,white,man,,,,,"{""Q0"":""kate is touching jane""}","<img src=""stim_listB/touch7.gif""style=""height:400px;""></stim_listB>",is touching,,,,,,
null,"<div style=""font-size:60px;"">+</div>",,html-keyboard-response,204,1098307,0.0-15.0-0.14,69591,List1B,white,man,,,,null,,,,,,,,,
null,"<img src=""stim_listB/hug7.gif""style=""height:400px;""></stim_listB>",,html-keyboard-response,205,1100310,0.0-15.0-1.14,69591,List1B,white,man,,,,null,,,,,,,,,
null,is hugging,,html-keyboard-response,206,1102319,0.0-15.0-2.14,69591,List1B,white,man,,,,null,,,,,,,,,
15079.3,,,survey-text,207,1117402,0.0-15.0-3.14,69591,List1B,white,man,,,,,"{""Q0"":""ruth is hugging beth""}","<img src=""stim_listB/hug7.gif""style=""height:400px;""></stim_listB>",is hugging,,,,,,
null,"<div style=""font-size:60px;"">+</div>",,html-keyboard-response,208,1117917,0.0-15.0-0.15,69591,List1B,white,man,,,,null,,,,,,,,,
null,"<img src=""stim_listB/copy4.gif""style=""height:400px;""></stim_listB>",,html-keyboard-response,209,1119923,0.0-15.0-1.15,69591,List1B,white,man,,,,null,,,,,,,,,
null,is being copied by,,html-keyboard-response,210,1121929,0.0-15.0-2.15,69591,List1B,white,man,,,,null,,,,,,,,,
12329,,,survey-text,211,1134263,0.0-15.0-3.15,69591,List1B,white,man,,,,,"{""Q0"":""jane is being copied by luke""}","<img src=""stim_listB/copy4.gif""style=""height:400px;""></stim_listB>",is being copied by,,,,,,
null,"<div style=""font-size:60px;"">+</div>",,html-keyboard-response,212,1134775,0.0-15.0-0.16,69591,List1B,white,man,,,,null,,,,,,,,,
null,"<img src=""stim_listB/look8.gif""style=""height:400px;""></stim_listB>",,html-keyboard-response,213,1136792,0.0-15.0-1.16,69591,List1B,white,man,,,,null,,,,,,,,,
null,is being looked at by,,html-keyboard-response,214,1138799,0.0-15.0-2.16,69591,List1B,white,man,,,,null,,,,,,,,,
15242,,,survey-text,215,1154046,0.0-15.0-3.16,69591,List1B,white,man,,,,,"{""Q0"":""kate is being looked at by jane""}","<img src=""stim_listB/look8.gif""style=""height:400px;""></stim_listB>",is being looked at by,,,,,,
null,"<div style=""font-size:60px;"">+</div>",,html-keyboard-response,216,1154551,0.0-15.0-0.17,69591,List1B,white,man,,,,null,,,,,,,,,
null,"<img src=""stim_listB/challenge4.gif""style=""height:400px;""></stim_listB>",,html-keyboard-response,217,1156567,0.0-15.0-1.17,69591,List1B,white,man,,,,null,,,,,,,,,
null,is being challenged by,,html-keyboard-response,218,1158583,0.0-15.0-2.17,69591,List1B,white,man,,,,null,,,,,,,,,
16003.7,,,survey-text,219,1174590,0.0-15.0-3.17,69591,List1B,white,man,,,,,"{""Q0"":""luke is being challenged by jane""}","<img src=""stim_listB/challenge4.gif""style=""height:400px;""></stim_listB>",is being challenged by,,,,,,
null,"<div style=""font-size:60px;"">+</div>",,html-keyboard-response,220,1175106,0.0-15.0-0.18,69591,List1B,white,man,,,,null,,,,,,,,,
null,"<img src=""stim_listB/hug1.gif""style=""height:400px;""></stim_listB>",,html-keyboard-response,221,1177131,0.0-15.0-1.18,69591,List1B,white,man,,,,null,,,,,,,,,
null,is hugging,,html-keyboard-response,222,1179138,0.0-15.0-2.18,69591,List1B,white,man,,,,null,,,,,,,,,
9653,,,survey-text,223,1188794,0.0-15.0-3.18,69591,List1B,white,man,,,,,"{""Q0"":""fred is hugging beth""}","<img src=""stim_listB/hug1.gif""style=""height:400px;""></stim_listB>",is hugging,,,,,,
null,"<div style=""font-size:60px;"">+</div>",,html-keyboard-response,224,1189305,0.0-15.0-0.19,69591,List1B,white,man,,,,null,,,,,,,,,
null,"<img src=""stim_listB/oppose7.gif""style=""height:400px;""></stim_listB>",,html-keyboard-response,225,1191320,0.0-15.0-1.19,69591,List1B,white,man,,,,null,,,,,,,,,
null,is opposing,,html-keyboard-response,226,1193326,0.0-15.0-2.19,69591,List1B,white,man,,,,null,,,,,,,,,
12460.2,,,survey-text,227,1205790,0.0-15.0-3.19,69591,List1B,white,man,,,,,"{""Q0"":""kate is opposing jane""}","<img src=""stim_listB/oppose7.gif""style=""height:400px;""></stim_listB>",is opposing,,,,,,
8953.5,"<img src='img/portrait_matrix_list1.jpg' style='width:900px;height:500px;''></img><p>If you have memorised all the portraits and names and are ready to start, press Continue.</p><p><strong>Please note: Your memory of these faces will be tested 4 times during this experiment.</strong></p>",0,html-button-response,228,1214745,0.0-16.0-0.0,69591,List1B,white,man,,,,,,,,,,,,,
4496.4,"<img src=""portrait/WM1.jpg""style=""height:400px;""></img>",6,html-button-response,229,1220257,0.0-16.0-1.0,69591,List1B,white,man,,TRUE,6,,,,,,,,,,
null,CORRECT,,html-keyboard-response,230,1221770,0.0-16.0-2.0-0.0,69591,List1B,white,man,,,,null,,,,,,,,,
3092.8,"<img src=""portrait/WW2.jpg""style=""height:400px;""></img>",3,html-button-response,231,1224865,0.0-16.0-4.0,69591,List1B,white,man,,TRUE,3,,,,,,,,,,
null,CORRECT,,html-keyboard-response,232,1226388,0.0-16.0-5.0-0.0,69591,List1B,white,man,,,,null,,,,,,,,,
3630.7,"<img src=""portrait/BW1.jpg""style=""height:400px;""></img>",0,html-button-response,233,1230022,0.0-16.0-7.0,69591,List1B,white,man,,TRUE,0,,,,,,,,,,
null,CORRECT,,html-keyboard-response,234,1231554,0.0-16.0-8.0-0.0,69591,List1B,white,man,,,,null,,,,,,,,,
2557,"<img src=""portrait/WM2.jpg""style=""height:400px;""></img>",7,html-button-response,235,1234114,0.0-16.0-10.0,69591,List1B,white,man,,TRUE,7,,,,,,,,,,
null,CORRECT,,html-keyboard-response,236,1235629,0.0-16.0-11.0-0.0,69591,List1B,white,man,,,,null,,,,,,,,,
3518.4,"<img src=""portrait/BW2.jpg""style=""height:400px;""></img>",2,html-button-response,237,1239149,0.0-16.0-13.0,69591,List1B,white,man,,TRUE,2,,,,,,,,,,
null,CORRECT,,html-keyboard-response,238,1240665,0.0-16.0-14.0-0.0,69591,List1B,white,man,,,,null,,,,,,,,,
3111,"<img src=""portrait/BM1.jpg""style=""height:400px;""></img>",4,html-button-response,239,1243778,0.0-16.0-16.0,69591,List1B,white,man,,TRUE,4,,,,,,,,,,
null,CORRECT,,html-keyboard-response,240,1245300,0.0-16.0-17.0-0.0,69591,List1B,white,man,,,,null,,,,,,,,,
3492,"<img src=""portrait/WW1.jpg""style=""height:400px;""></img>",1,html-button-response,241,1248795,0.0-16.0-19.0,69591,List1B,white,man,,TRUE,1,,,,,,,,,,
null,CORRECT,,html-keyboard-response,242,1250318,0.0-16.0-20.0-0.0,69591,List1B,white,man,,,,null,,,,,,,,,
3173.6,"<img src=""portrait/BM2.jpg""style=""height:400px;""></img>",5,html-button-response,243,1253493,0.0-16.0-22.0,69591,List1B,white,man,,TRUE,5,,,,,,,,,,
null,CORRECT,,html-keyboard-response,244,1255004,0.0-16.0-23.0-0.0,69591,List1B,white,man,,,,null,,,,,,,,,
1693.9,<p>You got 8 out of 8 right first time. Press Continue.</p>,0,html-button-response,245,1256701,0.0-16.0-25.0,69591,List1B,white,man,,,,,,,,,,,,,
null,"<div style=""font-size:60px;"">+</div>",,html-keyboard-response,246,1258216,0.0-17.0-0.0,69591,List1B,white,man,,,,null,,,,,,,,,
null,"<img src=""stim_listB/oppose3.gif""style=""height:400px;""></stim_listB>",,html-keyboard-response,247,1260225,0.0-17.0-1.0,69591,List1B,white,man,,,,null,,,,,,,,,
null,is opposing,,html-keyboard-response,248,1262232,0.0-17.0-2.0,69591,List1B,white,man,,,,null,,,,,,,,,
11872.7,,,survey-text,249,1274110,0.0-17.0-3.0,69591,List1B,white,man,,,,,"{""Q0"":""dave is opposing jane""}","<img src=""stim_listB/oppose3.gif""style=""height:400px;""></stim_listB>",is opposing,,,,,,
null,"<div style=""font-size:60px;"">+</div>",,html-keyboard-response,250,1274625,0.0-17.0-0.1,69591,List1B,white,man,,,,null,,,,,,,,,
null,"<img src=""stim_listB/challenge6.gif""style=""height:400px;""></stim_listB>",,html-keyboard-response,251,1276629,0.0-17.0-1.1,69591,List1B,white,man,,,,null,,,,,,,,,
null,is being challenged by,,html-keyboard-response,252,1278645,0.0-17.0-2.1,69591,List1B,white,man,,,,null,,,,,,,,,
18485.7,,,survey-text,253,1297134,0.0-17.0-3.1,69591,List1B,white,man,,,,,"{""Q0"":""dave is being challenged by fred""}","<img src=""stim_listB/challenge6.gif""style=""height:400px;""></stim_listB>",is being challenged by,,,,,,
null,"<div style=""font-size:60px;"">+</div>",,html-keyboard-response,254,1297639,0.0-17.0-0.2,69591,List1B,white,man,,,,null,,,,,,,,,
null,"<img src=""stim_listB/kiss6.gif""style=""height:400px;""></stim_listB>",,html-keyboard-response,255,1299645,0.0-17.0-1.2,69591,List1B,white,man,,,,null,,,,,,,,,
null,is being kissed by,,html-keyboard-response,256,1301648,0.0-17.0-2.2,69591,List1B,white,man,,,,null,,,,,,,,,
12516.7,,,survey-text,257,1314170,0.0-17.0-3.2,69591,List1B,white,man,,,,,"{""Q0"":""dave is being kissed by mike""}","<img src=""stim_listB/kiss6.gif""style=""height:400px;""></stim_listB>",is being kissed by,,,,,,
null,"<div style=""font-size:60px;"">+</div>",,html-keyboard-response,258,1314673,0.0-17.0-0.3,69591,List1B,white,man,,,,null,,,,,,,,,
null,"<img src=""stim_listB/seduce5.gif""style=""height:400px;""></stim_listB>",,html-keyboard-response,259,1316687,0.0-17.0-1.3,69591,List1B,white,man,,,,null,,,,,,,,,
null,is seducing,,html-keyboard-response,260,1318692,0.0-17.0-2.3,69591,List1B,white,man,,,,null,,,,,,,,,
16913.7,,,survey-text,261,1335610,0.0-17.0-3.3,69591,List1B,white,man,,,,,"{""Q0"":""dave is seducing fred""}","<img src=""stim_listB/seduce5.gif""style=""height:400px;""></stim_listB>",is seducing,,,,,,
null,"<div style=""font-size:60px;"">+</div>",,html-keyboard-response,262,1336121,0.0-17.0-0.4,69591,List1B,white,man,,,,null,,,,,,,,,
null,"<img src=""stim_listB/oppose1.gif""style=""height:400px;""></stim_listB>",,html-keyboard-response,263,1338126,0.0-17.0-1.4,69591,List1B,white,man,,,,null,,,,,,,,,
null,is opposing,,html-keyboard-response,264,1340136,0.0-17.0-2.4,69591,List1B,white,man,,,,null,,,,,,,,,
12537.4,,,survey-text,265,1352677,0.0-17.0-3.4,69591,List1B,white,man,,,,,"{""Q0"":""mike is opposing kate""}","<img src=""stim_listB/oppose1.gif""style=""height:400px;""></stim_listB>",is opposing,,,,,,
null,"<div style=""font-size:60px;"">+</div>",,html-keyboard-response,266,1353191,0.0-17.0-0.5,69591,List1B,white,man,,,,null,,,,,,,,,
null,"<img src=""stim_listB/seduce3.gif""style=""height:400px;""></stim_listB>",,html-keyboard-response,267,1355200,0.0-17.0-1.5,69591,List1B,white,man,,,,null,,,,,,,,,
null,is seducing,,html-keyboard-response,268,1357207,0.0-17.0-2.5,69591,List1B,white,man,,,,null,,,,,,,,,
12008.6,,,survey-text,269,1369219,0.0-17.0-3.5,69591,List1B,white,man,,,,,"{""Q0"":""jane is seducing luke""}","<img src=""stim_listB/seduce3.gif""style=""height:400px;""></stim_listB>",is seducing,,,,,,
null,"<div style=""font-size:60px;"">+</div>",,html-keyboard-response,270,1369733,0.0-17.0-0.6,69591,List1B,white,man,,,,null,,,,,,,,,
null,"<img src=""stim_listB/touch5.gif""style=""height:400px;""></stim_listB>",,html-keyboard-response,271,1371750,0.0-17.0-1.6,69591,List1B,white,man,,,,null,,,,,,,,,
null,is touching,,html-keyboard-response,272,1373762,0.0-17.0-2.6,69591,List1B,white,man,,,,null,,,,,,,,,
8060.9,,,survey-text,273,1381827,0.0-17.0-3.6,69591,List1B,white,man,,,,,"{""Q0"":""dave is touching mike""}","<img src=""stim_listB/touch5.gif""style=""height:400px;""></stim_listB>",is touching,,,,,,
null,"<div style=""font-size:60px;"">+</div>",,html-keyboard-response,274,1382332,0.0-17.0-0.7,69591,List1B,white,man,,,,null,,,,,,,,,
null,"<img src=""stim_listB/oppose2.gif""style=""height:400px;""></stim_listB>",,html-keyboard-response,275,1384335,0.0-17.0-1.7,69591,List1B,white,man,,,,null,,,,,,,,,
null,is being opposed by,,html-keyboard-response,276,1386349,0.0-17.0-2.7,69591,List1B,white,man,,,,null,,,,,,,,,
11899.3,,,survey-text,277,1398252,0.0-17.0-3.7,69591,List1B,white,man,,,,,"{""Q0"":""beth is being opposed by fred""}","<img src=""stim_listB/oppose2.gif""style=""height:400px;""></stim_listB>",is being opposed by,,,,,,
null,"<div style=""font-size:60px;"">+</div>",,html-keyboard-response,278,1398760,0.0-17.0-0.8,69591,List1B,white,man,,,,null,,,,,,,,,
null,"<img src=""stim_listB/look1.gif""style=""height:400px;""></stim_listB>",,html-keyboard-response,279,1400766,0.0-17.0-1.8,69591,List1B,white,man,,,,null,,,,,,,,,
null,is looking at,,html-keyboard-response,280,1402772,0.0-17.0-2.8,69591,List1B,white,man,,,,null,,,,,,,,,
17946.1,,,survey-text,281,1420722,0.0-17.0-3.8,69591,List1B,white,man,,,,,"{""Q0"":""fred is looking at beth""}","<img src=""stim_listB/look1.gif""style=""height:400px;""></stim_listB>",is looking at,,,,,,
null,"<div style=""font-size:60px;"">+</div>",,html-keyboard-response,282,1421226,0.0-17.0-0.9,69591,List1B,white,man,,,,null,,,,,,,,,
null,"<img src=""stim_listB/challenge7.gif""style=""height:400px;""></stim_listB>",,html-keyboard-response,283,1423231,0.0-17.0-1.9,69591,List1B,white,man,,,,null,,,,,,,,,
null,is challenging,,html-keyboard-response,284,1425238,0.0-17.0-2.9,69591,List1B,white,man,,,,null,,,,,,,,,
13858.3,,,survey-text,285,1439098,0.0-17.0-3.9,69591,List1B,white,man,,,,,"{""Q0"":""kate is challenging ruth""}","<img src=""stim_listB/challenge7.gif""style=""height:400px;""></stim_listB>",is challenging,,,,,,
null,"<div style=""font-size:60px;"">+</div>",,html-keyboard-response,286,1439612,0.0-17.0-0.10,69591,List1B,white,man,,,,null,,,,,,,,,
null,"<img src=""stim_listB/hug4.gif""style=""height:400px;""></stim_listB>",,html-keyboard-response,287,1441630,0.0-17.0-1.10,69591,List1B,white,man,,,,null,,,,,,,,,
null,is being hugged by,,html-keyboard-response,288,1443636,0.0-17.0-2.10,69591,List1B,white,man,,,,null,,,,,,,,,
12712.6,,,survey-text,289,1456352,0.0-17.0-3.10,69591,List1B,white,man,,,,,"{""Q0"":""jane is being hugged by dave""}","<img src=""stim_listB/hug4.gif""style=""height:400px;""></stim_listB>",is being hugged by,,,,,,
null,"<div style=""font-size:60px;"">+</div>",,html-keyboard-response,290,1456865,0.0-17.0-0.11,69591,List1B,white,man,,,,null,,,,,,,,,
null,"<img src=""stim_listB/copy8.gif""style=""height:400px;""></stim_listB>",,html-keyboard-response,291,1458876,0.0-17.0-1.11,69591,List1B,white,man,,,,null,,,,,,,,,
null,is being copied by,,html-keyboard-response,292,1460893,0.0-17.0-2.11,69591,List1B,white,man,,,,null,,,,,,,,,
20838.6,,,survey-text,293,1481735,0.0-17.0-3.11,69591,List1B,white,man,,,,,"{""Q0"":""jane is being copied by beth""}","<img src=""stim_listB/copy8.gif""style=""height:400px;""></stim_listB>",is being copied by,,,,,,
null,"<div style=""font-size:60px;"">+</div>",,html-keyboard-response,294,1482245,0.0-17.0-0.12,69591,List1B,white,man,,,,null,,,,,,,,,
null,"<img src=""stim_listB/copy3.gif""style=""height:400px;""></stim_listB>",,html-keyboard-response,295,1484262,0.0-17.0-1.12,69591,List1B,white,man,,,,null,,,,,,,,,
null,is copying,,html-keyboard-response,296,1486265,0.0-17.0-2.12,69591,List1B,white,man,,,,null,,,,,,,,,
11362.5,,,survey-text,297,1497633,0.0-17.0-3.12,69591,List1B,white,man,,,,,"{""Q0"":""dave is copying ruth""}","<img src=""stim_listB/copy3.gif""style=""height:400px;""></stim_listB>",is copying,,,,,,
null,"<div style=""font-size:60px;"">+</div>",,html-keyboard-response,298,1498141,0.0-17.0-0.13,69591,List1B,white,man,,,,null,,,,,,,,,
null,"<img src=""stim_listB/shout7.gif""style=""height:400px;""></stim_listB>",,html-keyboard-response,299,1500146,0.0-17.0-1.13,69591,List1B,white,man,,,,null,,,,,,,,,
null,is shouting at,,html-keyboard-response,300,1502156,0.0-17.0-2.13,69591,List1B,white,man,,,,null,,,,,,,,,
14402.5,,,survey-text,301,1516563,0.0-17.0-3.13,69591,List1B,white,man,,,,,"{""Q0"":""ruth is shouting at beth""}","<img src=""stim_listB/shout7.gif""style=""height:400px;""></stim_listB>",is shouting at,,,,,,
null,"<div style=""font-size:60px;"">+</div>",,html-keyboard-response,302,1517071,0.0-17.0-0.14,69591,List1B,white,man,,,,null,,,,,,,,,
null,"<img src=""stim_listB/kiss1.gif""style=""height:400px;""></stim_listB>",,html-keyboard-response,303,1519075,0.0-17.0-1.14,69591,List1B,white,man,,,,null,,,,,,,,,
null,is kissing,,html-keyboard-response,304,1521077,0.0-17.0-2.14,69591,List1B,white,man,,,,null,,,,,,,,,
8270.8,,,survey-text,305,1529352,0.0-17.0-3.14,69591,List1B,white,man,,,,,"{""Q0"":""fred is kissing beth""}","<img src=""stim_listB/kiss1.gif""style=""height:400px;""></stim_listB>",is kissing,,,,,,
null,"<div style=""font-size:60px;"">+</div>",,html-keyboard-response,306,1529859,0.0-17.0-0.15,69591,List1B,white,man,,,,null,,,,,,,,,
null,"<img src=""stim_listB/copy2.gif""style=""height:400px;""></stim_listB>",,html-keyboard-response,307,1531875,0.0-17.0-1.15,69591,List1B,white,man,,,,null,,,,,,,,,
null,is being copied by,,html-keyboard-response,308,1533891,0.0-17.0-2.15,69591,List1B,white,man,,,,null,,,,,,,,,
15036.8,,,survey-text,309,1548932,0.0-17.0-3.15,69591,List1B,white,man,,,,,"{""Q0"":""fred is being copied by kate""}","<img src=""stim_listB/copy2.gif""style=""height:400px;""></stim_listB>",is being copied by,,,,,,
null,"<div style=""font-size:60px;"">+</div>",,html-keyboard-response,310,1549444,0.0-17.0-0.16,69591,List1B,white,man,,,,null,,,,,,,,,
null,"<img src=""stim_listB/greet6.gif""style=""height:400px;""></stim_listB>",,html-keyboard-response,311,1551449,0.0-17.0-1.16,69591,List1B,white,man,,,,null,,,,,,,,,
null,is being greeted by,,html-keyboard-response,312,1553459,0.0-17.0-2.16,69591,List1B,white,man,,,,null,,,,,,,,,
13799.3,,,survey-text,313,1567260,0.0-17.0-3.16,69591,List1B,white,man,,,,,"{""Q0"":""dave is being greeted by fred""}","<img src=""stim_listB/greet6.gif""style=""height:400px;""></stim_listB>",is being greeted by,,,,,,
null,"<div style=""font-size:60px;"">+</div>",,html-keyboard-response,314,1567768,0.0-17.0-0.17,69591,List1B,white,man,,,,null,,,,,,,,,
null,"<img src=""stim_listB/kiss5.gif""style=""height:400px;""></stim_listB>",,html-keyboard-response,315,1569784,0.0-17.0-1.17,69591,List1B,white,man,,,,null,,,,,,,,,
null,is kissing,,html-keyboard-response,316,1571800,0.0-17.0-2.17,69591,List1B,white,man,,,,null,,,,,,,,,
9938.8,,,survey-text,317,1581743,0.0-17.0-3.17,69591,List1B,white,man,,,,,"{""Q0"":""fred is kissing luke""}","<img src=""stim_listB/kiss5.gif""style=""height:400px;""></stim_listB>",is kissing,,,,,,
null,"<div style=""font-size:60px;"">+</div>",,html-keyboard-response,318,1582245,0.0-17.0-0.18,69591,List1B,white,man,,,,null,,,,,,,,,
null,"<img src=""stim_listB/hug3.gif""style=""height:400px;""></stim_listB>",,html-keyboard-response,319,1584255,0.0-17.0-1.18,69591,List1B,white,man,,,,null,,,,,,,,,
null,is hugging,,html-keyboard-response,320,1586268,0.0-17.0-2.18,69591,List1B,white,man,,,,null,,,,,,,,,
10545,,,survey-text,321,1596817,0.0-17.0-3.18,69591,List1B,white,man,,,,,"{""Q0"":""ruth is hugging luke""}","<img src=""stim_listB/hug3.gif""style=""height:400px;""></stim_listB>",is hugging,,,,,,
null,"<div style=""font-size:60px;"">+</div>",,html-keyboard-response,322,1597323,0.0-17.0-0.19,69591,List1B,white,man,,,,null,,,,,,,,,
null,"<img src=""stim_listB/seduce2.gif""style=""height:400px;""></stim_listB>",,html-keyboard-response,323,1599336,0.0-17.0-1.19,69591,List1B,white,man,,,,null,,,,,,,,,
null,is being seduced by,,html-keyboard-response,324,1601342,0.0-17.0-2.19,69591,List1B,white,man,,,,null,,,,,,,,,
14330,,,survey-text,325,1615676,0.0-17.0-3.19,69591,List1B,white,man,,,,,"{""Q0"":""mike is being seduced by beth""}","<img src=""stim_listB/seduce2.gif""style=""height:400px;""></stim_listB>",is being seduced by,,,,,,
4951.9,"<img src='img/portrait_matrix_list1.jpg' style='width:900px;height:500px;''></img><p>If you have memorised all the portraits and names and are ready to start, press Continue.</p><p><strong>Please note: Your memory of these faces will be tested 4 times during this experiment.</strong></p>",0,html-button-response,326,1620629,0.0-18.0-0.0,69591,List1B,white,man,,,,,,,,,,,,,
2141.9,"<img src=""portrait/BM1.jpg""style=""height:400px;""></img>",4,html-button-response,327,1623776,0.0-18.0-1.0,69591,List1B,white,man,,TRUE,4,,,,,,,,,,
null,CORRECT,,html-keyboard-response,328,1625305,0.0-18.0-2.0-0.0,69591,List1B,white,man,,,,null,,,,,,,,,
3279.7,"<img src=""portrait/WW2.jpg""style=""height:400px;""></img>",3,html-button-response,329,1628587,0.0-18.0-4.0,69591,List1B,white,man,,TRUE,3,,,,,,,,,,
null,CORRECT,,html-keyboard-response,330,1630110,0.0-18.0-5.0-0.0,69591,List1B,white,man,,,,null,,,,,,,,,
4970.7,"<img src=""portrait/WM1.jpg""style=""height:400px;""></img>",6,html-button-response,331,1635083,0.0-18.0-7.0,69591,List1B,white,man,,TRUE,6,,,,,,,,,,
null,CORRECT,,html-keyboard-response,332,1636609,0.0-18.0-8.0-0.0,69591,List1B,white,man,,,,null,,,,,,,,,
4247,"<img src=""portrait/BW2.jpg""style=""height:400px;""></img>",2,html-button-response,333,1640858,0.0-18.0-10.0,69591,List1B,white,man,,TRUE,2,,,,,,,,,,
null,CORRECT,,html-keyboard-response,334,1642368,0.0-18.0-11.0-0.0,69591,List1B,white,man,,,,null,,,,,,,,,
6151.7,"<img src=""portrait/WW1.jpg""style=""height:400px;""></img>",1,html-button-response,335,1648522,0.0-18.0-13.0,69591,List1B,white,man,,TRUE,1,,,,,,,,,,
null,CORRECT,,html-keyboard-response,336,1650044,0.0-18.0-14.0-0.0,69591,List1B,white,man,,,,null,,,,,,,,,
2871.6,"<img src=""portrait/BM2.jpg""style=""height:400px;""></img>",5,html-button-response,337,1652918,0.0-18.0-16.0,69591,List1B,white,man,,TRUE,5,,,,,,,,,,
null,CORRECT,,html-keyboard-response,338,1654420,0.0-18.0-17.0-0.0,69591,List1B,white,man,,,,null,,,,,,,,,
2433.7,"<img src=""portrait/WM2.jpg""style=""height:400px;""></img>",7,html-button-response,339,1656856,0.0-18.0-19.0,69591,List1B,white,man,,TRUE,7,,,,,,,,,,
null,CORRECT,,html-keyboard-response,340,1658387,0.0-18.0-20.0-0.0,69591,List1B,white,man,,,,null,,,,,,,,,
4384.4,"<img src=""portrait/BW1.jpg""style=""height:400px;""></img>",0,html-button-response,341,1662773,0.0-18.0-22.0,69591,List1B,white,man,,TRUE,0,,,,,,,,,,
null,CORRECT,,html-keyboard-response,342,1664281,0.0-18.0-23.0-0.0,69591,List1B,white,man,,,,null,,,,,,,,,
1666.2,<p>You got 8 out of 8 right first time. Press Continue.</p>,0,html-button-response,343,1665950,0.0-18.0-25.0,69591,List1B,white,man,,,,,,,,,,,,,
null,"<div style=""font-size:60px;"">+</div>",,html-keyboard-response,344,1667488,0.0-19.0-0.0,69591,List1B,white,man,,,,null,,,,,,,,,
null,"<img src=""stim_listB/shout8.gif""style=""height:400px;""></stim_listB>",,html-keyboard-response,345,1669502,0.0-19.0-1.0,69591,List1B,white,man,,,,null,,,,,,,,,
null,is being shouted at by,,html-keyboard-response,346,1671518,0.0-19.0-2.0,69591,List1B,white,man,,,,null,,,,,,,,,
13648.6,,,survey-text,347,1685172,0.0-19.0-3.0,69591,List1B,white,man,,,,,"{""Q0"":""jane is being shouted at by kate""}","<img src=""stim_listB/shout8.gif""style=""height:400px;""></stim_listB>",is being shouted at by,,,,,,
null,"<div style=""font-size:60px;"">+</div>",,html-keyboard-response,348,1685681,0.0-19.0-0.1,69591,List1B,white,man,,,,null,,,,,,,,,
null,"<img src=""stim_listB/greet1.gif""style=""height:400px;""></stim_listB>",,html-keyboard-response,349,1687692,0.0-19.0-1.1,69591,List1B,white,man,,,,null,,,,,,,,,
null,is greeting,,html-keyboard-response,350,1689698,0.0-19.0-2.1,69591,List1B,white,man,,,,null,,,,,,,,,
8532.8,,,survey-text,351,1698235,0.0-19.0-3.1,69591,List1B,white,man,,,,,"{""Q0"":""mike is greeting beth""}","<img src=""stim_listB/greet1.gif""style=""height:400px;""></stim_listB>",is greeting,,,,,,
null,"<div style=""font-size:60px;"">+</div>",,html-keyboard-response,352,1698751,0.0-19.0-0.2,69591,List1B,white,man,,,,null,,,,,,,,,
null,"<img src=""stim_listB/look3.gif""style=""height:400px;""></stim_listB>",,html-keyboard-response,353,1700766,0.0-19.0-1.2,69591,List1B,white,man,,,,null,,,,,,,,,
null,is looking at,,html-keyboard-response,354,1702777,0.0-19.0-2.2,69591,List1B,white,man,,,,null,,,,,,,,,
8609.6,,,survey-text,355,1711390,0.0-19.0-3.2,69591,List1B,white,man,,,,,"{""Q0"":""luke is looking at ruth""}","<img src=""stim_listB/look3.gif""style=""height:400px;""></stim_listB>",is looking at,,,,,,
null,"<div style=""font-size:60px;"">+</div>",,html-keyboard-response,356,1711911,0.0-19.0-0.3,69591,List1B,white,man,,,,null,,,,,,,,,
null,"<img src=""stim_listB/kiss7.gif""style=""height:400px;""></stim_listB>",,html-keyboard-response,357,1713935,0.0-19.0-1.3,69591,List1B,white,man,,,,null,,,,,,,,,
null,is kissing,,html-keyboard-response,358,1715941,0.0-19.0-2.3,69591,List1B,white,man,,,,null,,,,,,,,,
7685,,,survey-text,359,1723630,0.0-19.0-3.3,69591,List1B,white,man,,,,,"{""Q0"":""ruth is kissing beth""}","<img src=""stim_listB/kiss7.gif""style=""height:400px;""></stim_listB>",is kissing,,,,,,
null,"<div style=""font-size:60px;"">+</div>",,html-keyboard-response,360,1724131,0.0-19.0-0.4,69591,List1B,white,man,,,,null,,,,,,,,,
null,"<img src=""stim_listB/hug5.gif""style=""height:400px;""></stim_listB>",,html-keyboard-response,361,1726137,0.0-19.0-1.4,69591,List1B,white,man,,,,null,,,,,,,,,
null,is hugging,,html-keyboard-response,362,1728147,0.0-19.0-2.4,69591,List1B,white,man,,,,null,,,,,,,,,
12723.5,,,survey-text,363,1740876,0.0-19.0-3.4,69591,List1B,white,man,,,,,"{""Q0"":""fred is hugging luke""}","<img src=""stim_listB/hug5.gif""style=""height:400px;""></stim_listB>",is hugging,,,,,,
null,"<div style=""font-size:60px;"">+</div>",,html-keyboard-response,364,1741379,0.0-19.0-0.5,69591,List1B,white,man,,,,null,,,,,,,,,
null,"<img src=""stim_listB/copy1.gif""style=""height:400px;""></stim_listB>",,html-keyboard-response,365,1743388,0.0-19.0-1.5,69591,List1B,white,man,,,,null,,,,,,,,,
null,is copying,,html-keyboard-response,366,1745395,0.0-19.0-2.5,69591,List1B,white,man,,,,null,,,,,,,,,
8540.7,,,survey-text,367,1753940,0.0-19.0-3.5,69591,List1B,white,man,,,,,"{""Q0"":""mike is copying beth""}","<img src=""stim_listB/copy1.gif""style=""height:400px;""></stim_listB>",is copying,,,,,,
null,"<div style=""font-size:60px;"">+</div>",,html-keyboard-response,368,1754450,0.0-19.0-0.6,69591,List1B,white,man,,,,null,,,,,,,,,
null,"<img src=""stim_listB/hug6.gif""style=""height:400px;""></stim_listB>",,html-keyboard-response,369,1756461,0.0-19.0-1.6,69591,List1B,white,man,,,,null,,,,,,,,,
null,is being hugged by,,html-keyboard-response,370,1758466,0.0-19.0-2.6,69591,List1B,white,man,,,,null,,,,,,,,,
7640.6,,,survey-text,371,1766111,0.0-19.0-3.6,69591,List1B,white,man,,,,,"{""Q0"":""dave is being hugged by mike""}","<img src=""stim_listB/hug6.gif""style=""height:400px;""></stim_listB>",is being hugged by,,,,,,
null,"<div style=""font-size:60px;"">+</div>",,html-keyboard-response,372,1766618,0.0-19.0-0.7,69591,List1B,white,man,,,,null,,,,,,,,,
null,"<img src=""stim_listB/greet3.gif""style=""height:400px;""></stim_listB>",,html-keyboard-response,373,1768635,0.0-19.0-1.7,69591,List1B,white,man,,,,null,,,,,,,,,
null,is greeting,,html-keyboard-response,374,1770645,0.0-19.0-2.7,69591,List1B,white,man,,,,null,,,,,,,,,
7246.5,,,survey-text,375,1777895,0.0-19.0-3.7,69591,List1B,white,man,,,,,"{""Q0"":""dave is greeting ruth""}","<img src=""stim_listB/greet3.gif""style=""height:400px;""></stim_listB>",is greeting,,,,,,
null,"<div style=""font-size:60px;"">+</div>",,html-keyboard-response,376,1778402,0.0-19.0-0.8,69591,List1B,white,man,,,,null,,,,,,,,,
null,"<img src=""stim_listB/look4.gif""style=""height:400px;""></stim_listB>",,html-keyboard-response,377,1780412,0.0-19.0-1.8,69591,List1B,white,man,,,,null,,,,,,,,,
null,is being looked at by,,html-keyboard-response,378,1782417,0.0-19.0-2.8,69591,List1B,white,man,,,,null,,,,,,,,,
10092.1,,,survey-text,379,1792512,0.0-19.0-3.8,69591,List1B,white,man,,,,,"{""Q0"":""dave is being looked at by jane""}","<img src=""stim_listB/look4.gif""style=""height:400px;""></stim_listB>",is being looked at by,,,,,,
null,"<div style=""font-size:60px;"">+</div>",,html-keyboard-response,380,1793026,0.0-19.0-0.9,69591,List1B,white,man,,,,null,,,,,,,,,
null,"<img src=""stim_listB/oppose6.gif""style=""height:400px;""></stim_listB>",,html-keyboard-response,381,1795043,0.0-19.0-1.9,69591,List1B,white,man,,,,null,,,,,,,,,
null,is being opposed by,,html-keyboard-response,382,1797049,0.0-19.0-2.9,69591,List1B,white,man,,,,null,,,,,,,,,
10979.8,,,survey-text,383,1808033,0.0-19.0-3.9,69591,List1B,white,man,,,,,"{""Q0"":""luke is being opposed by fred""}","<img src=""stim_listB/oppose6.gif""style=""height:400px;""></stim_listB>",is being opposed by,,,,,,
null,"<div style=""font-size:60px;"">+</div>",,html-keyboard-response,384,1808537,0.0-19.0-0.10,69591,List1B,white,man,,,,null,,,,,,,,,
null,"<img src=""stim_listB/seduce8.gif""style=""height:400px;""></stim_listB>",,html-keyboard-response,385,1810550,0.0-19.0-1.10,69591,List1B,white,man,,,,null,,,,,,,,,
null,is being seduced by,,html-keyboard-response,386,1812557,0.0-19.0-2.10,69591,List1B,white,man,,,,null,,,,,,,,,
16166.2,,,survey-text,387,1828730,0.0-19.0-3.10,69591,List1B,white,man,,,,,"{""Q0"":""jane is being seduced by kate""}","<img src=""stim_listB/seduce8.gif""style=""height:400px;""></stim_listB>",is being seduced by,,,,,,
null,"<div style=""font-size:60px;"">+</div>",,html-keyboard-response,388,1829235,0.0-19.0-0.11,69591,List1B,white,man,,,,null,,,,,,,,,
null,"<img src=""stim_listB/shout5.gif""style=""height:400px;""></stim_listB>",,html-keyboard-response,389,1831244,0.0-19.0-1.11,69591,List1B,white,man,,,,null,,,,,,,,,
null,is shouting at,,html-keyboard-response,390,1833247,0.0-19.0-2.11,69591,List1B,white,man,,,,null,,,,,,,,,
13082.4,,,survey-text,391,1846332,0.0-19.0-3.11,69591,List1B,white,man,,,,,"{""Q0"":""fred is shouting at luke""}","<img src=""stim_listB/shout5.gif""style=""height:400px;""></stim_listB>",is shouting at,,,,,,
null,"<div style=""font-size:60px;"">+</div>",,html-keyboard-response,392,1846837,0.0-19.0-0.12,69591,List1B,white,man,,,,null,,,,,,,,,
null,"<img src=""stim_listB/oppose4.gif""style=""height:400px;""></stim_listB>",,html-keyboard-response,393,1848845,0.0-19.0-1.12,69591,List1B,white,man,,,,null,,,,,,,,,
null,is being opposed by,,html-keyboard-response,394,1850851,0.0-19.0-2.12,69591,List1B,white,man,,,,null,,,,,,,,,
11374.7,,,survey-text,395,1862228,0.0-19.0-3.12,69591,List1B,white,man,,,,,"{""Q0"":""ruth is being opposed by luke""}","<img src=""stim_listB/oppose4.gif""style=""height:400px;""></stim_listB>",is being opposed by,,,,,,
null,"<div style=""font-size:60px;"">+</div>",,html-keyboard-response,396,1862732,0.0-19.0-0.13,69591,List1B,white,man,,,,null,,,,,,,,,
null,"<img src=""stim_listB/greet8.gif""style=""height:400px;""></stim_listB>",,html-keyboard-response,397,1864743,0.0-19.0-1.13,69591,List1B,white,man,,,,null,,,,,,,,,
null,is being greeted by,,html-keyboard-response,398,1866754,0.0-19.0-2.13,69591,List1B,white,man,,,,null,,,,,,,,,
11893.9,,,survey-text,399,1878651,0.0-19.0-3.13,69591,List1B,white,man,,,,,"{""Q0"":""jane is being greeted by beth""}","<img src=""stim_listB/greet8.gif""style=""height:400px;""></stim_listB>",is being greeted by,,,,,,
null,"<div style=""font-size:60px;"">+</div>",,html-keyboard-response,400,1879156,0.0-19.0-0.14,69591,List1B,white,man,,,,null,,,,,,,,,
null,"<img src=""stim_listB/challenge8.gif""style=""height:400px;""></stim_listB>",,html-keyboard-response,401,1881163,0.0-19.0-1.14,69591,List1B,white,man,,,,null,,,,,,,,,
null,is being challenged by,,html-keyboard-response,402,1883171,0.0-19.0-2.14,69591,List1B,white,man,,,,null,,,,,,,,,
19876.5,,,survey-text,403,1903051,0.0-19.0-3.14,69591,List1B,white,man,,,,,"{""Q0"":""jane is being challenged by beth""}","<img src=""stim_listB/challenge8.gif""style=""height:400px;""></stim_listB>",is being challenged by,,,,,,
null,"<div style=""font-size:60px;"">+</div>",,html-keyboard-response,404,1903559,0.0-19.0-0.15,69591,List1B,white,man,,,,null,,,,,,,,,
null,"<img src=""stim_listB/shout6.gif""style=""height:400px;""></stim_listB>",,html-keyboard-response,405,1905573,0.0-19.0-1.15,69591,List1B,white,man,,,,null,,,,,,,,,
null,is being shouted at by,,html-keyboard-response,406,1907579,0.0-19.0-2.15,69591,List1B,white,man,,,,null,,,,,,,,,
11749.1,,,survey-text,407,1919331,0.0-19.0-3.15,69591,List1B,white,man,,,,,"{""Q0"":""dave is being shouted at by mike""}","<img src=""stim_listB/shout6.gif""style=""height:400px;""></stim_listB>",is being shouted at by,,,,,,
null,"<div style=""font-size:60px;"">+</div>",,html-keyboard-response,408,1919843,0.0-19.0-0.16,69591,List1B,white,man,,,,null,,,,,,,,,
null,"<img src=""stim_listB/look2.gif""style=""height:400px;""></stim_listB>",,html-keyboard-response,409,1921861,0.0-19.0-1.16,69591,List1B,white,man,,,,null,,,,,,,,,
null,is being looked at by,,html-keyboard-response,410,1923875,0.0-19.0-2.16,69591,List1B,white,man,,,,null,,,,,,,,,
10890.3,,,survey-text,411,1934768,0.0-19.0-3.16,69591,List1B,white,man,,,,,"{""Q0"":""mike is being looked at by kate""}","<img src=""stim_listB/look2.gif""style=""height:400px;""></stim_listB>",is being looked at by,,,,,,
null,"<div style=""font-size:60px;"">+</div>",,html-keyboard-response,412,1935284,0.0-19.0-0.17,69591,List1B,white,man,,,,null,,,,,,,,,
null,"<img src=""stim_listB/seduce4.gif""style=""height:400px;""></stim_listB>",,html-keyboard-response,413,1937297,0.0-19.0-1.17,69591,List1B,white,man,,,,null,,,,,,,,,
null,is being seduced by,,html-keyboard-response,414,1939307,0.0-19.0-2.17,69591,List1B,white,man,,,,null,,,,,,,,,
11353.1,,,survey-text,415,1950662,0.0-19.0-3.17,69591,List1B,white,man,,,,,"{""Q0"":""dave is being seduced by  ruth""}","<img src=""stim_listB/seduce4.gif""style=""height:400px;""></stim_listB>",is being seduced by,,,,,,
null,"<div style=""font-size:60px;"">+</div>",,html-keyboard-response,416,1951170,0.0-19.0-0.18,69591,List1B,white,man,,,,null,,,,,,,,,
null,"<img src=""stim_listB/copy6.gif""style=""height:400px;""></stim_listB>",,html-keyboard-response,417,1953183,0.0-19.0-1.18,69591,List1B,white,man,,,,null,,,,,,,,,
null,is being copied by,,html-keyboard-response,418,1955190,0.0-19.0-2.18,69591,List1B,white,man,,,,null,,,,,,,,,
9444.6,,,survey-text,419,1964637,0.0-19.0-3.18,69591,List1B,white,man,,,,,"{""Q0"":""fred is being copied by dave""}","<img src=""stim_listB/copy6.gif""style=""height:400px;""></stim_listB>",is being copied by,,,,,,
null,"<div style=""font-size:60px;"">+</div>",,html-keyboard-response,420,1965148,0.0-19.0-0.19,69591,List1B,white,man,,,,null,,,,,,,,,
null,"<img src=""stim_listB/challenge2.gif""style=""height:400px;""></stim_listB>",,html-keyboard-response,421,1967152,0.0-19.0-1.19,69591,List1B,white,man,,,,null,,,,,,,,,
null,is being challenged by,,html-keyboard-response,422,1969169,0.0-19.0-2.19,69591,List1B,white,man,,,,null,,,,,,,,,
16645.3,,,survey-text,423,1985819,0.0-19.0-3.19,69591,List1B,white,man,,,,,"{""Q0"":""fred is being challenged by kate""}","<img src=""stim_listB/challenge2.gif""style=""height:400px;""></stim_listB>",is being challenged by,,,,,,
4982.3,<p>Thank you for completing that task.</p><p>The final part of this session is a questionnaire that will take about 4 minutes.</p><p>Press Continue.</p>,0,html-button-response,424,1990803,0.0-20.0,69591,List1B,white,man,,,,,,,,,,,,,
35120.7,,,survey-text,425,2026945,0.0-21.0,69591,List1B,white,man,,,,,"{""Q0"":""30"",""Q1"":""english"",""Q2"":""english"",""Q3"":""USA"",""Q4"":""American"",""Q5"":""white"",""Q6"":""male""}",,,demographics,,,,,
2483.1,<p>Have you lived in the USA for the last 5 years or more?</p>,0,html-button-response,426,2029430,0.0-22.0,69591,List1B,white,man,,,,,,,,fiveyears,,,,,
2578.9,<p>Move the slider to show the extent to which you agree with the following statements.</p>,0,html-button-response,427,2033013,0.0-23.0,69591,List1B,white,man,,,,,,,,,,,,,
3527,,,html-slider-response,428,2037560,0.0-24.0-0.0-0.0,69591,List1B,white,man,,,,,,,,survey_race,74,,,I am glad to be my age.,filler
5143.8,,,html-slider-response,429,2042705,0.0-24.0-0.0-0.1,69591,List1B,white,man,,,,,,,,survey_race,92,,,I feel a bond with my race.,bond
3306.5,,,html-slider-response,430,2046014,0.0-24.0-0.0-0.2,69591,List1B,white,man,,,,,,,,survey_race,92,,,I have a lot in common with people of a similar age to me.,filler
3843.5,,,html-slider-response,431,2049859,0.0-24.0-0.0-0.3,69591,List1B,white,man,,,,,,,,survey_race,80,,,Getting older does not worry me.,filler
4536.9,,,html-slider-response,432,2054397,0.0-24.0-0.0-0.4,69591,List1B,white,man,,,,,,,,survey_race,92,,,Being my race gives me a good feeling.,feeling
3580.6,,,html-slider-response,433,2057980,0.0-24.0-0.0-0.5,69591,List1B,white,man,,,,,,,,survey_race,89,,,I have a lot in common with the average person of my race.,average
3357.9,,,html-slider-response,434,2061339,0.0-24.0-0.0-0.6,69591,List1B,white,man,,,,,,,,survey_race,86,,,It is pleasant to be my race.,pleasant
3885.7,,,html-slider-response,435,2065227,0.0-24.0-0.0-0.7,69591,List1B,white,man,,,,,,,,survey_race,90,,,I am similar to the average person of my race.,similar
3764.2,,,html-slider-response,436,2068993,0.0-24.0-0.0-0.8,69591,List1B,white,man,,,,,,,,survey_race,90,,,I often think about the fact that I am my race.,often
3348.9,,,html-slider-response,437,2072343,0.0-24.0-0.0-0.9,69591,List1B,white,man,,,,,,,,survey_race,88,,,People of my race are very similar to each other.,verysimilar
3508.8,,,html-slider-response,438,2075854,0.0-24.0-0.0-0.10,69591,List1B,white,man,,,,,,,,survey_race,90,,,People of my race have a lot in common with each other.,common
2839.9,,,html-slider-response,439,2078696,0.0-24.0-0.0-0.11,69591,List1B,white,man,,,,,,,,survey_race,98,,,I feel committed to my race.,committed
3490.3,,,html-slider-response,440,2082187,0.0-24.0-0.0-0.12,69591,List1B,white,man,,,,,,,,survey_race,93,,,I consider myself an extrovert.,filler
3470.1,,,html-slider-response,441,2085659,0.0-24.0-0.0-0.13,69591,List1B,white,man,,,,,,,,survey_race,93,,,I enjoy being in large groups.,filler
3134.2,,,html-slider-response,442,2088795,0.0-24.0-0.0-0.14,69591,List1B,white,man,,,,,,,,survey_race,96,,,I feel solidarity with my race.,solidarity
3295.9,,,html-slider-response,443,2092092,0.0-24.0-0.0-0.15,69591,List1B,white,man,,,,,,,,survey_race,96,,,I often think about the fact that I am my age.,filler
3357.2,,,html-slider-response,444,2095452,0.0-24.0-0.0-0.16,69591,List1B,white,man,,,,,,,,survey_race,93,,,"The older I get, the wiser I feel.",filler
3529.6,,,html-slider-response,445,2098984,0.0-24.0-0.0-0.17,69591,List1B,white,man,,,,,,,,survey_race,97,,,I feel solidarity with people the same age as me.,filler
3379.8,,,html-slider-response,446,2102365,0.0-24.0-0.0-0.18,69591,List1B,white,man,,,,,,,,survey_race,97,,,I am glad to be my race.,glad
3773.9,,,html-slider-response,447,2106140,0.0-24.0-0.0-0.19,69591,List1B,white,man,,,,,,,,survey_race,98,,,I think that my race has a lot to be proud of.,proud
3134.6,,,html-slider-response,448,2109277,0.0-24.0-0.0-0.20,69591,List1B,white,man,,,,,,,,survey_race,96,,,Being my age gives me a good feeling.,filler
4901.1,,,html-slider-response,449,2114180,0.0-24.0-0.0-0.21,69591,List1B,white,man,,,,,,,,survey_race,98,,,People my age have a lot in common with each other.,filler
4049.9,,,html-slider-response,450,2118232,0.0-24.0-0.0-0.22,69591,List1B,white,man,,,,,,,,survey_race,97,,,The fact that I am my race is an important part of my identity.,identity
3388.2,,,html-slider-response,451,2121622,0.0-24.0-0.0-0.23,69591,List1B,white,man,,,,,,,,survey_race,97,,,I am glad to be the age I am.,filler
3479.1,,,html-slider-response,452,2125103,0.0-24.0-0.0-0.24,69591,List1B,white,man,,,,,,,,survey_race,98,,,I feel a bond with people the same age as me.,filler
4251.6,,,html-slider-response,453,2129355,0.0-24.0-0.0-0.25,69591,List1B,white,man,,,,,,,,survey_race,8,,,My age is not an important part of who I am.,filler
3733.5,,,html-slider-response,454,2133091,0.0-24.0-0.0-0.26,69591,List1B,white,man,,,,,,,,survey_race,4,,,I consider myself an introvert.,filler
4291.8,,,html-slider-response,455,2137384,0.0-24.0-0.0-0.27,69591,List1B,white,man,,,,,,,,survey_race,96,,,Being my race is an important part of how I see myself.,important
8187.3,,,html-slider-response,456,2145574,0.0-24.0-1.0-0.0,69591,List1B,white,man,,,,,,,,survey_gender,52,,,Routine is not important to me.,filler
3590.7,,,html-slider-response,457,2149166,0.0-24.0-1.0-0.1,69591,List1B,white,man,,,,,,,,survey_gender,92,,,I feel solidarity with my friends.,filler
3581.3,,,html-slider-response,458,2152749,0.0-24.0-1.0-0.2,69591,List1B,white,man,,,,,,,,survey_gender,92,,,I often think about the fact that I am my gender.,often
3865.3,,,html-slider-response,459,2156616,0.0-24.0-1.0-0.3,69591,List1B,white,man,,,,,,,,survey_gender,93,,,The fact that I am my gender is an important part of my identity.,identity
3530.4,,,html-slider-response,460,2160148,0.0-24.0-1.0-0.4,69591,List1B,white,man,,,,,,,,survey_gender,94,,,I consider myself a highly empathetic person.,filler
3946.3,,,html-slider-response,461,2164096,0.0-24.0-1.0-0.5,69591,List1B,white,man,,,,,,,,survey_gender,99,,,I think that my gender has a lot to be proud of.,proud
3489.1,,,html-slider-response,462,2167586,0.0-24.0-1.0-0.6,69591,List1B,white,man,,,,,,,,survey_gender,92,,,People of my gender have a lot in common with each other.,common
3529.4,,,html-slider-response,463,2171117,0.0-24.0-1.0-0.7,69591,List1B,white,man,,,,,,,,survey_gender,93,,,Most of the friends in my life are very similar to me.,filler
7001,,,html-slider-response,464,2178119,0.0-24.0-1.0-0.8,69591,List1B,white,man,,,,,,,,survey_gender,55,,,It is not always easy for people to know what I am thinking.,filler
3144.3,,,html-slider-response,465,2181266,0.0-24.0-1.0-0.9,69591,List1B,white,man,,,,,,,,survey_gender,90,,,I am glad to have the friends that I have.,filler
3825.5,,,html-slider-response,466,2185092,0.0-24.0-1.0-0.10,69591,List1B,white,man,,,,,,,,survey_gender,94,,,Being my gender is an important part of how I see myself.,important
3438.9,,,html-slider-response,467,2188533,0.0-24.0-1.0-0.11,69591,List1B,white,man,,,,,,,,survey_gender,96,,,It is pleasant to be my gender.,pleasant
3560.8,,,html-slider-response,468,2192096,0.0-24.0-1.0-0.12,69591,List1B,white,man,,,,,,,,survey_gender,96,,,Being my gender gives me a good feeling.,feeling
3956.5,,,html-slider-response,469,2196054,0.0-24.0-1.0-0.13,69591,List1B,white,man,,,,,,,,survey_gender,11,,,Family is not more important to me than friendship.,filler
3591.4,,,html-slider-response,470,2199647,0.0-24.0-1.0-0.14,69591,List1B,white,man,,,,,,,,survey_gender,96,,,People of my gender are very similar to each other.,verysimilar
3746.5,,,html-slider-response,471,2203395,0.0-24.0-1.0-0.15,69591,List1B,white,man,,,,,,,,survey_gender,92,,,I have a lot in common with the average person of my gender.,average
3527.2,,,html-slider-response,472,2206923,0.0-24.0-1.0-0.16,69591,List1B,white,man,,,,,,,,survey_gender,97,,,My friends understand me.,filler
3681.9,,,html-slider-response,473,2210607,0.0-24.0-1.0-0.17,69591,List1B,white,man,,,,,,,,survey_gender,96,,,I have a lot in common with my friends.,filler
3378.3,,,html-slider-response,474,2213987,0.0-24.0-1.0-0.18,69591,List1B,white,man,,,,,,,,survey_gender,95,,,I am similar to the average person of my gender.,similar
3875,,,html-slider-response,475,2217861,0.0-24.0-1.0-0.19,69591,List1B,white,man,,,,,,,,survey_gender,96,,,My friends have a lot in common with each other.,filler
3714.2,,,html-slider-response,476,2221576,0.0-24.0-1.0-0.20,69591,List1B,white,man,,,,,,,,survey_gender,97,,,I feel solidarity with my gender.,solidarity
3743,,,html-slider-response,477,2225322,0.0-24.0-1.0-0.21,69591,List1B,white,man,,,,,,,,survey_gender,97,,,Being around my friends gives me a good feeling.,filler
3784.8,,,html-slider-response,478,2229108,0.0-24.0-1.0-0.22,69591,List1B,white,man,,,,,,,,survey_gender,97,,,I feel committed to my gender.,committed
3276.8,,,html-slider-response,479,2232386,0.0-24.0-1.0-0.23,69591,List1B,white,man,,,,,,,,survey_gender,96,,,I feel a bond with my gender.,bond
3915.1,,,html-slider-response,480,2236303,0.0-24.0-1.0-0.24,69591,List1B,white,man,,,,,,,,survey_gender,99,,,I feel a bond with my friends.,filler
3591.6,,,html-slider-response,481,2239896,0.0-24.0-1.0-0.25,69591,List1B,white,man,,,,,,,,survey_gender,97,,,I am glad to be my gender.,glad
4586.7,,,html-slider-response,482,2244484,0.0-24.0-1.0-0.26,69591,List1B,white,man,,,,,,,,survey_gender,1,,,I would say I am an animal person.,filler
3307.3,,,html-slider-response,483,2247793,0.0-24.0-1.0-0.27,69591,List1B,white,man,,,,,,,,survey_gender,93,,,I often think about my actions.,filler
7477.4,,,survey-text,484,2255273,0.0-25.0,69591,List1B,white,man,,,,,"{""Q0"":""ccc""}",,,worker_id,,,,,
3075.6,,,external-html,485,2258674,0.0-26.0,69591,List1B,white,man,debrief.html,,,,,,,,,,,,
