"rt","stimulus","button_pressed","trial_type","trial_index","time_elapsed","internal_node_id","subject","list","ppt_race","ppt_gender","url","first_guess","correct","key_press","responses","image_type","phrase_type","test_part","response","stimulus1","stimulus2","question_type","survey_item"
"1486.6000000238419","Welcome to the experiment. Press Continue to begin.","0","html-button-response","0","1489","0.0-0.0","69772","List1A","white","woman","","","","","","","","","","","","",""
"10098.900000035763","","","external-html","1","12738","0.0-1.0","69772","List1A","white","woman","consent.html","","","","","","","","","","","",""
"235827.89999997616","<p>On the next page, you will see portraits of 8 people and their names.</p><p>Your first task is to take a few minutes to memorise the names of these people.</p><p>You will have to recall their names during the rest of the experiment, so it is</p><p>essential that you try to memorise these people and their names as best as you can.</p><br><p><strong>You will then be tested on your memory of these names and portraits.</strong></p><br><p>The experiment will start after you have completed this memory test.</p><br><p>Ready?</p>","0","html-button-response","2","248574","0.0-2.0","69772","List1A","white","woman","","","","","","","","","","","","",""
"31839.399999976158","<img src='img/portrait_matrix_list1.jpg' style='width:900px;height:500px;''></img><p>If you have memorised all the portraits and names and are ready to start, press Continue.</p><p><strong>Please note: Your memory of these faces will be tested 4 times during this experiment.</strong></p>","0","html-button-response","3","281420","0.0-3.0-0.0","69772","List1A","white","woman","","","","","","","","","","","","",""
"5937","<img src=""portrait/BM2.jpg""style=""height:400px;""></img>","5","html-button-response","4","288363","0.0-3.0-1.0","69772","List1A","white","woman","","true","5","","","","","","","","","",""
"null","CORRECT","","html-keyboard-response","5","289871","0.0-3.0-2.0-0.0","69772","List1A","white","woman","","","","null","","","","","","","","",""
"6719.299999952316","<img src=""portrait/BW1.jpg""style=""height:400px;""></img>","0","html-button-response","6","296592","0.0-3.0-4.0","69772","List1A","white","woman","","true","0","","","","","","","","","",""
"null","CORRECT","","html-keyboard-response","7","298104","0.0-3.0-5.0-0.0","69772","List1A","white","woman","","","","null","","","","","","","","",""
"5354.800000011921","<img src=""portrait/WW2.jpg""style=""height:400px;""></img>","3","html-button-response","8","303460","0.0-3.0-7.0","69772","List1A","white","woman","","true","3","","","","","","","","","",""
"null","CORRECT","","html-keyboard-response","9","304967","0.0-3.0-8.0-0.0","69772","List1A","white","woman","","","","null","","","","","","","","",""
"8681.800000011921","<img src=""portrait/WM2.jpg""style=""height:400px;""></img>","7","html-button-response","10","313650","0.0-3.0-10.0","69772","List1A","white","woman","","true","7","","","","","","","","","",""
"null","CORRECT","","html-keyboard-response","11","315158","0.0-3.0-11.0-0.0","69772","List1A","white","woman","","","","null","","","","","","","","",""
"10691.800000011921","<img src=""portrait/WM1.jpg""style=""height:400px;""></img>","6","html-button-response","12","325852","0.0-3.0-13.0","69772","List1A","white","woman","","true","6","","","","","","","","","",""
"null","CORRECT","","html-keyboard-response","13","327361","0.0-3.0-14.0-0.0","69772","List1A","white","woman","","","","null","","","","","","","","",""
"6517.300000011921","<img src=""portrait/WW1.jpg""style=""height:400px;""></img>","1","html-button-response","14","333880","0.0-3.0-16.0","69772","List1A","white","woman","","true","1","","","","","","","","","",""
"null","CORRECT","","html-keyboard-response","15","335390","0.0-3.0-17.0-0.0","69772","List1A","white","woman","","","","null","","","","","","","","",""
"7484.199999988079","<img src=""portrait/BW2.jpg""style=""height:400px;""></img>","2","html-button-response","16","342876","0.0-3.0-19.0","69772","List1A","white","woman","","true","2","","","","","","","","","",""
"null","CORRECT","","html-keyboard-response","17","344387","0.0-3.0-20.0-0.0","69772","List1A","white","woman","","","","null","","","","","","","","",""
"5890.300000011921","<img src=""portrait/BM1.jpg""style=""height:400px;""></img>","4","html-button-response","18","350279","0.0-3.0-22.0","69772","List1A","white","woman","","true","4","","","","","","","","","",""
"null","CORRECT","","html-keyboard-response","19","351790","0.0-3.0-23.0-0.0","69772","List1A","white","woman","","","","null","","","","","","","","",""
"2693.800000011921","<p>You got 8 out of 8 right first time. Press Continue.</p>","0","html-button-response","20","354485","0.0-3.0-25.0","69772","List1A","white","woman","","","","","","","","","","","","",""
"41304.19999998808","<p>In this experiment, you will view photographs of the people from the memory game interacting.</p><p>By using the <strong>exact</strong> phrase given <i>after</i> the photograph appears and recalling the correct names of the people in the photographs, form a sentence describing the interaction. You do not need to capitalise names.</p><p>Type your answer in the space provided. Please complete every sentence before moving onto the next trial.</p><p>You will only have a few seconds to memorise each given photograph and phrase before you can respond, so try your best to focus.</p><p>An example is given below. Press 'Continue' when you are ready.</p><img src='img/speaking_example.jpg' style='width:800px;height:460px;''></img>","0","html-button-response","21","396795","0.0-4.0","69772","List1A","white","woman","","","","","","","","","","","","",""
"3931.300000011921","<p>Before the experiment starts, you will watch two example trials. Press 'Continue'.</p>","0","html-button-response","22","401733","0.0-5.0","69772","List1A","white","woman","","","","","","","","","","","","",""
"null","<img src='img/play_eg.gif' style='height:400px;''></img>","","html-keyboard-response","23","404741","0.0-6.0","69772","List1A","white","woman","","","","null","","","","","","","","",""
"null","<p>is playing with</p>","","html-keyboard-response","24","406742","0.0-7.0","69772","List1A","white","woman","","","","null","","","","","","","","",""
"5472.300000011921","<p><b>Answer:</b> kate is playing with beth</p>","0","html-button-response","25","412215","0.0-8.0","69772","List1A","white","woman","","","","","","","","","","","","",""
"null","<img src='img/dance_eg.gif' style='height:400px;''></img>","","html-keyboard-response","26","415225","0.0-9.0","69772","List1A","white","woman","","","","null","","","","","","","","",""
"null","<p>is being entertained by</p>","","html-keyboard-response","27","417226","0.0-10.0","69772","List1A","white","woman","","","","null","","","","","","","","",""
"5580.300000011921","<p><b>Answer:</b> luke is being entertained by dave</p>","0","html-button-response","28","422808","0.0-11.0","69772","List1A","white","woman","","","","","","","","","","","","",""
"7822.900000035763","<p>Ready to start the experiment?</p><br><p><strong>Remember to describe the picture using a full sentence,</strong></p><p><strong>that combines the names of the people with the <i>exact</i> phrase given.</strong></p><p><strong>To receive full payment you must do this correctly.</strong></p><p><strong> You do not need to capitalise names or use punctuation.</strong></p><br><p>Press 'Continue' to begin.</p>","0","html-button-response","29","431638","0.0-12.0","69772","List1A","white","woman","","","","","","","","","","","","",""
"null","<div style=""font-size:60px;"">+</div>","","html-keyboard-response","30","433145","0.0-13.0-0.0","69772","List1A","white","woman","","","","null","","","","","","","","",""
"null","<img src=""stim_listA/greet5.gif""style=""height:400px;""></stim_listA>","","html-keyboard-response","31","435148","0.0-13.0-1.0","69772","List1A","white","woman","","","","null","","","","","","","","",""
"null","is greeting","","html-keyboard-response","32","437153","0.0-13.0-2.0","69772","List1A","white","woman","","","","null","","","","","","","","",""
"9188.400000035763","","","survey-text","33","446345","0.0-13.0-3.0","69772","List1A","white","woman","","","","","{""Q0"":""Luke is greeting Mike""}","<img src=""stim_listA/greet5.gif""style=""height:400px;""></stim_listA>","is greeting","","","","","",""
"null","<div style=""font-size:60px;"">+</div>","","html-keyboard-response","34","446847","0.0-13.0-0.1","69772","List1A","white","woman","","","","null","","","","","","","","",""
"null","<img src=""stim_listA/greet4.gif""style=""height:400px;""></stim_listA>","","html-keyboard-response","35","448852","0.0-13.0-1.1","69772","List1A","white","woman","","","","null","","","","","","","","",""
"null","is being greeted by","","html-keyboard-response","36","450853","0.0-13.0-2.1","69772","List1A","white","woman","","","","null","","","","","","","","",""
"9687.599999964237","","","survey-text","37","460544","0.0-13.0-3.1","69772","List1A","white","woman","","","","","{""Q0"":""Jane is being greeted by Luke""}","<img src=""stim_listA/greet4.gif""style=""height:400px;""></stim_listA>","is being greeted by","","","","","",""
"null","<div style=""font-size:60px;"">+</div>","","html-keyboard-response","38","461045","0.0-13.0-0.2","69772","List1A","white","woman","","","","null","","","","","","","","",""
"null","<img src=""stim_listA/shout6.gif""style=""height:400px;""></stim_listA>","","html-keyboard-response","39","463047","0.0-13.0-1.2","69772","List1A","white","woman","","","","null","","","","","","","","",""
"null","is being shouted at by","","html-keyboard-response","40","465051","0.0-13.0-2.2","69772","List1A","white","woman","","","","null","","","","","","","","",""
"19283.599999964237","","","survey-text","41","484337","0.0-13.0-3.2","69772","List1A","white","woman","","","","","{""Q0"":""Dave Mike""}","<img src=""stim_listA/shout6.gif""style=""height:400px;""></stim_listA>","is being shouted at by","","","","","",""
"null","<div style=""font-size:60px;"">+</div>","","html-keyboard-response","42","484840","0.0-13.0-0.3","69772","List1A","white","woman","","","","null","","","","","","","","",""
"null","<img src=""stim_listA/challenge7.gif""style=""height:400px;""></stim_listA>","","html-keyboard-response","43","486843","0.0-13.0-1.3","69772","List1A","white","woman","","","","null","","","","","","","","",""
"null","is challenging","","html-keyboard-response","44","488849","0.0-13.0-2.3","69772","List1A","white","woman","","","","null","","","","","","","","",""
"7966.5","","","survey-text","45","496818","0.0-13.0-3.3","69772","List1A","white","woman","","","","","{""Q0"":""Ruth is challenging Kate""}","<img src=""stim_listA/challenge7.gif""style=""height:400px;""></stim_listA>","is challenging","","","","","",""
"null","<div style=""font-size:60px;"">+</div>","","html-keyboard-response","46","497325","0.0-13.0-0.4","69772","List1A","white","woman","","","","null","","","","","","","","",""
"null","<img src=""stim_listA/copy1.gif""style=""height:400px;""></stim_listA>","","html-keyboard-response","47","499328","0.0-13.0-1.4","69772","List1A","white","woman","","","","null","","","","","","","","",""
"null","is copying","","html-keyboard-response","48","501335","0.0-13.0-2.4","69772","List1A","white","woman","","","","null","","","","","","","","",""
"8522.199999988079","","","survey-text","49","509860","0.0-13.0-3.4","69772","List1A","white","woman","","","","","{""Q0"":""Beth is copying Mike""}","<img src=""stim_listA/copy1.gif""style=""height:400px;""></stim_listA>","is copying","","","","","",""
"null","<div style=""font-size:60px;"">+</div>","","html-keyboard-response","50","510363","0.0-13.0-0.5","69772","List1A","white","woman","","","","null","","","","","","","","",""
"null","<img src=""stim_listA/shout3.gif""style=""height:400px;""></stim_listA>","","html-keyboard-response","51","512366","0.0-13.0-1.5","69772","List1A","white","woman","","","","null","","","","","","","","",""
"null","is shouting at","","html-keyboard-response","52","514368","0.0-13.0-2.5","69772","List1A","white","woman","","","","null","","","","","","","","",""
"7518.699999988079","","","survey-text","53","521889","0.0-13.0-3.5","69772","List1A","white","woman","","","","","{""Q0"":""Ruth is shouting at Mike""}","<img src=""stim_listA/shout3.gif""style=""height:400px;""></stim_listA>","is shouting at","","","","","",""
"null","<div style=""font-size:60px;"">+</div>","","html-keyboard-response","54","522392","0.0-13.0-0.6","69772","List1A","white","woman","","","","null","","","","","","","","",""
"null","<img src=""stim_listA/hug7.gif""style=""height:400px;""></stim_listA>","","html-keyboard-response","55","524396","0.0-13.0-1.6","69772","List1A","white","woman","","","","null","","","","","","","","",""
"null","is hugging","","html-keyboard-response","56","526397","0.0-13.0-2.6","69772","List1A","white","woman","","","","null","","","","","","","","",""
"9153.5","","","survey-text","57","535554","0.0-13.0-3.6","69772","List1A","white","woman","","","","","{""Q0"":""Ruth is hugging Beth""}","<img src=""stim_listA/hug7.gif""style=""height:400px;""></stim_listA>","is hugging","","","","","",""
"null","<div style=""font-size:60px;"">+</div>","","html-keyboard-response","58","536060","0.0-13.0-0.7","69772","List1A","white","woman","","","","null","","","","","","","","",""
"null","<img src=""stim_listA/shout8.gif""style=""height:400px;""></stim_listA>","","html-keyboard-response","59","538066","0.0-13.0-1.7","69772","List1A","white","woman","","","","null","","","","","","","","",""
"null","is being shouted at by","","html-keyboard-response","60","540069","0.0-13.0-2.7","69772","List1A","white","woman","","","","null","","","","","","","","",""
"15102.700000047684","","","survey-text","61","555175","0.0-13.0-3.7","69772","List1A","white","woman","","","","","{""Q0"":""Ruth is being shouted at by Kate""}","<img src=""stim_listA/shout8.gif""style=""height:400px;""></stim_listA>","is being shouted at by","","","","","",""
"null","<div style=""font-size:60px;"">+</div>","","html-keyboard-response","62","555677","0.0-13.0-0.8","69772","List1A","white","woman","","","","null","","","","","","","","",""
"null","<img src=""stim_listA/look8.gif""style=""height:400px;""></stim_listA>","","html-keyboard-response","63","557679","0.0-13.0-1.8","69772","List1A","white","woman","","","","null","","","","","","","","",""
"null","is being looked at by","","html-keyboard-response","64","559684","0.0-13.0-2.8","69772","List1A","white","woman","","","","null","","","","","","","","",""
"7809.600000023842","","","survey-text","65","567497","0.0-13.0-3.8","69772","List1A","white","woman","","","","","{""Q0"":""Kate is being looked at by Kate""}","<img src=""stim_listA/look8.gif""style=""height:400px;""></stim_listA>","is being looked at by","","","","","",""
"null","<div style=""font-size:60px;"">+</div>","","html-keyboard-response","66","568003","0.0-13.0-0.9","69772","List1A","white","woman","","","","null","","","","","","","","",""
"null","<img src=""stim_listA/oppose4.gif""style=""height:400px;""></stim_listA>","","html-keyboard-response","67","570009","0.0-13.0-1.9","69772","List1A","white","woman","","","","null","","","","","","","","",""
"null","is being opposed by","","html-keyboard-response","68","572017","0.0-13.0-2.9","69772","List1A","white","woman","","","","null","","","","","","","","",""
"6991","","","survey-text","69","579011","0.0-13.0-3.9","69772","List1A","white","woman","","","","","{""Q0"":""Ruth is being opposed by Luke""}","<img src=""stim_listA/oppose4.gif""style=""height:400px;""></stim_listA>","is being opposed by","","","","","",""
"null","<div style=""font-size:60px;"">+</div>","","html-keyboard-response","70","579513","0.0-13.0-0.10","69772","List1A","white","woman","","","","null","","","","","","","","",""
"null","<img src=""stim_listA/greet3.gif""style=""height:400px;""></stim_listA>","","html-keyboard-response","71","581515","0.0-13.0-1.10","69772","List1A","white","woman","","","","null","","","","","","","","",""
"null","is greeting","","html-keyboard-response","72","583515","0.0-13.0-2.10","69772","List1A","white","woman","","","","null","","","","","","","","",""
"8750.5","","","survey-text","73","592268","0.0-13.0-3.10","69772","List1A","white","woman","","","","","{""Q0"":""Dave is greeting Ruth""}","<img src=""stim_listA/greet3.gif""style=""height:400px;""></stim_listA>","is greeting","","","","","",""
"null","<div style=""font-size:60px;"">+</div>","","html-keyboard-response","74","592770","0.0-13.0-0.11","69772","List1A","white","woman","","","","null","","","","","","","","",""
"null","<img src=""stim_listA/kiss8.gif""style=""height:400px;""></stim_listA>","","html-keyboard-response","75","594774","0.0-13.0-1.11","69772","List1A","white","woman","","","","null","","","","","","","","",""
"null","is being kissed by","","html-keyboard-response","76","596778","0.0-13.0-2.11","69772","List1A","white","woman","","","","null","","","","","","","","",""
"14125","","","survey-text","77","610906","0.0-13.0-3.11","69772","List1A","white","woman","","","","","{""Q0"":""Jane is being kissed by Kate""}","<img src=""stim_listA/kiss8.gif""style=""height:400px;""></stim_listA>","is being kissed by","","","","","",""
"null","<div style=""font-size:60px;"">+</div>","","html-keyboard-response","78","611411","0.0-13.0-0.12","69772","List1A","white","woman","","","","null","","","","","","","","",""
"null","<img src=""stim_listA/oppose2.gif""style=""height:400px;""></stim_listA>","","html-keyboard-response","79","613413","0.0-13.0-1.12","69772","List1A","white","woman","","","","null","","","","","","","","",""
"null","is being opposed by","","html-keyboard-response","80","615414","0.0-13.0-2.12","69772","List1A","white","woman","","","","null","","","","","","","","",""
"6526.600000023842","","","survey-text","81","621943","0.0-13.0-3.12","69772","List1A","white","woman","","","","","{""Q0"":""Fred is being opposed by Beth""}","<img src=""stim_listA/oppose2.gif""style=""height:400px;""></stim_listA>","is being opposed by","","","","","",""
"null","<div style=""font-size:60px;"">+</div>","","html-keyboard-response","82","622446","0.0-13.0-0.13","69772","List1A","white","woman","","","","null","","","","","","","","",""
"null","<img src=""stim_listA/seduce4.gif""style=""height:400px;""></stim_listA>","","html-keyboard-response","83","624448","0.0-13.0-1.13","69772","List1A","white","woman","","","","null","","","","","","","","",""
"null","is being seduced by","","html-keyboard-response","84","626449","0.0-13.0-2.13","69772","List1A","white","woman","","","","null","","","","","","","","",""
"253905.69999998808","","","survey-text","85","880373","0.0-13.0-3.13","69772","List1A","white","woman","","","","","{""Q0"":""Dave is being seduced by Ruth""}","<img src=""stim_listA/seduce4.gif""style=""height:400px;""></stim_listA>","is being seduced by","","","","","",""
"null","<div style=""font-size:60px;"">+</div>","","html-keyboard-response","86","880875","0.0-13.0-0.14","69772","List1A","white","woman","","","","null","","","","","","","","",""
"null","<img src=""stim_listA/kiss2.gif""style=""height:400px;""></stim_listA>","","html-keyboard-response","87","882881","0.0-13.0-1.14","69772","List1A","white","woman","","","","null","","","","","","","","",""
"null","is being kissed by","","html-keyboard-response","88","884883","0.0-13.0-2.14","69772","List1A","white","woman","","","","null","","","","","","","","",""
"10847.599999964237","","","survey-text","89","895734","0.0-13.0-3.14","69772","List1A","white","woman","","","","","{""Q0"":""Kate is being kissed by Mike""}","<img src=""stim_listA/kiss2.gif""style=""height:400px;""></stim_listA>","is being kissed by","","","","","",""
"null","<div style=""font-size:60px;"">+</div>","","html-keyboard-response","90","896240","0.0-13.0-0.15","69772","List1A","white","woman","","","","null","","","","","","","","",""
"null","<img src=""stim_listA/hug1.gif""style=""height:400px;""></stim_listA>","","html-keyboard-response","91","898242","0.0-13.0-1.15","69772","List1A","white","woman","","","","null","","","","","","","","",""
"null","is hugging","","html-keyboard-response","92","900246","0.0-13.0-2.15","69772","List1A","white","woman","","","","null","","","","","","","","",""
"5874.800000011921","","","survey-text","93","906123","0.0-13.0-3.15","69772","List1A","white","woman","","","","","{""Q0"":""Fred is hugging Beth""}","<img src=""stim_listA/hug1.gif""style=""height:400px;""></stim_listA>","is hugging","","","","","",""
"null","<div style=""font-size:60px;"">+</div>","","html-keyboard-response","94","906629","0.0-13.0-0.16","69772","List1A","white","woman","","","","null","","","","","","","","",""
"null","<img src=""stim_listA/look4.gif""style=""height:400px;""></stim_listA>","","html-keyboard-response","95","908634","0.0-13.0-1.16","69772","List1A","white","woman","","","","null","","","","","","","","",""
"null","is being looked at by","","html-keyboard-response","96","910636","0.0-13.0-2.16","69772","List1A","white","woman","","","","null","","","","","","","","",""
"10963.300000011921","","","survey-text","97","921602","0.0-13.0-3.16","69772","List1A","white","woman","","","","","{""Q0"":""Dave is being looked at by Jane""}","<img src=""stim_listA/look4.gif""style=""height:400px;""></stim_listA>","is being looked at by","","","","","",""
"null","<div style=""font-size:60px;"">+</div>","","html-keyboard-response","98","922106","0.0-13.0-0.17","69772","List1A","white","woman","","","","null","","","","","","","","",""
"null","<img src=""stim_listA/hug3.gif""style=""height:400px;""></stim_listA>","","html-keyboard-response","99","924112","0.0-13.0-1.17","69772","List1A","white","woman","","","","null","","","","","","","","",""
"null","is hugging","","html-keyboard-response","100","926117","0.0-13.0-2.17","69772","List1A","white","woman","","","","null","","","","","","","","",""
"6889.100000023842","","","survey-text","101","933009","0.0-13.0-3.17","69772","List1A","white","woman","","","","","{""Q0"":""Ruth is hugging Luke ""}","<img src=""stim_listA/hug3.gif""style=""height:400px;""></stim_listA>","is hugging","","","","","",""
"null","<div style=""font-size:60px;"">+</div>","","html-keyboard-response","102","933515","0.0-13.0-0.18","69772","List1A","white","woman","","","","null","","","","","","","","",""
"null","<img src=""stim_listA/oppose7.gif""style=""height:400px;""></stim_listA>","","html-keyboard-response","103","935519","0.0-13.0-1.18","69772","List1A","white","woman","","","","null","","","","","","","","",""
"null","is opposing","","html-keyboard-response","104","937524","0.0-13.0-2.18","69772","List1A","white","woman","","","","null","","","","","","","","",""
"6957.800000011921","","","survey-text","105","944484","0.0-13.0-3.18","69772","List1A","white","woman","","","","","{""Q0"":""Kate is opposing Jane""}","<img src=""stim_listA/oppose7.gif""style=""height:400px;""></stim_listA>","is opposing","","","","","",""
"null","<div style=""font-size:60px;"">+</div>","","html-keyboard-response","106","944987","0.0-13.0-0.19","69772","List1A","white","woman","","","","null","","","","","","","","",""
"null","<img src=""stim_listA/look1.gif""style=""height:400px;""></stim_listA>","","html-keyboard-response","107","946990","0.0-13.0-1.19","69772","List1A","white","woman","","","","null","","","","","","","","",""
"null","is looking at","","html-keyboard-response","108","948992","0.0-13.0-2.19","69772","List1A","white","woman","","","","null","","","","","","","","",""
"7108.299999952316","","","survey-text","109","956103","0.0-13.0-3.19","69772","List1A","white","woman","","","","","{""Q0"":""Fred is looking at Beth""}","<img src=""stim_listA/look1.gif""style=""height:400px;""></stim_listA>","is looking at","","","","","",""
"5966.5","<img src='img/portrait_matrix_list1.jpg' style='width:900px;height:500px;''></img><p>If you have memorised all the portraits and names and are ready to start, press Continue.</p><p><strong>Please note: Your memory of these faces will be tested 4 times during this experiment.</strong></p>","0","html-button-response","110","962071","0.0-14.0-0.0","69772","List1A","white","woman","","","","","","","","","","","","",""
"3966.7000000476837","<img src=""portrait/BW2.jpg""style=""height:400px;""></img>","2","html-button-response","111","967044","0.0-14.0-1.0","69772","List1A","white","woman","","true","2","","","","","","","","","",""
"null","CORRECT","","html-keyboard-response","112","968553","0.0-14.0-2.0-0.0","69772","List1A","white","woman","","","","null","","","","","","","","",""
"5447.699999988079","<img src=""portrait/BM2.jpg""style=""height:400px;""></img>","5","html-button-response","113","974003","0.0-14.0-4.0","69772","List1A","white","woman","","true","5","","","","","","","","","",""
"null","CORRECT","","html-keyboard-response","114","975511","0.0-14.0-5.0-0.0","69772","List1A","white","woman","","","","null","","","","","","","","",""
"3868.399999976158","<img src=""portrait/BM1.jpg""style=""height:400px;""></img>","4","html-button-response","115","979381","0.0-14.0-7.0","69772","List1A","white","woman","","true","4","","","","","","","","","",""
"null","CORRECT","","html-keyboard-response","116","980893","0.0-14.0-8.0-0.0","69772","List1A","white","woman","","","","null","","","","","","","","",""
"4951.199999988079","<img src=""portrait/BW1.jpg""style=""height:400px;""></img>","0","html-button-response","117","985846","0.0-14.0-10.0","69772","List1A","white","woman","","true","0","","","","","","","","","",""
"null","CORRECT","","html-keyboard-response","118","987357","0.0-14.0-11.0-0.0","69772","List1A","white","woman","","","","null","","","","","","","","",""
"5895.799999952316","<img src=""portrait/WM2.jpg""style=""height:400px;""></img>","7","html-button-response","119","993255","0.0-14.0-13.0","69772","List1A","white","woman","","true","7","","","","","","","","","",""
"null","CORRECT","","html-keyboard-response","120","994762","0.0-14.0-14.0-0.0","69772","List1A","white","woman","","","","null","","","","","","","","",""
"4760.400000035763","<img src=""portrait/WW2.jpg""style=""height:400px;""></img>","3","html-button-response","121","999525","0.0-14.0-16.0","69772","List1A","white","woman","","true","3","","","","","","","","","",""
"null","CORRECT","","html-keyboard-response","122","1001034","0.0-14.0-17.0-0.0","69772","List1A","white","woman","","","","null","","","","","","","","",""
"2827.199999988079","<img src=""portrait/WM1.jpg""style=""height:400px;""></img>","6","html-button-response","123","1003863","0.0-14.0-19.0","69772","List1A","white","woman","","true","6","","","","","","","","","",""
"null","CORRECT","","html-keyboard-response","124","1005372","0.0-14.0-20.0-0.0","69772","List1A","white","woman","","","","null","","","","","","","","",""
"2555.800000011921","<img src=""portrait/WW1.jpg""style=""height:400px;""></img>","1","html-button-response","125","1007928","0.0-14.0-22.0","69772","List1A","white","woman","","true","1","","","","","","","","","",""
"null","CORRECT","","html-keyboard-response","126","1009433","0.0-14.0-23.0-0.0","69772","List1A","white","woman","","","","null","","","","","","","","",""
"1725.3999999761581","<p>You got 8 out of 8 right first time. Press Continue.</p>","0","html-button-response","127","1011161","0.0-14.0-25.0","69772","List1A","white","woman","","","","","","","","","","","","",""
"null","<div style=""font-size:60px;"">+</div>","","html-keyboard-response","128","1012672","0.0-15.0-0.0","69772","List1A","white","woman","","","","null","","","","","","","","",""
"null","<img src=""stim_listA/copy4.gif""style=""height:400px;""></stim_listA>","","html-keyboard-response","129","1014675","0.0-15.0-1.0","69772","List1A","white","woman","","","","null","","","","","","","","",""
"null","is being copied by","","html-keyboard-response","130","1016679","0.0-15.0-2.0","69772","List1A","white","woman","","","","null","","","","","","","","",""
"8952.100000023842","","","survey-text","131","1025633","0.0-15.0-3.0","69772","List1A","white","woman","","","","","{""Q0"":""Jane is being copied by Luke""}","<img src=""stim_listA/copy4.gif""style=""height:400px;""></stim_listA>","is being copied by","","","","","",""
"null","<div style=""font-size:60px;"">+</div>","","html-keyboard-response","132","1026139","0.0-15.0-0.1","69772","List1A","white","woman","","","","null","","","","","","","","",""
"null","<img src=""stim_listA/oppose6.gif""style=""height:400px;""></stim_listA>","","html-keyboard-response","133","1028144","0.0-15.0-1.1","69772","List1A","white","woman","","","","null","","","","","","","","",""
"null","is being opposed by","","html-keyboard-response","134","1030148","0.0-15.0-2.1","69772","List1A","white","woman","","","","null","","","","","","","","",""
"8560.399999976158","","","survey-text","135","1038711","0.0-15.0-3.1","69772","List1A","white","woman","","","","","{""Q0"":""Fred is being opposed by Luke ""}","<img src=""stim_listA/oppose6.gif""style=""height:400px;""></stim_listA>","is being opposed by","","","","","",""
"null","<div style=""font-size:60px;"">+</div>","","html-keyboard-response","136","1039216","0.0-15.0-0.2","69772","List1A","white","woman","","","","null","","","","","","","","",""
"null","<img src=""stim_listA/copy2.gif""style=""height:400px;""></stim_listA>","","html-keyboard-response","137","1041223","0.0-15.0-1.2","69772","List1A","white","woman","","","","null","","","","","","","","",""
"null","is being copied by","","html-keyboard-response","138","1043225","0.0-15.0-2.2","69772","List1A","white","woman","","","","null","","","","","","","","",""
"6388.199999988079","","","survey-text","139","1049615","0.0-15.0-3.2","69772","List1A","white","woman","","","","","{""Q0"":""Fred is being copied by Kate""}","<img src=""stim_listA/copy2.gif""style=""height:400px;""></stim_listA>","is being copied by","","","","","",""
"null","<div style=""font-size:60px;"">+</div>","","html-keyboard-response","140","1050117","0.0-15.0-0.3","69772","List1A","white","woman","","","","null","","","","","","","","",""
"null","<img src=""stim_listA/look7.gif""style=""height:400px;""></stim_listA>","","html-keyboard-response","141","1052123","0.0-15.0-1.3","69772","List1A","white","woman","","","","null","","","","","","","","",""
"null","is looking at","","html-keyboard-response","142","1054126","0.0-15.0-2.3","69772","List1A","white","woman","","","","null","","","","","","","","",""
"7270","","","survey-text","143","1061398","0.0-15.0-3.3","69772","List1A","white","woman","","","","","{""Q0"":""Beth is looking at Ruth ""}","<img src=""stim_listA/look7.gif""style=""height:400px;""></stim_listA>","is looking at","","","","","",""
"null","<div style=""font-size:60px;"">+</div>","","html-keyboard-response","144","1061902","0.0-15.0-0.4","69772","List1A","white","woman","","","","null","","","","","","","","",""
"null","<img src=""stim_listA/touch1.gif""style=""height:400px;""></stim_listA>","","html-keyboard-response","145","1063907","0.0-15.0-1.4","69772","List1A","white","woman","","","","null","","","","","","","","",""
"null","is touching","","html-keyboard-response","146","1065909","0.0-15.0-2.4","69772","List1A","white","woman","","","","null","","","","","","","","",""
"7722.699999988079","","","survey-text","147","1073634","0.0-15.0-3.4","69772","List1A","white","woman","","","","","{""Q0"":""Kate is touching Mike ""}","<img src=""stim_listA/touch1.gif""style=""height:400px;""></stim_listA>","is touching","","","","","",""
"null","<div style=""font-size:60px;"">+</div>","","html-keyboard-response","148","1074141","0.0-15.0-0.5","69772","List1A","white","woman","","","","null","","","","","","","","",""
"null","<img src=""stim_listA/challenge1.gif""style=""height:400px;""></stim_listA>","","html-keyboard-response","149","1076145","0.0-15.0-1.5","69772","List1A","white","woman","","","","null","","","","","","","","",""
"null","is challenging","","html-keyboard-response","150","1078152","0.0-15.0-2.5","69772","List1A","white","woman","","","","null","","","","","","","","",""
"8229.5","","","survey-text","151","1086384","0.0-15.0-3.5","69772","List1A","white","woman","","","","","{""Q0"":""Mike is challenging Beth ""}","<img src=""stim_listA/challenge1.gif""style=""height:400px;""></stim_listA>","is challenging","","","","","",""
"null","<div style=""font-size:60px;"">+</div>","","html-keyboard-response","152","1086890","0.0-15.0-0.6","69772","List1A","white","woman","","","","null","","","","","","","","",""
"null","<img src=""stim_listA/hug8.gif""style=""height:400px;""></stim_listA>","","html-keyboard-response","153","1088892","0.0-15.0-1.6","69772","List1A","white","woman","","","","null","","","","","","","","",""
"null","is being hugged by","","html-keyboard-response","154","1090893","0.0-15.0-2.6","69772","List1A","white","woman","","","","null","","","","","","","","",""
"7049.400000035763","","","survey-text","155","1097944","0.0-15.0-3.6","69772","List1A","white","woman","","","","","{""Q0"":""Kate is being hugged by Jane ""}","<img src=""stim_listA/hug8.gif""style=""height:400px;""></stim_listA>","is being hugged by","","","","","",""
"null","<div style=""font-size:60px;"">+</div>","","html-keyboard-response","156","1098451","0.0-15.0-0.7","69772","List1A","white","woman","","","","null","","","","","","","","",""
"null","<img src=""stim_listA/challenge6.gif""style=""height:400px;""></stim_listA>","","html-keyboard-response","157","1100453","0.0-15.0-1.7","69772","List1A","white","woman","","","","null","","","","","","","","",""
"null","is being challenged by","","html-keyboard-response","158","1102455","0.0-15.0-2.7","69772","List1A","white","woman","","","","null","","","","","","","","",""
"8628.900000035763","","","survey-text","159","1111086","0.0-15.0-3.7","69772","List1A","white","woman","","","","","{""Q0"":""Fred is being challenged by Dave ""}","<img src=""stim_listA/challenge6.gif""style=""height:400px;""></stim_listA>","is being challenged by","","","","","",""
"null","<div style=""font-size:60px;"">+</div>","","html-keyboard-response","160","1111592","0.0-15.0-0.8","69772","List1A","white","woman","","","","null","","","","","","","","",""
"null","<img src=""stim_listA/touch6.gif""style=""height:400px;""></stim_listA>","","html-keyboard-response","161","1113599","0.0-15.0-1.8","69772","List1A","white","woman","","","","null","","","","","","","","",""
"null","is being touched by","","html-keyboard-response","162","1115600","0.0-15.0-2.8","69772","List1A","white","woman","","","","null","","","","","","","","",""
"15740.5","","","survey-text","163","1131343","0.0-15.0-3.8","69772","List1A","white","woman","","","","","{""Q0"":""Fred is being touched by Dave""}","<img src=""stim_listA/touch6.gif""style=""height:400px;""></stim_listA>","is being touched by","","","","","",""
"null","<div style=""font-size:60px;"">+</div>","","html-keyboard-response","164","1131848","0.0-15.0-0.9","69772","List1A","white","woman","","","","null","","","","","","","","",""
"null","<img src=""stim_listA/shout1.gif""style=""height:400px;""></stim_listA>","","html-keyboard-response","165","1133849","0.0-15.0-1.9","69772","List1A","white","woman","","","","null","","","","","","","","",""
"null","is shouting at","","html-keyboard-response","166","1135850","0.0-15.0-2.9","69772","List1A","white","woman","","","","null","","","","","","","","",""
"5671.899999976158","","","survey-text","167","1141525","0.0-15.0-3.9","69772","List1A","white","woman","","","","","{""Q0"":""Beth is shouting at Fred""}","<img src=""stim_listA/shout1.gif""style=""height:400px;""></stim_listA>","is shouting at","","","","","",""
"null","<div style=""font-size:60px;"">+</div>","","html-keyboard-response","168","1142029","0.0-15.0-0.10","69772","List1A","white","woman","","","","null","","","","","","","","",""
"null","<img src=""stim_listA/seduce6.gif""style=""height:400px;""></stim_listA>","","html-keyboard-response","169","1144034","0.0-15.0-1.10","69772","List1A","white","woman","","","","null","","","","","","","","",""
"null","is being seduced by","","html-keyboard-response","170","1146035","0.0-15.0-2.10","69772","List1A","white","woman","","","","null","","","","","","","","",""
"9532.199999988079","","","survey-text","171","1155570","0.0-15.0-3.10","69772","List1A","white","woman","","","","","{""Q0"":""Mike is being seduced by Luke ""}","<img src=""stim_listA/seduce6.gif""style=""height:400px;""></stim_listA>","is being seduced by","","","","","",""
"null","<div style=""font-size:60px;"">+</div>","","html-keyboard-response","172","1156072","0.0-15.0-0.11","69772","List1A","white","woman","","","","null","","","","","","","","",""
"null","<img src=""stim_listA/kiss1.gif""style=""height:400px;""></stim_listA>","","html-keyboard-response","173","1158075","0.0-15.0-1.11","69772","List1A","white","woman","","","","null","","","","","","","","",""
"null","is kissing","","html-keyboard-response","174","1160076","0.0-15.0-2.11","69772","List1A","white","woman","","","","null","","","","","","","","",""
"5746.200000047684","","","survey-text","175","1165825","0.0-15.0-3.11","69772","List1A","white","woman","","","","","{""Q0"":""Fred is kissing Beth""}","<img src=""stim_listA/kiss1.gif""style=""height:400px;""></stim_listA>","is kissing","","","","","",""
"null","<div style=""font-size:60px;"">+</div>","","html-keyboard-response","176","1166331","0.0-15.0-0.12","69772","List1A","white","woman","","","","null","","","","","","","","",""
"null","<img src=""stim_listA/kiss5.gif""style=""height:400px;""></stim_listA>","","html-keyboard-response","177","1168337","0.0-15.0-1.12","69772","List1A","white","woman","","","","null","","","","","","","","",""
"null","is kissing","","html-keyboard-response","178","1170339","0.0-15.0-2.12","69772","List1A","white","woman","","","","null","","","","","","","","",""
"4878","","","survey-text","179","1175220","0.0-15.0-3.12","69772","List1A","white","woman","","","","","{""Q0"":""Fred is kissing Luke ""}","<img src=""stim_listA/kiss5.gif""style=""height:400px;""></stim_listA>","is kissing","","","","","",""
"null","<div style=""font-size:60px;"">+</div>","","html-keyboard-response","180","1175721","0.0-15.0-0.13","69772","List1A","white","woman","","","","null","","","","","","","","",""
"null","<img src=""stim_listA/look6.gif""style=""height:400px;""></stim_listA>","","html-keyboard-response","181","1177728","0.0-15.0-1.13","69772","List1A","white","woman","","","","null","","","","","","","","",""
"null","is being looked at by","","html-keyboard-response","182","1179731","0.0-15.0-2.13","69772","List1A","white","woman","","","","null","","","","","","","","",""
"12350.5","","","survey-text","183","1192085","0.0-15.0-3.13","69772","List1A","white","woman","","","","","{""Q0"":""Mike is being looked at by Dave""}","<img src=""stim_listA/look6.gif""style=""height:400px;""></stim_listA>","is being looked at by","","","","","",""
"null","<div style=""font-size:60px;"">+</div>","","html-keyboard-response","184","1192591","0.0-15.0-0.14","69772","List1A","white","woman","","","","null","","","","","","","","",""
"null","<img src=""stim_listA/seduce2.gif""style=""height:400px;""></stim_listA>","","html-keyboard-response","185","1194597","0.0-15.0-1.14","69772","List1A","white","woman","","","","null","","","","","","","","",""
"null","is being seduced by","","html-keyboard-response","186","1196598","0.0-15.0-2.14","69772","List1A","white","woman","","","","null","","","","","","","","",""
"7864.699999988079","","","survey-text","187","1204466","0.0-15.0-3.14","69772","List1A","white","woman","","","","","{""Q0"":""Beth is being seduced by Mike ""}","<img src=""stim_listA/seduce2.gif""style=""height:400px;""></stim_listA>","is being seduced by","","","","","",""
"null","<div style=""font-size:60px;"">+</div>","","html-keyboard-response","188","1204970","0.0-15.0-0.15","69772","List1A","white","woman","","","","null","","","","","","","","",""
"null","<img src=""stim_listA/look5.gif""style=""height:400px;""></stim_listA>","","html-keyboard-response","189","1206973","0.0-15.0-1.15","69772","List1A","white","woman","","","","null","","","","","","","","",""
"null","is looking at","","html-keyboard-response","190","1208975","0.0-15.0-2.15","69772","List1A","white","woman","","","","null","","","","","","","","",""
"9639.699999988079","","","survey-text","191","1218618","0.0-15.0-3.15","69772","List1A","white","woman","","","","","{""Q0"":""Fred is looking at Luke ""}","<img src=""stim_listA/look5.gif""style=""height:400px;""></stim_listA>","is looking at","","","","","",""
"null","<div style=""font-size:60px;"">+</div>","","html-keyboard-response","192","1219121","0.0-15.0-0.16","69772","List1A","white","woman","","","","null","","","","","","","","",""
"null","<img src=""stim_listA/seduce8.gif""style=""height:400px;""></stim_listA>","","html-keyboard-response","193","1221125","0.0-15.0-1.16","69772","List1A","white","woman","","","","null","","","","","","","","",""
"null","is being seduced by","","html-keyboard-response","194","1223126","0.0-15.0-2.16","69772","List1A","white","woman","","","","null","","","","","","","","",""
"34716.09999996424","","","survey-text","195","1257845","0.0-15.0-3.16","69772","List1A","white","woman","","","","","{""Q0"":""Ruth is being seduced by Kate""}","<img src=""stim_listA/seduce8.gif""style=""height:400px;""></stim_listA>","is being seduced by","","","","","",""
"null","<div style=""font-size:60px;"">+</div>","","html-keyboard-response","196","1258351","0.0-15.0-0.17","69772","List1A","white","woman","","","","null","","","","","","","","",""
"null","<img src=""stim_listA/touch5.gif""style=""height:400px;""></stim_listA>","","html-keyboard-response","197","1260357","0.0-15.0-1.17","69772","List1A","white","woman","","","","null","","","","","","","","",""
"null","is touching","","html-keyboard-response","198","1262358","0.0-15.0-2.17","69772","List1A","white","woman","","","","null","","","","","","","","",""
"25946.5","","","survey-text","199","1288308","0.0-15.0-3.17","69772","List1A","white","woman","","","","","{""Q0"":""Mike is touching Dave""}","<img src=""stim_listA/touch5.gif""style=""height:400px;""></stim_listA>","is touching","","","","","",""
"null","<div style=""font-size:60px;"">+</div>","","html-keyboard-response","200","1288809","0.0-15.0-0.18","69772","List1A","white","woman","","","","null","","","","","","","","",""
"null","<img src=""stim_listA/kiss6.gif""style=""height:400px;""></stim_listA>","","html-keyboard-response","201","1290810","0.0-15.0-1.18","69772","List1A","white","woman","","","","null","","","","","","","","",""
"null","is being kissed by","","html-keyboard-response","202","1292813","0.0-15.0-2.18","69772","List1A","white","woman","","","","null","","","","","","","","",""
"6595.200000047684","","","survey-text","203","1299411","0.0-15.0-3.18","69772","List1A","white","woman","","","","","{""Q0"":""Mike is being kissed by Dave""}","<img src=""stim_listA/kiss6.gif""style=""height:400px;""></stim_listA>","is being kissed by","","","","","",""
"null","<div style=""font-size:60px;"">+</div>","","html-keyboard-response","204","1299915","0.0-15.0-0.19","69772","List1A","white","woman","","","","null","","","","","","","","",""
"null","<img src=""stim_listA/seduce7.gif""style=""height:400px;""></stim_listA>","","html-keyboard-response","205","1301919","0.0-15.0-1.19","69772","List1A","white","woman","","","","null","","","","","","","","",""
"null","is seducing","","html-keyboard-response","206","1303921","0.0-15.0-2.19","69772","List1A","white","woman","","","","null","","","","","","","","",""
"10641.799999952316","","","survey-text","207","1314566","0.0-15.0-3.19","69772","List1A","white","woman","","","","","{""Q0"":""Beth is seducing Jane ""}","<img src=""stim_listA/seduce7.gif""style=""height:400px;""></stim_listA>","is seducing","","","","","",""
"2645.900000035763","<img src='img/portrait_matrix_list1.jpg' style='width:900px;height:500px;''></img><p>If you have memorised all the portraits and names and are ready to start, press Continue.</p><p><strong>Please note: Your memory of these faces will be tested 4 times during this experiment.</strong></p>","0","html-button-response","208","1317213","0.0-16.0-0.0","69772","List1A","white","woman","","","","","","","","","","","","",""
"3825.699999988079","<img src=""portrait/WW1.jpg""style=""height:400px;""></img>","1","html-button-response","209","1322043","0.0-16.0-1.0","69772","List1A","white","woman","","true","1","","","","","","","","","",""
"null","CORRECT","","html-keyboard-response","210","1323551","0.0-16.0-2.0-0.0","69772","List1A","white","woman","","","","null","","","","","","","","",""
"4418.699999988079","<img src=""portrait/BM2.jpg""style=""height:400px;""></img>","5","html-button-response","211","1327971","0.0-16.0-4.0","69772","List1A","white","woman","","true","5","","","","","","","","","",""
"null","CORRECT","","html-keyboard-response","212","1329479","0.0-16.0-5.0-0.0","69772","List1A","white","woman","","","","null","","","","","","","","",""
"1468.4000000357628","<img src=""portrait/WW2.jpg""style=""height:400px;""></img>","3","html-button-response","213","1330949","0.0-16.0-7.0","69772","List1A","white","woman","","true","3","","","","","","","","","",""
"null","CORRECT","","html-keyboard-response","214","1332461","0.0-16.0-8.0-0.0","69772","List1A","white","woman","","","","null","","","","","","","","",""
"6919.599999964237","<img src=""portrait/WM2.jpg""style=""height:400px;""></img>","7","html-button-response","215","1339382","0.0-16.0-10.0","69772","List1A","white","woman","","true","7","","","","","","","","","",""
"null","CORRECT","","html-keyboard-response","216","1340885","0.0-16.0-11.0-0.0","69772","List1A","white","woman","","","","null","","","","","","","","",""
"25798","<img src=""portrait/BM1.jpg""style=""height:400px;""></img>","4","html-button-response","217","1366685","0.0-16.0-13.0","69772","List1A","white","woman","","true","4","","","","","","","","","",""
"null","CORRECT","","html-keyboard-response","218","1368195","0.0-16.0-14.0-0.0","69772","List1A","white","woman","","","","null","","","","","","","","",""
"7494.800000011921","<img src=""portrait/WM1.jpg""style=""height:400px;""></img>","6","html-button-response","219","1375692","0.0-16.0-16.0","69772","List1A","white","woman","","true","6","","","","","","","","","",""
"null","CORRECT","","html-keyboard-response","220","1377201","0.0-16.0-17.0-0.0","69772","List1A","white","woman","","","","null","","","","","","","","",""
"5299.799999952316","<img src=""portrait/BW2.jpg""style=""height:400px;""></img>","2","html-button-response","221","1382503","0.0-16.0-19.0","69772","List1A","white","woman","","true","2","","","","","","","","","",""
"null","CORRECT","","html-keyboard-response","222","1384011","0.0-16.0-20.0-0.0","69772","List1A","white","woman","","","","null","","","","","","","","",""
"4566.700000047684","<img src=""portrait/BW1.jpg""style=""height:400px;""></img>","0","html-button-response","223","1388579","0.0-16.0-22.0","69772","List1A","white","woman","","true","0","","","","","","","","","",""
"null","CORRECT","","html-keyboard-response","224","1390088","0.0-16.0-23.0-0.0","69772","List1A","white","woman","","","","null","","","","","","","","",""
"13333.399999976158","<p>You got 8 out of 8 right first time. Press Continue.</p>","0","html-button-response","225","1403424","0.0-16.0-25.0","69772","List1A","white","woman","","","","","","","","","","","","",""
"null","<div style=""font-size:60px;"">+</div>","","html-keyboard-response","226","1404935","0.0-17.0-0.0","69772","List1A","white","woman","","","","null","","","","","","","","",""
"null","<img src=""stim_listA/copy7.gif""style=""height:400px;""></stim_listA>","","html-keyboard-response","227","1406941","0.0-17.0-1.0","69772","List1A","white","woman","","","","null","","","","","","","","",""
"null","is copying","","html-keyboard-response","228","1408946","0.0-17.0-2.0","69772","List1A","white","woman","","","","null","","","","","","","","",""
"301213.2000000477","","","survey-text","229","1710170","0.0-17.0-3.0","69772","List1A","white","woman","","","","","{""Q0"":""Kate is copying Ruth ""}","<img src=""stim_listA/copy7.gif""style=""height:400px;""></stim_listA>","is copying","","","","","",""
"null","<div style=""font-size:60px;"">+</div>","","html-keyboard-response","230","1710675","0.0-17.0-0.1","69772","List1A","white","woman","","","","null","","","","","","","","",""
"null","<img src=""stim_listA/touch8.gif""style=""height:400px;""></stim_listA>","","html-keyboard-response","231","1712677","0.0-17.0-1.1","69772","List1A","white","woman","","","","null","","","","","","","","",""
"null","is being touched by","","html-keyboard-response","232","1714678","0.0-17.0-2.1","69772","List1A","white","woman","","","","null","","","","","","","","",""
"10403.399999976158","","","survey-text","233","1725084","0.0-17.0-3.1","69772","List1A","white","woman","","","","","{""Q0"":""Beth is being touched by Ruth ""}","<img src=""stim_listA/touch8.gif""style=""height:400px;""></stim_listA>","is being touched by","","","","","",""
"null","<div style=""font-size:60px;"">+</div>","","html-keyboard-response","234","1725587","0.0-17.0-0.2","69772","List1A","white","woman","","","","null","","","","","","","","",""
"null","<img src=""stim_listA/hug6.gif""style=""height:400px;""></stim_listA>","","html-keyboard-response","235","1727592","0.0-17.0-1.2","69772","List1A","white","woman","","","","null","","","","","","","","",""
"null","is being hugged by","","html-keyboard-response","236","1729593","0.0-17.0-2.2","69772","List1A","white","woman","","","","null","","","","","","","","",""
"5962.400000035763","","","survey-text","237","1735558","0.0-17.0-3.2","69772","List1A","white","woman","","","","","{""Q0"":""Dave is being hugged by Mike""}","<img src=""stim_listA/hug6.gif""style=""height:400px;""></stim_listA>","is being hugged by","","","","","",""
"null","<div style=""font-size:60px;"">+</div>","","html-keyboard-response","238","1736062","0.0-17.0-0.3","69772","List1A","white","woman","","","","null","","","","","","","","",""
"null","<img src=""stim_listA/greet8.gif""style=""height:400px;""></stim_listA>","","html-keyboard-response","239","1738068","0.0-17.0-1.3","69772","List1A","white","woman","","","","null","","","","","","","","",""
"null","is being greeted by","","html-keyboard-response","240","1740069","0.0-17.0-2.3","69772","List1A","white","woman","","","","null","","","","","","","","",""
"7261.400000035763","","","survey-text","241","1747333","0.0-17.0-3.3","69772","List1A","white","woman","","","","","{""Q0"":""Beth is being greeted by Jane""}","<img src=""stim_listA/greet8.gif""style=""height:400px;""></stim_listA>","is being greeted by","","","","","",""
"null","<div style=""font-size:60px;"">+</div>","","html-keyboard-response","242","1747837","0.0-17.0-0.4","69772","List1A","white","woman","","","","null","","","","","","","","",""
"null","<img src=""stim_listA/challenge3.gif""style=""height:400px;""></stim_listA>","","html-keyboard-response","243","1749841","0.0-17.0-1.4","69772","List1A","white","woman","","","","null","","","","","","","","",""
"null","is challenging","","html-keyboard-response","244","1751847","0.0-17.0-2.4","69772","List1A","white","woman","","","","null","","","","","","","","",""
"5635.899999976158","","","survey-text","245","1757486","0.0-17.0-3.4","69772","List1A","white","woman","","","","","{""Q0"":""Ruth is challenging Dave""}","<img src=""stim_listA/challenge3.gif""style=""height:400px;""></stim_listA>","is challenging","","","","","",""
"null","<div style=""font-size:60px;"">+</div>","","html-keyboard-response","246","1757988","0.0-17.0-0.5","69772","List1A","white","woman","","","","null","","","","","","","","",""
"null","<img src=""stim_listA/copy5.gif""style=""height:400px;""></stim_listA>","","html-keyboard-response","247","1759990","0.0-17.0-1.5","69772","List1A","white","woman","","","","null","","","","","","","","",""
"null","is copying","","html-keyboard-response","248","1761992","0.0-17.0-2.5","69772","List1A","white","woman","","","","null","","","","","","","","",""
"5864.5","","","survey-text","249","1767858","0.0-17.0-3.5","69772","List1A","white","woman","","","","","{""Q0"":""Mike is copying Luke""}","<img src=""stim_listA/copy5.gif""style=""height:400px;""></stim_listA>","is copying","","","","","",""
"null","<div style=""font-size:60px;"">+</div>","","html-keyboard-response","250","1768364","0.0-17.0-0.6","69772","List1A","white","woman","","","","null","","","","","","","","",""
"null","<img src=""stim_listA/greet7.gif""style=""height:400px;""></stim_listA>","","html-keyboard-response","251","1770367","0.0-17.0-1.6","69772","List1A","white","woman","","","","null","","","","","","","","",""
"null","is greeting","","html-keyboard-response","252","1772372","0.0-17.0-2.6","69772","List1A","white","woman","","","","null","","","","","","","","",""
"6226.699999988079","","","survey-text","253","1778602","0.0-17.0-3.6","69772","List1A","white","woman","","","","","{""Q0"":""Kate is greeting Ruth""}","<img src=""stim_listA/greet7.gif""style=""height:400px;""></stim_listA>","is greeting","","","","","",""
"null","<div style=""font-size:60px;"">+</div>","","html-keyboard-response","254","1779105","0.0-17.0-0.7","69772","List1A","white","woman","","","","null","","","","","","","","",""
"null","<img src=""stim_listA/kiss4.gif""style=""height:400px;""></stim_listA>","","html-keyboard-response","255","1781112","0.0-17.0-1.7","69772","List1A","white","woman","","","","null","","","","","","","","",""
"null","is being kissed by","","html-keyboard-response","256","1783114","0.0-17.0-2.7","69772","List1A","white","woman","","","","null","","","","","","","","",""
"5420.400000035763","","","survey-text","257","1788537","0.0-17.0-3.7","69772","List1A","white","woman","","","","","{""Q0"":""Dave is being kissed by Jane""}","<img src=""stim_listA/kiss4.gif""style=""height:400px;""></stim_listA>","is being kissed by","","","","","",""
"null","<div style=""font-size:60px;"">+</div>","","html-keyboard-response","258","1789041","0.0-17.0-0.8","69772","List1A","white","woman","","","","null","","","","","","","","",""
"null","<img src=""stim_listA/challenge4.gif""style=""height:400px;""></stim_listA>","","html-keyboard-response","259","1791044","0.0-17.0-1.8","69772","List1A","white","woman","","","","null","","","","","","","","",""
"null","is being challenged by","","html-keyboard-response","260","1793050","0.0-17.0-2.8","69772","List1A","white","woman","","","","null","","","","","","","","",""
"9238.599999964237","","","survey-text","261","1802291","0.0-17.0-3.8","69772","List1A","white","woman","","","","","{""Q0"":""Jane is being challenged by Luke ""}","<img src=""stim_listA/challenge4.gif""style=""height:400px;""></stim_listA>","is being challenged by","","","","","",""
"null","<div style=""font-size:60px;"">+</div>","","html-keyboard-response","262","1802796","0.0-17.0-0.9","69772","List1A","white","woman","","","","null","","","","","","","","",""
"null","<img src=""stim_listA/seduce3.gif""style=""height:400px;""></stim_listA>","","html-keyboard-response","263","1804800","0.0-17.0-1.9","69772","List1A","white","woman","","","","null","","","","","","","","",""
"null","is seducing","","html-keyboard-response","264","1806802","0.0-17.0-2.9","69772","List1A","white","woman","","","","null","","","","","","","","",""
"6978.399999976158","","","survey-text","265","1813787","0.0-17.0-3.9","69772","List1A","white","woman","","","","","{""Q0"":""Jane is seducing Luke ""}","<img src=""stim_listA/seduce3.gif""style=""height:400px;""></stim_listA>","is seducing","","","","","",""
"null","<div style=""font-size:60px;"">+</div>","","html-keyboard-response","266","1814292","0.0-17.0-0.10","69772","List1A","white","woman","","","","null","","","","","","","","",""
"null","<img src=""stim_listA/seduce1.gif""style=""height:400px;""></stim_listA>","","html-keyboard-response","267","1816299","0.0-17.0-1.10","69772","List1A","white","woman","","","","null","","","","","","","","",""
"null","is seducing","","html-keyboard-response","268","1818301","0.0-17.0-2.10","69772","List1A","white","woman","","","","null","","","","","","","","",""
"6350.800000011921","","","survey-text","269","1824656","0.0-17.0-3.10","69772","List1A","white","woman","","","","","{""Q0"":""Fred is seducing Kate ""}","<img src=""stim_listA/seduce1.gif""style=""height:400px;""></stim_listA>","is seducing","","","","","",""
"null","<div style=""font-size:60px;"">+</div>","","html-keyboard-response","270","1825162","0.0-17.0-0.11","69772","List1A","white","woman","","","","null","","","","","","","","",""
"null","<img src=""stim_listA/touch7.gif""style=""height:400px;""></stim_listA>","","html-keyboard-response","271","1827167","0.0-17.0-1.11","69772","List1A","white","woman","","","","null","","","","","","","","",""
"null","is touching","","html-keyboard-response","272","1829169","0.0-17.0-2.11","69772","List1A","white","woman","","","","null","","","","","","","","",""
"4204.300000011921","","","survey-text","273","1833377","0.0-17.0-3.11","69772","List1A","white","woman","","","","","{""Q0"":""Kate is touching Jane ""}","<img src=""stim_listA/touch7.gif""style=""height:400px;""></stim_listA>","is touching","","","","","",""
"null","<div style=""font-size:60px;"">+</div>","","html-keyboard-response","274","1833883","0.0-17.0-0.12","69772","List1A","white","woman","","","","null","","","","","","","","",""
"null","<img src=""stim_listA/greet1.gif""style=""height:400px;""></stim_listA>","","html-keyboard-response","275","1835888","0.0-17.0-1.12","69772","List1A","white","woman","","","","null","","","","","","","","",""
"null","is greeting","","html-keyboard-response","276","1837893","0.0-17.0-2.12","69772","List1A","white","woman","","","","null","","","","","","","","",""
"4347","","","survey-text","277","1842243","0.0-17.0-3.12","69772","List1A","white","woman","","","","","{""Q0"":""Beth is greeting Mike ""}","<img src=""stim_listA/greet1.gif""style=""height:400px;""></stim_listA>","is greeting","","","","","",""
"null","<div style=""font-size:60px;"">+</div>","","html-keyboard-response","278","1842746","0.0-17.0-0.13","69772","List1A","white","woman","","","","null","","","","","","","","",""
"null","<img src=""stim_listA/oppose8.gif""style=""height:400px;""></stim_listA>","","html-keyboard-response","279","1844753","0.0-17.0-1.13","69772","List1A","white","woman","","","","null","","","","","","","","",""
"null","is being opposed by","","html-keyboard-response","280","1846759","0.0-17.0-2.13","69772","List1A","white","woman","","","","null","","","","","","","","",""
"7262.200000047684","","","survey-text","281","1854024","0.0-17.0-3.13","69772","List1A","white","woman","","","","","{""Q0"":""Beth is being opposed by Ruth ""}","<img src=""stim_listA/oppose8.gif""style=""height:400px;""></stim_listA>","is being opposed by","","","","","",""
"null","<div style=""font-size:60px;"">+</div>","","html-keyboard-response","282","1854528","0.0-17.0-0.14","69772","List1A","white","woman","","","","null","","","","","","","","",""
"null","<img src=""stim_listA/hug2.gif""style=""height:400px;""></stim_listA>","","html-keyboard-response","283","1856534","0.0-17.0-1.14","69772","List1A","white","woman","","","","null","","","","","","","","",""
"null","is being hugged by","","html-keyboard-response","284","1858535","0.0-17.0-2.14","69772","List1A","white","woman","","","","null","","","","","","","","",""
"14381.199999988079","","","survey-text","285","1872919","0.0-17.0-3.14","69772","List1A","white","woman","","","","","{""Q0"":""Kate is being hugged by Mike ""}","<img src=""stim_listA/hug2.gif""style=""height:400px;""></stim_listA>","is being hugged by","","","","","",""
"null","<div style=""font-size:60px;"">+</div>","","html-keyboard-response","286","1873425","0.0-17.0-0.15","69772","List1A","white","woman","","","","null","","","","","","","","",""
"null","<img src=""stim_listA/oppose1.gif""style=""height:400px;""></stim_listA>","","html-keyboard-response","287","1875428","0.0-17.0-1.15","69772","List1A","white","woman","","","","null","","","","","","","","",""
"null","is opposing","","html-keyboard-response","288","1877429","0.0-17.0-2.15","69772","List1A","white","woman","","","","null","","","","","","","","",""
"5923.800000011921","","","survey-text","289","1883356","0.0-17.0-3.15","69772","List1A","white","woman","","","","","{""Q0"":""Kate is opposing Mike ""}","<img src=""stim_listA/oppose1.gif""style=""height:400px;""></stim_listA>","is opposing","","","","","",""
"null","<div style=""font-size:60px;"">+</div>","","html-keyboard-response","290","1883862","0.0-17.0-0.16","69772","List1A","white","woman","","","","null","","","","","","","","",""
"null","<img src=""stim_listA/challenge2.gif""style=""height:400px;""></stim_listA>","","html-keyboard-response","291","1885866","0.0-17.0-1.16","69772","List1A","white","woman","","","","null","","","","","","","","",""
"null","is being challenged by","","html-keyboard-response","292","1887867","0.0-17.0-2.16","69772","List1A","white","woman","","","","null","","","","","","","","",""
"6957.700000047684","","","survey-text","293","1894828","0.0-17.0-3.16","69772","List1A","white","woman","","","","","{""Q0"":""Kate is being challenged by Fred""}","<img src=""stim_listA/challenge2.gif""style=""height:400px;""></stim_listA>","is being challenged by","","","","","",""
"null","<div style=""font-size:60px;"">+</div>","","html-keyboard-response","294","1895334","0.0-17.0-0.17","69772","List1A","white","woman","","","","null","","","","","","","","",""
"null","<img src=""stim_listA/kiss3.gif""style=""height:400px;""></stim_listA>","","html-keyboard-response","295","1897339","0.0-17.0-1.17","69772","List1A","white","woman","","","","null","","","","","","","","",""
"null","is kissing","","html-keyboard-response","296","1899341","0.0-17.0-2.17","69772","List1A","white","woman","","","","null","","","","","","","","",""
"5997.799999952316","","","survey-text","297","1905342","0.0-17.0-3.17","69772","List1A","white","woman","","","","","{""Q0"":""Ruth is kissing Luke ""}","<img src=""stim_listA/kiss3.gif""style=""height:400px;""></stim_listA>","is kissing","","","","","",""
"null","<div style=""font-size:60px;"">+</div>","","html-keyboard-response","298","1905848","0.0-17.0-0.18","69772","List1A","white","woman","","","","null","","","","","","","","",""
"null","<img src=""stim_listA/shout7.gif""style=""height:400px;""></stim_listA>","","html-keyboard-response","299","1907850","0.0-17.0-1.18","69772","List1A","white","woman","","","","null","","","","","","","","",""
"null","is shouting at","","html-keyboard-response","300","1909853","0.0-17.0-2.18","69772","List1A","white","woman","","","","null","","","","","","","","",""
"5408.300000011921","","","survey-text","301","1915264","0.0-17.0-3.18","69772","List1A","white","woman","","","","","{""Q0"":""Beth is shouting at Ruth ""}","<img src=""stim_listA/shout7.gif""style=""height:400px;""></stim_listA>","is shouting at","","","","","",""
"null","<div style=""font-size:60px;"">+</div>","","html-keyboard-response","302","1915770","0.0-17.0-0.19","69772","List1A","white","woman","","","","null","","","","","","","","",""
"null","<img src=""stim_listA/touch4.gif""style=""height:400px;""></stim_listA>","","html-keyboard-response","303","1917775","0.0-17.0-1.19","69772","List1A","white","woman","","","","null","","","","","","","","",""
"null","is being touched by","","html-keyboard-response","304","1919781","0.0-17.0-2.19","69772","List1A","white","woman","","","","null","","","","","","","","",""
"5708.199999988079","","","survey-text","305","1925493","0.0-17.0-3.19","69772","List1A","white","woman","","","","","{""Q0"":""Ruth is being touched by Luke ""}","<img src=""stim_listA/touch4.gif""style=""height:400px;""></stim_listA>","is being touched by","","","","","",""
"3149.900000035763","<img src='img/portrait_matrix_list1.jpg' style='width:900px;height:500px;''></img><p>If you have memorised all the portraits and names and are ready to start, press Continue.</p><p><strong>Please note: Your memory of these faces will be tested 4 times during this experiment.</strong></p>","0","html-button-response","306","1928644","0.0-18.0-0.0","69772","List1A","white","woman","","","","","","","","","","","","",""
"4021.199999988079","<img src=""portrait/BM2.jpg""style=""height:400px;""></img>","5","html-button-response","307","1933671","0.0-18.0-1.0","69772","List1A","white","woman","","true","5","","","","","","","","","",""
"null","CORRECT","","html-keyboard-response","308","1935178","0.0-18.0-2.0-0.0","69772","List1A","white","woman","","","","null","","","","","","","","",""
"3641.199999988079","<img src=""portrait/WM2.jpg""style=""height:400px;""></img>","7","html-button-response","309","1938821","0.0-18.0-4.0","69772","List1A","white","woman","","true","7","","","","","","","","","",""
"null","CORRECT","","html-keyboard-response","310","1940329","0.0-18.0-5.0-0.0","69772","List1A","white","woman","","","","null","","","","","","","","",""
"1664.3999999761581","<img src=""portrait/WW2.jpg""style=""height:400px;""></img>","3","html-button-response","311","1941995","0.0-18.0-7.0","69772","List1A","white","woman","","true","3","","","","","","","","","",""
"null","CORRECT","","html-keyboard-response","312","1943507","0.0-18.0-8.0-0.0","69772","List1A","white","woman","","","","null","","","","","","","","",""
"2361.800000011921","<img src=""portrait/WM1.jpg""style=""height:400px;""></img>","6","html-button-response","313","1945871","0.0-18.0-10.0","69772","List1A","white","woman","","true","6","","","","","","","","","",""
"null","CORRECT","","html-keyboard-response","314","1947379","0.0-18.0-11.0-0.0","69772","List1A","white","woman","","","","null","","","","","","","","",""
"1879.5","<img src=""portrait/WW1.jpg""style=""height:400px;""></img>","1","html-button-response","315","1949260","0.0-18.0-13.0","69772","List1A","white","woman","","true","1","","","","","","","","","",""
"null","CORRECT","","html-keyboard-response","316","1950765","0.0-18.0-14.0-0.0","69772","List1A","white","woman","","","","null","","","","","","","","",""
"1239.699999988079","<img src=""portrait/BW2.jpg""style=""height:400px;""></img>","2","html-button-response","317","1952007","0.0-18.0-16.0","69772","List1A","white","woman","","true","2","","","","","","","","","",""
"null","CORRECT","","html-keyboard-response","318","1953516","0.0-18.0-17.0-0.0","69772","List1A","white","woman","","","","null","","","","","","","","",""
"3490.400000035763","<img src=""portrait/BM1.jpg""style=""height:400px;""></img>","4","html-button-response","319","1957009","0.0-18.0-19.0","69772","List1A","white","woman","","true","4","","","","","","","","","",""
"null","CORRECT","","html-keyboard-response","320","1958513","0.0-18.0-20.0-0.0","69772","List1A","white","woman","","","","null","","","","","","","","",""
"3699.100000023842","<img src=""portrait/BW1.jpg""style=""height:400px;""></img>","0","html-button-response","321","1962214","0.0-18.0-22.0","69772","List1A","white","woman","","true","0","","","","","","","","","",""
"null","CORRECT","","html-keyboard-response","322","1963720","0.0-18.0-23.0-0.0","69772","List1A","white","woman","","","","null","","","","","","","","",""
"175644.5","<p>You got 8 out of 8 right first time. Press Continue.</p>","0","html-button-response","323","2139372","0.0-18.0-25.0","69772","List1A","white","woman","","","","","","","","","","","","",""
"null","<div style=""font-size:60px;"">+</div>","","html-keyboard-response","324","2140881","0.0-19.0-0.0","69772","List1A","white","woman","","","","null","","","","","","","","",""
"null","<img src=""stim_listA/challenge8.gif""style=""height:400px;""></stim_listA>","","html-keyboard-response","325","2142882","0.0-19.0-1.0","69772","List1A","white","woman","","","","null","","","","","","","","",""
"null","is being challenged by","","html-keyboard-response","326","2144888","0.0-19.0-2.0","69772","List1A","white","woman","","","","null","","","","","","","","",""
"8813.800000011921","","","survey-text","327","2153704","0.0-19.0-3.0","69772","List1A","white","woman","","","","","{""Q0"":""Beth is being challenged by Jane""}","<img src=""stim_listA/challenge8.gif""style=""height:400px;""></stim_listA>","is being challenged by","","","","","",""
"null","<div style=""font-size:60px;"">+</div>","","html-keyboard-response","328","2154209","0.0-19.0-0.1","69772","List1A","white","woman","","","","null","","","","","","","","",""
"null","<img src=""stim_listA/shout4.gif""style=""height:400px;""></stim_listA>","","html-keyboard-response","329","2156211","0.0-19.0-1.1","69772","List1A","white","woman","","","","null","","","","","","","","",""
"null","is being shouted at by","","html-keyboard-response","330","2158215","0.0-19.0-2.1","69772","List1A","white","woman","","","","null","","","","","","","","",""
"9813.899999976158","","","survey-text","331","2168032","0.0-19.0-3.1","69772","List1A","white","woman","","","","","{""Q0"":""Jane is being shouted at by Dave""}","<img src=""stim_listA/shout4.gif""style=""height:400px;""></stim_listA>","is being shouted at by","","","","","",""
"null","<div style=""font-size:60px;"">+</div>","","html-keyboard-response","332","2168537","0.0-19.0-0.2","69772","List1A","white","woman","","","","null","","","","","","","","",""
"null","<img src=""stim_listA/shout5.gif""style=""height:400px;""></stim_listA>","","html-keyboard-response","333","2170539","0.0-19.0-1.2","69772","List1A","white","woman","","","","null","","","","","","","","",""
"null","is shouting at","","html-keyboard-response","334","2172544","0.0-19.0-2.2","69772","List1A","white","woman","","","","null","","","","","","","","",""
"6277.599999964237","","","survey-text","335","2178824","0.0-19.0-3.2","69772","List1A","white","woman","","","","","{""Q0"":""Fred is shouting at Luke""}","<img src=""stim_listA/shout5.gif""style=""height:400px;""></stim_listA>","is shouting at","","","","","",""
"null","<div style=""font-size:60px;"">+</div>","","html-keyboard-response","336","2179330","0.0-19.0-0.3","69772","List1A","white","woman","","","","null","","","","","","","","",""
"null","<img src=""stim_listA/oppose5.gif""style=""height:400px;""></stim_listA>","","html-keyboard-response","337","2181337","0.0-19.0-1.3","69772","List1A","white","woman","","","","null","","","","","","","","",""
"null","is opposing","","html-keyboard-response","338","2183342","0.0-19.0-2.3","69772","List1A","white","woman","","","","null","","","","","","","","",""
"7876.800000011921","","","survey-text","339","2191222","0.0-19.0-3.3","69772","List1A","white","woman","","","","","{""Q0"":""Mike is opposing Luke ""}","<img src=""stim_listA/oppose5.gif""style=""height:400px;""></stim_listA>","is opposing","","","","","",""
"null","<div style=""font-size:60px;"">+</div>","","html-keyboard-response","340","2191726","0.0-19.0-0.4","69772","List1A","white","woman","","","","null","","","","","","","","",""
"null","<img src=""stim_listA/seduce5.gif""style=""height:400px;""></stim_listA>","","html-keyboard-response","341","2193728","0.0-19.0-1.4","69772","List1A","white","woman","","","","null","","","","","","","","",""
"null","is seducing","","html-keyboard-response","342","2195735","0.0-19.0-2.4","69772","List1A","white","woman","","","","null","","","","","","","","",""
"6906.300000011921","","","survey-text","343","2202644","0.0-19.0-3.4","69772","List1A","white","woman","","","","","{""Q0"":""Fred is seducing Dave ""}","<img src=""stim_listA/seduce5.gif""style=""height:400px;""></stim_listA>","is seducing","","","","","",""
"null","<div style=""font-size:60px;"">+</div>","","html-keyboard-response","344","2203150","0.0-19.0-0.5","69772","List1A","white","woman","","","","null","","","","","","","","",""
"null","<img src=""stim_listA/copy8.gif""style=""height:400px;""></stim_listA>","","html-keyboard-response","345","2205153","0.0-19.0-1.5","69772","List1A","white","woman","","","","null","","","","","","","","",""
"null","is being copied by","","html-keyboard-response","346","2207156","0.0-19.0-2.5","69772","List1A","white","woman","","","","null","","","","","","","","",""
"7418.100000023842","","","survey-text","347","2214578","0.0-19.0-3.5","69772","List1A","white","woman","","","","","{""Q0"":""Jane is being copied by Beth ""}","<img src=""stim_listA/copy8.gif""style=""height:400px;""></stim_listA>","is being copied by","","","","","",""
"null","<div style=""font-size:60px;"">+</div>","","html-keyboard-response","348","2215084","0.0-19.0-0.6","69772","List1A","white","woman","","","","null","","","","","","","","",""
"null","<img src=""stim_listA/hug5.gif""style=""height:400px;""></stim_listA>","","html-keyboard-response","349","2217086","0.0-19.0-1.6","69772","List1A","white","woman","","","","null","","","","","","","","",""
"null","is hugging","","html-keyboard-response","350","2219088","0.0-19.0-2.6","69772","List1A","white","woman","","","","null","","","","","","","","",""
"5394.800000011921","","","survey-text","351","2224485","0.0-19.0-3.6","69772","List1A","white","woman","","","","","{""Q0"":""Fred is hugging Luke ""}","<img src=""stim_listA/hug5.gif""style=""height:400px;""></stim_listA>","is hugging","","","","","",""
"null","<div style=""font-size:60px;"">+</div>","","html-keyboard-response","352","2224990","0.0-19.0-0.7","69772","List1A","white","woman","","","","null","","","","","","","","",""
"null","<img src=""stim_listA/hug4.gif""style=""height:400px;""></stim_listA>","","html-keyboard-response","353","2226995","0.0-19.0-1.7","69772","List1A","white","woman","","","","null","","","","","","","","",""
"null","is being hugged by","","html-keyboard-response","354","2228998","0.0-19.0-2.7","69772","List1A","white","woman","","","","null","","","","","","","","",""
"7226.899999976158","","","survey-text","355","2236227","0.0-19.0-3.7","69772","List1A","white","woman","","","","","{""Q0"":""Jane is being hugged by Dave ""}","<img src=""stim_listA/hug4.gif""style=""height:400px;""></stim_listA>","is being hugged by","","","","","",""
"null","<div style=""font-size:60px;"">+</div>","","html-keyboard-response","356","2236731","0.0-19.0-0.8","69772","List1A","white","woman","","","","null","","","","","","","","",""
"null","<img src=""stim_listA/shout2.gif""style=""height:400px;""></stim_listA>","","html-keyboard-response","357","2238738","0.0-19.0-1.8","69772","List1A","white","woman","","","","null","","","","","","","","",""
"null","is being shouted at by","","html-keyboard-response","358","2240741","0.0-19.0-2.8","69772","List1A","white","woman","","","","null","","","","","","","","",""
"9213.600000023842","","","survey-text","359","2249958","0.0-19.0-3.8","69772","List1A","white","woman","","","","","{""Q0"":""Kate is being shouted at by Mike ""}","<img src=""stim_listA/shout2.gif""style=""height:400px;""></stim_listA>","is being shouted at by","","","","","",""
"null","<div style=""font-size:60px;"">+</div>","","html-keyboard-response","360","2250459","0.0-19.0-0.9","69772","List1A","white","woman","","","","null","","","","","","","","",""
"null","<img src=""stim_listA/look2.gif""style=""height:400px;""></stim_listA>","","html-keyboard-response","361","2252465","0.0-19.0-1.9","69772","List1A","white","woman","","","","null","","","","","","","","",""
"null","is being looked at by","","html-keyboard-response","362","2254467","0.0-19.0-2.9","69772","List1A","white","woman","","","","null","","","","","","","","",""
"6427.300000011921","","","survey-text","363","2260897","0.0-19.0-3.9","69772","List1A","white","woman","","","","","{""Q0"":""Kate is being looked at by Mike ""}","<img src=""stim_listA/look2.gif""style=""height:400px;""></stim_listA>","is being looked at by","","","","","",""
"null","<div style=""font-size:60px;"">+</div>","","html-keyboard-response","364","2261399","0.0-19.0-0.10","69772","List1A","white","woman","","","","null","","","","","","","","",""
"null","<img src=""stim_listA/oppose3.gif""style=""height:400px;""></stim_listA>","","html-keyboard-response","365","2263404","0.0-19.0-1.10","69772","List1A","white","woman","","","","null","","","","","","","","",""
"null","is opposing","","html-keyboard-response","366","2265405","0.0-19.0-2.10","69772","List1A","white","woman","","","","null","","","","","","","","",""
"5647.399999976158","","","survey-text","367","2271056","0.0-19.0-3.10","69772","List1A","white","woman","","","","","{""Q0"":""Jane is opposing Dave ""}","<img src=""stim_listA/oppose3.gif""style=""height:400px;""></stim_listA>","is opposing","","","","","",""
"null","<div style=""font-size:60px;"">+</div>","","html-keyboard-response","368","2271557","0.0-19.0-0.11","69772","List1A","white","woman","","","","null","","","","","","","","",""
"null","<img src=""stim_listA/copy6.gif""style=""height:400px;""></stim_listA>","","html-keyboard-response","369","2273564","0.0-19.0-1.11","69772","List1A","white","woman","","","","null","","","","","","","","",""
"null","is being copied by","","html-keyboard-response","370","2275565","0.0-19.0-2.11","69772","List1A","white","woman","","","","null","","","","","","","","",""
"6252.699999988079","","","survey-text","371","2281820","0.0-19.0-3.11","69772","List1A","white","woman","","","","","{""Q0"":""Dave is being copied by Fred ""}","<img src=""stim_listA/copy6.gif""style=""height:400px;""></stim_listA>","is being copied by","","","","","",""
"null","<div style=""font-size:60px;"">+</div>","","html-keyboard-response","372","2282326","0.0-19.0-0.12","69772","List1A","white","woman","","","","null","","","","","","","","",""
"null","<img src=""stim_listA/copy3.gif""style=""height:400px;""></stim_listA>","","html-keyboard-response","373","2284328","0.0-19.0-1.12","69772","List1A","white","woman","","","","null","","","","","","","","",""
"null","is copying","","html-keyboard-response","374","2286330","0.0-19.0-2.12","69772","List1A","white","woman","","","","null","","","","","","","","",""
"4981.900000035763","","","survey-text","375","2291314","0.0-19.0-3.12","69772","List1A","white","woman","","","","","{""Q0"":""Dave is copying Ruth ""}","<img src=""stim_listA/copy3.gif""style=""height:400px;""></stim_listA>","is copying","","","","","",""
"null","<div style=""font-size:60px;"">+</div>","","html-keyboard-response","376","2291821","0.0-19.0-0.13","69772","List1A","white","woman","","","","null","","","","","","","","",""
"null","<img src=""stim_listA/greet2.gif""style=""height:400px;""></stim_listA>","","html-keyboard-response","377","2293825","0.0-19.0-1.13","69772","List1A","white","woman","","","","null","","","","","","","","",""
"null","is being greeted by","","html-keyboard-response","378","2295827","0.0-19.0-2.13","69772","List1A","white","woman","","","","null","","","","","","","","",""
"5720.5","","","survey-text","379","2301550","0.0-19.0-3.13","69772","List1A","white","woman","","","","","{""Q0"":""Kate is being greeted by Fred ""}","<img src=""stim_listA/greet2.gif""style=""height:400px;""></stim_listA>","is being greeted by","","","","","",""
"null","<div style=""font-size:60px;"">+</div>","","html-keyboard-response","380","2302053","0.0-19.0-0.14","69772","List1A","white","woman","","","","null","","","","","","","","",""
"null","<img src=""stim_listA/look3.gif""style=""height:400px;""></stim_listA>","","html-keyboard-response","381","2304056","0.0-19.0-1.14","69772","List1A","white","woman","","","","null","","","","","","","","",""
"null","is looking at","","html-keyboard-response","382","2306063","0.0-19.0-2.14","69772","List1A","white","woman","","","","null","","","","","","","","",""
"4615.899999976158","","","survey-text","383","2310682","0.0-19.0-3.14","69772","List1A","white","woman","","","","","{""Q0"":""Ruth is looking at Luke ""}","<img src=""stim_listA/look3.gif""style=""height:400px;""></stim_listA>","is looking at","","","","","",""
"null","<div style=""font-size:60px;"">+</div>","","html-keyboard-response","384","2311188","0.0-19.0-0.15","69772","List1A","white","woman","","","","null","","","","","","","","",""
"null","<img src=""stim_listA/touch3.gif""style=""height:400px;""></stim_listA>","","html-keyboard-response","385","2313191","0.0-19.0-1.15","69772","List1A","white","woman","","","","null","","","","","","","","",""
"null","is touching","","html-keyboard-response","386","2315192","0.0-19.0-2.15","69772","List1A","white","woman","","","","null","","","","","","","","",""
"4418.399999976158","","","survey-text","387","2319614","0.0-19.0-3.15","69772","List1A","white","woman","","","","","{""Q0"":""Dave is touching Jane ""}","<img src=""stim_listA/touch3.gif""style=""height:400px;""></stim_listA>","is touching","","","","","",""
"null","<div style=""font-size:60px;"">+</div>","","html-keyboard-response","388","2320118","0.0-19.0-0.16","69772","List1A","white","woman","","","","null","","","","","","","","",""
"null","<img src=""stim_listA/challenge5.gif""style=""height:400px;""></stim_listA>","","html-keyboard-response","389","2322121","0.0-19.0-1.16","69772","List1A","white","woman","","","","null","","","","","","","","",""
"null","is challenging","","html-keyboard-response","390","2324122","0.0-19.0-2.16","69772","List1A","white","woman","","","","null","","","","","","","","",""
"7762.5","","","survey-text","391","2331889","0.0-19.0-3.16","69772","List1A","white","woman","","","","","{""Q0"":""Luke is challenging Mike ""}","<img src=""stim_listA/challenge5.gif""style=""height:400px;""></stim_listA>","is challenging","","","","","",""
"null","<div style=""font-size:60px;"">+</div>","","html-keyboard-response","392","2332394","0.0-19.0-0.17","69772","List1A","white","woman","","","","null","","","","","","","","",""
"null","<img src=""stim_listA/greet6.gif""style=""height:400px;""></stim_listA>","","html-keyboard-response","393","2334399","0.0-19.0-1.17","69772","List1A","white","woman","","","","null","","","","","","","","",""
"null","is being greeted by","","html-keyboard-response","394","2336401","0.0-19.0-2.17","69772","List1A","white","woman","","","","null","","","","","","","","",""
"122803.69999998808","","","survey-text","395","2459211","0.0-19.0-3.17","69772","List1A","white","woman","","","","","{""Q0"":""Fred is being greeted by Dave ""}","<img src=""stim_listA/greet6.gif""style=""height:400px;""></stim_listA>","is being greeted by","","","","","",""
"null","<div style=""font-size:60px;"">+</div>","","html-keyboard-response","396","2459715","0.0-19.0-0.18","69772","List1A","white","woman","","","","null","","","","","","","","",""
"null","<img src=""stim_listA/kiss7.gif""style=""height:400px;""></stim_listA>","","html-keyboard-response","397","2461717","0.0-19.0-1.18","69772","List1A","white","woman","","","","null","","","","","","","","",""
"null","is kissing","","html-keyboard-response","398","2463718","0.0-19.0-2.18","69772","List1A","white","woman","","","","null","","","","","","","","",""
"6065.699999988079","","","survey-text","399","2469786","0.0-19.0-3.18","69772","List1A","white","woman","","","","","{""Q0"":""Beth is kissing Ruth ""}","<img src=""stim_listA/kiss7.gif""style=""height:400px;""></stim_listA>","is kissing","","","","","",""
"null","<div style=""font-size:60px;"">+</div>","","html-keyboard-response","400","2470292","0.0-19.0-0.19","69772","List1A","white","woman","","","","null","","","","","","","","",""
"null","<img src=""stim_listA/touch2.gif""style=""height:400px;""></stim_listA>","","html-keyboard-response","401","2472296","0.0-19.0-1.19","69772","List1A","white","woman","","","","null","","","","","","","","",""
"null","is being touched by","","html-keyboard-response","402","2474300","0.0-19.0-2.19","69772","List1A","white","woman","","","","null","","","","","","","","",""
"7327.699999988079","","","survey-text","403","2481631","0.0-19.0-3.19","69772","List1A","white","woman","","","","","{""Q0"":""Beth is being touched by Fred ""}","<img src=""stim_listA/touch2.gif""style=""height:400px;""></stim_listA>","is being touched by","","","","","",""
"3257.800000011921","<p>Thank you for completing that task.</p><p>The final part of this session is a questionnaire that will take about 4 minutes.</p><p>Press Continue.</p>","0","html-button-response","404","2484890","0.0-20.0","69772","List1A","white","woman","","","","","","","","","","","","",""
"62496.5","","","survey-text","405","2548394","0.0-21.0","69772","List1A","white","woman","","","","","{""Q0"":""36"",""Q1"":""English "",""Q2"":""English "",""Q3"":""United States"",""Q4"":""US Citizen"",""Q5"":""Caucasian "",""Q6"":""Female ""}","","","demographics","","","","",""
"2182.5","<p>Have you lived in the USA for the last 5 years or more?</p>","0","html-button-response","406","2550578","0.0-22.0","69772","List1A","white","woman","","","","","","","","fiveyears","","","","",""
"2840.600000023842","<p>Move the slider to show the extent to which you agree with the following statements.</p>","0","html-button-response","407","2554424","0.0-23.0","69772","List1A","white","woman","","","","","","","","","","","","",""
"5309.300000011921","","","html-slider-response","408","2560741","0.0-24.0-0.0-0.0","69772","List1A","white","woman","","","","","","","","survey_gender","100","","","I think that my gender has a lot to be proud of.","proud"
"5760.399999976158","","","html-slider-response","409","2566503","0.0-24.0-0.0-0.1","69772","List1A","white","woman","","","","","","","","survey_gender","64","","","People of my gender have a lot in common with each other.","common"
"5609.800000011921","","","html-slider-response","410","2572115","0.0-24.0-0.0-0.2","69772","List1A","white","woman","","","","","","","","survey_gender","0","","","Routine is not important to me.","filler"
"3670.300000011921","","","html-slider-response","411","2575787","0.0-24.0-0.0-0.3","69772","List1A","white","woman","","","","","","","","survey_gender","100","","","Being my gender is an important part of how I see myself.","important"
"4837.099999964237","","","html-slider-response","412","2580626","0.0-24.0-0.0-0.4","69772","List1A","white","woman","","","","","","","","survey_gender","66","","","It is not always easy for people to know what I am thinking.","filler"
"3297.600000023842","","","html-slider-response","413","2583926","0.0-24.0-0.0-0.5","69772","List1A","white","woman","","","","","","","","survey_gender","100","","","I feel a bond with my friends.","filler"
"3553.2999999523163","","","html-slider-response","414","2587480","0.0-24.0-0.0-0.6","69772","List1A","white","woman","","","","","","","","survey_gender","100","","","I would say I am an animal person.","filler"
"4745.800000011921","","","html-slider-response","415","2592228","0.0-24.0-0.0-0.7","69772","List1A","white","woman","","","","","","","","survey_gender","100","","","The fact that I am my gender is an important part of my identity.","identity"
"3240","","","html-slider-response","416","2595470","0.0-24.0-0.0-0.8","69772","List1A","white","woman","","","","","","","","survey_gender","100","","","I feel a bond with my gender.","bond"
"3935.600000023842","","","html-slider-response","417","2599407","0.0-24.0-0.0-0.9","69772","List1A","white","woman","","","","","","","","survey_gender","69","","","Most of the friends in my life are very similar to me.","filler"
"5107.800000011921","","","html-slider-response","418","2604517","0.0-24.0-0.0-0.10","69772","List1A","white","woman","","","","","","","","survey_gender","62","","","I have a lot in common with the average person of my gender.","average"
"3274.099999964237","","","html-slider-response","419","2607793","0.0-24.0-0.0-0.11","69772","List1A","white","woman","","","","","","","","survey_gender","71","","","It is pleasant to be my gender.","pleasant"
"3279.300000011921","","","html-slider-response","420","2611074","0.0-24.0-0.0-0.12","69772","List1A","white","woman","","","","","","","","survey_gender","79","","","I have a lot in common with my friends.","filler"
"3133.5","","","html-slider-response","421","2614209","0.0-24.0-0.0-0.13","69772","List1A","white","woman","","","","","","","","survey_gender","100","","","Being around my friends gives me a good feeling.","filler"
"3587.899999976158","","","html-slider-response","422","2617799","0.0-24.0-0.0-0.14","69772","List1A","white","woman","","","","","","","","survey_gender","54","","","I am similar to the average person of my gender.","similar"
"5124.800000011921","","","html-slider-response","423","2622926","0.0-24.0-0.0-0.15","69772","List1A","white","woman","","","","","","","","survey_gender","100","","","I am glad to have the friends that I have.","filler"
"3161.900000035763","","","html-slider-response","424","2626089","0.0-24.0-0.0-0.16","69772","List1A","white","woman","","","","","","","","survey_gender","69","","","I often think about the fact that I am my gender.","often"
"2671.900000035763","","","html-slider-response","425","2628763","0.0-24.0-0.0-0.17","69772","List1A","white","woman","","","","","","","","survey_gender","73","","","I am glad to be my gender.","glad"
"3010.100000023842","","","html-slider-response","426","2631774","0.0-24.0-0.0-0.18","69772","List1A","white","woman","","","","","","","","survey_gender","100","","","I feel solidarity with my friends.","filler"
"8007.899999976158","","","html-slider-response","427","2639784","0.0-24.0-0.0-0.19","69772","List1A","white","woman","","","","","","","","survey_gender","29","","","Family is not more important to me than friendship.","filler"
"3513.600000023842","","","html-slider-response","428","2643300","0.0-24.0-0.0-0.20","69772","List1A","white","woman","","","","","","","","survey_gender","77","","","Being my gender gives me a good feeling.","feeling"
"2638.400000035763","","","html-slider-response","429","2645940","0.0-24.0-0.0-0.21","69772","List1A","white","woman","","","","","","","","survey_gender","100","","","I feel solidarity with my gender.","solidarity"
"4322.900000035763","","","html-slider-response","430","2650265","0.0-24.0-0.0-0.22","69772","List1A","white","woman","","","","","","","","survey_gender","100","","","I often think about my actions.","filler"
"3885.400000035763","","","html-slider-response","431","2654152","0.0-24.0-0.0-0.23","69772","List1A","white","woman","","","","","","","","survey_gender","100","","","I consider myself a highly empathetic person.","filler"
"4473","","","html-slider-response","432","2658627","0.0-24.0-0.0-0.24","69772","List1A","white","woman","","","","","","","","survey_gender","73","","","My friends understand me.","filler"
"3295.599999964237","","","html-slider-response","433","2661924","0.0-24.0-0.0-0.25","69772","List1A","white","woman","","","","","","","","survey_gender","58","","","People of my gender are very similar to each other.","verysimilar"
"2713.2999999523163","","","html-slider-response","434","2664638","0.0-24.0-0.0-0.26","69772","List1A","white","woman","","","","","","","","survey_gender","100","","","I feel committed to my gender.","committed"
"3356.800000011921","","","html-slider-response","435","2667997","0.0-24.0-0.0-0.27","69772","List1A","white","woman","","","","","","","","survey_gender","83","","","My friends have a lot in common with each other.","filler"
"4439.199999988079","","","html-slider-response","436","2672437","0.0-24.0-1.0-0.0","69772","List1A","white","woman","","","","","","","","survey_race","39","","","I think that my race has a lot to be proud of.","proud"
"3783","","","html-slider-response","437","2676222","0.0-24.0-1.0-0.1","69772","List1A","white","woman","","","","","","","","survey_race","0","","","Getting older does not worry me.","filler"
"3398.399999976158","","","html-slider-response","438","2679623","0.0-24.0-1.0-0.2","69772","List1A","white","woman","","","","","","","","survey_race","100","","","I consider myself an introvert.","filler"
"4099.199999988079","","","html-slider-response","439","2683724","0.0-24.0-1.0-0.3","69772","List1A","white","woman","","","","","","","","survey_race","33","","","Being my race is an important part of how I see myself.","important"
"4232.699999988079","","","html-slider-response","440","2687959","0.0-24.0-1.0-0.4","69772","List1A","white","woman","","","","","","","","survey_race","49","","","I am glad to be my age.","filler"
"5281.700000047684","","","html-slider-response","441","2693243","0.0-24.0-1.0-0.5","69772","List1A","white","woman","","","","","","","","survey_race","48","","","I feel committed to my race.","committed"
"3183.099999964237","","","html-slider-response","442","2696428","0.0-24.0-1.0-0.6","69772","List1A","white","woman","","","","","","","","survey_race","48","","","The fact that I am my race is an important part of my identity.","identity"
"2749.399999976158","","","html-slider-response","443","2699178","0.0-24.0-1.0-0.7","69772","List1A","white","woman","","","","","","","","survey_race","37","","","It is pleasant to be my race.","pleasant"
"6605","","","html-slider-response","444","2705785","0.0-24.0-1.0-0.8","69772","List1A","white","woman","","","","","","","","survey_race","29","","","I have a lot in common with people of a similar age to me.","filler"
"4761.200000047684","","","html-slider-response","445","2710548","0.0-24.0-1.0-0.9","69772","List1A","white","woman","","","","","","","","survey_race","35","","","People of my race are very similar to each other.","verysimilar"
"2406.699999988079","","","html-slider-response","446","2712957","0.0-24.0-1.0-0.10","69772","List1A","white","woman","","","","","","","","survey_race","41","","","I am glad to be my race.","glad"
"2935.199999988079","","","html-slider-response","447","2715894","0.0-24.0-1.0-0.11","69772","List1A","white","woman","","","","","","","","survey_race","66","","","I feel a bond with people the same age as me.","filler"
"2014.1000000238419","","","html-slider-response","448","2717909","0.0-24.0-1.0-0.12","69772","List1A","white","woman","","","","","","","","survey_race","37","","","I feel a bond with my race.","bond"
"4737.599999964237","","","html-slider-response","449","2722648","0.0-24.0-1.0-0.13","69772","List1A","white","woman","","","","","","","","survey_race","33","","","I have a lot in common with the average person of my race.","average"
"3357.199999988079","","","html-slider-response","450","2726007","0.0-24.0-1.0-0.14","69772","List1A","white","woman","","","","","","","","survey_race","0","","","I consider myself an extrovert.","filler"
"3055.399999976158","","","html-slider-response","451","2729065","0.0-24.0-1.0-0.15","69772","List1A","white","woman","","","","","","","","survey_race","40","","","People of my race have a lot in common with each other.","common"
"4893.599999964237","","","html-slider-response","452","2733960","0.0-24.0-1.0-0.16","69772","List1A","white","woman","","","","","","","","survey_race","40","","","Being my age gives me a good feeling.","filler"
"3009.400000035763","","","html-slider-response","453","2736971","0.0-24.0-1.0-0.17","69772","List1A","white","woman","","","","","","","","survey_race","42","","","Being my race gives me a good feeling.","feeling"
"4026.2000000476837","","","html-slider-response","454","2740999","0.0-24.0-1.0-0.18","69772","List1A","white","woman","","","","","","","","survey_race","44","","","My age is not an important part of who I am.","filler"
"2063.5","","","html-slider-response","455","2743064","0.0-24.0-1.0-0.19","69772","List1A","white","woman","","","","","","","","survey_race","44","","","I am glad to be the age I am.","filler"
"4526.299999952316","","","html-slider-response","456","2747592","0.0-24.0-1.0-0.20","69772","List1A","white","woman","","","","","","","","survey_race","35","","","I often think about the fact that I am my race.","often"
"95868.19999998808","","","html-slider-response","457","2843475","0.0-24.0-1.0-0.21","69772","List1A","white","woman","","","","","","","","survey_race","59","","","I feel solidarity with people the same age as me.","filler"
"4034.199999988079","","","html-slider-response","458","2847511","0.0-24.0-1.0-0.22","69772","List1A","white","woman","","","","","","","","survey_race","1","","","I enjoy being in large groups.","filler"
"3100","","","html-slider-response","459","2850613","0.0-24.0-1.0-0.23","69772","List1A","white","woman","","","","","","","","survey_race","36","","","The older I get, the wiser I feel.","filler"
"2617.199999988079","","","html-slider-response","460","2853232","0.0-24.0-1.0-0.24","69772","List1A","white","woman","","","","","","","","survey_race","44","","","I often think about the fact that I am my age.","filler"
"3075.699999988079","","","html-slider-response","461","2856309","0.0-24.0-1.0-0.25","69772","List1A","white","woman","","","","","","","","survey_race","58","","","People my age have a lot in common with each other.","filler"
"3799","","","html-slider-response","462","2860110","0.0-24.0-1.0-0.26","69772","List1A","white","woman","","","","","","","","survey_race","44","","","I am similar to the average person of my race.","similar"
"2150.399999976158","","","html-slider-response","463","2862262","0.0-24.0-1.0-0.27","69772","List1A","white","woman","","","","","","","","survey_race","46","","","I feel solidarity with my race.","solidarity"
"8012.199999988079","","","survey-text","464","2870277","0.0-25.0","69772","List1A","white","woman","","","","","{""Q0"":""59290818ff4f900001828b23""}","","","worker_id","","","","",""
"11311.900000035763","","","external-html","465","2881887","0.0-26.0","69772","List1A","white","woman","debrief.html","","","","","","","","","","","",""
