"rt","stimulus","button_pressed","trial_type","trial_index","time_elapsed","internal_node_id","subject","list","ppt_race","ppt_gender","url","first_guess","correct","key_press","responses","image_type","phrase_type","test_part","response","stimulus1","stimulus2","question_type","survey_item"
"2216.2999999970198","Welcome to the experiment. Press Continue to begin.","0","html-button-response","0","2219","0.0-0.0","69873","List1A","white","woman","","","","","","","","","","","","",""
"108745.89999999106","","","external-html","1","112076","0.0-1.0","69873","List1A","white","woman","consent.html","","","","","","","","","","","",""
"11024.699999988079","<p>On the next page, you will see portraits of 8 people and their names.</p><p>Your first task is to take a few minutes to memorise the names of these people.</p><p>You will have to recall their names during the rest of the experiment, so it is</p><p>essential that you try to memorise these people and their names as best as you can.</p><br><p><strong>You will then be tested on your memory of these names and portraits.</strong></p><br><p>The experiment will start after you have completed this memory test.</p><br><p>Ready?</p>","0","html-button-response","2","123102","0.0-2.0","69873","List1A","white","woman","","","","","","","","","","","","",""
"148161.5","<img src='img/portrait_matrix_list1.jpg' style='width:900px;height:500px;''></img><p>If you have memorised all the portraits and names and are ready to start, press Continue.</p><p><strong>Please note: Your memory of these faces will be tested 4 times during this experiment.</strong></p>","0","html-button-response","3","272275","0.0-3.0-0.0","69873","List1A","white","woman","","","","","","","","","","","","",""
"6789.699999988079","<img src=""portrait/BW2.jpg""style=""height:400px;""></img>","2","html-button-response","4","280067","0.0-3.0-1.0","69873","List1A","white","woman","","true","2","","","","","","","","","",""
"null","CORRECT","","html-keyboard-response","5","281599","0.0-3.0-2.0-0.0","69873","List1A","white","woman","","","","null","","","","","","","","",""
"2828.0999999940395","<img src=""portrait/BW1.jpg""style=""height:400px;""></img>","0","html-button-response","6","284428","0.0-3.0-4.0","69873","List1A","white","woman","","true","0","","","","","","","","","",""
"null","CORRECT","","html-keyboard-response","7","285957","0.0-3.0-5.0-0.0","69873","List1A","white","woman","","","","null","","","","","","","","",""
"5660.5","<img src=""portrait/WM1.jpg""style=""height:400px;""></img>","6","html-button-response","8","291619","0.0-3.0-7.0","69873","List1A","white","woman","","true","6","","","","","","","","","",""
"null","CORRECT","","html-keyboard-response","9","293133","0.0-3.0-8.0-0.0","69873","List1A","white","woman","","","","null","","","","","","","","",""
"2769.7999999970198","<img src=""portrait/BM1.jpg""style=""height:400px;""></img>","4","html-button-response","10","295904","0.0-3.0-10.0","69873","List1A","white","woman","","true","4","","","","","","","","","",""
"null","CORRECT","","html-keyboard-response","11","297418","0.0-3.0-11.0-0.0","69873","List1A","white","woman","","","","null","","","","","","","","",""
"3125.0999999940395","<img src=""portrait/BM2.jpg""style=""height:400px;""></img>","5","html-button-response","12","300544","0.0-3.0-13.0","69873","List1A","white","woman","","true","5","","","","","","","","","",""
"null","CORRECT","","html-keyboard-response","13","302045","0.0-3.0-14.0-0.0","69873","List1A","white","woman","","","","null","","","","","","","","",""
"5620.4000000059605","<img src=""portrait/WW1.jpg""style=""height:400px;""></img>","1","html-button-response","14","307667","0.0-3.0-16.0","69873","List1A","white","woman","","true","1","","","","","","","","","",""
"null","CORRECT","","html-keyboard-response","15","309173","0.0-3.0-17.0-0.0","69873","List1A","white","woman","","","","null","","","","","","","","",""
"3349.9000000059605","<img src=""portrait/WM2.jpg""style=""height:400px;""></img>","7","html-button-response","16","312524","0.0-3.0-19.0","69873","List1A","white","woman","","true","7","","","","","","","","","",""
"null","CORRECT","","html-keyboard-response","17","314057","0.0-3.0-20.0-0.0","69873","List1A","white","woman","","","","null","","","","","","","","",""
"2241.5999999940395","<img src=""portrait/WW2.jpg""style=""height:400px;""></img>","3","html-button-response","18","316299","0.0-3.0-22.0","69873","List1A","white","woman","","true","3","","","","","","","","","",""
"null","CORRECT","","html-keyboard-response","19","317828","0.0-3.0-23.0-0.0","69873","List1A","white","woman","","","","null","","","","","","","","",""
"2612.2000000029802","<p>You got 8 out of 8 right first time. Press Continue.</p>","0","html-button-response","20","320441","0.0-3.0-25.0","69873","List1A","white","woman","","","","","","","","","","","","",""
"38497","<p>In this experiment, you will view photographs of the people from the memory game interacting.</p><p>By using the <strong>exact</strong> phrase given <i>after</i> the photograph appears and recalling the correct names of the people in the photographs, form a sentence describing the interaction. You do not need to capitalise names.</p><p>Type your answer in the space provided. Please complete every sentence before moving onto the next trial.</p><p>You will only have a few seconds to memorise each given photograph and phrase before you can respond, so try your best to focus.</p><p>An example is given below. Press 'Continue' when you are ready.</p><img src='img/speaking_example.jpg' style='width:800px;height:460px;''></img>","0","html-button-response","21","359951","0.0-4.0","69873","List1A","white","woman","","","","","","","","","","","","",""
"15438.5","<p>Before the experiment starts, you will watch two example trials. Press 'Continue'.</p>","0","html-button-response","22","376406","0.0-5.0","69873","List1A","white","woman","","","","","","","","","","","","",""
"null","<img src='img/play_eg.gif' style='height:400px;''></img>","","html-keyboard-response","23","379422","0.0-6.0","69873","List1A","white","woman","","","","null","","","","","","","","",""
"null","<p>is playing with</p>","","html-keyboard-response","24","381428","0.0-7.0","69873","List1A","white","woman","","","","null","","","","","","","","",""
"11745.59999999404","<p><b>Answer:</b> kate is playing with beth</p>","0","html-button-response","25","393173","0.0-8.0","69873","List1A","white","woman","","","","","","","","","","","","",""
"null","<img src='img/dance_eg.gif' style='height:400px;''></img>","","html-keyboard-response","26","396185","0.0-9.0","69873","List1A","white","woman","","","","null","","","","","","","","",""
"null","<p>is being entertained by</p>","","html-keyboard-response","27","398197","0.0-10.0","69873","List1A","white","woman","","","","null","","","","","","","","",""
"13425.59999999404","<p><b>Answer:</b> luke is being entertained by dave</p>","0","html-button-response","28","411623","0.0-11.0","69873","List1A","white","woman","","","","","","","","","","","","",""
"7128","<p>Ready to start the experiment?</p><br><p><strong>Remember to describe the picture using a full sentence,</strong></p><p><strong>that combines the names of the people with the <i>exact</i> phrase given.</strong></p><p><strong>To receive full payment you must do this correctly.</strong></p><p><strong> You do not need to capitalise names or use punctuation.</strong></p><br><p>Press 'Continue' to begin.</p>","0","html-button-response","29","419766","0.0-12.0","69873","List1A","white","woman","","","","","","","","","","","","",""
"null","<div style=""font-size:60px;"">+</div>","","html-keyboard-response","30","421291","0.0-13.0-0.0","69873","List1A","white","woman","","","","null","","","","","","","","",""
"null","<img src=""stim_listA/seduce6.gif""style=""height:400px;""></stim_listA>","","html-keyboard-response","31","423300","0.0-13.0-1.0","69873","List1A","white","woman","","","","null","","","","","","","","",""
"null","is being seduced by","","html-keyboard-response","32","425304","0.0-13.0-2.0","69873","List1A","white","woman","","","","null","","","","","","","","",""
"13480","","","survey-text","33","438786","0.0-13.0-3.0","69873","List1A","white","woman","","","","","{""Q0"":""Luke is being seduced by Mike""}","<img src=""stim_listA/seduce6.gif""style=""height:400px;""></stim_listA>","is being seduced by","","","","","",""
"null","<div style=""font-size:60px;"">+</div>","","html-keyboard-response","34","439299","0.0-13.0-0.1","69873","List1A","white","woman","","","","null","","","","","","","","",""
"null","<img src=""stim_listA/challenge2.gif""style=""height:400px;""></stim_listA>","","html-keyboard-response","35","441301","0.0-13.0-1.1","69873","List1A","white","woman","","","","null","","","","","","","","",""
"null","is being challenged by","","html-keyboard-response","36","443302","0.0-13.0-2.1","69873","List1A","white","woman","","","","null","","","","","","","","",""
"18010.90000000596","","","survey-text","37","461316","0.0-13.0-3.1","69873","List1A","white","woman","","","","","{""Q0"":""Kate is being challenged by Mike""}","<img src=""stim_listA/challenge2.gif""style=""height:400px;""></stim_listA>","is being challenged by","","","","","",""
"null","<div style=""font-size:60px;"">+</div>","","html-keyboard-response","38","461828","0.0-13.0-0.2","69873","List1A","white","woman","","","","null","","","","","","","","",""
"null","<img src=""stim_listA/copy7.gif""style=""height:400px;""></stim_listA>","","html-keyboard-response","39","463841","0.0-13.0-1.2","69873","List1A","white","woman","","","","null","","","","","","","","",""
"null","is copying","","html-keyboard-response","40","465844","0.0-13.0-2.2","69873","List1A","white","woman","","","","null","","","","","","","","",""
"16559.70000000298","","","survey-text","41","482406","0.0-13.0-3.2","69873","List1A","white","woman","","","","","{""Q0"":""Kate is copying Jane""}","<img src=""stim_listA/copy7.gif""style=""height:400px;""></stim_listA>","is copying","","","","","",""
"null","<div style=""font-size:60px;"">+</div>","","html-keyboard-response","42","482920","0.0-13.0-0.3","69873","List1A","white","woman","","","","null","","","","","","","","",""
"null","<img src=""stim_listA/hug4.gif""style=""height:400px;""></stim_listA>","","html-keyboard-response","43","484930","0.0-13.0-1.3","69873","List1A","white","woman","","","","null","","","","","","","","",""
"null","is being hugged by","","html-keyboard-response","44","486946","0.0-13.0-2.3","69873","List1A","white","woman","","","","null","","","","","","","","",""
"8479.09999999404","","","survey-text","45","495427","0.0-13.0-3.3","69873","List1A","white","woman","","","","","{""Q0"":""Jane is being hugged by Dave""}","<img src=""stim_listA/hug4.gif""style=""height:400px;""></stim_listA>","is being hugged by","","","","","",""
"null","<div style=""font-size:60px;"">+</div>","","html-keyboard-response","46","495940","0.0-13.0-0.4","69873","List1A","white","woman","","","","null","","","","","","","","",""
"null","<img src=""stim_listA/look1.gif""style=""height:400px;""></stim_listA>","","html-keyboard-response","47","497941","0.0-13.0-1.4","69873","List1A","white","woman","","","","null","","","","","","","","",""
"null","is looking at","","html-keyboard-response","48","499957","0.0-13.0-2.4","69873","List1A","white","woman","","","","null","","","","","","","","",""
"6749.20000000298","","","survey-text","49","506708","0.0-13.0-3.4","69873","List1A","white","woman","","","","","{""Q0"":""Mike is looking at Beth""}","<img src=""stim_listA/look1.gif""style=""height:400px;""></stim_listA>","is looking at","","","","","",""
"null","<div style=""font-size:60px;"">+</div>","","html-keyboard-response","50","507219","0.0-13.0-0.5","69873","List1A","white","woman","","","","null","","","","","","","","",""
"null","<img src=""stim_listA/kiss6.gif""style=""height:400px;""></stim_listA>","","html-keyboard-response","51","509233","0.0-13.0-1.5","69873","List1A","white","woman","","","","null","","","","","","","","",""
"null","is being kissed by","","html-keyboard-response","52","511246","0.0-13.0-2.5","69873","List1A","white","woman","","","","null","","","","","","","","",""
"13917.60000000894","","","survey-text","53","525165","0.0-13.0-3.5","69873","List1A","white","woman","","","","","{""Q0"":""Dave is being kissed by Mike""}","<img src=""stim_listA/kiss6.gif""style=""height:400px;""></stim_listA>","is being kissed by","","","","","",""
"null","<div style=""font-size:60px;"">+</div>","","html-keyboard-response","54","525678","0.0-13.0-0.6","69873","List1A","white","woman","","","","null","","","","","","","","",""
"null","<img src=""stim_listA/oppose8.gif""style=""height:400px;""></stim_listA>","","html-keyboard-response","55","527694","0.0-13.0-1.6","69873","List1A","white","woman","","","","null","","","","","","","","",""
"null","is being opposed by","","html-keyboard-response","56","529698","0.0-13.0-2.6","69873","List1A","white","woman","","","","null","","","","","","","","",""
"31281","","","survey-text","57","560981","0.0-13.0-3.6","69873","List1A","white","woman","","","","","{""Q0"":""Jane is being opposed by Beth""}","<img src=""stim_listA/oppose8.gif""style=""height:400px;""></stim_listA>","is being opposed by","","","","","",""
"null","<div style=""font-size:60px;"">+</div>","","html-keyboard-response","58","561492","0.0-13.0-0.7","69873","List1A","white","woman","","","","null","","","","","","","","",""
"null","<img src=""stim_listA/shout3.gif""style=""height:400px;""></stim_listA>","","html-keyboard-response","59","563494","0.0-13.0-1.7","69873","List1A","white","woman","","","","null","","","","","","","","",""
"null","is shouting at","","html-keyboard-response","60","565506","0.0-13.0-2.7","69873","List1A","white","woman","","","","null","","","","","","","","",""
"6281.0999999940395","","","survey-text","61","571790","0.0-13.0-3.7","69873","List1A","white","woman","","","","","{""Q0"":""Luke is shouting at Jane""}","<img src=""stim_listA/shout3.gif""style=""height:400px;""></stim_listA>","is shouting at","","","","","",""
"null","<div style=""font-size:60px;"">+</div>","","html-keyboard-response","62","572300","0.0-13.0-0.8","69873","List1A","white","woman","","","","null","","","","","","","","",""
"null","<img src=""stim_listA/oppose1.gif""style=""height:400px;""></stim_listA>","","html-keyboard-response","63","574303","0.0-13.0-1.8","69873","List1A","white","woman","","","","null","","","","","","","","",""
"null","is opposing","","html-keyboard-response","64","576307","0.0-13.0-2.8","69873","List1A","white","woman","","","","null","","","","","","","","",""
"6787.4000000059605","","","survey-text","65","583097","0.0-13.0-3.8","69873","List1A","white","woman","","","","","{""Q0"":""Mike is opposing Kate""}","<img src=""stim_listA/oppose1.gif""style=""height:400px;""></stim_listA>","is opposing","","","","","",""
"null","<div style=""font-size:60px;"">+</div>","","html-keyboard-response","66","583609","0.0-13.0-0.9","69873","List1A","white","woman","","","","null","","","","","","","","",""
"null","<img src=""stim_listA/look2.gif""style=""height:400px;""></stim_listA>","","html-keyboard-response","67","585624","0.0-13.0-1.9","69873","List1A","white","woman","","","","null","","","","","","","","",""
"null","is being looked at by","","html-keyboard-response","68","587643","0.0-13.0-2.9","69873","List1A","white","woman","","","","null","","","","","","","","",""
"20774.20000000298","","","survey-text","69","608419","0.0-13.0-3.9","69873","List1A","white","woman","","","","","{""Q0"":""Mike is being looked at Kate""}","<img src=""stim_listA/look2.gif""style=""height:400px;""></stim_listA>","is being looked at by","","","","","",""
"null","<div style=""font-size:60px;"">+</div>","","html-keyboard-response","70","608935","0.0-13.0-0.10","69873","List1A","white","woman","","","","null","","","","","","","","",""
"null","<img src=""stim_listA/touch5.gif""style=""height:400px;""></stim_listA>","","html-keyboard-response","71","610941","0.0-13.0-1.10","69873","List1A","white","woman","","","","null","","","","","","","","",""
"null","is touching","","html-keyboard-response","72","612947","0.0-13.0-2.10","69873","List1A","white","woman","","","","null","","","","","","","","",""
"6548.79999999702","","","survey-text","73","619498","0.0-13.0-3.10","69873","List1A","white","woman","","","","","{""Q0"":""Dave is touching Mike""}","<img src=""stim_listA/touch5.gif""style=""height:400px;""></stim_listA>","is touching","","","","","",""
"null","<div style=""font-size:60px;"">+</div>","","html-keyboard-response","74","620010","0.0-13.0-0.11","69873","List1A","white","woman","","","","null","","","","","","","","",""
"null","<img src=""stim_listA/look5.gif""style=""height:400px;""></stim_listA>","","html-keyboard-response","75","622013","0.0-13.0-1.11","69873","List1A","white","woman","","","","null","","","","","","","","",""
"null","is looking at","","html-keyboard-response","76","624029","0.0-13.0-2.11","69873","List1A","white","woman","","","","null","","","","","","","","",""
"9162.09999999404","","","survey-text","77","633194","0.0-13.0-3.11","69873","List1A","white","woman","","","","","{""Q0"":""Fred is looked at Luke""}","<img src=""stim_listA/look5.gif""style=""height:400px;""></stim_listA>","is looking at","","","","","",""
"null","<div style=""font-size:60px;"">+</div>","","html-keyboard-response","78","633707","0.0-13.0-0.12","69873","List1A","white","woman","","","","null","","","","","","","","",""
"null","<img src=""stim_listA/touch1.gif""style=""height:400px;""></stim_listA>","","html-keyboard-response","79","635709","0.0-13.0-1.12","69873","List1A","white","woman","","","","null","","","","","","","","",""
"null","is touching","","html-keyboard-response","80","637720","0.0-13.0-2.12","69873","List1A","white","woman","","","","null","","","","","","","","",""
"7518","","","survey-text","81","645240","0.0-13.0-3.12","69873","List1A","white","woman","","","","","{""Q0"":""Mike is touching Kate""}","<img src=""stim_listA/touch1.gif""style=""height:400px;""></stim_listA>","is touching","","","","","",""
"null","<div style=""font-size:60px;"">+</div>","","html-keyboard-response","82","645754","0.0-13.0-0.13","69873","List1A","white","woman","","","","null","","","","","","","","",""
"null","<img src=""stim_listA/copy3.gif""style=""height:400px;""></stim_listA>","","html-keyboard-response","83","647761","0.0-13.0-1.13","69873","List1A","white","woman","","","","null","","","","","","","","",""
"null","is copying","","html-keyboard-response","84","649766","0.0-13.0-2.13","69873","List1A","white","woman","","","","null","","","","","","","","",""
"6402.899999991059","","","survey-text","85","656171","0.0-13.0-3.13","69873","List1A","white","woman","","","","","{""Q0"":""Dave is copying Jane""}","<img src=""stim_listA/copy3.gif""style=""height:400px;""></stim_listA>","is copying","","","","","",""
"null","<div style=""font-size:60px;"">+</div>","","html-keyboard-response","86","656682","0.0-13.0-0.14","69873","List1A","white","woman","","","","null","","","","","","","","",""
"null","<img src=""stim_listA/kiss3.gif""style=""height:400px;""></stim_listA>","","html-keyboard-response","87","658684","0.0-13.0-1.14","69873","List1A","white","woman","","","","null","","","","","","","","",""
"null","is kissing","","html-keyboard-response","88","660694","0.0-13.0-2.14","69873","List1A","white","woman","","","","null","","","","","","","","",""
"7527.20000000298","","","survey-text","89","668223","0.0-13.0-3.14","69873","List1A","white","woman","","","","","{""Q0"":""Jane is kissing Luke""}","<img src=""stim_listA/kiss3.gif""style=""height:400px;""></stim_listA>","is kissing","","","","","",""
"null","<div style=""font-size:60px;"">+</div>","","html-keyboard-response","90","668735","0.0-13.0-0.15","69873","List1A","white","woman","","","","null","","","","","","","","",""
"null","<img src=""stim_listA/look4.gif""style=""height:400px;""></stim_listA>","","html-keyboard-response","91","670737","0.0-13.0-1.15","69873","List1A","white","woman","","","","null","","","","","","","","",""
"null","is being looked at by","","html-keyboard-response","92","672750","0.0-13.0-2.15","69873","List1A","white","woman","","","","null","","","","","","","","",""
"39174.79999999702","","","survey-text","93","711927","0.0-13.0-3.15","69873","List1A","white","woman","","","","","{""Q0"":""jane is looking luke""}","<img src=""stim_listA/look4.gif""style=""height:400px;""></stim_listA>","is being looked at by","","","","","",""
"null","<div style=""font-size:60px;"">+</div>","","html-keyboard-response","94","712440","0.0-13.0-0.16","69873","List1A","white","woman","","","","null","","","","","","","","",""
"null","<img src=""stim_listA/shout2.gif""style=""height:400px;""></stim_listA>","","html-keyboard-response","95","714442","0.0-13.0-1.16","69873","List1A","white","woman","","","","null","","","","","","","","",""
"null","is being shouted at by","","html-keyboard-response","96","716453","0.0-13.0-2.16","69873","List1A","white","woman","","","","null","","","","","","","","",""
"9800.90000000596","","","survey-text","97","726256","0.0-13.0-3.16","69873","List1A","white","woman","","","","","{""Q0"":""Kate is being shouted at Mike""}","<img src=""stim_listA/shout2.gif""style=""height:400px;""></stim_listA>","is being shouted at by","","","","","",""
"null","<div style=""font-size:60px;"">+</div>","","html-keyboard-response","98","726767","0.0-13.0-0.17","69873","List1A","white","woman","","","","null","","","","","","","","",""
"null","<img src=""stim_listA/look3.gif""style=""height:400px;""></stim_listA>","","html-keyboard-response","99","728780","0.0-13.0-1.17","69873","List1A","white","woman","","","","null","","","","","","","","",""
"null","is looking at","","html-keyboard-response","100","730795","0.0-13.0-2.17","69873","List1A","white","woman","","","","null","","","","","","","","",""
"8531.29999999702","","","survey-text","101","739329","0.0-13.0-3.17","69873","List1A","white","woman","","","","","{""Q0"":""Ruth is looking at Luke""}","<img src=""stim_listA/look3.gif""style=""height:400px;""></stim_listA>","is looking at","","","","","",""
"null","<div style=""font-size:60px;"">+</div>","","html-keyboard-response","102","739844","0.0-13.0-0.18","69873","List1A","white","woman","","","","null","","","","","","","","",""
"null","<img src=""stim_listA/challenge3.gif""style=""height:400px;""></stim_listA>","","html-keyboard-response","103","741850","0.0-13.0-1.18","69873","List1A","white","woman","","","","null","","","","","","","","",""
"null","is challenging","","html-keyboard-response","104","743854","0.0-13.0-2.18","69873","List1A","white","woman","","","","null","","","","","","","","",""
"10154.5","","","survey-text","105","754010","0.0-13.0-3.18","69873","List1A","white","woman","","","","","{""Q0"":""Ruth is challenging dave""}","<img src=""stim_listA/challenge3.gif""style=""height:400px;""></stim_listA>","is challenging","","","","","",""
"null","<div style=""font-size:60px;"">+</div>","","html-keyboard-response","106","754524","0.0-13.0-0.19","69873","List1A","white","woman","","","","null","","","","","","","","",""
"null","<img src=""stim_listA/seduce3.gif""style=""height:400px;""></stim_listA>","","html-keyboard-response","107","756526","0.0-13.0-1.19","69873","List1A","white","woman","","","","null","","","","","","","","",""
"null","is seducing","","html-keyboard-response","108","758529","0.0-13.0-2.19","69873","List1A","white","woman","","","","null","","","","","","","","",""
"5460.100000008941","","","survey-text","109","763990","0.0-13.0-3.19","69873","List1A","white","woman","","","","","{""Q0"":""Jane is seducing Luke""}","<img src=""stim_listA/seduce3.gif""style=""height:400px;""></stim_listA>","is seducing","","","","","",""
"9607.20000000298","<img src='img/portrait_matrix_list1.jpg' style='width:900px;height:500px;''></img><p>If you have memorised all the portraits and names and are ready to start, press Continue.</p><p><strong>Please note: Your memory of these faces will be tested 4 times during this experiment.</strong></p>","0","html-button-response","110","773599","0.0-14.0-0.0","69873","List1A","white","woman","","","","","","","","","","","","",""
"2845.7999999970198","<img src=""portrait/BM1.jpg""style=""height:400px;""></img>","4","html-button-response","111","777459","0.0-14.0-1.0","69873","List1A","white","woman","","true","4","","","","","","","","","",""
"null","CORRECT","","html-keyboard-response","112","778988","0.0-14.0-2.0-0.0","69873","List1A","white","woman","","","","null","","","","","","","","",""
"3142.2999999970198","<img src=""portrait/BW1.jpg""style=""height:400px;""></img>","0","html-button-response","113","782132","0.0-14.0-4.0","69873","List1A","white","woman","","true","0","","","","","","","","","",""
"null","CORRECT","","html-keyboard-response","114","783646","0.0-14.0-5.0-0.0","69873","List1A","white","woman","","","","null","","","","","","","","",""
"2152.2000000029802","<img src=""portrait/WW1.jpg""style=""height:400px;""></img>","1","html-button-response","115","785800","0.0-14.0-7.0","69873","List1A","white","woman","","true","1","","","","","","","","","",""
"null","CORRECT","","html-keyboard-response","116","787326","0.0-14.0-8.0-0.0","69873","List1A","white","woman","","","","null","","","","","","","","",""
"2049.7000000029802","<img src=""portrait/WM2.jpg""style=""height:400px;""></img>","7","html-button-response","117","789377","0.0-14.0-10.0","69873","List1A","white","woman","","true","7","","","","","","","","","",""
"null","CORRECT","","html-keyboard-response","118","790906","0.0-14.0-11.0-0.0","69873","List1A","white","woman","","","","null","","","","","","","","",""
"2145.2000000029802","<img src=""portrait/BW2.jpg""style=""height:400px;""></img>","2","html-button-response","119","793052","0.0-14.0-13.0","69873","List1A","white","woman","","true","2","","","","","","","","","",""
"null","CORRECT","","html-keyboard-response","120","794577","0.0-14.0-14.0-0.0","69873","List1A","white","woman","","","","null","","","","","","","","",""
"2445","<img src=""portrait/BM2.jpg""style=""height:400px;""></img>","5","html-button-response","121","797024","0.0-14.0-16.0","69873","List1A","white","woman","","true","5","","","","","","","","","",""
"null","CORRECT","","html-keyboard-response","122","798550","0.0-14.0-17.0-0.0","69873","List1A","white","woman","","","","null","","","","","","","","",""
"2586.199999988079","<img src=""portrait/WM1.jpg""style=""height:400px;""></img>","6","html-button-response","123","801137","0.0-14.0-19.0","69873","List1A","white","woman","","true","6","","","","","","","","","",""
"null","CORRECT","","html-keyboard-response","124","802665","0.0-14.0-20.0-0.0","69873","List1A","white","woman","","","","null","","","","","","","","",""
"1885.0999999940395","<img src=""portrait/WW2.jpg""style=""height:400px;""></img>","3","html-button-response","125","804551","0.0-14.0-22.0","69873","List1A","white","woman","","true","3","","","","","","","","","",""
"null","CORRECT","","html-keyboard-response","126","806081","0.0-14.0-23.0-0.0","69873","List1A","white","woman","","","","null","","","","","","","","",""
"1992.2999999970198","<p>You got 8 out of 8 right first time. Press Continue.</p>","0","html-button-response","127","808075","0.0-14.0-25.0","69873","List1A","white","woman","","","","","","","","","","","","",""
"null","<div style=""font-size:60px;"">+</div>","","html-keyboard-response","128","809603","0.0-15.0-0.0","69873","List1A","white","woman","","","","null","","","","","","","","",""
"null","<img src=""stim_listA/shout4.gif""style=""height:400px;""></stim_listA>","","html-keyboard-response","129","811615","0.0-15.0-1.0","69873","List1A","white","woman","","","","null","","","","","","","","",""
"null","is being shouted at by","","html-keyboard-response","130","813632","0.0-15.0-2.0","69873","List1A","white","woman","","","","null","","","","","","","","",""
"8698.5","","","survey-text","131","822332","0.0-15.0-3.0","69873","List1A","white","woman","","","","","{""Q0"":""Jane is being shouted at by Dave""}","<img src=""stim_listA/shout4.gif""style=""height:400px;""></stim_listA>","is being shouted at by","","","","","",""
"null","<div style=""font-size:60px;"">+</div>","","html-keyboard-response","132","822845","0.0-15.0-0.1","69873","List1A","white","woman","","","","null","","","","","","","","",""
"null","<img src=""stim_listA/seduce5.gif""style=""height:400px;""></stim_listA>","","html-keyboard-response","133","824850","0.0-15.0-1.1","69873","List1A","white","woman","","","","null","","","","","","","","",""
"null","is seducing","","html-keyboard-response","134","826862","0.0-15.0-2.1","69873","List1A","white","woman","","","","null","","","","","","","","",""
"5917.100000008941","","","survey-text","135","832781","0.0-15.0-3.1","69873","List1A","white","woman","","","","","{""Q0"":""Dave is seducing Fred""}","<img src=""stim_listA/seduce5.gif""style=""height:400px;""></stim_listA>","is seducing","","","","","",""
"null","<div style=""font-size:60px;"">+</div>","","html-keyboard-response","136","833295","0.0-15.0-0.2","69873","List1A","white","woman","","","","null","","","","","","","","",""
"null","<img src=""stim_listA/touch4.gif""style=""height:400px;""></stim_listA>","","html-keyboard-response","137","835310","0.0-15.0-1.2","69873","List1A","white","woman","","","","null","","","","","","","","",""
"null","is being touched by","","html-keyboard-response","138","837325","0.0-15.0-2.2","69873","List1A","white","woman","","","","null","","","","","","","","",""
"7280.5","","","survey-text","139","844607","0.0-15.0-3.2","69873","List1A","white","woman","","","","","{""Q0"":""Ruth is being touched by Luke""}","<img src=""stim_listA/touch4.gif""style=""height:400px;""></stim_listA>","is being touched by","","","","","",""
"null","<div style=""font-size:60px;"">+</div>","","html-keyboard-response","140","845121","0.0-15.0-0.3","69873","List1A","white","woman","","","","null","","","","","","","","",""
"null","<img src=""stim_listA/look8.gif""style=""height:400px;""></stim_listA>","","html-keyboard-response","141","847125","0.0-15.0-1.3","69873","List1A","white","woman","","","","null","","","","","","","","",""
"null","is being looked at by","","html-keyboard-response","142","849126","0.0-15.0-2.3","69873","List1A","white","woman","","","","null","","","","","","","","",""
"8333.60000000894","","","survey-text","143","857463","0.0-15.0-3.3","69873","List1A","white","woman","","","","","{""Q0"":""Jane is being looked at by Kate""}","<img src=""stim_listA/look8.gif""style=""height:400px;""></stim_listA>","is being looked at by","","","","","",""
"null","<div style=""font-size:60px;"">+</div>","","html-keyboard-response","144","857976","0.0-15.0-0.4","69873","List1A","white","woman","","","","null","","","","","","","","",""
"null","<img src=""stim_listA/touch2.gif""style=""height:400px;""></stim_listA>","","html-keyboard-response","145","859978","0.0-15.0-1.4","69873","List1A","white","woman","","","","null","","","","","","","","",""
"null","is being touched by","","html-keyboard-response","146","861991","0.0-15.0-2.4","69873","List1A","white","woman","","","","null","","","","","","","","",""
"16443.89999999106","","","survey-text","147","878436","0.0-15.0-3.4","69873","List1A","white","woman","","","","","{""Q0"":""Beth is being touched by Fred""}","<img src=""stim_listA/touch2.gif""style=""height:400px;""></stim_listA>","is being touched by","","","","","",""
"null","<div style=""font-size:60px;"">+</div>","","html-keyboard-response","148","878947","0.0-15.0-0.5","69873","List1A","white","woman","","","","null","","","","","","","","",""
"null","<img src=""stim_listA/seduce1.gif""style=""height:400px;""></stim_listA>","","html-keyboard-response","149","880955","0.0-15.0-1.5","69873","List1A","white","woman","","","","null","","","","","","","","",""
"null","is seducing","","html-keyboard-response","150","882968","0.0-15.0-2.5","69873","List1A","white","woman","","","","null","","","","","","","","",""
"6260.5999999940395","","","survey-text","151","889231","0.0-15.0-3.5","69873","List1A","white","woman","","","","","{""Q0"":""Fred is seducing Kate""}","<img src=""stim_listA/seduce1.gif""style=""height:400px;""></stim_listA>","is seducing","","","","","",""
"null","<div style=""font-size:60px;"">+</div>","","html-keyboard-response","152","889745","0.0-15.0-0.6","69873","List1A","white","woman","","","","null","","","","","","","","",""
"null","<img src=""stim_listA/greet3.gif""style=""height:400px;""></stim_listA>","","html-keyboard-response","153","891748","0.0-15.0-1.6","69873","List1A","white","woman","","","","null","","","","","","","","",""
"null","is greeting","","html-keyboard-response","154","893755","0.0-15.0-2.6","69873","List1A","white","woman","","","","null","","","","","","","","",""
"7645.0999999940395","","","survey-text","155","901403","0.0-15.0-3.6","69873","List1A","white","woman","","","","","{""Q0"":""Dave is greeting Ruth""}","<img src=""stim_listA/greet3.gif""style=""height:400px;""></stim_listA>","is greeting","","","","","",""
"null","<div style=""font-size:60px;"">+</div>","","html-keyboard-response","156","901915","0.0-15.0-0.7","69873","List1A","white","woman","","","","null","","","","","","","","",""
"null","<img src=""stim_listA/copy4.gif""style=""height:400px;""></stim_listA>","","html-keyboard-response","157","903927","0.0-15.0-1.7","69873","List1A","white","woman","","","","null","","","","","","","","",""
"null","is being copied by","","html-keyboard-response","158","905937","0.0-15.0-2.7","69873","List1A","white","woman","","","","null","","","","","","","","",""
"9449.79999999702","","","survey-text","159","915389","0.0-15.0-3.7","69873","List1A","white","woman","","","","","{""Q0"":""Jane is being copied by Luke""}","<img src=""stim_listA/copy4.gif""style=""height:400px;""></stim_listA>","is being copied by","","","","","",""
"null","<div style=""font-size:60px;"">+</div>","","html-keyboard-response","160","915890","0.0-15.0-0.8","69873","List1A","white","woman","","","","null","","","","","","","","",""
"null","<img src=""stim_listA/touch8.gif""style=""height:400px;""></stim_listA>","","html-keyboard-response","161","917898","0.0-15.0-1.8","69873","List1A","white","woman","","","","null","","","","","","","","",""
"null","is being touched by","","html-keyboard-response","162","919909","0.0-15.0-2.8","69873","List1A","white","woman","","","","null","","","","","","","","",""
"10044.70000000298","","","survey-text","163","929956","0.0-15.0-3.8","69873","List1A","white","woman","","","","","{""Q0"":""Beth is being touched by Ruth""}","<img src=""stim_listA/touch8.gif""style=""height:400px;""></stim_listA>","is being touched by","","","","","",""
"null","<div style=""font-size:60px;"">+</div>","","html-keyboard-response","164","930457","0.0-15.0-0.9","69873","List1A","white","woman","","","","null","","","","","","","","",""
"null","<img src=""stim_listA/hug2.gif""style=""height:400px;""></stim_listA>","","html-keyboard-response","165","932463","0.0-15.0-1.9","69873","List1A","white","woman","","","","null","","","","","","","","",""
"null","is being hugged by","","html-keyboard-response","166","934476","0.0-15.0-2.9","69873","List1A","white","woman","","","","null","","","","","","","","",""
"10723.199999988079","","","survey-text","167","945201","0.0-15.0-3.9","69873","List1A","white","woman","","","","","{""Q0"":""Kate is being hugged by Mike""}","<img src=""stim_listA/hug2.gif""style=""height:400px;""></stim_listA>","is being hugged by","","","","","",""
"null","<div style=""font-size:60px;"">+</div>","","html-keyboard-response","168","945715","0.0-15.0-0.10","69873","List1A","white","woman","","","","null","","","","","","","","",""
"null","<img src=""stim_listA/look6.gif""style=""height:400px;""></stim_listA>","","html-keyboard-response","169","947731","0.0-15.0-1.10","69873","List1A","white","woman","","","","null","","","","","","","","",""
"null","is being looked at by","","html-keyboard-response","170","949732","0.0-15.0-2.10","69873","List1A","white","woman","","","","null","","","","","","","","",""
"7671.0999999940395","","","survey-text","171","957405","0.0-15.0-3.10","69873","List1A","white","woman","","","","","{""Q0"":""Dave is being looked at by Mike""}","<img src=""stim_listA/look6.gif""style=""height:400px;""></stim_listA>","is being looked at by","","","","","",""
"null","<div style=""font-size:60px;"">+</div>","","html-keyboard-response","172","957906","0.0-15.0-0.11","69873","List1A","white","woman","","","","null","","","","","","","","",""
"null","<img src=""stim_listA/shout6.gif""style=""height:400px;""></stim_listA>","","html-keyboard-response","173","959912","0.0-15.0-1.11","69873","List1A","white","woman","","","","null","","","","","","","","",""
"null","is being shouted at by","","html-keyboard-response","174","961926","0.0-15.0-2.11","69873","List1A","white","woman","","","","null","","","","","","","","",""
"13428.60000000894","","","survey-text","175","975356","0.0-15.0-3.11","69873","List1A","white","woman","","","","","{""Q0"":""Dave is being shouted at by Mike""}","<img src=""stim_listA/shout6.gif""style=""height:400px;""></stim_listA>","is being shouted at by","","","","","",""
"null","<div style=""font-size:60px;"">+</div>","","html-keyboard-response","176","975869","0.0-15.0-0.12","69873","List1A","white","woman","","","","null","","","","","","","","",""
"null","<img src=""stim_listA/shout7.gif""style=""height:400px;""></stim_listA>","","html-keyboard-response","177","977871","0.0-15.0-1.12","69873","List1A","white","woman","","","","null","","","","","","","","",""
"null","is shouting at","","html-keyboard-response","178","979874","0.0-15.0-2.12","69873","List1A","white","woman","","","","null","","","","","","","","",""
"8354.5","","","survey-text","179","988230","0.0-15.0-3.12","69873","List1A","white","woman","","","","","{""Q0"":""Beth is shouting at Ruth""}","<img src=""stim_listA/shout7.gif""style=""height:400px;""></stim_listA>","is shouting at","","","","","",""
"null","<div style=""font-size:60px;"">+</div>","","html-keyboard-response","180","988745","0.0-15.0-0.13","69873","List1A","white","woman","","","","null","","","","","","","","",""
"null","<img src=""stim_listA/touch6.gif""style=""height:400px;""></stim_listA>","","html-keyboard-response","181","990747","0.0-15.0-1.13","69873","List1A","white","woman","","","","null","","","","","","","","",""
"null","is being touched by","","html-keyboard-response","182","992761","0.0-15.0-2.13","69873","List1A","white","woman","","","","null","","","","","","","","",""
"8571.5","","","survey-text","183","1001335","0.0-15.0-3.13","69873","List1A","white","woman","","","","","{""Q0"":""Luke is being touched by Fred""}","<img src=""stim_listA/touch6.gif""style=""height:400px;""></stim_listA>","is being touched by","","","","","",""
"null","<div style=""font-size:60px;"">+</div>","","html-keyboard-response","184","1001846","0.0-15.0-0.14","69873","List1A","white","woman","","","","null","","","","","","","","",""
"null","<img src=""stim_listA/kiss2.gif""style=""height:400px;""></stim_listA>","","html-keyboard-response","185","1003861","0.0-15.0-1.14","69873","List1A","white","woman","","","","null","","","","","","","","",""
"null","is being kissed by","","html-keyboard-response","186","1005867","0.0-15.0-2.14","69873","List1A","white","woman","","","","null","","","","","","","","",""
"7362.9000000059605","","","survey-text","187","1013231","0.0-15.0-3.14","69873","List1A","white","woman","","","","","{""Q0"":""Kate is being kissed by Mike""}","<img src=""stim_listA/kiss2.gif""style=""height:400px;""></stim_listA>","is being kissed by","","","","","",""
"null","<div style=""font-size:60px;"">+</div>","","html-keyboard-response","188","1013742","0.0-15.0-0.15","69873","List1A","white","woman","","","","null","","","","","","","","",""
"null","<img src=""stim_listA/greet2.gif""style=""height:400px;""></stim_listA>","","html-keyboard-response","189","1015758","0.0-15.0-1.15","69873","List1A","white","woman","","","","null","","","","","","","","",""
"null","is being greeted by","","html-keyboard-response","190","1017774","0.0-15.0-2.15","69873","List1A","white","woman","","","","null","","","","","","","","",""
"8698.70000000298","","","survey-text","191","1026475","0.0-15.0-3.15","69873","List1A","white","woman","","","","","{""Q0"":""Kate is being greeted by Fred""}","<img src=""stim_listA/greet2.gif""style=""height:400px;""></stim_listA>","is being greeted by","","","","","",""
"null","<div style=""font-size:60px;"">+</div>","","html-keyboard-response","192","1026988","0.0-15.0-0.16","69873","List1A","white","woman","","","","null","","","","","","","","",""
"null","<img src=""stim_listA/kiss4.gif""style=""height:400px;""></stim_listA>","","html-keyboard-response","193","1029001","0.0-15.0-1.16","69873","List1A","white","woman","","","","null","","","","","","","","",""
"null","is being kissed by","","html-keyboard-response","194","1031007","0.0-15.0-2.16","69873","List1A","white","woman","","","","null","","","","","","","","",""
"8128.70000000298","","","survey-text","195","1039138","0.0-15.0-3.16","69873","List1A","white","woman","","","","","{""Q0"":""Jane is being kissed by Dave""}","<img src=""stim_listA/kiss4.gif""style=""height:400px;""></stim_listA>","is being kissed by","","","","","",""
"null","<div style=""font-size:60px;"">+</div>","","html-keyboard-response","196","1039651","0.0-15.0-0.17","69873","List1A","white","woman","","","","null","","","","","","","","",""
"null","<img src=""stim_listA/challenge5.gif""style=""height:400px;""></stim_listA>","","html-keyboard-response","197","1041654","0.0-15.0-1.17","69873","List1A","white","woman","","","","null","","","","","","","","",""
"null","is challenging","","html-keyboard-response","198","1043668","0.0-15.0-2.17","69873","List1A","white","woman","","","","null","","","","","","","","",""
"11027.79999999702","","","survey-text","199","1054697","0.0-15.0-3.17","69873","List1A","white","woman","","","","","{""Q0"":""Mike is challenging Luke""}","<img src=""stim_listA/challenge5.gif""style=""height:400px;""></stim_listA>","is challenging","","","","","",""
"null","<div style=""font-size:60px;"">+</div>","","html-keyboard-response","200","1055211","0.0-15.0-0.18","69873","List1A","white","woman","","","","null","","","","","","","","",""
"null","<img src=""stim_listA/oppose7.gif""style=""height:400px;""></stim_listA>","","html-keyboard-response","201","1057226","0.0-15.0-1.18","69873","List1A","white","woman","","","","null","","","","","","","","",""
"null","is opposing","","html-keyboard-response","202","1059227","0.0-15.0-2.18","69873","List1A","white","woman","","","","null","","","","","","","","",""
"6439.79999999702","","","survey-text","203","1065669","0.0-15.0-3.18","69873","List1A","white","woman","","","","","{""Q0"":""Kate is opposing Jane""}","<img src=""stim_listA/oppose7.gif""style=""height:400px;""></stim_listA>","is opposing","","","","","",""
"null","<div style=""font-size:60px;"">+</div>","","html-keyboard-response","204","1066181","0.0-15.0-0.19","69873","List1A","white","woman","","","","null","","","","","","","","",""
"null","<img src=""stim_listA/seduce4.gif""style=""height:400px;""></stim_listA>","","html-keyboard-response","205","1068184","0.0-15.0-1.19","69873","List1A","white","woman","","","","null","","","","","","","","",""
"null","is being seduced by","","html-keyboard-response","206","1070198","0.0-15.0-2.19","69873","List1A","white","woman","","","","null","","","","","","","","",""
"7461.5","","","survey-text","207","1077661","0.0-15.0-3.19","69873","List1A","white","woman","","","","","{""Q0"":""Ruth is being seduced by Dave""}","<img src=""stim_listA/seduce4.gif""style=""height:400px;""></stim_listA>","is being seduced by","","","","","",""
"11485.60000000894","<img src='img/portrait_matrix_list1.jpg' style='width:900px;height:500px;''></img><p>If you have memorised all the portraits and names and are ready to start, press Continue.</p><p><strong>Please note: Your memory of these faces will be tested 4 times during this experiment.</strong></p>","0","html-button-response","208","1089148","0.0-16.0-0.0","69873","List1A","white","woman","","","","","","","","","","","","",""
"2332.7999999970198","<img src=""portrait/WW1.jpg""style=""height:400px;""></img>","1","html-button-response","209","1092495","0.0-16.0-1.0","69873","List1A","white","woman","","true","1","","","","","","","","","",""
"null","CORRECT","","html-keyboard-response","210","1094023","0.0-16.0-2.0-0.0","69873","List1A","white","woman","","","","null","","","","","","","","",""
"3499.4000000059605","<img src=""portrait/WM1.jpg""style=""height:400px;""></img>","6","html-button-response","211","1097524","0.0-16.0-4.0","69873","List1A","white","woman","","true","6","","","","","","","","","",""
"null","CORRECT","","html-keyboard-response","212","1099027","0.0-16.0-5.0-0.0","69873","List1A","white","woman","","","","null","","","","","","","","",""
"2399.8999999910593","<img src=""portrait/BM2.jpg""style=""height:400px;""></img>","5","html-button-response","213","1101429","0.0-16.0-7.0","69873","List1A","white","woman","","true","5","","","","","","","","","",""
"null","CORRECT","","html-keyboard-response","214","1102960","0.0-16.0-8.0-0.0","69873","List1A","white","woman","","","","null","","","","","","","","",""
"2491.2000000029802","<img src=""portrait/BW2.jpg""style=""height:400px;""></img>","2","html-button-response","215","1105452","0.0-16.0-10.0","69873","List1A","white","woman","","true","2","","","","","","","","","",""
"null","CORRECT","","html-keyboard-response","216","1106980","0.0-16.0-11.0-0.0","69873","List1A","white","woman","","","","null","","","","","","","","",""
"3554.5999999940395","<img src=""portrait/WM2.jpg""style=""height:400px;""></img>","7","html-button-response","217","1110536","0.0-16.0-13.0","69873","List1A","white","woman","","true","7","","","","","","","","","",""
"null","CORRECT","","html-keyboard-response","218","1112063","0.0-16.0-14.0-0.0","69873","List1A","white","woman","","","","null","","","","","","","","",""
"2768.5999999940395","<img src=""portrait/WW2.jpg""style=""height:400px;""></img>","3","html-button-response","219","1114833","0.0-16.0-16.0","69873","List1A","white","woman","","true","3","","","","","","","","","",""
"null","CORRECT","","html-keyboard-response","220","1116362","0.0-16.0-17.0-0.0","69873","List1A","white","woman","","","","null","","","","","","","","",""
"2915.7000000029802","<img src=""portrait/BM1.jpg""style=""height:400px;""></img>","4","html-button-response","221","1119279","0.0-16.0-19.0","69873","List1A","white","woman","","true","4","","","","","","","","","",""
"null","CORRECT","","html-keyboard-response","222","1120811","0.0-16.0-20.0-0.0","69873","List1A","white","woman","","","","null","","","","","","","","",""
"2756","<img src=""portrait/BW1.jpg""style=""height:400px;""></img>","0","html-button-response","223","1123568","0.0-16.0-22.0","69873","List1A","white","woman","","true","0","","","","","","","","","",""
"null","CORRECT","","html-keyboard-response","224","1125075","0.0-16.0-23.0-0.0","69873","List1A","white","woman","","","","null","","","","","","","","",""
"24138.20000000298","<p>You got 8 out of 8 right first time. Press Continue.</p>","0","html-button-response","225","1149214","0.0-16.0-25.0","69873","List1A","white","woman","","","","","","","","","","","","",""
"null","<div style=""font-size:60px;"">+</div>","","html-keyboard-response","226","1150742","0.0-17.0-0.0","69873","List1A","white","woman","","","","null","","","","","","","","",""
"null","<img src=""stim_listA/shout1.gif""style=""height:400px;""></stim_listA>","","html-keyboard-response","227","1152744","0.0-17.0-1.0","69873","List1A","white","woman","","","","null","","","","","","","","",""
"null","is shouting at","","html-keyboard-response","228","1154756","0.0-17.0-2.0","69873","List1A","white","woman","","","","null","","","","","","","","",""
"6306.29999999702","","","survey-text","229","1161065","0.0-17.0-3.0","69873","List1A","white","woman","","","","","{""Q0"":""Fred is shouting at Beth""}","<img src=""stim_listA/shout1.gif""style=""height:400px;""></stim_listA>","is shouting at","","","","","",""
"null","<div style=""font-size:60px;"">+</div>","","html-keyboard-response","230","1161576","0.0-17.0-0.1","69873","List1A","white","woman","","","","null","","","","","","","","",""
"null","<img src=""stim_listA/greet1.gif""style=""height:400px;""></stim_listA>","","html-keyboard-response","231","1163589","0.0-17.0-1.1","69873","List1A","white","woman","","","","null","","","","","","","","",""
"null","is greeting","","html-keyboard-response","232","1165605","0.0-17.0-2.1","69873","List1A","white","woman","","","","null","","","","","","","","",""
"7884","","","survey-text","233","1173491","0.0-17.0-3.1","69873","List1A","white","woman","","","","","{""Q0"":""Mike is greeting Beth""}","<img src=""stim_listA/greet1.gif""style=""height:400px;""></stim_listA>","is greeting","","","","","",""
"null","<div style=""font-size:60px;"">+</div>","","html-keyboard-response","234","1174002","0.0-17.0-0.2","69873","List1A","white","woman","","","","null","","","","","","","","",""
"null","<img src=""stim_listA/copy1.gif""style=""height:400px;""></stim_listA>","","html-keyboard-response","235","1176018","0.0-17.0-1.2","69873","List1A","white","woman","","","","null","","","","","","","","",""
"null","is copying","","html-keyboard-response","236","1178030","0.0-17.0-2.2","69873","List1A","white","woman","","","","null","","","","","","","","",""
"6305.5","","","survey-text","237","1184337","0.0-17.0-3.2","69873","List1A","white","woman","","","","","{""Q0"":""Mike is copying Beth""}","<img src=""stim_listA/copy1.gif""style=""height:400px;""></stim_listA>","is copying","","","","","",""
"null","<div style=""font-size:60px;"">+</div>","","html-keyboard-response","238","1184850","0.0-17.0-0.3","69873","List1A","white","woman","","","","null","","","","","","","","",""
"null","<img src=""stim_listA/oppose6.gif""style=""height:400px;""></stim_listA>","","html-keyboard-response","239","1186866","0.0-17.0-1.3","69873","List1A","white","woman","","","","null","","","","","","","","",""
"null","is being opposed by","","html-keyboard-response","240","1188878","0.0-17.0-2.3","69873","List1A","white","woman","","","","null","","","","","","","","",""
"7827.199999988079","","","survey-text","241","1196707","0.0-17.0-3.3","69873","List1A","white","woman","","","","","{""Q0"":""Luke is being opposed by Fred""}","<img src=""stim_listA/oppose6.gif""style=""height:400px;""></stim_listA>","is being opposed by","","","","","",""
"null","<div style=""font-size:60px;"">+</div>","","html-keyboard-response","242","1197220","0.0-17.0-0.4","69873","List1A","white","woman","","","","null","","","","","","","","",""
"null","<img src=""stim_listA/hug5.gif""style=""height:400px;""></stim_listA>","","html-keyboard-response","243","1199233","0.0-17.0-1.4","69873","List1A","white","woman","","","","null","","","","","","","","",""
"null","is hugging","","html-keyboard-response","244","1201235","0.0-17.0-2.4","69873","List1A","white","woman","","","","null","","","","","","","","",""
"8328.89999999106","","","survey-text","245","1209566","0.0-17.0-3.4","69873","List1A","white","woman","","","","","{""Q0"":""Fred is hugging Luke""}","<img src=""stim_listA/hug5.gif""style=""height:400px;""></stim_listA>","is hugging","","","","","",""
"null","<div style=""font-size:60px;"">+</div>","","html-keyboard-response","246","1210079","0.0-17.0-0.5","69873","List1A","white","woman","","","","null","","","","","","","","",""
"null","<img src=""stim_listA/copy6.gif""style=""height:400px;""></stim_listA>","","html-keyboard-response","247","1212090","0.0-17.0-1.5","69873","List1A","white","woman","","","","null","","","","","","","","",""
"null","is being copied by","","html-keyboard-response","248","1214094","0.0-17.0-2.5","69873","List1A","white","woman","","","","null","","","","","","","","",""
"7240","","","survey-text","249","1221336","0.0-17.0-3.5","69873","List1A","white","woman","","","","","{""Q0"":""Dave is being copied by Fred""}","<img src=""stim_listA/copy6.gif""style=""height:400px;""></stim_listA>","is being copied by","","","","","",""
"null","<div style=""font-size:60px;"">+</div>","","html-keyboard-response","250","1221847","0.0-17.0-0.6","69873","List1A","white","woman","","","","null","","","","","","","","",""
"null","<img src=""stim_listA/greet7.gif""style=""height:400px;""></stim_listA>","","html-keyboard-response","251","1223864","0.0-17.0-1.6","69873","List1A","white","woman","","","","null","","","","","","","","",""
"null","is greeting","","html-keyboard-response","252","1225879","0.0-17.0-2.6","69873","List1A","white","woman","","","","null","","","","","","","","",""
"5558.399999991059","","","survey-text","253","1231439","0.0-17.0-3.6","69873","List1A","white","woman","","","","","{""Q0"":""Kate is greeting Ruth""}","<img src=""stim_listA/greet7.gif""style=""height:400px;""></stim_listA>","is greeting","","","","","",""
"null","<div style=""font-size:60px;"">+</div>","","html-keyboard-response","254","1231950","0.0-17.0-0.7","69873","List1A","white","woman","","","","null","","","","","","","","",""
"null","<img src=""stim_listA/copy8.gif""style=""height:400px;""></stim_listA>","","html-keyboard-response","255","1233962","0.0-17.0-1.7","69873","List1A","white","woman","","","","null","","","","","","","","",""
"null","is being copied by","","html-keyboard-response","256","1235964","0.0-17.0-2.7","69873","List1A","white","woman","","","","null","","","","","","","","",""
"6862.600000008941","","","survey-text","257","1242828","0.0-17.0-3.7","69873","List1A","white","woman","","","","","{""Q0"":""Jane is being copied by Beth""}","<img src=""stim_listA/copy8.gif""style=""height:400px;""></stim_listA>","is being copied by","","","","","",""
"null","<div style=""font-size:60px;"">+</div>","","html-keyboard-response","258","1243341","0.0-17.0-0.8","69873","List1A","white","woman","","","","null","","","","","","","","",""
"null","<img src=""stim_listA/touch3.gif""style=""height:400px;""></stim_listA>","","html-keyboard-response","259","1245346","0.0-17.0-1.8","69873","List1A","white","woman","","","","null","","","","","","","","",""
"null","is touching","","html-keyboard-response","260","1247362","0.0-17.0-2.8","69873","List1A","white","woman","","","","null","","","","","","","","",""
"6097.800000011921","","","survey-text","261","1253462","0.0-17.0-3.8","69873","List1A","white","woman","","","","","{""Q0"":""Dave is touching Jane""}","<img src=""stim_listA/touch3.gif""style=""height:400px;""></stim_listA>","is touching","","","","","",""
"null","<div style=""font-size:60px;"">+</div>","","html-keyboard-response","262","1253975","0.0-17.0-0.9","69873","List1A","white","woman","","","","null","","","","","","","","",""
"null","<img src=""stim_listA/greet8.gif""style=""height:400px;""></stim_listA>","","html-keyboard-response","263","1255977","0.0-17.0-1.9","69873","List1A","white","woman","","","","null","","","","","","","","",""
"null","is being greeted by","","html-keyboard-response","264","1257978","0.0-17.0-2.9","69873","List1A","white","woman","","","","null","","","","","","","","",""
"7311.5999999940395","","","survey-text","265","1265292","0.0-17.0-3.9","69873","List1A","white","woman","","","","","{""Q0"":""Jane is being greeted by Beth""}","<img src=""stim_listA/greet8.gif""style=""height:400px;""></stim_listA>","is being greeted by","","","","","",""
"null","<div style=""font-size:60px;"">+</div>","","html-keyboard-response","266","1265804","0.0-17.0-0.10","69873","List1A","white","woman","","","","null","","","","","","","","",""
"null","<img src=""stim_listA/shout5.gif""style=""height:400px;""></stim_listA>","","html-keyboard-response","267","1267810","0.0-17.0-1.10","69873","List1A","white","woman","","","","null","","","","","","","","",""
"null","is shouting at","","html-keyboard-response","268","1269813","0.0-17.0-2.10","69873","List1A","white","woman","","","","null","","","","","","","","",""
"7185","","","survey-text","269","1277000","0.0-17.0-3.10","69873","List1A","white","woman","","","","","{""Q0"":""Fred is shouting at Luke""}","<img src=""stim_listA/shout5.gif""style=""height:400px;""></stim_listA>","is shouting at","","","","","",""
"null","<div style=""font-size:60px;"">+</div>","","html-keyboard-response","270","1277513","0.0-17.0-0.11","69873","List1A","white","woman","","","","null","","","","","","","","",""
"null","<img src=""stim_listA/oppose4.gif""style=""height:400px;""></stim_listA>","","html-keyboard-response","271","1279526","0.0-17.0-1.11","69873","List1A","white","woman","","","","null","","","","","","","","",""
"null","is being opposed by","","html-keyboard-response","272","1281529","0.0-17.0-2.11","69873","List1A","white","woman","","","","null","","","","","","","","",""
"7240.9000000059605","","","survey-text","273","1288772","0.0-17.0-3.11","69873","List1A","white","woman","","","","","{""Q0"":""Ruth is being opposed by Luke""}","<img src=""stim_listA/oppose4.gif""style=""height:400px;""></stim_listA>","is being opposed by","","","","","",""
"null","<div style=""font-size:60px;"">+</div>","","html-keyboard-response","274","1289286","0.0-17.0-0.12","69873","List1A","white","woman","","","","null","","","","","","","","",""
"null","<img src=""stim_listA/touch7.gif""style=""height:400px;""></stim_listA>","","html-keyboard-response","275","1291288","0.0-17.0-1.12","69873","List1A","white","woman","","","","null","","","","","","","","",""
"null","is touching","","html-keyboard-response","276","1293294","0.0-17.0-2.12","69873","List1A","white","woman","","","","null","","","","","","","","",""
"5323.100000008941","","","survey-text","277","1298619","0.0-17.0-3.12","69873","List1A","white","woman","","","","","{""Q0"":""Kate is touching Jane""}","<img src=""stim_listA/touch7.gif""style=""height:400px;""></stim_listA>","is touching","","","","","",""
"null","<div style=""font-size:60px;"">+</div>","","html-keyboard-response","278","1299130","0.0-17.0-0.13","69873","List1A","white","woman","","","","null","","","","","","","","",""
"null","<img src=""stim_listA/hug1.gif""style=""height:400px;""></stim_listA>","","html-keyboard-response","279","1301147","0.0-17.0-1.13","69873","List1A","white","woman","","","","null","","","","","","","","",""
"null","is hugging","","html-keyboard-response","280","1303162","0.0-17.0-2.13","69873","List1A","white","woman","","","","null","","","","","","","","",""
"8783.29999999702","","","survey-text","281","1311947","0.0-17.0-3.13","69873","List1A","white","woman","","","","","{""Q0"":""Fred is hugging Beth""}","<img src=""stim_listA/hug1.gif""style=""height:400px;""></stim_listA>","is hugging","","","","","",""
"null","<div style=""font-size:60px;"">+</div>","","html-keyboard-response","282","1312461","0.0-17.0-0.14","69873","List1A","white","woman","","","","null","","","","","","","","",""
"null","<img src=""stim_listA/copy5.gif""style=""height:400px;""></stim_listA>","","html-keyboard-response","283","1314477","0.0-17.0-1.14","69873","List1A","white","woman","","","","null","","","","","","","","",""
"null","is copying","","html-keyboard-response","284","1316492","0.0-17.0-2.14","69873","List1A","white","woman","","","","null","","","","","","","","",""
"6216.399999991059","","","survey-text","285","1322711","0.0-17.0-3.14","69873","List1A","white","woman","","","","","{""Q0"":""Mike is copying Luke""}","<img src=""stim_listA/copy5.gif""style=""height:400px;""></stim_listA>","is copying","","","","","",""
"null","<div style=""font-size:60px;"">+</div>","","html-keyboard-response","286","1323222","0.0-17.0-0.15","69873","List1A","white","woman","","","","null","","","","","","","","",""
"null","<img src=""stim_listA/oppose3.gif""style=""height:400px;""></stim_listA>","","html-keyboard-response","287","1325224","0.0-17.0-1.15","69873","List1A","white","woman","","","","null","","","","","","","","",""
"null","is opposing","","html-keyboard-response","288","1327235","0.0-17.0-2.15","69873","List1A","white","woman","","","","null","","","","","","","","",""
"5914.5999999940395","","","survey-text","289","1333151","0.0-17.0-3.15","69873","List1A","white","woman","","","","","{""Q0"":""Dave is opposing Jane""}","<img src=""stim_listA/oppose3.gif""style=""height:400px;""></stim_listA>","is opposing","","","","","",""
"null","<div style=""font-size:60px;"">+</div>","","html-keyboard-response","290","1333663","0.0-17.0-0.16","69873","List1A","white","woman","","","","null","","","","","","","","",""
"null","<img src=""stim_listA/seduce8.gif""style=""height:400px;""></stim_listA>","","html-keyboard-response","291","1335675","0.0-17.0-1.16","69873","List1A","white","woman","","","","null","","","","","","","","",""
"null","is being seduced by","","html-keyboard-response","292","1337688","0.0-17.0-2.16","69873","List1A","white","woman","","","","null","","","","","","","","",""
"7191.79999999702","","","survey-text","293","1344881","0.0-17.0-3.16","69873","List1A","white","woman","","","","","{""Q0"":""Ruth is being seduced by Kate""}","<img src=""stim_listA/seduce8.gif""style=""height:400px;""></stim_listA>","is being seduced by","","","","","",""
"null","<div style=""font-size:60px;"">+</div>","","html-keyboard-response","294","1345394","0.0-17.0-0.17","69873","List1A","white","woman","","","","null","","","","","","","","",""
"null","<img src=""stim_listA/kiss8.gif""style=""height:400px;""></stim_listA>","","html-keyboard-response","295","1347396","0.0-17.0-1.17","69873","List1A","white","woman","","","","null","","","","","","","","",""
"null","is being kissed by","","html-keyboard-response","296","1349397","0.0-17.0-2.17","69873","List1A","white","woman","","","","null","","","","","","","","",""
"6943.79999999702","","","survey-text","297","1356343","0.0-17.0-3.17","69873","List1A","white","woman","","","","","{""Q0"":""Jane is being kissed by Kate""}","<img src=""stim_listA/kiss8.gif""style=""height:400px;""></stim_listA>","is being kissed by","","","","","",""
"null","<div style=""font-size:60px;"">+</div>","","html-keyboard-response","298","1356854","0.0-17.0-0.18","69873","List1A","white","woman","","","","null","","","","","","","","",""
"null","<img src=""stim_listA/seduce2.gif""style=""height:400px;""></stim_listA>","","html-keyboard-response","299","1358869","0.0-17.0-1.18","69873","List1A","white","woman","","","","null","","","","","","","","",""
"null","is being seduced by","","html-keyboard-response","300","1360881","0.0-17.0-2.18","69873","List1A","white","woman","","","","null","","","","","","","","",""
"6574.20000000298","","","survey-text","301","1367457","0.0-17.0-3.18","69873","List1A","white","woman","","","","","{""Q0"":""Beth is being seduced by Mike""}","<img src=""stim_listA/seduce2.gif""style=""height:400px;""></stim_listA>","is being seduced by","","","","","",""
"null","<div style=""font-size:60px;"">+</div>","","html-keyboard-response","302","1367969","0.0-17.0-0.19","69873","List1A","white","woman","","","","null","","","","","","","","",""
"null","<img src=""stim_listA/kiss1.gif""style=""height:400px;""></stim_listA>","","html-keyboard-response","303","1369986","0.0-17.0-1.19","69873","List1A","white","woman","","","","null","","","","","","","","",""
"null","is kissing","","html-keyboard-response","304","1371999","0.0-17.0-2.19","69873","List1A","white","woman","","","","null","","","","","","","","",""
"5926.70000000298","","","survey-text","305","1377928","0.0-17.0-3.19","69873","List1A","white","woman","","","","","{""Q0"":""Fred is kissing Beth""}","<img src=""stim_listA/kiss1.gif""style=""height:400px;""></stim_listA>","is kissing","","","","","",""
"11961.70000000298","<img src='img/portrait_matrix_list1.jpg' style='width:900px;height:500px;''></img><p>If you have memorised all the portraits and names and are ready to start, press Continue.</p><p><strong>Please note: Your memory of these faces will be tested 4 times during this experiment.</strong></p>","0","html-button-response","306","1389890","0.0-18.0-0.0","69873","List1A","white","woman","","","","","","","","","","","","",""
"2171.7999999970198","<img src=""portrait/BM2.jpg""style=""height:400px;""></img>","5","html-button-response","307","1393073","0.0-18.0-1.0","69873","List1A","white","woman","","true","5","","","","","","","","","",""
"null","CORRECT","","html-keyboard-response","308","1394602","0.0-18.0-2.0-0.0","69873","List1A","white","woman","","","","null","","","","","","","","",""
"3314.2999999970198","<img src=""portrait/BW1.jpg""style=""height:400px;""></img>","0","html-button-response","309","1397918","0.0-18.0-4.0","69873","List1A","white","woman","","true","0","","","","","","","","","",""
"null","CORRECT","","html-keyboard-response","310","1399449","0.0-18.0-5.0-0.0","69873","List1A","white","woman","","","","null","","","","","","","","",""
"2321.7999999970198","<img src=""portrait/BM1.jpg""style=""height:400px;""></img>","4","html-button-response","311","1401772","0.0-18.0-7.0","69873","List1A","white","woman","","true","4","","","","","","","","","",""
"null","CORRECT","","html-keyboard-response","312","1403301","0.0-18.0-8.0-0.0","69873","List1A","white","woman","","","","null","","","","","","","","",""
"1789","<img src=""portrait/WW2.jpg""style=""height:400px;""></img>","3","html-button-response","313","1405091","0.0-18.0-10.0","69873","List1A","white","woman","","true","3","","","","","","","","","",""
"null","CORRECT","","html-keyboard-response","314","1406620","0.0-18.0-11.0-0.0","69873","List1A","white","woman","","","","null","","","","","","","","",""
"2441.7999999970198","<img src=""portrait/BW2.jpg""style=""height:400px;""></img>","2","html-button-response","315","1409063","0.0-18.0-13.0","69873","List1A","white","woman","","true","2","","","","","","","","","",""
"null","CORRECT","","html-keyboard-response","316","1410592","0.0-18.0-14.0-0.0","69873","List1A","white","woman","","","","null","","","","","","","","",""
"2136","<img src=""portrait/WM2.jpg""style=""height:400px;""></img>","7","html-button-response","317","1412730","0.0-18.0-16.0","69873","List1A","white","woman","","true","7","","","","","","","","","",""
"null","CORRECT","","html-keyboard-response","318","1414260","0.0-18.0-17.0-0.0","69873","List1A","white","woman","","","","null","","","","","","","","",""
"2935","<img src=""portrait/WW1.jpg""style=""height:400px;""></img>","1","html-button-response","319","1417196","0.0-18.0-19.0","69873","List1A","white","woman","","true","1","","","","","","","","","",""
"null","CORRECT","","html-keyboard-response","320","1418725","0.0-18.0-20.0-0.0","69873","List1A","white","woman","","","","null","","","","","","","","",""
"2862.0999999940395","<img src=""portrait/WM1.jpg""style=""height:400px;""></img>","6","html-button-response","321","1421588","0.0-18.0-22.0","69873","List1A","white","woman","","true","6","","","","","","","","","",""
"null","CORRECT","","html-keyboard-response","322","1423112","0.0-18.0-23.0-0.0","69873","List1A","white","woman","","","","null","","","","","","","","",""
"2234.5","<p>You got 8 out of 8 right first time. Press Continue.</p>","0","html-button-response","323","1425348","0.0-18.0-25.0","69873","List1A","white","woman","","","","","","","","","","","","",""
"null","<div style=""font-size:60px;"">+</div>","","html-keyboard-response","324","1426875","0.0-19.0-0.0","69873","List1A","white","woman","","","","null","","","","","","","","",""
"null","<img src=""stim_listA/challenge8.gif""style=""height:400px;""></stim_listA>","","html-keyboard-response","325","1428889","0.0-19.0-1.0","69873","List1A","white","woman","","","","null","","","","","","","","",""
"null","is being challenged by","","html-keyboard-response","326","1430900","0.0-19.0-2.0","69873","List1A","white","woman","","","","null","","","","","","","","",""
"7559","","","survey-text","327","1438461","0.0-19.0-3.0","69873","List1A","white","woman","","","","","{""Q0"":""Jane is being challenged by Beth""}","<img src=""stim_listA/challenge8.gif""style=""height:400px;""></stim_listA>","is being challenged by","","","","","",""
"null","<div style=""font-size:60px;"">+</div>","","html-keyboard-response","328","1438975","0.0-19.0-0.1","69873","List1A","white","woman","","","","null","","","","","","","","",""
"null","<img src=""stim_listA/greet5.gif""style=""height:400px;""></stim_listA>","","html-keyboard-response","329","1440989","0.0-19.0-1.1","69873","List1A","white","woman","","","","null","","","","","","","","",""
"null","is greeting","","html-keyboard-response","330","1442991","0.0-19.0-2.1","69873","List1A","white","woman","","","","null","","","","","","","","",""
"6680.5","","","survey-text","331","1449674","0.0-19.0-3.1","69873","List1A","white","woman","","","","","{""Q0"":""Mike is greeting Luke""}","<img src=""stim_listA/greet5.gif""style=""height:400px;""></stim_listA>","is greeting","","","","","",""
"null","<div style=""font-size:60px;"">+</div>","","html-keyboard-response","332","1450185","0.0-19.0-0.2","69873","List1A","white","woman","","","","null","","","","","","","","",""
"null","<img src=""stim_listA/shout8.gif""style=""height:400px;""></stim_listA>","","html-keyboard-response","333","1452197","0.0-19.0-1.2","69873","List1A","white","woman","","","","null","","","","","","","","",""
"null","is being shouted at by","","html-keyboard-response","334","1454199","0.0-19.0-2.2","69873","List1A","white","woman","","","","null","","","","","","","","",""
"8699.39999999106","","","survey-text","335","1462900","0.0-19.0-3.2","69873","List1A","white","woman","","","","","{""Q0"":""Jane is being shouted at by Kate""}","<img src=""stim_listA/shout8.gif""style=""height:400px;""></stim_listA>","is being shouted at by","","","","","",""
"null","<div style=""font-size:60px;"">+</div>","","html-keyboard-response","336","1463414","0.0-19.0-0.3","69873","List1A","white","woman","","","","null","","","","","","","","",""
"null","<img src=""stim_listA/challenge4.gif""style=""height:400px;""></stim_listA>","","html-keyboard-response","337","1465417","0.0-19.0-1.3","69873","List1A","white","woman","","","","null","","","","","","","","",""
"null","is being challenged by","","html-keyboard-response","338","1467422","0.0-19.0-2.3","69873","List1A","white","woman","","","","null","","","","","","","","",""
"8302","","","survey-text","339","1475726","0.0-19.0-3.3","69873","List1A","white","woman","","","","","{""Q0"":""Jane is being challenged by Luke""}","<img src=""stim_listA/challenge4.gif""style=""height:400px;""></stim_listA>","is being challenged by","","","","","",""
"null","<div style=""font-size:60px;"">+</div>","","html-keyboard-response","340","1476236","0.0-19.0-0.4","69873","List1A","white","woman","","","","null","","","","","","","","",""
"null","<img src=""stim_listA/seduce7.gif""style=""height:400px;""></stim_listA>","","html-keyboard-response","341","1478238","0.0-19.0-1.4","69873","List1A","white","woman","","","","null","","","","","","","","",""
"null","is seducing","","html-keyboard-response","342","1480241","0.0-19.0-2.4","69873","List1A","white","woman","","","","null","","","","","","","","",""
"6029.29999999702","","","survey-text","343","1486272","0.0-19.0-3.4","69873","List1A","white","woman","","","","","{""Q0"":""Jane is seducing Beth""}","<img src=""stim_listA/seduce7.gif""style=""height:400px;""></stim_listA>","is seducing","","","","","",""
"null","<div style=""font-size:60px;"">+</div>","","html-keyboard-response","344","1486785","0.0-19.0-0.5","69873","List1A","white","woman","","","","null","","","","","","","","",""
"null","<img src=""stim_listA/hug7.gif""style=""height:400px;""></stim_listA>","","html-keyboard-response","345","1488800","0.0-19.0-1.5","69873","List1A","white","woman","","","","null","","","","","","","","",""
"null","is hugging","","html-keyboard-response","346","1490801","0.0-19.0-2.5","69873","List1A","white","woman","","","","null","","","","","","","","",""
"5597.29999999702","","","survey-text","347","1496401","0.0-19.0-3.5","69873","List1A","white","woman","","","","","{""Q0"":""Beth is hugging Ruth""}","<img src=""stim_listA/hug7.gif""style=""height:400px;""></stim_listA>","is hugging","","","","","",""
"null","<div style=""font-size:60px;"">+</div>","","html-keyboard-response","348","1496916","0.0-19.0-0.6","69873","List1A","white","woman","","","","null","","","","","","","","",""
"null","<img src=""stim_listA/oppose5.gif""style=""height:400px;""></stim_listA>","","html-keyboard-response","349","1498933","0.0-19.0-1.6","69873","List1A","white","woman","","","","null","","","","","","","","",""
"null","is opposing","","html-keyboard-response","350","1500948","0.0-19.0-2.6","69873","List1A","white","woman","","","","null","","","","","","","","",""
"7572.5999999940395","","","survey-text","351","1508523","0.0-19.0-3.6","69873","List1A","white","woman","","","","","{""Q0"":""Mike is opposing Dave""}","<img src=""stim_listA/oppose5.gif""style=""height:400px;""></stim_listA>","is opposing","","","","","",""
"null","<div style=""font-size:60px;"">+</div>","","html-keyboard-response","352","1509033","0.0-19.0-0.7","69873","List1A","white","woman","","","","null","","","","","","","","",""
"null","<img src=""stim_listA/hug3.gif""style=""height:400px;""></stim_listA>","","html-keyboard-response","353","1511046","0.0-19.0-1.7","69873","List1A","white","woman","","","","null","","","","","","","","",""
"null","is hugging","","html-keyboard-response","354","1513058","0.0-19.0-2.7","69873","List1A","white","woman","","","","null","","","","","","","","",""
"5951.79999999702","","","survey-text","355","1519012","0.0-19.0-3.7","69873","List1A","white","woman","","","","","{""Q0"":""Luke is hugging Ruth""}","<img src=""stim_listA/hug3.gif""style=""height:400px;""></stim_listA>","is hugging","","","","","",""
"null","<div style=""font-size:60px;"">+</div>","","html-keyboard-response","356","1519525","0.0-19.0-0.8","69873","List1A","white","woman","","","","null","","","","","","","","",""
"null","<img src=""stim_listA/greet4.gif""style=""height:400px;""></stim_listA>","","html-keyboard-response","357","1521540","0.0-19.0-1.8","69873","List1A","white","woman","","","","null","","","","","","","","",""
"null","is being greeted by","","html-keyboard-response","358","1523551","0.0-19.0-2.8","69873","List1A","white","woman","","","","null","","","","","","","","",""
"7417","","","survey-text","359","1530970","0.0-19.0-3.8","69873","List1A","white","woman","","","","","{""Q0"":""Jane is being greeted by Luke""}","<img src=""stim_listA/greet4.gif""style=""height:400px;""></stim_listA>","is being greeted by","","","","","",""
"null","<div style=""font-size:60px;"">+</div>","","html-keyboard-response","360","1531483","0.0-19.0-0.9","69873","List1A","white","woman","","","","null","","","","","","","","",""
"null","<img src=""stim_listA/hug6.gif""style=""height:400px;""></stim_listA>","","html-keyboard-response","361","1533485","0.0-19.0-1.9","69873","List1A","white","woman","","","","null","","","","","","","","",""
"null","is being hugged by","","html-keyboard-response","362","1535498","0.0-19.0-2.9","69873","List1A","white","woman","","","","null","","","","","","","","",""
"6316.4000000059605","","","survey-text","363","1541817","0.0-19.0-3.9","69873","List1A","white","woman","","","","","{""Q0"":""Dave is being hugged by Mike""}","<img src=""stim_listA/hug6.gif""style=""height:400px;""></stim_listA>","is being hugged by","","","","","",""
"null","<div style=""font-size:60px;"">+</div>","","html-keyboard-response","364","1542329","0.0-19.0-0.10","69873","List1A","white","woman","","","","null","","","","","","","","",""
"null","<img src=""stim_listA/oppose2.gif""style=""height:400px;""></stim_listA>","","html-keyboard-response","365","1544345","0.0-19.0-1.10","69873","List1A","white","woman","","","","null","","","","","","","","",""
"null","is being opposed by","","html-keyboard-response","366","1546356","0.0-19.0-2.10","69873","List1A","white","woman","","","","null","","","","","","","","",""
"7058.699999988079","","","survey-text","367","1553417","0.0-19.0-3.10","69873","List1A","white","woman","","","","","{""Q0"":""Beth is being opposed by Fred""}","<img src=""stim_listA/oppose2.gif""style=""height:400px;""></stim_listA>","is being opposed by","","","","","",""
"null","<div style=""font-size:60px;"">+</div>","","html-keyboard-response","368","1553932","0.0-19.0-0.11","69873","List1A","white","woman","","","","null","","","","","","","","",""
"null","<img src=""stim_listA/challenge6.gif""style=""height:400px;""></stim_listA>","","html-keyboard-response","369","1555935","0.0-19.0-1.11","69873","List1A","white","woman","","","","null","","","","","","","","",""
"null","is being challenged by","","html-keyboard-response","370","1557951","0.0-19.0-2.11","69873","List1A","white","woman","","","","null","","","","","","","","",""
"7200.5999999940395","","","survey-text","371","1565154","0.0-19.0-3.11","69873","List1A","white","woman","","","","","{""Q0"":""Dave is being challenged by Fred""}","<img src=""stim_listA/challenge6.gif""style=""height:400px;""></stim_listA>","is being challenged by","","","","","",""
"null","<div style=""font-size:60px;"">+</div>","","html-keyboard-response","372","1565666","0.0-19.0-0.12","69873","List1A","white","woman","","","","null","","","","","","","","",""
"null","<img src=""stim_listA/copy2.gif""style=""height:400px;""></stim_listA>","","html-keyboard-response","373","1567668","0.0-19.0-1.12","69873","List1A","white","woman","","","","null","","","","","","","","",""
"null","is being copied by","","html-keyboard-response","374","1569680","0.0-19.0-2.12","69873","List1A","white","woman","","","","null","","","","","","","","",""
"7899","","","survey-text","375","1577581","0.0-19.0-3.12","69873","List1A","white","woman","","","","","{""Q0"":""Kate is being copied by Fred""}","<img src=""stim_listA/copy2.gif""style=""height:400px;""></stim_listA>","is being copied by","","","","","",""
"null","<div style=""font-size:60px;"">+</div>","","html-keyboard-response","376","1578093","0.0-19.0-0.13","69873","List1A","white","woman","","","","null","","","","","","","","",""
"null","<img src=""stim_listA/look7.gif""style=""height:400px;""></stim_listA>","","html-keyboard-response","377","1580110","0.0-19.0-1.13","69873","List1A","white","woman","","","","null","","","","","","","","",""
"null","is looking at","","html-keyboard-response","378","1582124","0.0-19.0-2.13","69873","List1A","white","woman","","","","null","","","","","","","","",""
"6011.9000000059605","","","survey-text","379","1588138","0.0-19.0-3.13","69873","List1A","white","woman","","","","","{""Q0"":""Beth is looking at Ruth""}","<img src=""stim_listA/look7.gif""style=""height:400px;""></stim_listA>","is looking at","","","","","",""
"null","<div style=""font-size:60px;"">+</div>","","html-keyboard-response","380","1588649","0.0-19.0-0.14","69873","List1A","white","woman","","","","null","","","","","","","","",""
"null","<img src=""stim_listA/hug8.gif""style=""height:400px;""></stim_listA>","","html-keyboard-response","381","1590663","0.0-19.0-1.14","69873","List1A","white","woman","","","","null","","","","","","","","",""
"null","is being hugged by","","html-keyboard-response","382","1592678","0.0-19.0-2.14","69873","List1A","white","woman","","","","null","","","","","","","","",""
"6236","","","survey-text","383","1598916","0.0-19.0-3.14","69873","List1A","white","woman","","","","","{""Q0"":""Jane is being hugged by Kate""}","<img src=""stim_listA/hug8.gif""style=""height:400px;""></stim_listA>","is being hugged by","","","","","",""
"null","<div style=""font-size:60px;"">+</div>","","html-keyboard-response","384","1599429","0.0-19.0-0.15","69873","List1A","white","woman","","","","null","","","","","","","","",""
"null","<img src=""stim_listA/greet6.gif""style=""height:400px;""></stim_listA>","","html-keyboard-response","385","1601431","0.0-19.0-1.15","69873","List1A","white","woman","","","","null","","","","","","","","",""
"null","is being greeted by","","html-keyboard-response","386","1603444","0.0-19.0-2.15","69873","List1A","white","woman","","","","null","","","","","","","","",""
"6972.300000011921","","","survey-text","387","1610418","0.0-19.0-3.15","69873","List1A","white","woman","","","","","{""Q0"":""Dave is being greeted by Fred""}","<img src=""stim_listA/greet6.gif""style=""height:400px;""></stim_listA>","is being greeted by","","","","","",""
"null","<div style=""font-size:60px;"">+</div>","","html-keyboard-response","388","1610929","0.0-19.0-0.16","69873","List1A","white","woman","","","","null","","","","","","","","",""
"null","<img src=""stim_listA/challenge1.gif""style=""height:400px;""></stim_listA>","","html-keyboard-response","389","1612931","0.0-19.0-1.16","69873","List1A","white","woman","","","","null","","","","","","","","",""
"null","is challenging","","html-keyboard-response","390","1614933","0.0-19.0-2.16","69873","List1A","white","woman","","","","null","","","","","","","","",""
"5669.79999999702","","","survey-text","391","1620605","0.0-19.0-3.16","69873","List1A","white","woman","","","","","{""Q0"":""Mike is challenging Beth""}","<img src=""stim_listA/challenge1.gif""style=""height:400px;""></stim_listA>","is challenging","","","","","",""
"null","<div style=""font-size:60px;"">+</div>","","html-keyboard-response","392","1621117","0.0-19.0-0.17","69873","List1A","white","woman","","","","null","","","","","","","","",""
"null","<img src=""stim_listA/kiss5.gif""style=""height:400px;""></stim_listA>","","html-keyboard-response","393","1623123","0.0-19.0-1.17","69873","List1A","white","woman","","","","null","","","","","","","","",""
"null","is kissing","","html-keyboard-response","394","1625139","0.0-19.0-2.17","69873","List1A","white","woman","","","","null","","","","","","","","",""
"6140.4000000059605","","","survey-text","395","1631282","0.0-19.0-3.17","69873","List1A","white","woman","","","","","{""Q0"":""Fred is kissing Luke""}","<img src=""stim_listA/kiss5.gif""style=""height:400px;""></stim_listA>","is kissing","","","","","",""
"null","<div style=""font-size:60px;"">+</div>","","html-keyboard-response","396","1631792","0.0-19.0-0.18","69873","List1A","white","woman","","","","null","","","","","","","","",""
"null","<img src=""stim_listA/challenge7.gif""style=""height:400px;""></stim_listA>","","html-keyboard-response","397","1633795","0.0-19.0-1.18","69873","List1A","white","woman","","","","null","","","","","","","","",""
"null","is challenging","","html-keyboard-response","398","1635811","0.0-19.0-2.18","69873","List1A","white","woman","","","","null","","","","","","","","",""
"5406","","","survey-text","399","1641219","0.0-19.0-3.18","69873","List1A","white","woman","","","","","{""Q0"":""Kate is challenging Ruth""}","<img src=""stim_listA/challenge7.gif""style=""height:400px;""></stim_listA>","is challenging","","","","","",""
"null","<div style=""font-size:60px;"">+</div>","","html-keyboard-response","400","1641732","0.0-19.0-0.19","69873","List1A","white","woman","","","","null","","","","","","","","",""
"null","<img src=""stim_listA/kiss7.gif""style=""height:400px;""></stim_listA>","","html-keyboard-response","401","1643734","0.0-19.0-1.19","69873","List1A","white","woman","","","","null","","","","","","","","",""
"null","is kissing","","html-keyboard-response","402","1645744","0.0-19.0-2.19","69873","List1A","white","woman","","","","null","","","","","","","","",""
"5564.70000000298","","","survey-text","403","1651311","0.0-19.0-3.19","69873","List1A","white","woman","","","","","{""Q0"":""Beth is kissing Ruth""}","<img src=""stim_listA/kiss7.gif""style=""height:400px;""></stim_listA>","is kissing","","","","","",""
"2926.6000000089407","<p>Thank you for completing that task.</p><p>The final part of this session is a questionnaire that will take about 4 minutes.</p><p>Press Continue.</p>","0","html-button-response","404","1654238","0.0-20.0","69873","List1A","white","woman","","","","","","","","","","","","",""
"47589.09999999404","","","survey-text","405","1702845","0.0-21.0","69873","List1A","white","woman","","","","","{""Q0"":""36"",""Q1"":""English"",""Q2"":""English"",""Q3"":""United States of America"",""Q4"":""American"",""Q5"":""White"",""Q6"":""Female""}","","","demographics","","","","",""
"3347.9000000059605","<p>Have you lived in the USA for the last 5 years or more?</p>","0","html-button-response","406","1706194","0.0-22.0","69873","List1A","white","woman","","","","","","","","fiveyears","","","","",""
"3241.5","<p>Move the slider to show the extent to which you agree with the following statements.</p>","0","html-button-response","407","1710449","0.0-23.0","69873","List1A","white","woman","","","","","","","","","","","","",""
"9269.20000000298","","","html-slider-response","408","1720720","0.0-24.0-0.0-0.0","69873","List1A","white","woman","","","","","","","","survey_gender","74","","","I consider myself a highly empathetic person.","filler"
"11869.59999999404","","","html-slider-response","409","1732592","0.0-24.0-0.0-0.1","69873","List1A","white","woman","","","","","","","","survey_gender","100","","","The fact that I am my gender is an important part of my identity.","identity"
"9381.20000000298","","","html-slider-response","410","1741974","0.0-24.0-0.0-0.2","69873","List1A","white","woman","","","","","","","","survey_gender","81","","","It is pleasant to be my gender.","pleasant"
"5293.899999991059","","","html-slider-response","411","1747270","0.0-24.0-0.0-0.3","69873","List1A","white","woman","","","","","","","","survey_gender","89","","","My friends understand me.","filler"
"8777.5","","","html-slider-response","412","1756048","0.0-24.0-0.0-0.4","69873","List1A","white","woman","","","","","","","","survey_gender","74","","","People of my gender have a lot in common with each other.","common"
"10472.70000000298","","","html-slider-response","413","1766522","0.0-24.0-0.0-0.5","69873","List1A","white","woman","","","","","","","","survey_gender","0","","","I often think about the fact that I am my gender.","often"
"5285.20000000298","","","html-slider-response","414","1771809","0.0-24.0-0.0-0.6","69873","List1A","white","woman","","","","","","","","survey_gender","71","","","I have a lot in common with my friends.","filler"
"5091.70000000298","","","html-slider-response","415","1776902","0.0-24.0-0.0-0.7","69873","List1A","white","woman","","","","","","","","survey_gender","73","","","Being my gender gives me a good feeling.","feeling"
"3520.9000000059605","","","html-slider-response","416","1780424","0.0-24.0-0.0-0.8","69873","List1A","white","woman","","","","","","","","survey_gender","79","","","I am glad to have the friends that I have.","filler"
"6484.79999999702","","","html-slider-response","417","1786910","0.0-24.0-0.0-0.9","69873","List1A","white","woman","","","","","","","","survey_gender","100","","","I feel committed to my gender.","committed"
"8570","","","html-slider-response","418","1795482","0.0-24.0-0.0-0.10","69873","List1A","white","woman","","","","","","","","survey_gender","85","","","I would say I am an animal person.","filler"
"4359.70000000298","","","html-slider-response","419","1799844","0.0-24.0-0.0-0.11","69873","List1A","white","woman","","","","","","","","survey_gender","58","","","Routine is not important to me.","filler"
"14060","","","html-slider-response","420","1813905","0.0-24.0-0.0-0.12","69873","List1A","white","woman","","","","","","","","survey_gender","65","","","I feel solidarity with my gender.","solidarity"
"5177.5999999940395","","","html-slider-response","421","1819085","0.0-24.0-0.0-0.13","69873","List1A","white","woman","","","","","","","","survey_gender","70","","","I am glad to be my gender.","glad"
"11461.29999999702","","","html-slider-response","422","1830548","0.0-24.0-0.0-0.14","69873","List1A","white","woman","","","","","","","","survey_gender","0","","","I feel a bond with my gender.","bond"
"11045.29999999702","","","html-slider-response","423","1841595","0.0-24.0-0.0-0.15","69873","List1A","white","woman","","","","","","","","survey_gender","58","","","Family is not more important to me than friendship.","filler"
"6849.29999999702","","","html-slider-response","424","1848446","0.0-24.0-0.0-0.16","69873","List1A","white","woman","","","","","","","","survey_gender","88","","","I have a lot in common with the average person of my gender.","average"
"4267","","","html-slider-response","425","1852715","0.0-24.0-0.0-0.17","69873","List1A","white","woman","","","","","","","","survey_gender","79","","","Being around my friends gives me a good feeling.","filler"
"6503.79999999702","","","html-slider-response","426","1859221","0.0-24.0-0.0-0.18","69873","List1A","white","woman","","","","","","","","survey_gender","100","","","Being my gender is an important part of how I see myself.","important"
"6332.5999999940395","","","html-slider-response","427","1865555","0.0-24.0-0.0-0.19","69873","List1A","white","woman","","","","","","","","survey_gender","20","","","Most of the friends in my life are very similar to me.","filler"
"3398.300000011921","","","html-slider-response","428","1868955","0.0-24.0-0.0-0.20","69873","List1A","white","woman","","","","","","","","survey_gender","72","","","I feel solidarity with my friends.","filler"
"3405.9000000059605","","","html-slider-response","429","1872364","0.0-24.0-0.0-0.21","69873","List1A","white","woman","","","","","","","","survey_gender","81","","","I feel a bond with my friends.","filler"
"3570.5999999940395","","","html-slider-response","430","1875936","0.0-24.0-0.0-0.22","69873","List1A","white","woman","","","","","","","","survey_gender","77","","","I am similar to the average person of my gender.","similar"
"4969.70000000298","","","html-slider-response","431","1880908","0.0-24.0-0.0-0.23","69873","List1A","white","woman","","","","","","","","survey_gender","75","","","I often think about my actions.","filler"
"7185.300000011921","","","html-slider-response","432","1888095","0.0-24.0-0.0-0.24","69873","List1A","white","woman","","","","","","","","survey_gender","57","","","It is not always easy for people to know what I am thinking.","filler"
"4869.70000000298","","","html-slider-response","433","1892966","0.0-24.0-0.0-0.25","69873","List1A","white","woman","","","","","","","","survey_gender","33","","","My friends have a lot in common with each other.","filler"
"7120.899999991059","","","html-slider-response","434","1900089","0.0-24.0-0.0-0.26","69873","List1A","white","woman","","","","","","","","survey_gender","90","","","I think that my gender has a lot to be proud of.","proud"
"3577.7000000029802","","","html-slider-response","435","1903668","0.0-24.0-0.0-0.27","69873","List1A","white","woman","","","","","","","","survey_gender","66","","","People of my gender are very similar to each other.","verysimilar"
"7222.600000008941","","","html-slider-response","436","1910892","0.0-24.0-1.0-0.0","69873","List1A","white","woman","","","","","","","","survey_race","75","","","I feel a bond with people the same age as me.","filler"
"3721.800000011921","","","html-slider-response","437","1914615","0.0-24.0-1.0-0.1","69873","List1A","white","woman","","","","","","","","survey_race","24","","","I consider myself an introvert.","filler"
"4768.600000008941","","","html-slider-response","438","1919385","0.0-24.0-1.0-0.2","69873","List1A","white","woman","","","","","","","","survey_race","90","","","I am glad to be my race.","glad"
"5815.800000011921","","","html-slider-response","439","1925202","0.0-24.0-1.0-0.3","69873","List1A","white","woman","","","","","","","","survey_race","60","","","People of my race have a lot in common with each other.","common"
"5809.600000008941","","","html-slider-response","440","1931013","0.0-24.0-1.0-0.4","69873","List1A","white","woman","","","","","","","","survey_race","67","","","The fact that I am my race is an important part of my identity.","identity"
"5601.5999999940395","","","html-slider-response","441","1936616","0.0-24.0-1.0-0.5","69873","List1A","white","woman","","","","","","","","survey_race","62","","","People my age have a lot in common with each other.","filler"
"4531.9000000059605","","","html-slider-response","442","1941149","0.0-24.0-1.0-0.6","69873","List1A","white","woman","","","","","","","","survey_race","26","","","Being my age gives me a good feeling.","filler"
"8908","","","html-slider-response","443","1950059","0.0-24.0-1.0-0.7","69873","List1A","white","woman","","","","","","","","survey_race","19","","","I think that my race has a lot to be proud of.","proud"
"5651.0999999940395","","","html-slider-response","444","1955712","0.0-24.0-1.0-0.8","69873","List1A","white","woman","","","","","","","","survey_race","40","","","It is pleasant to be my race.","pleasant"
"3907.7999999970198","","","html-slider-response","445","1959622","0.0-24.0-1.0-0.9","69873","List1A","white","woman","","","","","","","","survey_race","59","","","I have a lot in common with people of a similar age to me.","filler"
"3376.7999999970198","","","html-slider-response","446","1962999","0.0-24.0-1.0-0.10","69873","List1A","white","woman","","","","","","","","survey_race","28","","","Being my race gives me a good feeling.","feeling"
"5479.5999999940395","","","html-slider-response","447","1968480","0.0-24.0-1.0-0.11","69873","List1A","white","woman","","","","","","","","survey_race","21","","","I feel solidarity with my race.","solidarity"
"5077.399999991059","","","html-slider-response","448","1973560","0.0-24.0-1.0-0.12","69873","List1A","white","woman","","","","","","","","survey_race","77","","","I have a lot in common with the average person of my race.","average"
"3562.6000000089407","","","html-slider-response","449","1977124","0.0-24.0-1.0-0.13","69873","List1A","white","woman","","","","","","","","survey_race","27","","","My age is not an important part of who I am.","filler"
"2882.5999999940395","","","html-slider-response","450","1980009","0.0-24.0-1.0-0.14","69873","List1A","white","woman","","","","","","","","survey_race","77","","","I consider myself an extrovert.","filler"
"2839.4000000059605","","","html-slider-response","451","1982849","0.0-24.0-1.0-0.15","69873","List1A","white","woman","","","","","","","","survey_race","17","","","I am glad to be my age.","filler"
"6339.79999999702","","","html-slider-response","452","1989190","0.0-24.0-1.0-0.16","69873","List1A","white","woman","","","","","","","","survey_race","1","","","I am glad to be the age I am.","filler"
"5908.9000000059605","","","html-slider-response","453","1995102","0.0-24.0-1.0-0.17","69873","List1A","white","woman","","","","","","","","survey_race","58","","","I feel a bond with my race.","bond"
"4452.0999999940395","","","html-slider-response","454","1999556","0.0-24.0-1.0-0.18","69873","List1A","white","woman","","","","","","","","survey_race","67","","","I often think about the fact that I am my race.","often"
"3155.4000000059605","","","html-slider-response","455","2002712","0.0-24.0-1.0-0.19","69873","List1A","white","woman","","","","","","","","survey_race","86","","","I often think about the fact that I am my age.","filler"
"3197.3999999910593","","","html-slider-response","456","2005911","0.0-24.0-1.0-0.20","69873","List1A","white","woman","","","","","","","","survey_race","27","","","I enjoy being in large groups.","filler"
"5572.79999999702","","","html-slider-response","457","2011486","0.0-24.0-1.0-0.21","69873","List1A","white","woman","","","","","","","","survey_race","53","","","I am similar to the average person of my race.","similar"
"3512.800000011921","","","html-slider-response","458","2015000","0.0-24.0-1.0-0.22","69873","List1A","white","woman","","","","","","","","survey_race","33","","","I feel committed to my race.","committed"
"3706.4000000059605","","","html-slider-response","459","2018709","0.0-24.0-1.0-0.23","69873","List1A","white","woman","","","","","","","","survey_race","56","","","People of my race are very similar to each other.","verysimilar"
"3721","","","html-slider-response","460","2022432","0.0-24.0-1.0-0.24","69873","List1A","white","woman","","","","","","","","survey_race","65","","","I feel solidarity with people the same age as me.","filler"
"3269.6000000089407","","","html-slider-response","461","2025703","0.0-24.0-1.0-0.25","69873","List1A","white","woman","","","","","","","","survey_race","16","","","Getting older does not worry me.","filler"
"3915.5","","","html-slider-response","462","2029620","0.0-24.0-1.0-0.26","69873","List1A","white","woman","","","","","","","","survey_race","79","","","The older I get, the wiser I feel.","filler"
"4582","","","html-slider-response","463","2034203","0.0-24.0-1.0-0.27","69873","List1A","white","woman","","","","","","","","survey_race","61","","","Being my race is an important part of how I see myself.","important"
"10723","","","survey-text","464","2044927","0.0-25.0","69873","List1A","white","woman","","","","","{""Q0"":""61629ab0967be4034732c1cc""}","","","worker_id","","","","",""
"1019364.5","","","external-html","465","3064491","0.0-26.0","69873","List1A","white","woman","debrief.html","","","","","","","","","","","",""
