rt,stimulus,button_pressed,trial_type,trial_index,time_elapsed,internal_node_id,subject,list,ppt_race,ppt_gender,url,first_guess,correct,key_press,responses,image_type,phrase_type,test_part,response,stimulus1,stimulus2,question_type,survey_item
11494,Welcome to the experiment. Press Continue to begin.,0,html-button-response,0,11494,0.0-0.0,69980,List1B,white,woman,,,,,,,,,,,,,
15197,,,external-html,1,29801,0.0-1.0,69980,List1B,white,woman,consent.html,,,,,,,,,,,,
38364,"<p>On the next page, you will see portraits of 8 people and their names.</p><p>Your first task is to take a few minutes to memorise the names of these people.</p><p>You will have to recall their names during the rest of the experiment, so it is</p><p>essential that you try to memorise these people and their names as best as you can.</p><br><p><strong>You will then be tested on your memory of these names and portraits.</strong></p><br><p>The experiment will start after you have completed this memory test.</p><br><p>Ready?</p>",0,html-button-response,2,68165,0.0-2.0,69980,List1B,white,woman,,,,,,,,,,,,,
32709,"<img src='img/portrait_matrix_list1.jpg' style='width:900px;height:500px;''></img><p>If you have memorised all the portraits and names and are ready to start, press Continue.</p><p><strong>Please note: Your memory of these faces will be tested 4 times during this experiment.</strong></p>",0,html-button-response,3,101877,0.0-3.0-0.0,69980,List1B,white,woman,,,,,,,,,,,,,
14230,"<img src=""portrait/BW1.jpg""style=""height:400px;""></img>",0,html-button-response,4,117114,0.0-3.0-1.0,69980,List1B,white,woman,,TRUE,0,,,,,,,,,,
null,CORRECT,,html-keyboard-response,5,118627,0.0-3.0-2.0-0.0,69980,List1B,white,woman,,,,null,,,,,,,,,
8901,"<img src=""portrait/WM1.jpg""style=""height:400px;""></img>",6,html-button-response,6,127528,0.0-3.0-4.0,69980,List1B,white,woman,,TRUE,6,,,,,,,,,,
null,CORRECT,,html-keyboard-response,7,129049,0.0-3.0-5.0-0.0,69980,List1B,white,woman,,,,null,,,,,,,,,
5280,"<img src=""portrait/BM1.jpg""style=""height:400px;""></img>",4,html-button-response,8,134329,0.0-3.0-7.0,69980,List1B,white,woman,,TRUE,4,,,,,,,,,,
null,CORRECT,,html-keyboard-response,9,135856,0.0-3.0-8.0-0.0,69980,List1B,white,woman,,,,null,,,,,,,,,
6280,"<img src=""portrait/BW2.jpg""style=""height:400px;""></img>",2,html-button-response,10,142136,0.0-3.0-10.0,69980,List1B,white,woman,,TRUE,2,,,,,,,,,,
null,CORRECT,,html-keyboard-response,11,143642,0.0-3.0-11.0-0.0,69980,List1B,white,woman,,,,null,,,,,,,,,
7101,"<img src=""portrait/WW1.jpg""style=""height:400px;""></img>",1,html-button-response,12,150743,0.0-3.0-13.0,69980,List1B,white,woman,,TRUE,1,,,,,,,,,,
null,CORRECT,,html-keyboard-response,13,152252,0.0-3.0-14.0-0.0,69980,List1B,white,woman,,,,null,,,,,,,,,
5557,"<img src=""portrait/WW2.jpg""style=""height:400px;""></img>",3,html-button-response,14,157809,0.0-3.0-16.0,69980,List1B,white,woman,,TRUE,3,,,,,,,,,,
null,CORRECT,,html-keyboard-response,15,159319,0.0-3.0-17.0-0.0,69980,List1B,white,woman,,,,null,,,,,,,,,
47839,"<img src=""portrait/BM2.jpg""style=""height:400px;""></img>",5,html-button-response,16,207158,0.0-3.0-19.0,69980,List1B,white,woman,,TRUE,5,,,,,,,,,,
null,CORRECT,,html-keyboard-response,17,208675,0.0-3.0-20.0-0.0,69980,List1B,white,woman,,,,null,,,,,,,,,
19214,"<img src=""portrait/WM2.jpg""style=""height:400px;""></img>",7,html-button-response,18,227889,0.0-3.0-22.0,69980,List1B,white,woman,,TRUE,7,,,,,,,,,,
null,CORRECT,,html-keyboard-response,19,229416,0.0-3.0-23.0-0.0,69980,List1B,white,woman,,,,null,,,,,,,,,
5650,<p>You got 8 out of 8 right first time. Press Continue.</p>,0,html-button-response,20,235066,0.0-3.0-25.0,69980,List1B,white,woman,,,,,,,,,,,,,
59945,"<p>In this experiment, you will view photographs of the people from the memory game interacting.</p><p>By using the <strong>exact</strong> phrase given <i>after</i> the photograph appears and recalling the correct names of the people in the photographs, form a sentence describing the interaction. You do not need to capitalise names.</p><p>Type your answer in the space provided. Please complete every sentence before moving onto the next trial.</p><p>You will only have a few seconds to memorise each given photograph and phrase before you can respond, so try your best to focus.</p><p>An example is given below. Press 'Continue' when you are ready.</p><img src='img/speaking_example.jpg' style='width:800px;height:460px;''></img>",0,html-button-response,21,296024,0.0-4.0,69980,List1B,white,woman,,,,,,,,,,,,,
3102,"<p>Before the experiment starts, you will watch two example trials. Press 'Continue'.</p>",0,html-button-response,22,300129,0.0-5.0,69980,List1B,white,woman,,,,,,,,,,,,,
null,<img src='img/play_eg.gif' style='height:400px;''></img>,,html-keyboard-response,23,303135,0.0-6.0,69980,List1B,white,woman,,,,null,,,,,,,,,
null,<p>is playing with</p>,,html-keyboard-response,24,305146,0.0-7.0,69980,List1B,white,woman,,,,null,,,,,,,,,
19904,<p><b>Answer:</b> kate is playing with beth</p>,0,html-button-response,25,325050,0.0-8.0,69980,List1B,white,woman,,,,,,,,,,,,,
null,<img src='img/dance_eg.gif' style='height:400px;''></img>,,html-keyboard-response,26,328066,0.0-9.0,69980,List1B,white,woman,,,,null,,,,,,,,,
null,<p>is being entertained by</p>,,html-keyboard-response,27,330067,0.0-10.0,69980,List1B,white,woman,,,,null,,,,,,,,,
6556,<p><b>Answer:</b> luke is being entertained by dave</p>,0,html-button-response,28,336623,0.0-11.0,69980,List1B,white,woman,,,,,,,,,,,,,
19880,"<p>Ready to start the experiment?</p><br><p><strong>Remember to describe the picture using a full sentence,</strong></p><p><strong>that combines the names of the people with the <i>exact</i> phrase given.</strong></p><p><strong>To receive full payment you must do this correctly.</strong></p><p><strong> You do not need to capitalise names or use punctuation.</strong></p><br><p>Press 'Continue' to begin.</p>",0,html-button-response,29,357505,0.0-12.0,69980,List1B,white,woman,,,,,,,,,,,,,
null,"<div style=""font-size:60px;"">+</div>",,html-keyboard-response,30,359027,0.0-13.0-0.0,69980,List1B,white,woman,,,,null,,,,,,,,,
null,"<img src=""stim_listB/look5.gif""style=""height:400px;""></stim_listB>",,html-keyboard-response,31,361042,0.0-13.0-1.0,69980,List1B,white,woman,,,,null,,,,,,,,,
null,is looking at,,html-keyboard-response,32,363045,0.0-13.0-2.0,69980,List1B,white,woman,,,,null,,,,,,,,,
23418,,,survey-text,33,386463,0.0-13.0-3.0,69980,List1B,white,woman,,,,,"{""Q0"":""fred is looking at luke""}","<img src=""stim_listB/look5.gif""style=""height:400px;""></stim_listB>",is looking at,,,,,,
null,"<div style=""font-size:60px;"">+</div>",,html-keyboard-response,34,386973,0.0-13.0-0.1,69980,List1B,white,woman,,,,null,,,,,,,,,
null,"<img src=""stim_listB/copy7.gif""style=""height:400px;""></stim_listB>",,html-keyboard-response,35,388975,0.0-13.0-1.1,69980,List1B,white,woman,,,,null,,,,,,,,,
null,is copying,,html-keyboard-response,36,390980,0.0-13.0-2.1,69980,List1B,white,woman,,,,null,,,,,,,,,
26797,,,survey-text,37,417777,0.0-13.0-3.1,69980,List1B,white,woman,,,,,"{""Q0"":""kate is copying jane""}","<img src=""stim_listB/copy7.gif""style=""height:400px;""></stim_listB>",is copying,,,,,,
null,"<div style=""font-size:60px;"">+</div>",,html-keyboard-response,38,418288,0.0-13.0-0.2,69980,List1B,white,woman,,,,null,,,,,,,,,
null,"<img src=""stim_listB/shout2.gif""style=""height:400px;""></stim_listB>",,html-keyboard-response,39,420293,0.0-13.0-1.2,69980,List1B,white,woman,,,,null,,,,,,,,,
null,is being shouted at by,,html-keyboard-response,40,422301,0.0-13.0-2.2,69980,List1B,white,woman,,,,null,,,,,,,,,
26589,,,survey-text,41,448890,0.0-13.0-3.2,69980,List1B,white,woman,,,,,"{""Q0"":""mike is shouting at mike""}","<img src=""stim_listB/shout2.gif""style=""height:400px;""></stim_listB>",is being shouted at by,,,,,,
null,"<div style=""font-size:60px;"">+</div>",,html-keyboard-response,42,449394,0.0-13.0-0.3,69980,List1B,white,woman,,,,null,,,,,,,,,
null,"<img src=""stim_listB/oppose2.gif""style=""height:400px;""></stim_listB>",,html-keyboard-response,43,451402,0.0-13.0-1.3,69980,List1B,white,woman,,,,null,,,,,,,,,
null,is being opposed by,,html-keyboard-response,44,453416,0.0-13.0-2.3,69980,List1B,white,woman,,,,null,,,,,,,,,
29154,,,survey-text,45,482570,0.0-13.0-3.3,69980,List1B,white,woman,,,,,"{""Q0"":""fred is fighting beth""}","<img src=""stim_listB/oppose2.gif""style=""height:400px;""></stim_listB>",is being opposed by,,,,,,
null,"<div style=""font-size:60px;"">+</div>",,html-keyboard-response,46,483084,0.0-13.0-0.4,69980,List1B,white,woman,,,,null,,,,,,,,,
null,"<img src=""stim_listB/hug2.gif""style=""height:400px;""></stim_listB>",,html-keyboard-response,47,485085,0.0-13.0-1.4,69980,List1B,white,woman,,,,null,,,,,,,,,
null,is being hugged by,,html-keyboard-response,48,487101,0.0-13.0-2.4,69980,List1B,white,woman,,,,null,,,,,,,,,
20676,,,survey-text,49,507781,0.0-13.0-3.4,69980,List1B,white,woman,,,,,"{""Q0"":""kate is being hugged by mike""}","<img src=""stim_listB/hug2.gif""style=""height:400px;""></stim_listB>",is being hugged by,,,,,,
null,"<div style=""font-size:60px;"">+</div>",,html-keyboard-response,50,508286,0.0-13.0-0.5,69980,List1B,white,woman,,,,null,,,,,,,,,
null,"<img src=""stim_listB/touch1.gif""style=""height:400px;""></stim_listB>",,html-keyboard-response,51,510298,0.0-13.0-1.5,69980,List1B,white,woman,,,,null,,,,,,,,,
null,is touching,,html-keyboard-response,52,512314,0.0-13.0-2.5,69980,List1B,white,woman,,,,null,,,,,,,,,
26072,,,survey-text,53,538386,0.0-13.0-3.5,69980,List1B,white,woman,,,,,"{""Q0"":""kate is greeting mike""}","<img src=""stim_listB/touch1.gif""style=""height:400px;""></stim_listB>",is touching,,,,,,
null,"<div style=""font-size:60px;"">+</div>",,html-keyboard-response,54,538890,0.0-13.0-0.6,69980,List1B,white,woman,,,,null,,,,,,,,,
null,"<img src=""stim_listB/touch3.gif""style=""height:400px;""></stim_listB>",,html-keyboard-response,55,540905,0.0-13.0-1.6,69980,List1B,white,woman,,,,null,,,,,,,,,
null,is touching,,html-keyboard-response,56,542920,0.0-13.0-2.6,69980,List1B,white,woman,,,,null,,,,,,,,,
20994,,,survey-text,57,563914,0.0-13.0-3.6,69980,List1B,white,woman,,,,,"{""Q0"":""dave is touching jane""}","<img src=""stim_listB/touch3.gif""style=""height:400px;""></stim_listB>",is touching,,,,,,
null,"<div style=""font-size:60px;"">+</div>",,html-keyboard-response,58,564419,0.0-13.0-0.7,69980,List1B,white,woman,,,,null,,,,,,,,,
null,"<img src=""stim_listB/challenge2.gif""style=""height:400px;""></stim_listB>",,html-keyboard-response,59,566433,0.0-13.0-1.7,69980,List1B,white,woman,,,,null,,,,,,,,,
null,is being challenged by,,html-keyboard-response,60,568436,0.0-13.0-2.7,69980,List1B,white,woman,,,,null,,,,,,,,,
31710,,,survey-text,61,600146,0.0-13.0-3.7,69980,List1B,white,woman,,,,,"{""Q0"":""fred  is being challenged by kate""}","<img src=""stim_listB/challenge2.gif""style=""height:400px;""></stim_listB>",is being challenged by,,,,,,
null,"<div style=""font-size:60px;"">+</div>",,html-keyboard-response,62,600647,0.0-13.0-0.8,69980,List1B,white,woman,,,,null,,,,,,,,,
null,"<img src=""stim_listB/greet3.gif""style=""height:400px;""></stim_listB>",,html-keyboard-response,63,602663,0.0-13.0-1.8,69980,List1B,white,woman,,,,null,,,,,,,,,
null,is greeting,,html-keyboard-response,64,604670,0.0-13.0-2.8,69980,List1B,white,woman,,,,null,,,,,,,,,
13115,,,survey-text,65,617785,0.0-13.0-3.8,69980,List1B,white,woman,,,,,"{""Q0"":""ruth is greeting dave""}","<img src=""stim_listB/greet3.gif""style=""height:400px;""></stim_listB>",is greeting,,,,,,
null,"<div style=""font-size:60px;"">+</div>",,html-keyboard-response,66,618296,0.0-13.0-0.9,69980,List1B,white,woman,,,,null,,,,,,,,,
null,"<img src=""stim_listB/seduce8.gif""style=""height:400px;""></stim_listB>",,html-keyboard-response,67,620296,0.0-13.0-1.9,69980,List1B,white,woman,,,,null,,,,,,,,,
null,is being seduced by,,html-keyboard-response,68,622301,0.0-13.0-2.9,69980,List1B,white,woman,,,,null,,,,,,,,,
31045,,,survey-text,69,653346,0.0-13.0-3.9,69980,List1B,white,woman,,,,,"{""Q0"":""kate is being seduced by ruth""}","<img src=""stim_listB/seduce8.gif""style=""height:400px;""></stim_listB>",is being seduced by,,,,,,
null,"<div style=""font-size:60px;"">+</div>",,html-keyboard-response,70,653859,0.0-13.0-0.10,69980,List1B,white,woman,,,,null,,,,,,,,,
null,"<img src=""stim_listB/challenge5.gif""style=""height:400px;""></stim_listB>",,html-keyboard-response,71,655863,0.0-13.0-1.10,69980,List1B,white,woman,,,,null,,,,,,,,,
null,is challenging,,html-keyboard-response,72,657871,0.0-13.0-2.10,69980,List1B,white,woman,,,,null,,,,,,,,,
68072,,,survey-text,73,725943,0.0-13.0-3.10,69980,List1B,white,woman,,,,,"{""Q0"":""luke is being challenged by mike""}","<img src=""stim_listB/challenge5.gif""style=""height:400px;""></stim_listB>",is challenging,,,,,,
null,"<div style=""font-size:60px;"">+</div>",,html-keyboard-response,74,726448,0.0-13.0-0.11,69980,List1B,white,woman,,,,null,,,,,,,,,
null,"<img src=""stim_listB/look3.gif""style=""height:400px;""></stim_listB>",,html-keyboard-response,75,728457,0.0-13.0-1.11,69980,List1B,white,woman,,,,null,,,,,,,,,
null,is looking at,,html-keyboard-response,76,730464,0.0-13.0-2.11,69980,List1B,white,woman,,,,null,,,,,,,,,
25384,,,survey-text,77,755848,0.0-13.0-3.11,69980,List1B,white,woman,,,,,"{""Q0"":""ruth is looking at luke""}","<img src=""stim_listB/look3.gif""style=""height:400px;""></stim_listB>",is looking at,,,,,,
null,"<div style=""font-size:60px;"">+</div>",,html-keyboard-response,78,756352,0.0-13.0-0.12,69980,List1B,white,woman,,,,null,,,,,,,,,
null,"<img src=""stim_listB/shout8.gif""style=""height:400px;""></stim_listB>",,html-keyboard-response,79,758368,0.0-13.0-1.12,69980,List1B,white,woman,,,,null,,,,,,,,,
null,is being shouted at by,,html-keyboard-response,80,760383,0.0-13.0-2.12,69980,List1B,white,woman,,,,null,,,,,,,,,
24319,,,survey-text,81,784710,0.0-13.0-3.12,69980,List1B,white,woman,,,,,"{""Q0"":""jane is being shout at by kate""}","<img src=""stim_listB/shout8.gif""style=""height:400px;""></stim_listB>",is being shouted at by,,,,,,
null,"<div style=""font-size:60px;"">+</div>",,html-keyboard-response,82,785222,0.0-13.0-0.13,69980,List1B,white,woman,,,,null,,,,,,,,,
null,"<img src=""stim_listB/seduce1.gif""style=""height:400px;""></stim_listB>",,html-keyboard-response,83,787223,0.0-13.0-1.13,69980,List1B,white,woman,,,,null,,,,,,,,,
null,is seducing,,html-keyboard-response,84,789226,0.0-13.0-2.13,69980,List1B,white,woman,,,,null,,,,,,,,,
43591,,,survey-text,85,832817,0.0-13.0-3.13,69980,List1B,white,woman,,,,,"{""Q0"":""fred is being seduced by beth""}","<img src=""stim_listB/seduce1.gif""style=""height:400px;""></stim_listB>",is seducing,,,,,,
null,"<div style=""font-size:60px;"">+</div>",,html-keyboard-response,86,833327,0.0-13.0-0.14,69980,List1B,white,woman,,,,null,,,,,,,,,
null,"<img src=""stim_listB/seduce2.gif""style=""height:400px;""></stim_listB>",,html-keyboard-response,87,835328,0.0-13.0-1.14,69980,List1B,white,woman,,,,null,,,,,,,,,
null,is being seduced by,,html-keyboard-response,88,837334,0.0-13.0-2.14,69980,List1B,white,woman,,,,null,,,,,,,,,
29758,,,survey-text,89,867092,0.0-13.0-3.14,69980,List1B,white,woman,,,,,"{""Q0"":""beth is being seduced by mike""}","<img src=""stim_listB/seduce2.gif""style=""height:400px;""></stim_listB>",is being seduced by,,,,,,
null,"<div style=""font-size:60px;"">+</div>",,html-keyboard-response,90,867595,0.0-13.0-0.15,69980,List1B,white,woman,,,,null,,,,,,,,,
null,"<img src=""stim_listB/kiss6.gif""style=""height:400px;""></stim_listB>",,html-keyboard-response,91,869597,0.0-13.0-1.15,69980,List1B,white,woman,,,,null,,,,,,,,,
null,is being kissed by,,html-keyboard-response,92,871612,0.0-13.0-2.15,69980,List1B,white,woman,,,,null,,,,,,,,,
18475,,,survey-text,93,890095,0.0-13.0-3.15,69980,List1B,white,woman,,,,,"{""Q0"":""fred is being kissed by dave""}","<img src=""stim_listB/kiss6.gif""style=""height:400px;""></stim_listB>",is being kissed by,,,,,,
null,"<div style=""font-size:60px;"">+</div>",,html-keyboard-response,94,890601,0.0-13.0-0.16,69980,List1B,white,woman,,,,null,,,,,,,,,
null,"<img src=""stim_listB/oppose8.gif""style=""height:400px;""></stim_listB>",,html-keyboard-response,95,892616,0.0-13.0-1.16,69980,List1B,white,woman,,,,null,,,,,,,,,
null,is being opposed by,,html-keyboard-response,96,894618,0.0-13.0-2.16,69980,List1B,white,woman,,,,null,,,,,,,,,
19718,,,survey-text,97,914336,0.0-13.0-3.16,69980,List1B,white,woman,,,,,"{""Q0"":""beth id fighting ruth""}","<img src=""stim_listB/oppose8.gif""style=""height:400px;""></stim_listB>",is being opposed by,,,,,,
null,"<div style=""font-size:60px;"">+</div>",,html-keyboard-response,98,914837,0.0-13.0-0.17,69980,List1B,white,woman,,,,null,,,,,,,,,
null,"<img src=""stim_listB/seduce3.gif""style=""height:400px;""></stim_listB>",,html-keyboard-response,99,916852,0.0-13.0-1.17,69980,List1B,white,woman,,,,null,,,,,,,,,
null,is seducing,,html-keyboard-response,100,918860,0.0-13.0-2.17,69980,List1B,white,woman,,,,null,,,,,,,,,
21847,,,survey-text,101,940707,0.0-13.0-3.17,69980,List1B,white,woman,,,,,"{""Q0"":""luke is seducing ruth""}","<img src=""stim_listB/seduce3.gif""style=""height:400px;""></stim_listB>",is seducing,,,,,,
null,"<div style=""font-size:60px;"">+</div>",,html-keyboard-response,102,941216,0.0-13.0-0.18,69980,List1B,white,woman,,,,null,,,,,,,,,
null,"<img src=""stim_listB/look6.gif""style=""height:400px;""></stim_listB>",,html-keyboard-response,103,943223,0.0-13.0-1.18,69980,List1B,white,woman,,,,null,,,,,,,,,
null,is being looked at by,,html-keyboard-response,104,945237,0.0-13.0-2.18,69980,List1B,white,woman,,,,null,,,,,,,,,
27234,,,survey-text,105,972471,0.0-13.0-3.18,69980,List1B,white,woman,,,,,"{""Q0"":""mike is being looked at by dave""}","<img src=""stim_listB/look6.gif""style=""height:400px;""></stim_listB>",is being looked at by,,,,,,
null,"<div style=""font-size:60px;"">+</div>",,html-keyboard-response,106,972982,0.0-13.0-0.19,69980,List1B,white,woman,,,,null,,,,,,,,,
null,"<img src=""stim_listB/hug7.gif""style=""height:400px;""></stim_listB>",,html-keyboard-response,107,974986,0.0-13.0-1.19,69980,List1B,white,woman,,,,null,,,,,,,,,
null,is hugging,,html-keyboard-response,108,977001,0.0-13.0-2.19,69980,List1B,white,woman,,,,null,,,,,,,,,
17705,,,survey-text,109,994706,0.0-13.0-3.19,69980,List1B,white,woman,,,,,"{""Q0"":""ruth is hugging beth""}","<img src=""stim_listB/hug7.gif""style=""height:400px;""></stim_listB>",is hugging,,,,,,
37354,"<img src='img/portrait_matrix_list1.jpg' style='width:900px;height:500px;''></img><p>If you have memorised all the portraits and names and are ready to start, press Continue.</p><p><strong>Please note: Your memory of these faces will be tested 4 times during this experiment.</strong></p>",0,html-button-response,110,1032061,0.0-14.0-0.0,69980,List1B,white,woman,,,,,,,,,,,,,
12107,"<img src=""portrait/BW1.jpg""style=""height:400px;""></img>",0,html-button-response,111,1045170,0.0-14.0-1.0,69980,List1B,white,woman,,TRUE,0,,,,,,,,,,
null,CORRECT,,html-keyboard-response,112,1046686,0.0-14.0-2.0-0.0,69980,List1B,white,woman,,,,null,,,,,,,,,
3290,"<img src=""portrait/WW2.jpg""style=""height:400px;""></img>",3,html-button-response,113,1049976,0.0-14.0-4.0,69980,List1B,white,woman,,TRUE,3,,,,,,,,,,
null,CORRECT,,html-keyboard-response,114,1051490,0.0-14.0-5.0-0.0,69980,List1B,white,woman,,,,null,,,,,,,,,
3439,"<img src=""portrait/BW2.jpg""style=""height:400px;""></img>",2,html-button-response,115,1054929,0.0-14.0-7.0,69980,List1B,white,woman,,TRUE,2,,,,,,,,,,
null,CORRECT,,html-keyboard-response,116,1056439,0.0-14.0-8.0-0.0,69980,List1B,white,woman,,,,null,,,,,,,,,
4607,"<img src=""portrait/WW1.jpg""style=""height:400px;""></img>",1,html-button-response,117,1061046,0.0-14.0-10.0,69980,List1B,white,woman,,TRUE,1,,,,,,,,,,
null,CORRECT,,html-keyboard-response,118,1062564,0.0-14.0-11.0-0.0,69980,List1B,white,woman,,,,null,,,,,,,,,
3907,"<img src=""portrait/WM1.jpg""style=""height:400px;""></img>",6,html-button-response,119,1066471,0.0-14.0-13.0,69980,List1B,white,woman,,TRUE,6,,,,,,,,,,
null,CORRECT,,html-keyboard-response,120,1067990,0.0-14.0-14.0-0.0,69980,List1B,white,woman,,,,null,,,,,,,,,
2731,"<img src=""portrait/BM1.jpg""style=""height:400px;""></img>",4,html-button-response,121,1070721,0.0-14.0-16.0,69980,List1B,white,woman,,TRUE,4,,,,,,,,,,
null,CORRECT,,html-keyboard-response,122,1072242,0.0-14.0-17.0-0.0,69980,List1B,white,woman,,,,null,,,,,,,,,
3515,"<img src=""portrait/WM2.jpg""style=""height:400px;""></img>",7,html-button-response,123,1075757,0.0-14.0-19.0,69980,List1B,white,woman,,TRUE,7,,,,,,,,,,
null,CORRECT,,html-keyboard-response,124,1077282,0.0-14.0-20.0-0.0,69980,List1B,white,woman,,,,null,,,,,,,,,
5877,"<img src=""portrait/BM2.jpg""style=""height:400px;""></img>",5,html-button-response,125,1083159,0.0-14.0-22.0,69980,List1B,white,woman,,TRUE,5,,,,,,,,,,
null,CORRECT,,html-keyboard-response,126,1084665,0.0-14.0-23.0-0.0,69980,List1B,white,woman,,,,null,,,,,,,,,
2925,<p>You got 8 out of 8 right first time. Press Continue.</p>,0,html-button-response,127,1087590,0.0-14.0-25.0,69980,List1B,white,woman,,,,,,,,,,,,,
null,"<div style=""font-size:60px;"">+</div>",,html-keyboard-response,128,1089099,0.0-15.0-0.0,69980,List1B,white,woman,,,,null,,,,,,,,,
null,"<img src=""stim_listB/copy3.gif""style=""height:400px;""></stim_listB>",,html-keyboard-response,129,1091099,0.0-15.0-1.0,69980,List1B,white,woman,,,,null,,,,,,,,,
null,is copying,,html-keyboard-response,130,1093114,0.0-15.0-2.0,69980,List1B,white,woman,,,,null,,,,,,,,,
12652,,,survey-text,131,1105766,0.0-15.0-3.0,69980,List1B,white,woman,,,,,"{""Q0"":""fred copying ruth""}","<img src=""stim_listB/copy3.gif""style=""height:400px;""></stim_listB>",is copying,,,,,,
null,"<div style=""font-size:60px;"">+</div>",,html-keyboard-response,132,1106278,0.0-15.0-0.1,69980,List1B,white,woman,,,,null,,,,,,,,,
null,"<img src=""stim_listB/look8.gif""style=""height:400px;""></stim_listB>",,html-keyboard-response,133,1108279,0.0-15.0-1.1,69980,List1B,white,woman,,,,null,,,,,,,,,
null,is being looked at by,,html-keyboard-response,134,1110293,0.0-15.0-2.1,69980,List1B,white,woman,,,,null,,,,,,,,,
23998,,,survey-text,135,1134291,0.0-15.0-3.1,69980,List1B,white,woman,,,,,"{""Q0"":""kate is being looked at by jane""}","<img src=""stim_listB/look8.gif""style=""height:400px;""></stim_listB>",is being looked at by,,,,,,
null,"<div style=""font-size:60px;"">+</div>",,html-keyboard-response,136,1134794,0.0-15.0-0.2,69980,List1B,white,woman,,,,null,,,,,,,,,
null,"<img src=""stim_listB/greet6.gif""style=""height:400px;""></stim_listB>",,html-keyboard-response,137,1136798,0.0-15.0-1.2,69980,List1B,white,woman,,,,null,,,,,,,,,
null,is being greeted by,,html-keyboard-response,138,1138803,0.0-15.0-2.2,69980,List1B,white,woman,,,,null,,,,,,,,,
31056,,,survey-text,139,1169859,0.0-15.0-3.2,69980,List1B,white,woman,,,,,"{""Q0"":""fred is being copied by dave""}","<img src=""stim_listB/greet6.gif""style=""height:400px;""></stim_listB>",is being greeted by,,,,,,
null,"<div style=""font-size:60px;"">+</div>",,html-keyboard-response,140,1170361,0.0-15.0-0.3,69980,List1B,white,woman,,,,null,,,,,,,,,
null,"<img src=""stim_listB/touch2.gif""style=""height:400px;""></stim_listB>",,html-keyboard-response,141,1172368,0.0-15.0-1.3,69980,List1B,white,woman,,,,null,,,,,,,,,
null,is being touched by,,html-keyboard-response,142,1174377,0.0-15.0-2.3,69980,List1B,white,woman,,,,null,,,,,,,,,
18605,,,survey-text,143,1192982,0.0-15.0-3.3,69980,List1B,white,woman,,,,,"{""Q0"":""fred is being touched by beth""}","<img src=""stim_listB/touch2.gif""style=""height:400px;""></stim_listB>",is being touched by,,,,,,
null,"<div style=""font-size:60px;"">+</div>",,html-keyboard-response,144,1193493,0.0-15.0-0.4,69980,List1B,white,woman,,,,null,,,,,,,,,
null,"<img src=""stim_listB/touch4.gif""style=""height:400px;""></stim_listB>",,html-keyboard-response,145,1195506,0.0-15.0-1.4,69980,List1B,white,woman,,,,null,,,,,,,,,
null,is being touched by,,html-keyboard-response,146,1197508,0.0-15.0-2.4,69980,List1B,white,woman,,,,null,,,,,,,,,
17252,,,survey-text,147,1214760,0.0-15.0-3.4,69980,List1B,white,woman,,,,,"{""Q0"":""ruth is being touched by luke""}","<img src=""stim_listB/touch4.gif""style=""height:400px;""></stim_listB>",is being touched by,,,,,,
null,"<div style=""font-size:60px;"">+</div>",,html-keyboard-response,148,1215264,0.0-15.0-0.5,69980,List1B,white,woman,,,,null,,,,,,,,,
null,"<img src=""stim_listB/copy4.gif""style=""height:400px;""></stim_listB>",,html-keyboard-response,149,1217278,0.0-15.0-1.5,69980,List1B,white,woman,,,,null,,,,,,,,,
null,is being copied by,,html-keyboard-response,150,1219289,0.0-15.0-2.5,69980,List1B,white,woman,,,,null,,,,,,,,,
19056,,,survey-text,151,1238345,0.0-15.0-3.5,69980,List1B,white,woman,,,,,"{""Q0"":""luke is being copied by jane""}","<img src=""stim_listB/copy4.gif""style=""height:400px;""></stim_listB>",is being copied by,,,,,,
null,"<div style=""font-size:60px;"">+</div>",,html-keyboard-response,152,1238859,0.0-15.0-0.6,69980,List1B,white,woman,,,,null,,,,,,,,,
null,"<img src=""stim_listB/shout4.gif""style=""height:400px;""></stim_listB>",,html-keyboard-response,153,1240871,0.0-15.0-1.6,69980,List1B,white,woman,,,,null,,,,,,,,,
null,is being shouted at by,,html-keyboard-response,154,1242882,0.0-15.0-2.6,69980,List1B,white,woman,,,,null,,,,,,,,,
24408,,,survey-text,155,1267290,0.0-15.0-3.6,69980,List1B,white,woman,,,,,"{""Q0"":""dave is being shout at by jane""}","<img src=""stim_listB/shout4.gif""style=""height:400px;""></stim_listB>",is being shouted at by,,,,,,
null,"<div style=""font-size:60px;"">+</div>",,html-keyboard-response,156,1267794,0.0-15.0-0.7,69980,List1B,white,woman,,,,null,,,,,,,,,
null,"<img src=""stim_listB/challenge6.gif""style=""height:400px;""></stim_listB>",,html-keyboard-response,157,1269804,0.0-15.0-1.7,69980,List1B,white,woman,,,,null,,,,,,,,,
null,is being challenged by,,html-keyboard-response,158,1271815,0.0-15.0-2.7,69980,List1B,white,woman,,,,null,,,,,,,,,
22090,,,survey-text,159,1293905,0.0-15.0-3.7,69980,List1B,white,woman,,,,,"{""Q0"":""dave is being challenged by fred""}","<img src=""stim_listB/challenge6.gif""style=""height:400px;""></stim_listB>",is being challenged by,,,,,,
null,"<div style=""font-size:60px;"">+</div>",,html-keyboard-response,160,1294409,0.0-15.0-0.8,69980,List1B,white,woman,,,,null,,,,,,,,,
null,"<img src=""stim_listB/challenge8.gif""style=""height:400px;""></stim_listB>",,html-keyboard-response,161,1296415,0.0-15.0-1.8,69980,List1B,white,woman,,,,null,,,,,,,,,
null,is being challenged by,,html-keyboard-response,162,1298422,0.0-15.0-2.8,69980,List1B,white,woman,,,,null,,,,,,,,,
20918,,,survey-text,163,1319340,0.0-15.0-3.8,69980,List1B,white,woman,,,,,"{""Q0"":""beth is being challenged by jane""}","<img src=""stim_listB/challenge8.gif""style=""height:400px;""></stim_listB>",is being challenged by,,,,,,
null,"<div style=""font-size:60px;"">+</div>",,html-keyboard-response,164,1319851,0.0-15.0-0.9,69980,List1B,white,woman,,,,null,,,,,,,,,
null,"<img src=""stim_listB/seduce6.gif""style=""height:400px;""></stim_listB>",,html-keyboard-response,165,1321853,0.0-15.0-1.9,69980,List1B,white,woman,,,,null,,,,,,,,,
null,is being seduced by,,html-keyboard-response,166,1323865,0.0-15.0-2.9,69980,List1B,white,woman,,,,null,,,,,,,,,
18994,,,survey-text,167,1342859,0.0-15.0-3.9,69980,List1B,white,woman,,,,,"{""Q0"":""mike is being seduced by luke""}","<img src=""stim_listB/seduce6.gif""style=""height:400px;""></stim_listB>",is being seduced by,,,,,,
null,"<div style=""font-size:60px;"">+</div>",,html-keyboard-response,168,1343369,0.0-15.0-0.10,69980,List1B,white,woman,,,,null,,,,,,,,,
null,"<img src=""stim_listB/shout7.gif""style=""height:400px;""></stim_listB>",,html-keyboard-response,169,1345385,0.0-15.0-1.10,69980,List1B,white,woman,,,,null,,,,,,,,,
null,is shouting at,,html-keyboard-response,170,1347399,0.0-15.0-2.10,69980,List1B,white,woman,,,,null,,,,,,,,,
21458,,,survey-text,171,1368858,0.0-15.0-3.10,69980,List1B,white,woman,,,,,"{""Q0"":""beth is being shout at by ruth""}","<img src=""stim_listB/shout7.gif""style=""height:400px;""></stim_listB>",is shouting at,,,,,,
null,"<div style=""font-size:60px;"">+</div>",,html-keyboard-response,172,1369360,0.0-15.0-0.11,69980,List1B,white,woman,,,,null,,,,,,,,,
null,"<img src=""stim_listB/challenge1.gif""style=""height:400px;""></stim_listB>",,html-keyboard-response,173,1371367,0.0-15.0-1.11,69980,List1B,white,woman,,,,null,,,,,,,,,
null,is challenging,,html-keyboard-response,174,1373374,0.0-15.0-2.11,69980,List1B,white,woman,,,,null,,,,,,,,,
27008,,,survey-text,175,1400382,0.0-15.0-3.11,69980,List1B,white,woman,,,,,"{""Q0"":""mike challenging beth""}","<img src=""stim_listB/challenge1.gif""style=""height:400px;""></stim_listB>",is challenging,,,,,,
null,"<div style=""font-size:60px;"">+</div>",,html-keyboard-response,176,1400884,0.0-15.0-0.12,69980,List1B,white,woman,,,,null,,,,,,,,,
null,"<img src=""stim_listB/copy6.gif""style=""height:400px;""></stim_listB>",,html-keyboard-response,177,1402889,0.0-15.0-1.12,69980,List1B,white,woman,,,,null,,,,,,,,,
null,is being copied by,,html-keyboard-response,178,1404895,0.0-15.0-2.12,69980,List1B,white,woman,,,,null,,,,,,,,,
22492,,,survey-text,179,1427387,0.0-15.0-3.12,69980,List1B,white,woman,,,,,"{""Q0"":""fred is copying dave""}","<img src=""stim_listB/copy6.gif""style=""height:400px;""></stim_listB>",is being copied by,,,,,,
null,"<div style=""font-size:60px;"">+</div>",,html-keyboard-response,180,1427898,0.0-15.0-0.13,69980,List1B,white,woman,,,,null,,,,,,,,,
null,"<img src=""stim_listB/touch8.gif""style=""height:400px;""></stim_listB>",,html-keyboard-response,181,1429905,0.0-15.0-1.13,69980,List1B,white,woman,,,,null,,,,,,,,,
null,is being touched by,,html-keyboard-response,182,1431921,0.0-15.0-2.13,69980,List1B,white,woman,,,,null,,,,,,,,,
19735,,,survey-text,183,1451656,0.0-15.0-3.13,69980,List1B,white,woman,,,,,"{""Q0"":""ruth is being touched by beth""}","<img src=""stim_listB/touch8.gif""style=""height:400px;""></stim_listB>",is being touched by,,,,,,
null,"<div style=""font-size:60px;"">+</div>",,html-keyboard-response,184,1452169,0.0-15.0-0.14,69980,List1B,white,woman,,,,null,,,,,,,,,
null,"<img src=""stim_listB/seduce5.gif""style=""height:400px;""></stim_listB>",,html-keyboard-response,185,1454182,0.0-15.0-1.14,69980,List1B,white,woman,,,,null,,,,,,,,,
null,is seducing,,html-keyboard-response,186,1456185,0.0-15.0-2.14,69980,List1B,white,woman,,,,null,,,,,,,,,
11248,,,survey-text,187,1467433,0.0-15.0-3.14,69980,List1B,white,woman,,,,,"{""Q0"":""fred is seducing dave""}","<img src=""stim_listB/seduce5.gif""style=""height:400px;""></stim_listB>",is seducing,,,,,,
null,"<div style=""font-size:60px;"">+</div>",,html-keyboard-response,188,1467947,0.0-15.0-0.15,69980,List1B,white,woman,,,,null,,,,,,,,,
null,"<img src=""stim_listB/greet5.gif""style=""height:400px;""></stim_listB>",,html-keyboard-response,189,1469954,0.0-15.0-1.15,69980,List1B,white,woman,,,,null,,,,,,,,,
null,is greeting,,html-keyboard-response,190,1471956,0.0-15.0-2.15,69980,List1B,white,woman,,,,null,,,,,,,,,
10669,,,survey-text,191,1482625,0.0-15.0-3.15,69980,List1B,white,woman,,,,,"{""Q0"":""luke is greeting mike""}","<img src=""stim_listB/greet5.gif""style=""height:400px;""></stim_listB>",is greeting,,,,,,
null,"<div style=""font-size:60px;"">+</div>",,html-keyboard-response,192,1483136,0.0-15.0-0.16,69980,List1B,white,woman,,,,null,,,,,,,,,
null,"<img src=""stim_listB/look2.gif""style=""height:400px;""></stim_listB>",,html-keyboard-response,193,1485149,0.0-15.0-1.16,69980,List1B,white,woman,,,,null,,,,,,,,,
null,is being looked at by,,html-keyboard-response,194,1487152,0.0-15.0-2.16,69980,List1B,white,woman,,,,null,,,,,,,,,
19429,,,survey-text,195,1506581,0.0-15.0-3.16,69980,List1B,white,woman,,,,,"{""Q0"":""mike is being looked by kate""}","<img src=""stim_listB/look2.gif""style=""height:400px;""></stim_listB>",is being looked at by,,,,,,
null,"<div style=""font-size:60px;"">+</div>",,html-keyboard-response,196,1507096,0.0-15.0-0.17,69980,List1B,white,woman,,,,null,,,,,,,,,
null,"<img src=""stim_listB/kiss2.gif""style=""height:400px;""></stim_listB>",,html-keyboard-response,197,1509102,0.0-15.0-1.17,69980,List1B,white,woman,,,,null,,,,,,,,,
null,is being kissed by,,html-keyboard-response,198,1511108,0.0-15.0-2.17,69980,List1B,white,woman,,,,null,,,,,,,,,
17292,,,survey-text,199,1528399,0.0-15.0-3.17,69980,List1B,white,woman,,,,,"{""Q0"":""mike is being kissed by kate""}","<img src=""stim_listB/kiss2.gif""style=""height:400px;""></stim_listB>",is being kissed by,,,,,,
null,"<div style=""font-size:60px;"">+</div>",,html-keyboard-response,200,1528914,0.0-15.0-0.18,69980,List1B,white,woman,,,,null,,,,,,,,,
null,"<img src=""stim_listB/seduce4.gif""style=""height:400px;""></stim_listB>",,html-keyboard-response,201,1530917,0.0-15.0-1.18,69980,List1B,white,woman,,,,null,,,,,,,,,
null,is being seduced by,,html-keyboard-response,202,1532933,0.0-15.0-2.18,69980,List1B,white,woman,,,,null,,,,,,,,,
23108,,,survey-text,203,1556041,0.0-15.0-3.18,69980,List1B,white,woman,,,,,"{""Q0"":""dave is being seduced by ruth""}","<img src=""stim_listB/seduce4.gif""style=""height:400px;""></stim_listB>",is being seduced by,,,,,,
null,"<div style=""font-size:60px;"">+</div>",,html-keyboard-response,204,1556541,0.0-15.0-0.19,69980,List1B,white,woman,,,,null,,,,,,,,,
null,"<img src=""stim_listB/touch6.gif""style=""height:400px;""></stim_listB>",,html-keyboard-response,205,1558554,0.0-15.0-1.19,69980,List1B,white,woman,,,,null,,,,,,,,,
null,is being touched by,,html-keyboard-response,206,1560557,0.0-15.0-2.19,69980,List1B,white,woman,,,,null,,,,,,,,,
17013,,,survey-text,207,1577570,0.0-15.0-3.19,69980,List1B,white,woman,,,,,"{""Q0"":""luke is being touched by fred""}","<img src=""stim_listB/touch6.gif""style=""height:400px;""></stim_listB>",is being touched by,,,,,,
15303,"<img src='img/portrait_matrix_list1.jpg' style='width:900px;height:500px;''></img><p>If you have memorised all the portraits and names and are ready to start, press Continue.</p><p><strong>Please note: Your memory of these faces will be tested 4 times during this experiment.</strong></p>",0,html-button-response,208,1592873,0.0-16.0-0.0,69980,List1B,white,woman,,,,,,,,,,,,,
4118,"<img src=""portrait/BM2.jpg""style=""height:400px;""></img>",5,html-button-response,209,1597994,0.0-16.0-1.0,69980,List1B,white,woman,,TRUE,5,,,,,,,,,,
null,CORRECT,,html-keyboard-response,210,1599514,0.0-16.0-2.0-0.0,69980,List1B,white,woman,,,,null,,,,,,,,,
4474,"<img src=""portrait/WM1.jpg""style=""height:400px;""></img>",6,html-button-response,211,1603988,0.0-16.0-4.0,69980,List1B,white,woman,,TRUE,6,,,,,,,,,,
null,CORRECT,,html-keyboard-response,212,1605497,0.0-16.0-5.0-0.0,69980,List1B,white,woman,,,,null,,,,,,,,,
3953,"<img src=""portrait/BW1.jpg""style=""height:400px;""></img>",0,html-button-response,213,1609450,0.0-16.0-7.0,69980,List1B,white,woman,,TRUE,0,,,,,,,,,,
null,CORRECT,,html-keyboard-response,214,1610965,0.0-16.0-8.0-0.0,69980,List1B,white,woman,,,,null,,,,,,,,,
2490,"<img src=""portrait/WM2.jpg""style=""height:400px;""></img>",7,html-button-response,215,1613455,0.0-16.0-10.0,69980,List1B,white,woman,,TRUE,7,,,,,,,,,,
null,CORRECT,,html-keyboard-response,216,1614974,0.0-16.0-11.0-0.0,69980,List1B,white,woman,,,,null,,,,,,,,,
3700,"<img src=""portrait/BW2.jpg""style=""height:400px;""></img>",2,html-button-response,217,1618674,0.0-16.0-13.0,69980,List1B,white,woman,,TRUE,2,,,,,,,,,,
null,CORRECT,,html-keyboard-response,218,1620195,0.0-16.0-14.0-0.0,69980,List1B,white,woman,,,,null,,,,,,,,,
2701,"<img src=""portrait/WW2.jpg""style=""height:400px;""></img>",3,html-button-response,219,1622896,0.0-16.0-16.0,69980,List1B,white,woman,,TRUE,3,,,,,,,,,,
null,CORRECT,,html-keyboard-response,220,1624412,0.0-16.0-17.0-0.0,69980,List1B,white,woman,,,,null,,,,,,,,,
2441,"<img src=""portrait/BM1.jpg""style=""height:400px;""></img>",4,html-button-response,221,1626853,0.0-16.0-19.0,69980,List1B,white,woman,,TRUE,4,,,,,,,,,,
null,CORRECT,,html-keyboard-response,222,1628372,0.0-16.0-20.0-0.0,69980,List1B,white,woman,,,,null,,,,,,,,,
5409,"<img src=""portrait/WW1.jpg""style=""height:400px;""></img>",1,html-button-response,223,1633782,0.0-16.0-22.0,69980,List1B,white,woman,,TRUE,1,,,,,,,,,,
null,CORRECT,,html-keyboard-response,224,1635297,0.0-16.0-23.0-0.0,69980,List1B,white,woman,,,,null,,,,,,,,,
2164,<p>You got 8 out of 8 right first time. Press Continue.</p>,0,html-button-response,225,1637461,0.0-16.0-25.0,69980,List1B,white,woman,,,,,,,,,,,,,
null,"<div style=""font-size:60px;"">+</div>",,html-keyboard-response,226,1638977,0.0-17.0-0.0,69980,List1B,white,woman,,,,null,,,,,,,,,
null,"<img src=""stim_listB/hug8.gif""style=""height:400px;""></stim_listB>",,html-keyboard-response,227,1640991,0.0-17.0-1.0,69980,List1B,white,woman,,,,null,,,,,,,,,
null,is being hugged by,,html-keyboard-response,228,1643003,0.0-17.0-2.0,69980,List1B,white,woman,,,,null,,,,,,,,,
17978,,,survey-text,229,1660989,0.0-17.0-3.0,69980,List1B,white,woman,,,,,"{""Q0"":""kate is being hugged by jane""}","<img src=""stim_listB/hug8.gif""style=""height:400px;""></stim_listB>",is being hugged by,,,,,,
null,"<div style=""font-size:60px;"">+</div>",,html-keyboard-response,230,1661503,0.0-17.0-0.1,69980,List1B,white,woman,,,,null,,,,,,,,,
null,"<img src=""stim_listB/look1.gif""style=""height:400px;""></stim_listB>",,html-keyboard-response,231,1663516,0.0-17.0-1.1,69980,List1B,white,woman,,,,null,,,,,,,,,
null,is looking at,,html-keyboard-response,232,1665531,0.0-17.0-2.1,69980,List1B,white,woman,,,,null,,,,,,,,,
9889,,,survey-text,233,1675420,0.0-17.0-3.1,69980,List1B,white,woman,,,,,"{""Q0"":""fred is looking at beth""}","<img src=""stim_listB/look1.gif""style=""height:400px;""></stim_listB>",is looking at,,,,,,
null,"<div style=""font-size:60px;"">+</div>",,html-keyboard-response,234,1675922,0.0-17.0-0.2,69980,List1B,white,woman,,,,null,,,,,,,,,
null,"<img src=""stim_listB/kiss7.gif""style=""height:400px;""></stim_listB>",,html-keyboard-response,235,1677927,0.0-17.0-1.2,69980,List1B,white,woman,,,,null,,,,,,,,,
null,is kissing,,html-keyboard-response,236,1679931,0.0-17.0-2.2,69980,List1B,white,woman,,,,null,,,,,,,,,
12979,,,survey-text,237,1692917,0.0-17.0-3.2,69980,List1B,white,woman,,,,,"{""Q0"":""ruth is kissing beth""}","<img src=""stim_listB/kiss7.gif""style=""height:400px;""></stim_listB>",is kissing,,,,,,
null,"<div style=""font-size:60px;"">+</div>",,html-keyboard-response,238,1693419,0.0-17.0-0.3,69980,List1B,white,woman,,,,null,,,,,,,,,
null,"<img src=""stim_listB/kiss8.gif""style=""height:400px;""></stim_listB>",,html-keyboard-response,239,1695434,0.0-17.0-1.3,69980,List1B,white,woman,,,,null,,,,,,,,,
null,is being kissed by,,html-keyboard-response,240,1697439,0.0-17.0-2.3,69980,List1B,white,woman,,,,null,,,,,,,,,
16179,,,survey-text,241,1713618,0.0-17.0-3.3,69980,List1B,white,woman,,,,,"{""Q0"":""kate is being kissed by jane""}","<img src=""stim_listB/kiss8.gif""style=""height:400px;""></stim_listB>",is being kissed by,,,,,,
null,"<div style=""font-size:60px;"">+</div>",,html-keyboard-response,242,1714121,0.0-17.0-0.4,69980,List1B,white,woman,,,,null,,,,,,,,,
null,"<img src=""stim_listB/oppose7.gif""style=""height:400px;""></stim_listB>",,html-keyboard-response,243,1716123,0.0-17.0-1.4,69980,List1B,white,woman,,,,null,,,,,,,,,
null,is opposing,,html-keyboard-response,244,1718127,0.0-17.0-2.4,69980,List1B,white,woman,,,,null,,,,,,,,,
14592,,,survey-text,245,1732719,0.0-17.0-3.4,69980,List1B,white,woman,,,,,"{""Q0"":""kate is opposing jane""}","<img src=""stim_listB/oppose7.gif""style=""height:400px;""></stim_listB>",is opposing,,,,,,
null,"<div style=""font-size:60px;"">+</div>",,html-keyboard-response,246,1733220,0.0-17.0-0.5,69980,List1B,white,woman,,,,null,,,,,,,,,
null,"<img src=""stim_listB/oppose5.gif""style=""height:400px;""></stim_listB>",,html-keyboard-response,247,1735228,0.0-17.0-1.5,69980,List1B,white,woman,,,,null,,,,,,,,,
null,is opposing,,html-keyboard-response,248,1737231,0.0-17.0-2.5,69980,List1B,white,woman,,,,null,,,,,,,,,
17086,,,survey-text,249,1754317,0.0-17.0-3.5,69980,List1B,white,woman,,,,,"{""Q0"":""mike is opposing dave""}","<img src=""stim_listB/oppose5.gif""style=""height:400px;""></stim_listB>",is opposing,,,,,,
null,"<div style=""font-size:60px;"">+</div>",,html-keyboard-response,250,1754820,0.0-17.0-0.6,69980,List1B,white,woman,,,,null,,,,,,,,,
null,"<img src=""stim_listB/oppose3.gif""style=""height:400px;""></stim_listB>",,html-keyboard-response,251,1756825,0.0-17.0-1.6,69980,List1B,white,woman,,,,null,,,,,,,,,
null,is opposing,,html-keyboard-response,252,1758839,0.0-17.0-2.6,69980,List1B,white,woman,,,,null,,,,,,,,,
17560,,,survey-text,253,1776399,0.0-17.0-3.6,69980,List1B,white,woman,,,,,"{""Q0"":""jane is opposing dave""}","<img src=""stim_listB/oppose3.gif""style=""height:400px;""></stim_listB>",is opposing,,,,,,
null,"<div style=""font-size:60px;"">+</div>",,html-keyboard-response,254,1776900,0.0-17.0-0.7,69980,List1B,white,woman,,,,null,,,,,,,,,
null,"<img src=""stim_listB/oppose4.gif""style=""height:400px;""></stim_listB>",,html-keyboard-response,255,1778901,0.0-17.0-1.7,69980,List1B,white,woman,,,,null,,,,,,,,,
null,is being opposed by,,html-keyboard-response,256,1780903,0.0-17.0-2.7,69980,List1B,white,woman,,,,null,,,,,,,,,
16005,,,survey-text,257,1796908,0.0-17.0-3.7,69980,List1B,white,woman,,,,,"{""Q0"":""ruth is being opposed by luke""}","<img src=""stim_listB/oppose4.gif""style=""height:400px;""></stim_listB>",is being opposed by,,,,,,
null,"<div style=""font-size:60px;"">+</div>",,html-keyboard-response,258,1797419,0.0-17.0-0.8,69980,List1B,white,woman,,,,null,,,,,,,,,
null,"<img src=""stim_listB/kiss4.gif""style=""height:400px;""></stim_listB>",,html-keyboard-response,259,1799429,0.0-17.0-1.8,69980,List1B,white,woman,,,,null,,,,,,,,,
null,is being kissed by,,html-keyboard-response,260,1801432,0.0-17.0-2.8,69980,List1B,white,woman,,,,null,,,,,,,,,
14615,,,survey-text,261,1816048,0.0-17.0-3.8,69980,List1B,white,woman,,,,,"{""Q0"":""jane is being kissed by dave""}","<img src=""stim_listB/kiss4.gif""style=""height:400px;""></stim_listB>",is being kissed by,,,,,,
null,"<div style=""font-size:60px;"">+</div>",,html-keyboard-response,262,1816548,0.0-17.0-0.9,69980,List1B,white,woman,,,,null,,,,,,,,,
null,"<img src=""stim_listB/copy5.gif""style=""height:400px;""></stim_listB>",,html-keyboard-response,263,1818556,0.0-17.0-1.9,69980,List1B,white,woman,,,,null,,,,,,,,,
null,is copying,,html-keyboard-response,264,1820563,0.0-17.0-2.9,69980,List1B,white,woman,,,,null,,,,,,,,,
15692,,,survey-text,265,1836255,0.0-17.0-3.9,69980,List1B,white,woman,,,,,"{""Q0"":""luke is copying mike""}","<img src=""stim_listB/copy5.gif""style=""height:400px;""></stim_listB>",is copying,,,,,,
null,"<div style=""font-size:60px;"">+</div>",,html-keyboard-response,266,1836763,0.0-17.0-0.10,69980,List1B,white,woman,,,,null,,,,,,,,,
null,"<img src=""stim_listB/challenge3.gif""style=""height:400px;""></stim_listB>",,html-keyboard-response,267,1838773,0.0-17.0-1.10,69980,List1B,white,woman,,,,null,,,,,,,,,
null,is challenging,,html-keyboard-response,268,1840780,0.0-17.0-2.10,69980,List1B,white,woman,,,,null,,,,,,,,,
15001,,,survey-text,269,1855781,0.0-17.0-3.10,69980,List1B,white,woman,,,,,"{""Q0"":""dave is challenging ruth""}","<img src=""stim_listB/challenge3.gif""style=""height:400px;""></stim_listB>",is challenging,,,,,,
null,"<div style=""font-size:60px;"">+</div>",,html-keyboard-response,270,1856294,0.0-17.0-0.11,69980,List1B,white,woman,,,,null,,,,,,,,,
null,"<img src=""stim_listB/hug6.gif""style=""height:400px;""></stim_listB>",,html-keyboard-response,271,1858299,0.0-17.0-1.11,69980,List1B,white,woman,,,,null,,,,,,,,,
null,is being hugged by,,html-keyboard-response,272,1860315,0.0-17.0-2.11,69980,List1B,white,woman,,,,null,,,,,,,,,
17173,,,survey-text,273,1877488,0.0-17.0-3.11,69980,List1B,white,woman,,,,,"{""Q0"":""dave is being hugged by mike""}","<img src=""stim_listB/hug6.gif""style=""height:400px;""></stim_listB>",is being hugged by,,,,,,
null,"<div style=""font-size:60px;"">+</div>",,html-keyboard-response,274,1877996,0.0-17.0-0.12,69980,List1B,white,woman,,,,null,,,,,,,,,
null,"<img src=""stim_listB/copy2.gif""style=""height:400px;""></stim_listB>",,html-keyboard-response,275,1880012,0.0-17.0-1.12,69980,List1B,white,woman,,,,null,,,,,,,,,
null,is being copied by,,html-keyboard-response,276,1882020,0.0-17.0-2.12,69980,List1B,white,woman,,,,null,,,,,,,,,
19083,,,survey-text,277,1901103,0.0-17.0-3.12,69980,List1B,white,woman,,,,,"{""Q0"":""fred is being copied by kate""}","<img src=""stim_listB/copy2.gif""style=""height:400px;""></stim_listB>",is being copied by,,,,,,
null,"<div style=""font-size:60px;"">+</div>",,html-keyboard-response,278,1901613,0.0-17.0-0.13,69980,List1B,white,woman,,,,null,,,,,,,,,
null,"<img src=""stim_listB/hug4.gif""style=""height:400px;""></stim_listB>",,html-keyboard-response,279,1903621,0.0-17.0-1.13,69980,List1B,white,woman,,,,null,,,,,,,,,
null,is being hugged by,,html-keyboard-response,280,1905623,0.0-17.0-2.13,69980,List1B,white,woman,,,,null,,,,,,,,,
19782,,,survey-text,281,1925405,0.0-17.0-3.13,69980,List1B,white,woman,,,,,"{""Q0"":""dave is being hugged by jane""}","<img src=""stim_listB/hug4.gif""style=""height:400px;""></stim_listB>",is being hugged by,,,,,,
null,"<div style=""font-size:60px;"">+</div>",,html-keyboard-response,282,1925915,0.0-17.0-0.14,69980,List1B,white,woman,,,,null,,,,,,,,,
null,"<img src=""stim_listB/copy1.gif""style=""height:400px;""></stim_listB>",,html-keyboard-response,283,1927929,0.0-17.0-1.14,69980,List1B,white,woman,,,,null,,,,,,,,,
null,is copying,,html-keyboard-response,284,1929929,0.0-17.0-2.14,69980,List1B,white,woman,,,,null,,,,,,,,,
12619,,,survey-text,285,1942547,0.0-17.0-3.14,69980,List1B,white,woman,,,,,"{""Q0"":""beth is copying mike""}","<img src=""stim_listB/copy1.gif""style=""height:400px;""></stim_listB>",is copying,,,,,,
null,"<div style=""font-size:60px;"">+</div>",,html-keyboard-response,286,1943051,0.0-17.0-0.15,69980,List1B,white,woman,,,,null,,,,,,,,,
null,"<img src=""stim_listB/shout5.gif""style=""height:400px;""></stim_listB>",,html-keyboard-response,287,1945053,0.0-17.0-1.15,69980,List1B,white,woman,,,,null,,,,,,,,,
null,is shouting at,,html-keyboard-response,288,1947068,0.0-17.0-2.15,69980,List1B,white,woman,,,,null,,,,,,,,,
17066,,,survey-text,289,1964134,0.0-17.0-3.15,69980,List1B,white,woman,,,,,"{""Q0"":""fred is shouting at luke""}","<img src=""stim_listB/shout5.gif""style=""height:400px;""></stim_listB>",is shouting at,,,,,,
null,"<div style=""font-size:60px;"">+</div>",,html-keyboard-response,290,1964640,0.0-17.0-0.16,69980,List1B,white,woman,,,,null,,,,,,,,,
null,"<img src=""stim_listB/hug5.gif""style=""height:400px;""></stim_listB>",,html-keyboard-response,291,1966645,0.0-17.0-1.16,69980,List1B,white,woman,,,,null,,,,,,,,,
null,is hugging,,html-keyboard-response,292,1968651,0.0-17.0-2.16,69980,List1B,white,woman,,,,null,,,,,,,,,
13889,,,survey-text,293,1982540,0.0-17.0-3.16,69980,List1B,white,woman,,,,,"{""Q0"":""fred is hugging luke""}","<img src=""stim_listB/hug5.gif""style=""height:400px;""></stim_listB>",is hugging,,,,,,
null,"<div style=""font-size:60px;"">+</div>",,html-keyboard-response,294,1983041,0.0-17.0-0.17,69980,List1B,white,woman,,,,null,,,,,,,,,
null,"<img src=""stim_listB/hug1.gif""style=""height:400px;""></stim_listB>",,html-keyboard-response,295,1985044,0.0-17.0-1.17,69980,List1B,white,woman,,,,null,,,,,,,,,
null,is hugging,,html-keyboard-response,296,1987057,0.0-17.0-2.17,69980,List1B,white,woman,,,,null,,,,,,,,,
9668,,,survey-text,297,1996725,0.0-17.0-3.17,69980,List1B,white,woman,,,,,"{""Q0"":""fred is hugging beth""}","<img src=""stim_listB/hug1.gif""style=""height:400px;""></stim_listB>",is hugging,,,,,,
null,"<div style=""font-size:60px;"">+</div>",,html-keyboard-response,298,1997228,0.0-17.0-0.18,69980,List1B,white,woman,,,,null,,,,,,,,,
null,"<img src=""stim_listB/greet1.gif""style=""height:400px;""></stim_listB>",,html-keyboard-response,299,1999242,0.0-17.0-1.18,69980,List1B,white,woman,,,,null,,,,,,,,,
null,is greeting,,html-keyboard-response,300,2001253,0.0-17.0-2.18,69980,List1B,white,woman,,,,null,,,,,,,,,
19405,,,survey-text,301,2020658,0.0-17.0-3.18,69980,List1B,white,woman,,,,,"{""Q0"":""beth is greeting mike""}","<img src=""stim_listB/greet1.gif""style=""height:400px;""></stim_listB>",is greeting,,,,,,
null,"<div style=""font-size:60px;"">+</div>",,html-keyboard-response,302,2021172,0.0-17.0-0.19,69980,List1B,white,woman,,,,null,,,,,,,,,
null,"<img src=""stim_listB/shout6.gif""style=""height:400px;""></stim_listB>",,html-keyboard-response,303,2023182,0.0-17.0-1.19,69980,List1B,white,woman,,,,null,,,,,,,,,
null,is being shouted at by,,html-keyboard-response,304,2025192,0.0-17.0-2.19,69980,List1B,white,woman,,,,null,,,,,,,,,
19794,,,survey-text,305,2044986,0.0-17.0-3.19,69980,List1B,white,woman,,,,,"{""Q0"":""dave is being shouted at by mike""}","<img src=""stim_listB/shout6.gif""style=""height:400px;""></stim_listB>",is being shouted at by,,,,,,
11500,"<img src='img/portrait_matrix_list1.jpg' style='width:900px;height:500px;''></img><p>If you have memorised all the portraits and names and are ready to start, press Continue.</p><p><strong>Please note: Your memory of these faces will be tested 4 times during this experiment.</strong></p>",0,html-button-response,306,2056487,0.0-18.0-0.0,69980,List1B,white,woman,,,,,,,,,,,,,
3900,"<img src=""portrait/BW2.jpg""style=""height:400px;""></img>",2,html-button-response,307,2061390,0.0-18.0-1.0,69980,List1B,white,woman,,TRUE,2,,,,,,,,,,
null,CORRECT,,html-keyboard-response,308,2062907,0.0-18.0-2.0-0.0,69980,List1B,white,woman,,,,null,,,,,,,,,
3215,"<img src=""portrait/BM2.jpg""style=""height:400px;""></img>",5,html-button-response,309,2066122,0.0-18.0-4.0,69980,List1B,white,woman,,TRUE,5,,,,,,,,,,
null,CORRECT,,html-keyboard-response,310,2067629,0.0-18.0-5.0-0.0,69980,List1B,white,woman,,,,null,,,,,,,,,
3444,"<img src=""portrait/WW2.jpg""style=""height:400px;""></img>",3,html-button-response,311,2071073,0.0-18.0-7.0,69980,List1B,white,woman,,TRUE,3,,,,,,,,,,
null,CORRECT,,html-keyboard-response,312,2072594,0.0-18.0-8.0-0.0,69980,List1B,white,woman,,,,null,,,,,,,,,
1889,"<img src=""portrait/BM1.jpg""style=""height:400px;""></img>",4,html-button-response,313,2074483,0.0-18.0-10.0,69980,List1B,white,woman,,TRUE,4,,,,,,,,,,
null,CORRECT,,html-keyboard-response,314,2075996,0.0-18.0-11.0-0.0,69980,List1B,white,woman,,,,null,,,,,,,,,
4940,"<img src=""portrait/BW1.jpg""style=""height:400px;""></img>",0,html-button-response,315,2080936,0.0-18.0-13.0,69980,List1B,white,woman,,TRUE,0,,,,,,,,,,
null,CORRECT,,html-keyboard-response,316,2082446,0.0-18.0-14.0-0.0,69980,List1B,white,woman,,,,null,,,,,,,,,
4681,"<img src=""portrait/WM1.jpg""style=""height:400px;""></img>",6,html-button-response,317,2087127,0.0-18.0-16.0,69980,List1B,white,woman,,TRUE,6,,,,,,,,,,
null,CORRECT,,html-keyboard-response,318,2088640,0.0-18.0-17.0-0.0,69980,List1B,white,woman,,,,null,,,,,,,,,
3716,"<img src=""portrait/WW1.jpg""style=""height:400px;""></img>",1,html-button-response,319,2092356,0.0-18.0-19.0,69980,List1B,white,woman,,TRUE,1,,,,,,,,,,
null,CORRECT,,html-keyboard-response,320,2093873,0.0-18.0-20.0-0.0,69980,List1B,white,woman,,,,null,,,,,,,,,
2390,"<img src=""portrait/WM2.jpg""style=""height:400px;""></img>",7,html-button-response,321,2096263,0.0-18.0-22.0,69980,List1B,white,woman,,TRUE,7,,,,,,,,,,
null,CORRECT,,html-keyboard-response,322,2097789,0.0-18.0-23.0-0.0,69980,List1B,white,woman,,,,null,,,,,,,,,
2040,<p>You got 8 out of 8 right first time. Press Continue.</p>,0,html-button-response,323,2099829,0.0-18.0-25.0,69980,List1B,white,woman,,,,,,,,,,,,,
null,"<div style=""font-size:60px;"">+</div>",,html-keyboard-response,324,2101352,0.0-19.0-0.0,69980,List1B,white,woman,,,,null,,,,,,,,,
null,"<img src=""stim_listB/challenge4.gif""style=""height:400px;""></stim_listB>",,html-keyboard-response,325,2103359,0.0-19.0-1.0,69980,List1B,white,woman,,,,null,,,,,,,,,
null,is being challenged by,,html-keyboard-response,326,2105370,0.0-19.0-2.0,69980,List1B,white,woman,,,,null,,,,,,,,,
17998,,,survey-text,327,2123367,0.0-19.0-3.0,69980,List1B,white,woman,,,,,"{""Q0"":""jane is being challenged by luke""}","<img src=""stim_listB/challenge4.gif""style=""height:400px;""></stim_listB>",is being challenged by,,,,,,
null,"<div style=""font-size:60px;"">+</div>",,html-keyboard-response,328,2123870,0.0-19.0-0.1,69980,List1B,white,woman,,,,null,,,,,,,,,
null,"<img src=""stim_listB/kiss3.gif""style=""height:400px;""></stim_listB>",,html-keyboard-response,329,2125872,0.0-19.0-1.1,69980,List1B,white,woman,,,,null,,,,,,,,,
null,is kissing,,html-keyboard-response,330,2127885,0.0-19.0-2.1,69980,List1B,white,woman,,,,null,,,,,,,,,
9594,,,survey-text,331,2137479,0.0-19.0-3.1,69980,List1B,white,woman,,,,,"{""Q0"":""ruth is kissing luke""}","<img src=""stim_listB/kiss3.gif""style=""height:400px;""></stim_listB>",is kissing,,,,,,
null,"<div style=""font-size:60px;"">+</div>",,html-keyboard-response,332,2137983,0.0-19.0-0.2,69980,List1B,white,woman,,,,null,,,,,,,,,
null,"<img src=""stim_listB/kiss1.gif""style=""height:400px;""></stim_listB>",,html-keyboard-response,333,2139990,0.0-19.0-1.2,69980,List1B,white,woman,,,,null,,,,,,,,,
null,is kissing,,html-keyboard-response,334,2141998,0.0-19.0-2.2,69980,List1B,white,woman,,,,null,,,,,,,,,
9909,,,survey-text,335,2151918,0.0-19.0-3.2,69980,List1B,white,woman,,,,,"{""Q0"":""beth is kissing fred""}","<img src=""stim_listB/kiss1.gif""style=""height:400px;""></stim_listB>",is kissing,,,,,,
null,"<div style=""font-size:60px;"">+</div>",,html-keyboard-response,336,2152426,0.0-19.0-0.3,69980,List1B,white,woman,,,,null,,,,,,,,,
null,"<img src=""stim_listB/touch7.gif""style=""height:400px;""></stim_listB>",,html-keyboard-response,337,2154440,0.0-19.0-1.3,69980,List1B,white,woman,,,,null,,,,,,,,,
null,is touching,,html-keyboard-response,338,2156454,0.0-19.0-2.3,69980,List1B,white,woman,,,,null,,,,,,,,,
15632,,,survey-text,339,2172086,0.0-19.0-3.3,69980,List1B,white,woman,,,,,"{""Q0"":""jane is touching kate""}","<img src=""stim_listB/touch7.gif""style=""height:400px;""></stim_listB>",is touching,,,,,,
null,"<div style=""font-size:60px;"">+</div>",,html-keyboard-response,340,2172586,0.0-19.0-0.4,69980,List1B,white,woman,,,,null,,,,,,,,,
null,"<img src=""stim_listB/challenge7.gif""style=""height:400px;""></stim_listB>",,html-keyboard-response,341,2174591,0.0-19.0-1.4,69980,List1B,white,woman,,,,null,,,,,,,,,
null,is challenging,,html-keyboard-response,342,2176607,0.0-19.0-2.4,69980,List1B,white,woman,,,,null,,,,,,,,,
10269,,,survey-text,343,2186876,0.0-19.0-3.4,69980,List1B,white,woman,,,,,"{""Q0"":""ruth is challenging kate""}","<img src=""stim_listB/challenge7.gif""style=""height:400px;""></stim_listB>",is challenging,,,,,,
null,"<div style=""font-size:60px;"">+</div>",,html-keyboard-response,344,2187377,0.0-19.0-0.5,69980,List1B,white,woman,,,,null,,,,,,,,,
null,"<img src=""stim_listB/shout3.gif""style=""height:400px;""></stim_listB>",,html-keyboard-response,345,2189390,0.0-19.0-1.5,69980,List1B,white,woman,,,,null,,,,,,,,,
null,is shouting at,,html-keyboard-response,346,2191405,0.0-19.0-2.5,69980,List1B,white,woman,,,,null,,,,,,,,,
10095,,,survey-text,347,2201500,0.0-19.0-3.5,69980,List1B,white,woman,,,,,"{""Q0"":""ruth is shouting at luke""}","<img src=""stim_listB/shout3.gif""style=""height:400px;""></stim_listB>",is shouting at,,,,,,
null,"<div style=""font-size:60px;"">+</div>",,html-keyboard-response,348,2202002,0.0-19.0-0.6,69980,List1B,white,woman,,,,null,,,,,,,,,
null,"<img src=""stim_listB/oppose6.gif""style=""height:400px;""></stim_listB>",,html-keyboard-response,349,2204015,0.0-19.0-1.6,69980,List1B,white,woman,,,,null,,,,,,,,,
null,is being opposed by,,html-keyboard-response,350,2206024,0.0-19.0-2.6,69980,List1B,white,woman,,,,null,,,,,,,,,
17221,,,survey-text,351,2223245,0.0-19.0-3.6,69980,List1B,white,woman,,,,,"{""Q0"":""fred is being opposed by luke""}","<img src=""stim_listB/oppose6.gif""style=""height:400px;""></stim_listB>",is being opposed by,,,,,,
null,"<div style=""font-size:60px;"">+</div>",,html-keyboard-response,352,2223748,0.0-19.0-0.7,69980,List1B,white,woman,,,,null,,,,,,,,,
null,"<img src=""stim_listB/greet8.gif""style=""height:400px;""></stim_listB>",,html-keyboard-response,353,2225758,0.0-19.0-1.7,69980,List1B,white,woman,,,,null,,,,,,,,,
null,is being greeted by,,html-keyboard-response,354,2227769,0.0-19.0-2.7,69980,List1B,white,woman,,,,null,,,,,,,,,
23153,,,survey-text,355,2250922,0.0-19.0-3.7,69980,List1B,white,woman,,,,,"{""Q0"":""jane is being greeted by beth""}","<img src=""stim_listB/greet8.gif""style=""height:400px;""></stim_listB>",is being greeted by,,,,,,
null,"<div style=""font-size:60px;"">+</div>",,html-keyboard-response,356,2251433,0.0-19.0-0.8,69980,List1B,white,woman,,,,null,,,,,,,,,
null,"<img src=""stim_listB/seduce7.gif""style=""height:400px;""></stim_listB>",,html-keyboard-response,357,2253434,0.0-19.0-1.8,69980,List1B,white,woman,,,,null,,,,,,,,,
null,is seducing,,html-keyboard-response,358,2255447,0.0-19.0-2.8,69980,List1B,white,woman,,,,null,,,,,,,,,
12587,,,survey-text,359,2268034,0.0-19.0-3.8,69980,List1B,white,woman,,,,,"{""Q0"":""beth is seducing jane""}","<img src=""stim_listB/seduce7.gif""style=""height:400px;""></stim_listB>",is seducing,,,,,,
null,"<div style=""font-size:60px;"">+</div>",,html-keyboard-response,360,2268546,0.0-19.0-0.9,69980,List1B,white,woman,,,,null,,,,,,,,,
null,"<img src=""stim_listB/copy8.gif""style=""height:400px;""></stim_listB>",,html-keyboard-response,361,2270562,0.0-19.0-1.9,69980,List1B,white,woman,,,,null,,,,,,,,,
null,is being copied by,,html-keyboard-response,362,2272573,0.0-19.0-2.9,69980,List1B,white,woman,,,,null,,,,,,,,,
16495,,,survey-text,363,2289068,0.0-19.0-3.9,69980,List1B,white,woman,,,,,"{""Q0"":""beth is being copied by jane""}","<img src=""stim_listB/copy8.gif""style=""height:400px;""></stim_listB>",is being copied by,,,,,,
null,"<div style=""font-size:60px;"">+</div>",,html-keyboard-response,364,2289573,0.0-19.0-0.10,69980,List1B,white,woman,,,,null,,,,,,,,,
null,"<img src=""stim_listB/shout1.gif""style=""height:400px;""></stim_listB>",,html-keyboard-response,365,2291584,0.0-19.0-1.10,69980,List1B,white,woman,,,,null,,,,,,,,,
null,is shouting at,,html-keyboard-response,366,2293584,0.0-19.0-2.10,69980,List1B,white,woman,,,,null,,,,,,,,,
9661,,,survey-text,367,2303246,0.0-19.0-3.10,69980,List1B,white,woman,,,,,"{""Q0"":""jane is shouting at fred""}","<img src=""stim_listB/shout1.gif""style=""height:400px;""></stim_listB>",is shouting at,,,,,,
null,"<div style=""font-size:60px;"">+</div>",,html-keyboard-response,368,2303748,0.0-19.0-0.11,69980,List1B,white,woman,,,,null,,,,,,,,,
null,"<img src=""stim_listB/kiss5.gif""style=""height:400px;""></stim_listB>",,html-keyboard-response,369,2305761,0.0-19.0-1.11,69980,List1B,white,woman,,,,null,,,,,,,,,
null,is kissing,,html-keyboard-response,370,2307769,0.0-19.0-2.11,69980,List1B,white,woman,,,,null,,,,,,,,,
11580,,,survey-text,371,2319349,0.0-19.0-3.11,69980,List1B,white,woman,,,,,"{""Q0"":""fred is kissing luke""}","<img src=""stim_listB/kiss5.gif""style=""height:400px;""></stim_listB>",is kissing,,,,,,
null,"<div style=""font-size:60px;"">+</div>",,html-keyboard-response,372,2319865,0.0-19.0-0.12,69980,List1B,white,woman,,,,null,,,,,,,,,
null,"<img src=""stim_listB/look7.gif""style=""height:400px;""></stim_listB>",,html-keyboard-response,373,2321879,0.0-19.0-1.12,69980,List1B,white,woman,,,,null,,,,,,,,,
null,is looking at,,html-keyboard-response,374,2323889,0.0-19.0-2.12,69980,List1B,white,woman,,,,null,,,,,,,,,
14109,,,survey-text,375,2337998,0.0-19.0-3.12,69980,List1B,white,woman,,,,,"{""Q0"":""beth is looking at ruth""}","<img src=""stim_listB/look7.gif""style=""height:400px;""></stim_listB>",is looking at,,,,,,
null,"<div style=""font-size:60px;"">+</div>",,html-keyboard-response,376,2338501,0.0-19.0-0.13,69980,List1B,white,woman,,,,null,,,,,,,,,
null,"<img src=""stim_listB/hug3.gif""style=""height:400px;""></stim_listB>",,html-keyboard-response,377,2340503,0.0-19.0-1.13,69980,List1B,white,woman,,,,null,,,,,,,,,
null,is hugging,,html-keyboard-response,378,2342510,0.0-19.0-2.13,69980,List1B,white,woman,,,,null,,,,,,,,,
11758,,,survey-text,379,2354267,0.0-19.0-3.13,69980,List1B,white,woman,,,,,"{""Q0"":""luke is hugging ruth""}","<img src=""stim_listB/hug3.gif""style=""height:400px;""></stim_listB>",is hugging,,,,,,
null,"<div style=""font-size:60px;"">+</div>",,html-keyboard-response,380,2354779,0.0-19.0-0.14,69980,List1B,white,woman,,,,null,,,,,,,,,
null,"<img src=""stim_listB/touch5.gif""style=""height:400px;""></stim_listB>",,html-keyboard-response,381,2356794,0.0-19.0-1.14,69980,List1B,white,woman,,,,null,,,,,,,,,
null,is touching,,html-keyboard-response,382,2358798,0.0-19.0-2.14,69980,List1B,white,woman,,,,null,,,,,,,,,
8758,,,survey-text,383,2367556,0.0-19.0-3.14,69980,List1B,white,woman,,,,,"{""Q0"":""mike is touching dave""}","<img src=""stim_listB/touch5.gif""style=""height:400px;""></stim_listB>",is touching,,,,,,
null,"<div style=""font-size:60px;"">+</div>",,html-keyboard-response,384,2368059,0.0-19.0-0.15,69980,List1B,white,woman,,,,null,,,,,,,,,
null,"<img src=""stim_listB/look4.gif""style=""height:400px;""></stim_listB>",,html-keyboard-response,385,2370066,0.0-19.0-1.15,69980,List1B,white,woman,,,,null,,,,,,,,,
null,is being looked at by,,html-keyboard-response,386,2372066,0.0-19.0-2.15,69980,List1B,white,woman,,,,null,,,,,,,,,
19611,,,survey-text,387,2391677,0.0-19.0-3.15,69980,List1B,white,woman,,,,,"{""Q0"":""dave is being looked at by jane""}","<img src=""stim_listB/look4.gif""style=""height:400px;""></stim_listB>",is being looked at by,,,,,,
null,"<div style=""font-size:60px;"">+</div>",,html-keyboard-response,388,2392190,0.0-19.0-0.16,69980,List1B,white,woman,,,,null,,,,,,,,,
null,"<img src=""stim_listB/greet2.gif""style=""height:400px;""></stim_listB>",,html-keyboard-response,389,2394193,0.0-19.0-1.16,69980,List1B,white,woman,,,,null,,,,,,,,,
null,is being greeted by,,html-keyboard-response,390,2396198,0.0-19.0-2.16,69980,List1B,white,woman,,,,null,,,,,,,,,
14439,,,survey-text,391,2410661,0.0-19.0-3.16,69980,List1B,white,woman,,,,,"{""Q0"":""fred is being greeted by kate""}","<img src=""stim_listB/greet2.gif""style=""height:400px;""></stim_listB>",is being greeted by,,,,,,
null,"<div style=""font-size:60px;"">+</div>",,html-keyboard-response,392,2411162,0.0-19.0-0.17,69980,List1B,white,woman,,,,null,,,,,,,,,
null,"<img src=""stim_listB/oppose1.gif""style=""height:400px;""></stim_listB>",,html-keyboard-response,393,2413175,0.0-19.0-1.17,69980,List1B,white,woman,,,,null,,,,,,,,,
null,is opposing,,html-keyboard-response,394,2415189,0.0-19.0-2.17,69980,List1B,white,woman,,,,null,,,,,,,,,
8575,,,survey-text,395,2423764,0.0-19.0-3.17,69980,List1B,white,woman,,,,,"{""Q0"":""kate is opposing mike""}","<img src=""stim_listB/oppose1.gif""style=""height:400px;""></stim_listB>",is opposing,,,,,,
null,"<div style=""font-size:60px;"">+</div>",,html-keyboard-response,396,2424275,0.0-19.0-0.18,69980,List1B,white,woman,,,,null,,,,,,,,,
null,"<img src=""stim_listB/greet7.gif""style=""height:400px;""></stim_listB>",,html-keyboard-response,397,2426290,0.0-19.0-1.18,69980,List1B,white,woman,,,,null,,,,,,,,,
null,is greeting,,html-keyboard-response,398,2428304,0.0-19.0-2.18,69980,List1B,white,woman,,,,null,,,,,,,,,
8063,,,survey-text,399,2436367,0.0-19.0-3.18,69980,List1B,white,woman,,,,,"{""Q0"":""kate is greeting ruth""}","<img src=""stim_listB/greet7.gif""style=""height:400px;""></stim_listB>",is greeting,,,,,,
null,"<div style=""font-size:60px;"">+</div>",,html-keyboard-response,400,2436880,0.0-19.0-0.19,69980,List1B,white,woman,,,,null,,,,,,,,,
null,"<img src=""stim_listB/greet4.gif""style=""height:400px;""></stim_listB>",,html-keyboard-response,401,2438885,0.0-19.0-1.19,69980,List1B,white,woman,,,,null,,,,,,,,,
null,is being greeted by,,html-keyboard-response,402,2440887,0.0-19.0-2.19,69980,List1B,white,woman,,,,null,,,,,,,,,
14940,,,survey-text,403,2455827,0.0-19.0-3.19,69980,List1B,white,woman,,,,,"{""Q0"":""luke is greeting jane""}","<img src=""stim_listB/greet4.gif""style=""height:400px;""></stim_listB>",is being greeted by,,,,,,
6175,<p>Thank you for completing that task.</p><p>The final part of this session is a questionnaire that will take about 4 minutes.</p><p>Press Continue.</p>,0,html-button-response,404,2462002,0.0-20.0,69980,List1B,white,woman,,,,,,,,,,,,,
58044,,,survey-text,405,2521053,0.0-21.0,69980,List1B,white,woman,,,,,"{""Q0"":""33"",""Q1"":""english"",""Q2"":""english"",""Q3"":""united state"",""Q4"":""united state"",""Q5"":""white"",""Q6"":""female""}",,,demographics,,,,,
3069,<p>Have you lived in the USA for the last 5 years or more?</p>,0,html-button-response,406,2524122,0.0-22.0,69980,List1B,white,woman,,,,,,,,fiveyears,,,,,
3004,<p>Move the slider to show the extent to which you agree with the following statements.</p>,0,html-button-response,407,2528127,0.0-23.0,69980,List1B,white,woman,,,,,,,,,,,,,
8365,,,html-slider-response,408,2537568,0.0-24.0-0.0-0.0,69980,List1B,white,woman,,,,,,,,survey_gender,48,,,My friends have a lot in common with each other.,filler
9061,,,html-slider-response,409,2546629,0.0-24.0-0.0-0.1,69980,List1B,white,woman,,,,,,,,survey_gender,100,,,Being my gender gives me a good feeling.,feeling
7786,,,html-slider-response,410,2554423,0.0-24.0-0.0-0.2,69980,List1B,white,woman,,,,,,,,survey_gender,49,,,Most of the friends in my life are very similar to me.,filler
7145,,,html-slider-response,411,2561568,0.0-24.0-0.0-0.3,69980,List1B,white,woman,,,,,,,,survey_gender,81,,,I am glad to have the friends that I have.,filler
5558,,,html-slider-response,412,2567126,0.0-24.0-0.0-0.4,69980,List1B,white,woman,,,,,,,,survey_gender,80,,,I am glad to be my gender.,glad
7826,,,html-slider-response,413,2574952,0.0-24.0-0.0-0.5,69980,List1B,white,woman,,,,,,,,survey_gender,18,,,Family is not more important to me than friendship.,filler
7862,,,html-slider-response,414,2582814,0.0-24.0-0.0-0.6,69980,List1B,white,woman,,,,,,,,survey_gender,86,,,Being my gender is an important part of how I see myself.,important
9465,,,html-slider-response,415,2592279,0.0-24.0-0.0-0.7,69980,List1B,white,woman,,,,,,,,survey_gender,76,,,It is not always easy for people to know what I am thinking.,filler
4792,,,html-slider-response,416,2597071,0.0-24.0-0.0-0.8,69980,List1B,white,woman,,,,,,,,survey_gender,100,,,I consider myself a highly empathetic person.,filler
14051,,,html-slider-response,417,2611122,0.0-24.0-0.0-0.9,69980,List1B,white,woman,,,,,,,,survey_gender,55,,,I am similar to the average person of my gender.,similar
4973,,,html-slider-response,418,2616095,0.0-24.0-0.0-0.10,69980,List1B,white,woman,,,,,,,,survey_gender,51,,,I feel solidarity with my gender.,solidarity
6624,,,html-slider-response,419,2622719,0.0-24.0-0.0-0.11,69980,List1B,white,woman,,,,,,,,survey_gender,14,,,Routine is not important to me.,filler
8056,,,html-slider-response,420,2630775,0.0-24.0-0.0-0.12,69980,List1B,white,woman,,,,,,,,survey_gender,48,,,I have a lot in common with my friends.,filler
9100,,,html-slider-response,421,2639875,0.0-24.0-0.0-0.13,69980,List1B,white,woman,,,,,,,,survey_gender,86,,,The fact that I am my gender is an important part of my identity.,identity
6469,,,html-slider-response,422,2646344,0.0-24.0-0.0-0.14,69980,List1B,white,woman,,,,,,,,survey_gender,83,,,I feel a bond with my gender.,bond
5314,,,html-slider-response,423,2651658,0.0-24.0-0.0-0.15,69980,List1B,white,woman,,,,,,,,survey_gender,85,,,I feel a bond with my friends.,filler
6468,,,html-slider-response,424,2658126,0.0-24.0-0.0-0.16,69980,List1B,white,woman,,,,,,,,survey_gender,48,,,People of my gender are very similar to each other.,verysimilar
6359,,,html-slider-response,425,2664485,0.0-24.0-0.0-0.17,69980,List1B,white,woman,,,,,,,,survey_gender,100,,,I think that my gender has a lot to be proud of.,proud
6514,,,html-slider-response,426,2670999,0.0-24.0-0.0-0.18,69980,List1B,white,woman,,,,,,,,survey_gender,92,,,I often think about the fact that I am my gender.,often
5473,,,html-slider-response,427,2676472,0.0-24.0-0.0-0.19,69980,List1B,white,woman,,,,,,,,survey_gender,93,,,I often think about my actions.,filler
8299,,,html-slider-response,428,2684771,0.0-24.0-0.0-0.20,69980,List1B,white,woman,,,,,,,,survey_gender,100,,,Being around my friends gives me a good feeling.,filler
6928,,,html-slider-response,429,2691699,0.0-24.0-0.0-0.21,69980,List1B,white,woman,,,,,,,,survey_gender,49,,,I would say I am an animal person.,filler
5337,,,html-slider-response,430,2697036,0.0-24.0-0.0-0.22,69980,List1B,white,woman,,,,,,,,survey_gender,100,,,I feel committed to my gender.,committed
4915,,,html-slider-response,431,2701951,0.0-24.0-0.0-0.23,69980,List1B,white,woman,,,,,,,,survey_gender,90,,,I feel solidarity with my friends.,filler
4901,,,html-slider-response,432,2706852,0.0-24.0-0.0-0.24,69980,List1B,white,woman,,,,,,,,survey_gender,76,,,My friends understand me.,filler
6434,,,html-slider-response,433,2713286,0.0-24.0-0.0-0.25,69980,List1B,white,woman,,,,,,,,survey_gender,10,,,People of my gender have a lot in common with each other.,common
7132,,,html-slider-response,434,2720418,0.0-24.0-0.0-0.26,69980,List1B,white,woman,,,,,,,,survey_gender,86,,,It is pleasant to be my gender.,pleasant
8896,,,html-slider-response,435,2729314,0.0-24.0-0.0-0.27,69980,List1B,white,woman,,,,,,,,survey_gender,47,,,I have a lot in common with the average person of my gender.,average
6904,,,html-slider-response,436,2736218,0.0-24.0-1.0-0.0,69980,List1B,white,woman,,,,,,,,survey_race,89,,,People of my race are very similar to each other.,verysimilar
5896,,,html-slider-response,437,2742114,0.0-24.0-1.0-0.1,69980,List1B,white,woman,,,,,,,,survey_race,86,,,People of my race have a lot in common with each other.,common
6216,,,html-slider-response,438,2748330,0.0-24.0-1.0-0.2,69980,List1B,white,woman,,,,,,,,survey_race,79,,,Being my race is an important part of how I see myself.,important
6431,,,html-slider-response,439,2754761,0.0-24.0-1.0-0.3,69980,List1B,white,woman,,,,,,,,survey_race,46,,,I consider myself an extrovert.,filler
5073,,,html-slider-response,440,2759834,0.0-24.0-1.0-0.4,69980,List1B,white,woman,,,,,,,,survey_race,86,,,Being my race gives me a good feeling.,feeling
4999,,,html-slider-response,441,2764833,0.0-24.0-1.0-0.5,69980,List1B,white,woman,,,,,,,,survey_race,90,,,I feel solidarity with people the same age as me.,filler
5718,,,html-slider-response,442,2770551,0.0-24.0-1.0-0.6,69980,List1B,white,woman,,,,,,,,survey_race,76,,,I consider myself an introvert.,filler
8639,,,html-slider-response,443,2779190,0.0-24.0-1.0-0.7,69980,List1B,white,woman,,,,,,,,survey_race,51,,,I feel a bond with people the same age as me.,filler
4477,,,html-slider-response,444,2783667,0.0-24.0-1.0-0.8,69980,List1B,white,woman,,,,,,,,survey_race,100,,,"The older I get, the wiser I feel.",filler
3644,,,html-slider-response,445,2787311,0.0-24.0-1.0-0.9,69980,List1B,white,woman,,,,,,,,survey_race,83,,,I am glad to be my race.,glad
4402,,,html-slider-response,446,2791713,0.0-24.0-1.0-0.10,69980,List1B,white,woman,,,,,,,,survey_race,89,,,Getting older does not worry me.,filler
6249,,,html-slider-response,447,2797962,0.0-24.0-1.0-0.11,69980,List1B,white,woman,,,,,,,,survey_race,87,,,Being my age gives me a good feeling.,filler
5680,,,html-slider-response,448,2803642,0.0-24.0-1.0-0.12,69980,List1B,white,woman,,,,,,,,survey_race,65,,,I have a lot in common with the average person of my race.,average
7363,,,html-slider-response,449,2811005,0.0-24.0-1.0-0.13,69980,List1B,white,woman,,,,,,,,survey_race,54,,,I often think about the fact that I am my age.,filler
5122,,,html-slider-response,450,2816127,0.0-24.0-1.0-0.14,69980,List1B,white,woman,,,,,,,,survey_race,78,,,I am similar to the average person of my race.,similar
6419,,,html-slider-response,451,2822546,0.0-24.0-1.0-0.15,69980,List1B,white,woman,,,,,,,,survey_race,26,,,People my age have a lot in common with each other.,filler
4464,,,html-slider-response,452,2827010,0.0-24.0-1.0-0.16,69980,List1B,white,woman,,,,,,,,survey_race,84,,,I am glad to be my age.,filler
4868,,,html-slider-response,453,2831878,0.0-24.0-1.0-0.17,69980,List1B,white,woman,,,,,,,,survey_race,78,,,The fact that I am my race is an important part of my identity.,identity
8202,,,html-slider-response,454,2840081,0.0-24.0-1.0-0.18,69980,List1B,white,woman,,,,,,,,survey_race,84,,,I am glad to be the age I am.,filler
5060,,,html-slider-response,455,2845141,0.0-24.0-1.0-0.19,69980,List1B,white,woman,,,,,,,,survey_race,82,,,I feel committed to my race.,committed
5836,,,html-slider-response,456,2850977,0.0-24.0-1.0-0.20,69980,List1B,white,woman,,,,,,,,survey_race,86,,,My age is not an important part of who I am.,filler
3909,,,html-slider-response,457,2854886,0.0-24.0-1.0-0.21,69980,List1B,white,woman,,,,,,,,survey_race,87,,,I feel solidarity with my race.,solidarity
3871,,,html-slider-response,458,2858757,0.0-24.0-1.0-0.22,69980,List1B,white,woman,,,,,,,,survey_race,84,,,I feel a bond with my race.,bond
6260,,,html-slider-response,459,2865017,0.0-24.0-1.0-0.23,69980,List1B,white,woman,,,,,,,,survey_race,48,,,I enjoy being in large groups.,filler
5750,,,html-slider-response,460,2870767,0.0-24.0-1.0-0.24,69980,List1B,white,woman,,,,,,,,survey_race,59,,,I often think about the fact that I am my race.,often
7547,,,html-slider-response,461,2878314,0.0-24.0-1.0-0.25,69980,List1B,white,woman,,,,,,,,survey_race,20,,,I have a lot in common with people of a similar age to me.,filler
5328,,,html-slider-response,462,2883642,0.0-24.0-1.0-0.26,69980,List1B,white,woman,,,,,,,,survey_race,89,,,It is pleasant to be my race.,pleasant
6563,,,html-slider-response,463,2890205,0.0-24.0-1.0-0.27,69980,List1B,white,woman,,,,,,,,survey_race,94,,,I think that my race has a lot to be proud of.,proud
16600,,,survey-text,464,2906804,0.0-25.0,69980,List1B,white,woman,,,,,"{""Q0"":""ccc""}",,,worker_id,,,,,
5145,,,external-html,465,2913898,0.0-26.0,69980,List1B,white,woman,debrief.html,,,,,,,,,,,,
