"rt","stimulus","button_pressed","trial_type","trial_index","time_elapsed","internal_node_id","subject","list","ppt_race","ppt_gender","url","first_guess","correct","key_press","responses","image_type","phrase_type","test_part","response","stimulus1","stimulus2","question_type","survey_item"
"1372","Welcome to the experiment. Press Continue to begin.","0","html-button-response","0","1372","0.0-0.0","6999","List1B","white","man","","","","","","","","","","","","",""
"8908","","","external-html","1","11911","0.0-1.0","6999","List1B","white","man","consent.html","","","","","","","","","","","",""
"12094","<p>On the next page, you will see portraits of 8 people and their names.</p><p>Your first task is to take a few minutes to memorise the names of these people.</p><p>You will have to recall their names during the rest of the experiment, so it is</p><p>essential that you try to memorise these people and their names as best as you can.</p><br><p><strong>You will then be tested on your memory of these names and portraits.</strong></p><br><p>The experiment will start after you have completed this memory test.</p><br><p>Ready?</p>","0","html-button-response","2","24005","0.0-2.0","6999","List1B","white","man","","","","","","","","","","","","",""
"32102","<img src='img/portrait_matrix_list1.jpg' style='width:900px;height:500px;''></img><p>If you have memorised all the portraits and names and are ready to start, press Continue.</p><p><strong>Please note: Your memory of these faces will be tested 4 times during this experiment.</strong></p>","0","html-button-response","3","57117","0.0-3.0-0.0","6999","List1B","white","man","","","","","","","","","","","","",""
"6004","<img src=""portrait/BM1.jpg""style=""height:400px;""></img>","4","html-button-response","4","64123","0.0-3.0-1.0","6999","List1B","white","man","","true","4","","","","","","","","","",""
"null","CORRECT","","html-keyboard-response","5","65654","0.0-3.0-2.0-0.0","6999","List1B","white","man","","","","null","","","","","","","","",""
"4973","<img src=""portrait/BM2.jpg""style=""height:400px;""></img>","5","html-button-response","6","70627","0.0-3.0-4.0","6999","List1B","white","man","","true","5","","","","","","","","","",""
"null","CORRECT","","html-keyboard-response","7","72147","0.0-3.0-5.0-0.0","6999","List1B","white","man","","","","null","","","","","","","","",""
"4307","<img src=""portrait/WW2.jpg""style=""height:400px;""></img>","3","html-button-response","8","76454","0.0-3.0-7.0","6999","List1B","white","man","","true","3","","","","","","","","","",""
"null","CORRECT","","html-keyboard-response","9","77966","0.0-3.0-8.0-0.0","6999","List1B","white","man","","","","null","","","","","","","","",""
"4169","<img src=""portrait/WM1.jpg""style=""height:400px;""></img>","6","html-button-response","10","82135","0.0-3.0-10.0","6999","List1B","white","man","","true","6","","","","","","","","","",""
"null","CORRECT","","html-keyboard-response","11","83652","0.0-3.0-11.0-0.0","6999","List1B","white","man","","","","null","","","","","","","","",""
"6751","<img src=""portrait/WW1.jpg""style=""height:400px;""></img>","1","html-button-response","12","90403","0.0-3.0-13.0","6999","List1B","white","man","","true","1","","","","","","","","","",""
"null","CORRECT","","html-keyboard-response","13","91915","0.0-3.0-14.0-0.0","6999","List1B","white","man","","","","null","","","","","","","","",""
"5311","<img src=""portrait/WM2.jpg""style=""height:400px;""></img>","7","html-button-response","14","97226","0.0-3.0-16.0","6999","List1B","white","man","","true","7","","","","","","","","","",""
"null","CORRECT","","html-keyboard-response","15","98729","0.0-3.0-17.0-0.0","6999","List1B","white","man","","","","null","","","","","","","","",""
"4596","<img src=""portrait/BW2.jpg""style=""height:400px;""></img>","2","html-button-response","16","103325","0.0-3.0-19.0","6999","List1B","white","man","","true","2","","","","","","","","","",""
"null","CORRECT","","html-keyboard-response","17","104838","0.0-3.0-20.0-0.0","6999","List1B","white","man","","","","null","","","","","","","","",""
"5274","<img src=""portrait/BW1.jpg""style=""height:400px;""></img>","0","html-button-response","18","110112","0.0-3.0-22.0","6999","List1B","white","man","","true","0","","","","","","","","","",""
"null","CORRECT","","html-keyboard-response","19","111631","0.0-3.0-23.0-0.0","6999","List1B","white","man","","","","null","","","","","","","","",""
"1507","<p>You got 8 out of 8 right first time. Press Continue.</p>","0","html-button-response","20","113138","0.0-3.0-25.0","6999","List1B","white","man","","","","","","","","","","","","",""
"33031","<p>In this experiment, you will view photographs of the people from the memory game interacting.</p><p>By using the <strong>exact</strong> phrase given <i>after</i> the photograph appears and recalling the correct names of the people in the photographs, form a sentence describing the interaction. You do not need to capitalise names.</p><p>Type your answer in the space provided. Please complete every sentence before moving onto the next trial.</p><p>You will only have a few seconds to memorise each given photograph and phrase before you can respond, so try your best to focus.</p><p>An example is given below. Press 'Continue' when you are ready.</p><img src='img/speaking_example.jpg' style='width:800px;height:460px;''></img>","0","html-button-response","21","147172","0.0-4.0","6999","List1B","white","man","","","","","","","","","","","","",""
"3023","<p>Before the experiment starts, you will watch two example trials. Press 'Continue'.</p>","0","html-button-response","22","151197","0.0-5.0","6999","List1B","white","man","","","","","","","","","","","","",""
"null","<img src='img/play_eg.gif' style='height:400px;''></img>","","html-keyboard-response","23","154201","0.0-6.0","6999","List1B","white","man","","","","null","","","","","","","","",""
"null","<p>is playing with</p>","","html-keyboard-response","24","156203","0.0-7.0","6999","List1B","white","man","","","","null","","","","","","","","",""
"3889","<p><b>Answer:</b> kate is playing with beth</p>","0","html-button-response","25","160092","0.0-8.0","6999","List1B","white","man","","","","","","","","","","","","",""
"null","<img src='img/dance_eg.gif' style='height:400px;''></img>","","html-keyboard-response","26","163103","0.0-9.0","6999","List1B","white","man","","","","null","","","","","","","","",""
"null","<p>is being entertained by</p>","","html-keyboard-response","27","165106","0.0-10.0","6999","List1B","white","man","","","","null","","","","","","","","",""
"2373","<p><b>Answer:</b> luke is being entertained by dave</p>","0","html-button-response","28","167479","0.0-11.0","6999","List1B","white","man","","","","","","","","","","","","",""
"8998","<p>Ready to start the experiment?</p><br><p><strong>Remember to describe the picture using a full sentence,</strong></p><p><strong>that combines the names of the people with the <i>exact</i> phrase given.</strong></p><p><strong>To receive full payment you must do this correctly.</strong></p><p><strong> You do not need to capitalise names or use punctuation.</strong></p><br><p>Press 'Continue' to begin.</p>","0","html-button-response","29","177483","0.0-12.0","6999","List1B","white","man","","","","","","","","","","","","",""
"null","<div style=""font-size:60px;"">+</div>","","html-keyboard-response","30","178998","0.0-13.0-0.0","6999","List1B","white","man","","","","null","","","","","","","","",""
"null","<img src=""stim_listB/hug4.gif""style=""height:400px;""></stim_listB>","","html-keyboard-response","31","181008","0.0-13.0-1.0","6999","List1B","white","man","","","","null","","","","","","","","",""
"null","is being hugged by","","html-keyboard-response","32","183019","0.0-13.0-2.0","6999","List1B","white","man","","","","null","","","","","","","","",""
"20034","","","survey-text","33","203061","0.0-13.0-3.0","6999","List1B","white","man","","","","","{""Q0"":""jane is being hugged by dave""}","<img src=""stim_listB/hug4.gif""style=""height:400px;""></stim_listB>","is being hugged by","","","","","",""
"null","<div style=""font-size:60px;"">+</div>","","html-keyboard-response","34","203572","0.0-13.0-0.1","6999","List1B","white","man","","","","null","","","","","","","","",""
"null","<img src=""stim_listB/hug2.gif""style=""height:400px;""></stim_listB>","","html-keyboard-response","35","205584","0.0-13.0-1.1","6999","List1B","white","man","","","","null","","","","","","","","",""
"null","is being hugged by","","html-keyboard-response","36","207595","0.0-13.0-2.1","6999","List1B","white","man","","","","null","","","","","","","","",""
"20764","","","survey-text","37","228359","0.0-13.0-3.1","6999","List1B","white","man","","","","","{""Q0"":""kate is being hugged by mike""}","<img src=""stim_listB/hug2.gif""style=""height:400px;""></stim_listB>","is being hugged by","","","","","",""
"null","<div style=""font-size:60px;"">+</div>","","html-keyboard-response","38","228872","0.0-13.0-0.2","6999","List1B","white","man","","","","null","","","","","","","","",""
"null","<img src=""stim_listB/challenge4.gif""style=""height:400px;""></stim_listB>","","html-keyboard-response","39","230876","0.0-13.0-1.2","6999","List1B","white","man","","","","null","","","","","","","","",""
"null","is being challenged by","","html-keyboard-response","40","232884","0.0-13.0-2.2","6999","List1B","white","man","","","","null","","","","","","","","",""
"24618","","","survey-text","41","257502","0.0-13.0-3.2","6999","List1B","white","man","","","","","{""Q0"":""jane is being challenged by luke""}","<img src=""stim_listB/challenge4.gif""style=""height:400px;""></stim_listB>","is being challenged by","","","","","",""
"null","<div style=""font-size:60px;"">+</div>","","html-keyboard-response","42","258007","0.0-13.0-0.3","6999","List1B","white","man","","","","null","","","","","","","","",""
"null","<img src=""stim_listB/shout5.gif""style=""height:400px;""></stim_listB>","","html-keyboard-response","43","260026","0.0-13.0-1.3","6999","List1B","white","man","","","","null","","","","","","","","",""
"null","is shouting at","","html-keyboard-response","44","262033","0.0-13.0-2.3","6999","List1B","white","man","","","","null","","","","","","","","",""
"18623","","","survey-text","45","280656","0.0-13.0-3.3","6999","List1B","white","man","","","","","{""Q0"":""luke is shouting at fred""}","<img src=""stim_listB/shout5.gif""style=""height:400px;""></stim_listB>","is shouting at","","","","","",""
"null","<div style=""font-size:60px;"">+</div>","","html-keyboard-response","46","281168","0.0-13.0-0.4","6999","List1B","white","man","","","","null","","","","","","","","",""
"null","<img src=""stim_listB/shout2.gif""style=""height:400px;""></stim_listB>","","html-keyboard-response","47","283175","0.0-13.0-1.4","6999","List1B","white","man","","","","null","","","","","","","","",""
"null","is being shouted at by","","html-keyboard-response","48","285182","0.0-13.0-2.4","6999","List1B","white","man","","","","null","","","","","","","","",""
"25038","","","survey-text","49","310220","0.0-13.0-3.4","6999","List1B","white","man","","","","","{""Q0"":""mike is being shouted at by kate""}","<img src=""stim_listB/shout2.gif""style=""height:400px;""></stim_listB>","is being shouted at by","","","","","",""
"null","<div style=""font-size:60px;"">+</div>","","html-keyboard-response","50","310740","0.0-13.0-0.5","6999","List1B","white","man","","","","null","","","","","","","","",""
"null","<img src=""stim_listB/shout7.gif""style=""height:400px;""></stim_listB>","","html-keyboard-response","51","312757","0.0-13.0-1.5","6999","List1B","white","man","","","","null","","","","","","","","",""
"null","is shouting at","","html-keyboard-response","52","314770","0.0-13.0-2.5","6999","List1B","white","man","","","","null","","","","","","","","",""
"18103","","","survey-text","53","332873","0.0-13.0-3.5","6999","List1B","white","man","","","","","{""Q0"":""ruth is shouting at beth""}","<img src=""stim_listB/shout7.gif""style=""height:400px;""></stim_listB>","is shouting at","","","","","",""
"null","<div style=""font-size:60px;"">+</div>","","html-keyboard-response","54","333389","0.0-13.0-0.6","6999","List1B","white","man","","","","null","","","","","","","","",""
"null","<img src=""stim_listB/seduce5.gif""style=""height:400px;""></stim_listB>","","html-keyboard-response","55","335396","0.0-13.0-1.6","6999","List1B","white","man","","","","null","","","","","","","","",""
"null","is seducing","","html-keyboard-response","56","337403","0.0-13.0-2.6","6999","List1B","white","man","","","","null","","","","","","","","",""
"18477","","","survey-text","57","355880","0.0-13.0-3.6","6999","List1B","white","man","","","","","{""Q0"":""fred is seducing dave""}","<img src=""stim_listB/seduce5.gif""style=""height:400px;""></stim_listB>","is seducing","","","","","",""
"null","<div style=""font-size:60px;"">+</div>","","html-keyboard-response","58","356398","0.0-13.0-0.7","6999","List1B","white","man","","","","null","","","","","","","","",""
"null","<img src=""stim_listB/kiss6.gif""style=""height:400px;""></stim_listB>","","html-keyboard-response","59","358409","0.0-13.0-1.7","6999","List1B","white","man","","","","null","","","","","","","","",""
"null","is being kissed by","","html-keyboard-response","60","360414","0.0-13.0-2.7","6999","List1B","white","man","","","","null","","","","","","","","",""
"21156","","","survey-text","61","381570","0.0-13.0-3.7","6999","List1B","white","man","","","","","{""Q0"":""dave is being kissed by mike""}","<img src=""stim_listB/kiss6.gif""style=""height:400px;""></stim_listB>","is being kissed by","","","","","",""
"null","<div style=""font-size:60px;"">+</div>","","html-keyboard-response","62","382082","0.0-13.0-0.8","6999","List1B","white","man","","","","null","","","","","","","","",""
"null","<img src=""stim_listB/oppose4.gif""style=""height:400px;""></stim_listB>","","html-keyboard-response","63","384092","0.0-13.0-1.8","6999","List1B","white","man","","","","null","","","","","","","","",""
"null","is being opposed by","","html-keyboard-response","64","386108","0.0-13.0-2.8","6999","List1B","white","man","","","","null","","","","","","","","",""
"18363","","","survey-text","65","404471","0.0-13.0-3.8","6999","List1B","white","man","","","","","{""Q0"":""luke is being opposed by jane""}","<img src=""stim_listB/oppose4.gif""style=""height:400px;""></stim_listB>","is being opposed by","","","","","",""
"null","<div style=""font-size:60px;"">+</div>","","html-keyboard-response","66","404976","0.0-13.0-0.9","6999","List1B","white","man","","","","null","","","","","","","","",""
"null","<img src=""stim_listB/kiss8.gif""style=""height:400px;""></stim_listB>","","html-keyboard-response","67","406982","0.0-13.0-1.9","6999","List1B","white","man","","","","null","","","","","","","","",""
"null","is being kissed by","","html-keyboard-response","68","408991","0.0-13.0-2.9","6999","List1B","white","man","","","","null","","","","","","","","",""
"16623","","","survey-text","69","425614","0.0-13.0-3.9","6999","List1B","white","man","","","","","{""Q0"":""kate is being kissed by jane""}","<img src=""stim_listB/kiss8.gif""style=""height:400px;""></stim_listB>","is being kissed by","","","","","",""
"null","<div style=""font-size:60px;"">+</div>","","html-keyboard-response","70","426126","0.0-13.0-0.10","6999","List1B","white","man","","","","null","","","","","","","","",""
"null","<img src=""stim_listB/challenge7.gif""style=""height:400px;""></stim_listB>","","html-keyboard-response","71","428127","0.0-13.0-1.10","6999","List1B","white","man","","","","null","","","","","","","","",""
"null","is challenging","","html-keyboard-response","72","430137","0.0-13.0-2.10","6999","List1B","white","man","","","","null","","","","","","","","",""
"33564","","","survey-text","73","463701","0.0-13.0-3.10","6999","List1B","white","man","","","","","{""Q0"":""jane is challenged by kate""}","<img src=""stim_listB/challenge7.gif""style=""height:400px;""></stim_listB>","is challenging","","","","","",""
"null","<div style=""font-size:60px;"">+</div>","","html-keyboard-response","74","464203","0.0-13.0-0.11","6999","List1B","white","man","","","","null","","","","","","","","",""
"null","<img src=""stim_listB/copy6.gif""style=""height:400px;""></stim_listB>","","html-keyboard-response","75","466213","0.0-13.0-1.11","6999","List1B","white","man","","","","null","","","","","","","","",""
"null","is being copied by","","html-keyboard-response","76","468220","0.0-13.0-2.11","6999","List1B","white","man","","","","null","","","","","","","","",""
"16538","","","survey-text","77","484758","0.0-13.0-3.11","6999","List1B","white","man","","","","","{""Q0"":""fred is being copied by dave""}","<img src=""stim_listB/copy6.gif""style=""height:400px;""></stim_listB>","is being copied by","","","","","",""
"null","<div style=""font-size:60px;"">+</div>","","html-keyboard-response","78","485274","0.0-13.0-0.12","6999","List1B","white","man","","","","null","","","","","","","","",""
"null","<img src=""stim_listB/greet8.gif""style=""height:400px;""></stim_listB>","","html-keyboard-response","79","487290","0.0-13.0-1.12","6999","List1B","white","man","","","","null","","","","","","","","",""
"null","is being greeted by","","html-keyboard-response","80","489301","0.0-13.0-2.12","6999","List1B","white","man","","","","null","","","","","","","","",""
"16672","","","survey-text","81","505973","0.0-13.0-3.12","6999","List1B","white","man","","","","","{""Q0"":""jane is being greeted by beth""}","<img src=""stim_listB/greet8.gif""style=""height:400px;""></stim_listB>","is being greeted by","","","","","",""
"null","<div style=""font-size:60px;"">+</div>","","html-keyboard-response","82","506485","0.0-13.0-0.13","6999","List1B","white","man","","","","null","","","","","","","","",""
"null","<img src=""stim_listB/oppose2.gif""style=""height:400px;""></stim_listB>","","html-keyboard-response","83","508490","0.0-13.0-1.13","6999","List1B","white","man","","","","null","","","","","","","","",""
"null","is being opposed by","","html-keyboard-response","84","510501","0.0-13.0-2.13","6999","List1B","white","man","","","","null","","","","","","","","",""
"17109","","","survey-text","85","527610","0.0-13.0-3.13","6999","List1B","white","man","","","","","{""Q0"":""beth is being opposed by fred""}","<img src=""stim_listB/oppose2.gif""style=""height:400px;""></stim_listB>","is being opposed by","","","","","",""
"null","<div style=""font-size:60px;"">+</div>","","html-keyboard-response","86","528115","0.0-13.0-0.14","6999","List1B","white","man","","","","null","","","","","","","","",""
"null","<img src=""stim_listB/kiss3.gif""style=""height:400px;""></stim_listB>","","html-keyboard-response","87","530122","0.0-13.0-1.14","6999","List1B","white","man","","","","null","","","","","","","","",""
"null","is kissing","","html-keyboard-response","88","532132","0.0-13.0-2.14","6999","List1B","white","man","","","","null","","","","","","","","",""
"15819","","","survey-text","89","547951","0.0-13.0-3.14","6999","List1B","white","man","","","","","{""Q0"":""luke is kissing jane""}","<img src=""stim_listB/kiss3.gif""style=""height:400px;""></stim_listB>","is kissing","","","","","",""
"null","<div style=""font-size:60px;"">+</div>","","html-keyboard-response","90","548458","0.0-13.0-0.15","6999","List1B","white","man","","","","null","","","","","","","","",""
"null","<img src=""stim_listB/oppose1.gif""style=""height:400px;""></stim_listB>","","html-keyboard-response","91","550459","0.0-13.0-1.15","6999","List1B","white","man","","","","null","","","","","","","","",""
"null","is opposing","","html-keyboard-response","92","552469","0.0-13.0-2.15","6999","List1B","white","man","","","","null","","","","","","","","",""
"19698","","","survey-text","93","572167","0.0-13.0-3.15","6999","List1B","white","man","","","","","{""Q0"":""Mike is opposing kate""}","<img src=""stim_listB/oppose1.gif""style=""height:400px;""></stim_listB>","is opposing","","","","","",""
"null","<div style=""font-size:60px;"">+</div>","","html-keyboard-response","94","572671","0.0-13.0-0.16","6999","List1B","white","man","","","","null","","","","","","","","",""
"null","<img src=""stim_listB/kiss2.gif""style=""height:400px;""></stim_listB>","","html-keyboard-response","95","574680","0.0-13.0-1.16","6999","List1B","white","man","","","","null","","","","","","","","",""
"null","is being kissed by","","html-keyboard-response","96","576687","0.0-13.0-2.16","6999","List1B","white","man","","","","null","","","","","","","","",""
"14391","","","survey-text","97","591078","0.0-13.0-3.16","6999","List1B","white","man","","","","","{""Q0"":""kate is being kissed by Mike""}","<img src=""stim_listB/kiss2.gif""style=""height:400px;""></stim_listB>","is being kissed by","","","","","",""
"null","<div style=""font-size:60px;"">+</div>","","html-keyboard-response","98","591592","0.0-13.0-0.17","6999","List1B","white","man","","","","null","","","","","","","","",""
"null","<img src=""stim_listB/touch5.gif""style=""height:400px;""></stim_listB>","","html-keyboard-response","99","593606","0.0-13.0-1.17","6999","List1B","white","man","","","","null","","","","","","","","",""
"null","is touching","","html-keyboard-response","100","595618","0.0-13.0-2.17","6999","List1B","white","man","","","","null","","","","","","","","",""
"14161","","","survey-text","101","609779","0.0-13.0-3.17","6999","List1B","white","man","","","","","{""Q0"":""mike is touching dave""}","<img src=""stim_listB/touch5.gif""style=""height:400px;""></stim_listB>","is touching","","","","","",""
"null","<div style=""font-size:60px;"">+</div>","","html-keyboard-response","102","610282","0.0-13.0-0.18","6999","List1B","white","man","","","","null","","","","","","","","",""
"null","<img src=""stim_listB/shout4.gif""style=""height:400px;""></stim_listB>","","html-keyboard-response","103","612286","0.0-13.0-1.18","6999","List1B","white","man","","","","null","","","","","","","","",""
"null","is being shouted at by","","html-keyboard-response","104","614292","0.0-13.0-2.18","6999","List1B","white","man","","","","null","","","","","","","","",""
"29959","","","survey-text","105","644251","0.0-13.0-3.18","6999","List1B","white","man","","","","","{""Q0"":""dave is being shouted at by jane""}","<img src=""stim_listB/shout4.gif""style=""height:400px;""></stim_listB>","is being shouted at by","","","","","",""
"null","<div style=""font-size:60px;"">+</div>","","html-keyboard-response","106","644764","0.0-13.0-0.19","6999","List1B","white","man","","","","null","","","","","","","","",""
"null","<img src=""stim_listB/challenge8.gif""style=""height:400px;""></stim_listB>","","html-keyboard-response","107","646783","0.0-13.0-1.19","6999","List1B","white","man","","","","null","","","","","","","","",""
"null","is being challenged by","","html-keyboard-response","108","648790","0.0-13.0-2.19","6999","List1B","white","man","","","","null","","","","","","","","",""
"14037","","","survey-text","109","662827","0.0-13.0-3.19","6999","List1B","white","man","","","","","{""Q0"":""jane is being challenged by beth""}","<img src=""stim_listB/challenge8.gif""style=""height:400px;""></stim_listB>","is being challenged by","","","","","",""
"31407","<img src='img/portrait_matrix_list1.jpg' style='width:900px;height:500px;''></img><p>If you have memorised all the portraits and names and are ready to start, press Continue.</p><p><strong>Please note: Your memory of these faces will be tested 4 times during this experiment.</strong></p>","0","html-button-response","110","694234","0.0-14.0-0.0","6999","List1B","white","man","","","","","","","","","","","","",""
"5652","<img src=""portrait/WM1.jpg""style=""height:400px;""></img>","6","html-button-response","111","700895","0.0-14.0-1.0","6999","List1B","white","man","","true","6","","","","","","","","","",""
"null","CORRECT","","html-keyboard-response","112","702408","0.0-14.0-2.0-0.0","6999","List1B","white","man","","","","null","","","","","","","","",""
"3203","<img src=""portrait/BM2.jpg""style=""height:400px;""></img>","5","html-button-response","113","705611","0.0-14.0-4.0","6999","List1B","white","man","","true","5","","","","","","","","","",""
"null","CORRECT","","html-keyboard-response","114","707126","0.0-14.0-5.0-0.0","6999","List1B","white","man","","","","null","","","","","","","","",""
"6239","<img src=""portrait/BM1.jpg""style=""height:400px;""></img>","4","html-button-response","115","713365","0.0-14.0-7.0","6999","List1B","white","man","","true","4","","","","","","","","","",""
"null","CORRECT","","html-keyboard-response","116","714875","0.0-14.0-8.0-0.0","6999","List1B","white","man","","","","null","","","","","","","","",""
"4509","<img src=""portrait/BW2.jpg""style=""height:400px;""></img>","2","html-button-response","117","719384","0.0-14.0-10.0","6999","List1B","white","man","","true","2","","","","","","","","","",""
"null","CORRECT","","html-keyboard-response","118","720895","0.0-14.0-11.0-0.0","6999","List1B","white","man","","","","null","","","","","","","","",""
"6057","<img src=""portrait/WW1.jpg""style=""height:400px;""></img>","1","html-button-response","119","726952","0.0-14.0-13.0","6999","List1B","white","man","","true","1","","","","","","","","","",""
"null","CORRECT","","html-keyboard-response","120","728468","0.0-14.0-14.0-0.0","6999","List1B","white","man","","","","null","","","","","","","","",""
"2752","<img src=""portrait/BW1.jpg""style=""height:400px;""></img>","0","html-button-response","121","731220","0.0-14.0-16.0","6999","List1B","white","man","","true","0","","","","","","","","","",""
"null","CORRECT","","html-keyboard-response","122","732751","0.0-14.0-17.0-0.0","6999","List1B","white","man","","","","null","","","","","","","","",""
"6791","<img src=""portrait/WW2.jpg""style=""height:400px;""></img>","3","html-button-response","123","739542","0.0-14.0-19.0","6999","List1B","white","man","","true","3","","","","","","","","","",""
"null","CORRECT","","html-keyboard-response","124","741057","0.0-14.0-20.0-0.0","6999","List1B","white","man","","","","null","","","","","","","","",""
"3622","<img src=""portrait/WM2.jpg""style=""height:400px;""></img>","7","html-button-response","125","744679","0.0-14.0-22.0","6999","List1B","white","man","","true","7","","","","","","","","","",""
"null","CORRECT","","html-keyboard-response","126","746195","0.0-14.0-23.0-0.0","6999","List1B","white","man","","","","null","","","","","","","","",""
"1662","<p>You got 8 out of 8 right first time. Press Continue.</p>","0","html-button-response","127","747857","0.0-14.0-25.0","6999","List1B","white","man","","","","","","","","","","","","",""
"null","<div style=""font-size:60px;"">+</div>","","html-keyboard-response","128","749368","0.0-15.0-0.0","6999","List1B","white","man","","","","null","","","","","","","","",""
"null","<img src=""stim_listB/challenge6.gif""style=""height:400px;""></stim_listB>","","html-keyboard-response","129","751371","0.0-15.0-1.0","6999","List1B","white","man","","","","null","","","","","","","","",""
"null","is being challenged by","","html-keyboard-response","130","753379","0.0-15.0-2.0","6999","List1B","white","man","","","","null","","","","","","","","",""
"17091","","","survey-text","131","770470","0.0-15.0-3.0","6999","List1B","white","man","","","","","{""Q0"":""fred is being challenged by dave""}","<img src=""stim_listB/challenge6.gif""style=""height:400px;""></stim_listB>","is being challenged by","","","","","",""
"null","<div style=""font-size:60px;"">+</div>","","html-keyboard-response","132","770974","0.0-15.0-0.1","6999","List1B","white","man","","","","null","","","","","","","","",""
"null","<img src=""stim_listB/hug7.gif""style=""height:400px;""></stim_listB>","","html-keyboard-response","133","772982","0.0-15.0-1.1","6999","List1B","white","man","","","","null","","","","","","","","",""
"null","is hugging","","html-keyboard-response","134","774998","0.0-15.0-2.1","6999","List1B","white","man","","","","null","","","","","","","","",""
"16879","","","survey-text","135","791877","0.0-15.0-3.1","6999","List1B","white","man","","","","","{""Q0"":""ruth is hugging beth ""}","<img src=""stim_listB/hug7.gif""style=""height:400px;""></stim_listB>","is hugging","","","","","",""
"null","<div style=""font-size:60px;"">+</div>","","html-keyboard-response","136","792387","0.0-15.0-0.2","6999","List1B","white","man","","","","null","","","","","","","","",""
"null","<img src=""stim_listB/oppose6.gif""style=""height:400px;""></stim_listB>","","html-keyboard-response","137","794388","0.0-15.0-1.2","6999","List1B","white","man","","","","null","","","","","","","","",""
"null","is being opposed by","","html-keyboard-response","138","796389","0.0-15.0-2.2","6999","List1B","white","man","","","","null","","","","","","","","",""
"14852","","","survey-text","139","811241","0.0-15.0-3.2","6999","List1B","white","man","","","","","{""Q0"":""luke is being opposed by fred""}","<img src=""stim_listB/oppose6.gif""style=""height:400px;""></stim_listB>","is being opposed by","","","","","",""
"null","<div style=""font-size:60px;"">+</div>","","html-keyboard-response","140","811744","0.0-15.0-0.3","6999","List1B","white","man","","","","null","","","","","","","","",""
"null","<img src=""stim_listB/seduce1.gif""style=""height:400px;""></stim_listB>","","html-keyboard-response","141","813752","0.0-15.0-1.3","6999","List1B","white","man","","","","null","","","","","","","","",""
"null","is seducing","","html-keyboard-response","142","815759","0.0-15.0-2.3","6999","List1B","white","man","","","","null","","","","","","","","",""
"14924","","","survey-text","143","830690","0.0-15.0-3.3","6999","List1B","white","man","","","","","{""Q0"":""fred is seducing kate""}","<img src=""stim_listB/seduce1.gif""style=""height:400px;""></stim_listB>","is seducing","","","","","",""
"null","<div style=""font-size:60px;"">+</div>","","html-keyboard-response","144","831202","0.0-15.0-0.4","6999","List1B","white","man","","","","null","","","","","","","","",""
"null","<img src=""stim_listB/seduce4.gif""style=""height:400px;""></stim_listB>","","html-keyboard-response","145","833213","0.0-15.0-1.4","6999","List1B","white","man","","","","null","","","","","","","","",""
"null","is being seduced by","","html-keyboard-response","146","835223","0.0-15.0-2.4","6999","List1B","white","man","","","","null","","","","","","","","",""
"22443","","","survey-text","147","857666","0.0-15.0-3.4","6999","List1B","white","man","","","","","{""Q0"":""jane is being seduced by dave""}","<img src=""stim_listB/seduce4.gif""style=""height:400px;""></stim_listB>","is being seduced by","","","","","",""
"null","<div style=""font-size:60px;"">+</div>","","html-keyboard-response","148","858178","0.0-15.0-0.5","6999","List1B","white","man","","","","null","","","","","","","","",""
"null","<img src=""stim_listB/greet2.gif""style=""height:400px;""></stim_listB>","","html-keyboard-response","149","860187","0.0-15.0-1.5","6999","List1B","white","man","","","","null","","","","","","","","",""
"null","is being greeted by","","html-keyboard-response","150","862188","0.0-15.0-2.5","6999","List1B","white","man","","","","null","","","","","","","","",""
"14484","","","survey-text","151","876672","0.0-15.0-3.5","6999","List1B","white","man","","","","","{""Q0"":""kate is being greeted by fred""}","<img src=""stim_listB/greet2.gif""style=""height:400px;""></stim_listB>","is being greeted by","","","","","",""
"null","<div style=""font-size:60px;"">+</div>","","html-keyboard-response","152","877182","0.0-15.0-0.6","6999","List1B","white","man","","","","null","","","","","","","","",""
"null","<img src=""stim_listB/hug1.gif""style=""height:400px;""></stim_listB>","","html-keyboard-response","153","879189","0.0-15.0-1.6","6999","List1B","white","man","","","","null","","","","","","","","",""
"null","is hugging","","html-keyboard-response","154","881196","0.0-15.0-2.6","6999","List1B","white","man","","","","null","","","","","","","","",""
"27862","","","survey-text","155","909058","0.0-15.0-3.6","6999","List1B","white","man","","","","","{""Q0"":""fred is hugging beth""}","<img src=""stim_listB/hug1.gif""style=""height:400px;""></stim_listB>","is hugging","","","","","",""
"null","<div style=""font-size:60px;"">+</div>","","html-keyboard-response","156","909588","0.0-15.0-0.7","6999","List1B","white","man","","","","null","","","","","","","","",""
"null","<img src=""stim_listB/challenge5.gif""style=""height:400px;""></stim_listB>","","html-keyboard-response","157","911607","0.0-15.0-1.7","6999","List1B","white","man","","","","null","","","","","","","","",""
"null","is challenging","","html-keyboard-response","158","913615","0.0-15.0-2.7","6999","List1B","white","man","","","","null","","","","","","","","",""
"26650","","","survey-text","159","940265","0.0-15.0-3.7","6999","List1B","white","man","","","","","{""Q0"":""mike is challenging luke""}","<img src=""stim_listB/challenge5.gif""style=""height:400px;""></stim_listB>","is challenging","","","","","",""
"null","<div style=""font-size:60px;"">+</div>","","html-keyboard-response","160","940770","0.0-15.0-0.8","6999","List1B","white","man","","","","null","","","","","","","","",""
"null","<img src=""stim_listB/seduce8.gif""style=""height:400px;""></stim_listB>","","html-keyboard-response","161","942778","0.0-15.0-1.8","6999","List1B","white","man","","","","null","","","","","","","","",""
"null","is being seduced by","","html-keyboard-response","162","944789","0.0-15.0-2.8","6999","List1B","white","man","","","","null","","","","","","","","",""
"20704","","","survey-text","163","965493","0.0-15.0-3.8","6999","List1B","white","man","","","","","{""Q0"":""jane is being seduced by kate""}","<img src=""stim_listB/seduce8.gif""style=""height:400px;""></stim_listB>","is being seduced by","","","","","",""
"null","<div style=""font-size:60px;"">+</div>","","html-keyboard-response","164","965998","0.0-15.0-0.9","6999","List1B","white","man","","","","null","","","","","","","","",""
"null","<img src=""stim_listB/oppose3.gif""style=""height:400px;""></stim_listB>","","html-keyboard-response","165","968005","0.0-15.0-1.9","6999","List1B","white","man","","","","null","","","","","","","","",""
"null","is opposing","","html-keyboard-response","166","970014","0.0-15.0-2.9","6999","List1B","white","man","","","","null","","","","","","","","",""
"101653","","","survey-text","167","1071667","0.0-15.0-3.9","6999","List1B","white","man","","","","","{""Q0"":""jane is opposing dave""}","<img src=""stim_listB/oppose3.gif""style=""height:400px;""></stim_listB>","is opposing","","","","","",""
"null","<div style=""font-size:60px;"">+</div>","","html-keyboard-response","168","1072186","0.0-15.0-0.10","6999","List1B","white","man","","","","null","","","","","","","","",""
"null","<img src=""stim_listB/hug5.gif""style=""height:400px;""></stim_listB>","","html-keyboard-response","169","1074197","0.0-15.0-1.10","6999","List1B","white","man","","","","null","","","","","","","","",""
"null","is hugging","","html-keyboard-response","170","1076203","0.0-15.0-2.10","6999","List1B","white","man","","","","null","","","","","","","","",""
"15472","","","survey-text","171","1091675","0.0-15.0-3.10","6999","List1B","white","man","","","","","{""Q0"":""fred is hugging luke""}","<img src=""stim_listB/hug5.gif""style=""height:400px;""></stim_listB>","is hugging","","","","","",""
"null","<div style=""font-size:60px;"">+</div>","","html-keyboard-response","172","1092175","0.0-15.0-0.11","6999","List1B","white","man","","","","null","","","","","","","","",""
"null","<img src=""stim_listB/oppose8.gif""style=""height:400px;""></stim_listB>","","html-keyboard-response","173","1094181","0.0-15.0-1.11","6999","List1B","white","man","","","","null","","","","","","","","",""
"null","is being opposed by","","html-keyboard-response","174","1096188","0.0-15.0-2.11","6999","List1B","white","man","","","","null","","","","","","","","",""
"16771","","","survey-text","175","1112959","0.0-15.0-3.11","6999","List1B","white","man","","","","","{""Q0"":""beth is being opposed by ruth""}","<img src=""stim_listB/oppose8.gif""style=""height:400px;""></stim_listB>","is being opposed by","","","","","",""
"null","<div style=""font-size:60px;"">+</div>","","html-keyboard-response","176","1113468","0.0-15.0-0.12","6999","List1B","white","man","","","","null","","","","","","","","",""
"null","<img src=""stim_listB/seduce7.gif""style=""height:400px;""></stim_listB>","","html-keyboard-response","177","1115475","0.0-15.0-1.12","6999","List1B","white","man","","","","null","","","","","","","","",""
"null","is seducing","","html-keyboard-response","178","1117482","0.0-15.0-2.12","6999","List1B","white","man","","","","null","","","","","","","","",""
"21053","","","survey-text","179","1138535","0.0-15.0-3.12","6999","List1B","white","man","","","","","{""Q0"":""beth is seducing jane""}","<img src=""stim_listB/seduce7.gif""style=""height:400px;""></stim_listB>","is seducing","","","","","",""
"null","<div style=""font-size:60px;"">+</div>","","html-keyboard-response","180","1139038","0.0-15.0-0.13","6999","List1B","white","man","","","","null","","","","","","","","",""
"null","<img src=""stim_listB/oppose5.gif""style=""height:400px;""></stim_listB>","","html-keyboard-response","181","1141046","0.0-15.0-1.13","6999","List1B","white","man","","","","null","","","","","","","","",""
"null","is opposing","","html-keyboard-response","182","1143056","0.0-15.0-2.13","6999","List1B","white","man","","","","null","","","","","","","","",""
"16125","","","survey-text","183","1159181","0.0-15.0-3.13","6999","List1B","white","man","","","","","{""Q0"":""mike is opposing luke""}","<img src=""stim_listB/oppose5.gif""style=""height:400px;""></stim_listB>","is opposing","","","","","",""
"null","<div style=""font-size:60px;"">+</div>","","html-keyboard-response","184","1159689","0.0-15.0-0.14","6999","List1B","white","man","","","","null","","","","","","","","",""
"null","<img src=""stim_listB/greet4.gif""style=""height:400px;""></stim_listB>","","html-keyboard-response","185","1161692","0.0-15.0-1.14","6999","List1B","white","man","","","","null","","","","","","","","",""
"null","is being greeted by","","html-keyboard-response","186","1163699","0.0-15.0-2.14","6999","List1B","white","man","","","","null","","","","","","","","",""
"15698","","","survey-text","187","1179405","0.0-15.0-3.14","6999","List1B","white","man","","","","","{""Q0"":""luke is being greeted by jane""}","<img src=""stim_listB/greet4.gif""style=""height:400px;""></stim_listB>","is being greeted by","","","","","",""
"null","<div style=""font-size:60px;"">+</div>","","html-keyboard-response","188","1179914","0.0-15.0-0.15","6999","List1B","white","man","","","","null","","","","","","","","",""
"null","<img src=""stim_listB/kiss4.gif""style=""height:400px;""></stim_listB>","","html-keyboard-response","189","1181921","0.0-15.0-1.15","6999","List1B","white","man","","","","null","","","","","","","","",""
"null","is being kissed by","","html-keyboard-response","190","1183929","0.0-15.0-2.15","6999","List1B","white","man","","","","null","","","","","","","","",""
"18723","","","survey-text","191","1202652","0.0-15.0-3.15","6999","List1B","white","man","","","","","{""Q0"":""dave is being kissed by jane""}","<img src=""stim_listB/kiss4.gif""style=""height:400px;""></stim_listB>","is being kissed by","","","","","",""
"null","<div style=""font-size:60px;"">+</div>","","html-keyboard-response","192","1203158","0.0-15.0-0.16","6999","List1B","white","man","","","","null","","","","","","","","",""
"null","<img src=""stim_listB/shout1.gif""style=""height:400px;""></stim_listB>","","html-keyboard-response","193","1205167","0.0-15.0-1.16","6999","List1B","white","man","","","","null","","","","","","","","",""
"null","is shouting at","","html-keyboard-response","194","1207174","0.0-15.0-2.16","6999","List1B","white","man","","","","null","","","","","","","","",""
"12743","","","survey-text","195","1219917","0.0-15.0-3.16","6999","List1B","white","man","","","","","{""Q0"":""fred is shouting at beth""}","<img src=""stim_listB/shout1.gif""style=""height:400px;""></stim_listB>","is shouting at","","","","","",""
"null","<div style=""font-size:60px;"">+</div>","","html-keyboard-response","196","1220430","0.0-15.0-0.17","6999","List1B","white","man","","","","null","","","","","","","","",""
"null","<img src=""stim_listB/touch7.gif""style=""height:400px;""></stim_listB>","","html-keyboard-response","197","1222445","0.0-15.0-1.17","6999","List1B","white","man","","","","null","","","","","","","","",""
"null","is touching","","html-keyboard-response","198","1224467","0.0-15.0-2.17","6999","List1B","white","man","","","","null","","","","","","","","",""
"13935","","","survey-text","199","1238418","0.0-15.0-3.17","6999","List1B","white","man","","","","","{""Q0"":""jane is touching kate""}","<img src=""stim_listB/touch7.gif""style=""height:400px;""></stim_listB>","is touching","","","","","",""
"null","<div style=""font-size:60px;"">+</div>","","html-keyboard-response","200","1238919","0.0-15.0-0.18","6999","List1B","white","man","","","","null","","","","","","","","",""
"null","<img src=""stim_listB/copy3.gif""style=""height:400px;""></stim_listB>","","html-keyboard-response","201","1240928","0.0-15.0-1.18","6999","List1B","white","man","","","","null","","","","","","","","",""
"null","is copying","","html-keyboard-response","202","1242935","0.0-15.0-2.18","6999","List1B","white","man","","","","null","","","","","","","","",""
"18896","","","survey-text","203","1261831","0.0-15.0-3.18","6999","List1B","white","man","","","","","{""Q0"":""dave is copying beth""}","<img src=""stim_listB/copy3.gif""style=""height:400px;""></stim_listB>","is copying","","","","","",""
"null","<div style=""font-size:60px;"">+</div>","","html-keyboard-response","204","1262341","0.0-15.0-0.19","6999","List1B","white","man","","","","null","","","","","","","","",""
"null","<img src=""stim_listB/look7.gif""style=""height:400px;""></stim_listB>","","html-keyboard-response","205","1264346","0.0-15.0-1.19","6999","List1B","white","man","","","","null","","","","","","","","",""
"null","is looking at","","html-keyboard-response","206","1266353","0.0-15.0-2.19","6999","List1B","white","man","","","","null","","","","","","","","",""
"21230","","","survey-text","207","1287583","0.0-15.0-3.19","6999","List1B","white","man","","","","","{""Q0"":""beth is looking at ruth ""}","<img src=""stim_listB/look7.gif""style=""height:400px;""></stim_listB>","is looking at","","","","","",""
"37726","<img src='img/portrait_matrix_list1.jpg' style='width:900px;height:500px;''></img><p>If you have memorised all the portraits and names and are ready to start, press Continue.</p><p><strong>Please note: Your memory of these faces will be tested 4 times during this experiment.</strong></p>","0","html-button-response","208","1325325","0.0-16.0-0.0","6999","List1B","white","man","","","","","","","","","","","","",""
"4515","<img src=""portrait/BM2.jpg""style=""height:400px;""></img>","5","html-button-response","209","1330855","0.0-16.0-1.0","6999","List1B","white","man","","true","5","","","","","","","","","",""
"null","CORRECT","","html-keyboard-response","210","1332379","0.0-16.0-2.0-0.0","6999","List1B","white","man","","","","null","","","","","","","","",""
"2560","<img src=""portrait/WW1.jpg""style=""height:400px;""></img>","1","html-button-response","211","1334939","0.0-16.0-4.0","6999","List1B","white","man","","true","1","","","","","","","","","",""
"null","CORRECT","","html-keyboard-response","212","1336454","0.0-16.0-5.0-0.0","6999","List1B","white","man","","","","null","","","","","","","","",""
"3077","<img src=""portrait/WM2.jpg""style=""height:400px;""></img>","7","html-button-response","213","1339531","0.0-16.0-7.0","6999","List1B","white","man","","true","7","","","","","","","","","",""
"null","CORRECT","","html-keyboard-response","214","1341048","0.0-16.0-8.0-0.0","6999","List1B","white","man","","","","null","","","","","","","","",""
"3095","<img src=""portrait/WM1.jpg""style=""height:400px;""></img>","6","html-button-response","215","1344143","0.0-16.0-10.0","6999","List1B","white","man","","true","6","","","","","","","","","",""
"null","CORRECT","","html-keyboard-response","216","1345646","0.0-16.0-11.0-0.0","6999","List1B","white","man","","","","null","","","","","","","","",""
"2606","<img src=""portrait/WW2.jpg""style=""height:400px;""></img>","3","html-button-response","217","1348252","0.0-16.0-13.0","6999","List1B","white","man","","true","3","","","","","","","","","",""
"null","CORRECT","","html-keyboard-response","218","1349768","0.0-16.0-14.0-0.0","6999","List1B","white","man","","","","null","","","","","","","","",""
"4378","<img src=""portrait/BW1.jpg""style=""height:400px;""></img>","0","html-button-response","219","1354146","0.0-16.0-16.0","6999","List1B","white","man","","true","0","","","","","","","","","",""
"null","CORRECT","","html-keyboard-response","220","1355651","0.0-16.0-17.0-0.0","6999","List1B","white","man","","","","null","","","","","","","","",""
"2459","<img src=""portrait/BM1.jpg""style=""height:400px;""></img>","4","html-button-response","221","1358110","0.0-16.0-19.0","6999","List1B","white","man","","true","4","","","","","","","","","",""
"null","CORRECT","","html-keyboard-response","222","1359614","0.0-16.0-20.0-0.0","6999","List1B","white","man","","","","null","","","","","","","","",""
"4645","<img src=""portrait/BW2.jpg""style=""height:400px;""></img>","2","html-button-response","223","1364259","0.0-16.0-22.0","6999","List1B","white","man","","true","2","","","","","","","","","",""
"null","CORRECT","","html-keyboard-response","224","1365763","0.0-16.0-23.0-0.0","6999","List1B","white","man","","","","null","","","","","","","","",""
"1220","<p>You got 8 out of 8 right first time. Press Continue.</p>","0","html-button-response","225","1366983","0.0-16.0-25.0","6999","List1B","white","man","","","","","","","","","","","","",""
"null","<div style=""font-size:60px;"">+</div>","","html-keyboard-response","226","1368486","0.0-17.0-0.0","6999","List1B","white","man","","","","null","","","","","","","","",""
"null","<img src=""stim_listB/touch6.gif""style=""height:400px;""></stim_listB>","","html-keyboard-response","227","1370492","0.0-17.0-1.0","6999","List1B","white","man","","","","null","","","","","","","","",""
"null","is being touched by","","html-keyboard-response","228","1372500","0.0-17.0-2.0","6999","List1B","white","man","","","","null","","","","","","","","",""
"18258","","","survey-text","229","1390758","0.0-17.0-3.0","6999","List1B","white","man","","","","","{""Q0"":""fred is being touched by luke""}","<img src=""stim_listB/touch6.gif""style=""height:400px;""></stim_listB>","is being touched by","","","","","",""
"null","<div style=""font-size:60px;"">+</div>","","html-keyboard-response","230","1391269","0.0-17.0-0.1","6999","List1B","white","man","","","","null","","","","","","","","",""
"null","<img src=""stim_listB/look8.gif""style=""height:400px;""></stim_listB>","","html-keyboard-response","231","1393283","0.0-17.0-1.1","6999","List1B","white","man","","","","null","","","","","","","","",""
"null","is being looked at by","","html-keyboard-response","232","1395286","0.0-17.0-2.1","6999","List1B","white","man","","","","null","","","","","","","","",""
"15862","","","survey-text","233","1411148","0.0-17.0-3.1","6999","List1B","white","man","","","","","{""Q0"":""kate is being looked at by jane""}","<img src=""stim_listB/look8.gif""style=""height:400px;""></stim_listB>","is being looked at by","","","","","",""
"null","<div style=""font-size:60px;"">+</div>","","html-keyboard-response","234","1411663","0.0-17.0-0.2","6999","List1B","white","man","","","","null","","","","","","","","",""
"null","<img src=""stim_listB/look2.gif""style=""height:400px;""></stim_listB>","","html-keyboard-response","235","1413676","0.0-17.0-1.2","6999","List1B","white","man","","","","null","","","","","","","","",""
"null","is being looked at by","","html-keyboard-response","236","1415685","0.0-17.0-2.2","6999","List1B","white","man","","","","null","","","","","","","","",""
"20195","","","survey-text","237","1435880","0.0-17.0-3.2","6999","List1B","white","man","","","","","{""Q0"":""kate is being looked at by mike""}","<img src=""stim_listB/look2.gif""style=""height:400px;""></stim_listB>","is being looked at by","","","","","",""
"null","<div style=""font-size:60px;"">+</div>","","html-keyboard-response","238","1436385","0.0-17.0-0.3","6999","List1B","white","man","","","","null","","","","","","","","",""
"null","<img src=""stim_listB/look4.gif""style=""height:400px;""></stim_listB>","","html-keyboard-response","239","1438398","0.0-17.0-1.3","6999","List1B","white","man","","","","null","","","","","","","","",""
"null","is being looked at by","","html-keyboard-response","240","1440410","0.0-17.0-2.3","6999","List1B","white","man","","","","null","","","","","","","","",""
"19418","","","survey-text","241","1459828","0.0-17.0-3.3","6999","List1B","white","man","","","","","{""Q0"":""dave is being looked at by jane""}","<img src=""stim_listB/look4.gif""style=""height:400px;""></stim_listB>","is being looked at by","","","","","",""
"null","<div style=""font-size:60px;"">+</div>","","html-keyboard-response","242","1460340","0.0-17.0-0.4","6999","List1B","white","man","","","","null","","","","","","","","",""
"null","<img src=""stim_listB/look1.gif""style=""height:400px;""></stim_listB>","","html-keyboard-response","243","1462353","0.0-17.0-1.4","6999","List1B","white","man","","","","null","","","","","","","","",""
"null","is looking at","","html-keyboard-response","244","1464363","0.0-17.0-2.4","6999","List1B","white","man","","","","null","","","","","","","","",""
"11705","","","survey-text","245","1476068","0.0-17.0-3.4","6999","List1B","white","man","","","","","{""Q0"":""fred is looking at ruth""}","<img src=""stim_listB/look1.gif""style=""height:400px;""></stim_listB>","is looking at","","","","","",""
"null","<div style=""font-size:60px;"">+</div>","","html-keyboard-response","246","1476572","0.0-17.0-0.5","6999","List1B","white","man","","","","null","","","","","","","","",""
"null","<img src=""stim_listB/touch8.gif""style=""height:400px;""></stim_listB>","","html-keyboard-response","247","1478582","0.0-17.0-1.5","6999","List1B","white","man","","","","null","","","","","","","","",""
"null","is being touched by","","html-keyboard-response","248","1480589","0.0-17.0-2.5","6999","List1B","white","man","","","","null","","","","","","","","",""
"15002","","","survey-text","249","1495591","0.0-17.0-3.5","6999","List1B","white","man","","","","","{""Q0"":""beth is being touched by ruth""}","<img src=""stim_listB/touch8.gif""style=""height:400px;""></stim_listB>","is being touched by","","","","","",""
"null","<div style=""font-size:60px;"">+</div>","","html-keyboard-response","250","1496104","0.0-17.0-0.6","6999","List1B","white","man","","","","null","","","","","","","","",""
"null","<img src=""stim_listB/copy1.gif""style=""height:400px;""></stim_listB>","","html-keyboard-response","251","1498117","0.0-17.0-1.6","6999","List1B","white","man","","","","null","","","","","","","","",""
"null","is copying","","html-keyboard-response","252","1500127","0.0-17.0-2.6","6999","List1B","white","man","","","","null","","","","","","","","",""
"101168","","","survey-text","253","1601295","0.0-17.0-3.6","6999","List1B","white","man","","","","","{""Q0"":""dave is looking at jane""}","<img src=""stim_listB/copy1.gif""style=""height:400px;""></stim_listB>","is copying","","","","","",""
"null","<div style=""font-size:60px;"">+</div>","","html-keyboard-response","254","1601805","0.0-17.0-0.7","6999","List1B","white","man","","","","null","","","","","","","","",""
"null","<img src=""stim_listB/copy4.gif""style=""height:400px;""></stim_listB>","","html-keyboard-response","255","1603818","0.0-17.0-1.7","6999","List1B","white","man","","","","null","","","","","","","","",""
"null","is being copied by","","html-keyboard-response","256","1605824","0.0-17.0-2.7","6999","List1B","white","man","","","","null","","","","","","","","",""
"16504","","","survey-text","257","1622328","0.0-17.0-3.7","6999","List1B","white","man","","","","","{""Q0"":""luke is being copied by jane""}","<img src=""stim_listB/copy4.gif""style=""height:400px;""></stim_listB>","is being copied by","","","","","",""
"null","<div style=""font-size:60px;"">+</div>","","html-keyboard-response","258","1622832","0.0-17.0-0.8","6999","List1B","white","man","","","","null","","","","","","","","",""
"null","<img src=""stim_listB/greet6.gif""style=""height:400px;""></stim_listB>","","html-keyboard-response","259","1624833","0.0-17.0-1.8","6999","List1B","white","man","","","","null","","","","","","","","",""
"null","is being greeted by","","html-keyboard-response","260","1626840","0.0-17.0-2.8","6999","List1B","white","man","","","","null","","","","","","","","",""
"12608","","","survey-text","261","1639448","0.0-17.0-3.8","6999","List1B","white","man","","","","","{""Q0"":""dave is being greeted by fred""}","<img src=""stim_listB/greet6.gif""style=""height:400px;""></stim_listB>","is being greeted by","","","","","",""
"null","<div style=""font-size:60px;"">+</div>","","html-keyboard-response","262","1639960","0.0-17.0-0.9","6999","List1B","white","man","","","","null","","","","","","","","",""
"null","<img src=""stim_listB/shout3.gif""style=""height:400px;""></stim_listB>","","html-keyboard-response","263","1641974","0.0-17.0-1.9","6999","List1B","white","man","","","","null","","","","","","","","",""
"null","is shouting at","","html-keyboard-response","264","1643982","0.0-17.0-2.9","6999","List1B","white","man","","","","null","","","","","","","","",""
"7593","","","survey-text","265","1651575","0.0-17.0-3.9","6999","List1B","white","man","","","","","{""Q0"":""luke is shouting at ruth""}","<img src=""stim_listB/shout3.gif""style=""height:400px;""></stim_listB>","is shouting at","","","","","",""
"null","<div style=""font-size:60px;"">+</div>","","html-keyboard-response","266","1652076","0.0-17.0-0.10","6999","List1B","white","man","","","","null","","","","","","","","",""
"null","<img src=""stim_listB/greet3.gif""style=""height:400px;""></stim_listB>","","html-keyboard-response","267","1654083","0.0-17.0-1.10","6999","List1B","white","man","","","","null","","","","","","","","",""
"null","is greeting","","html-keyboard-response","268","1656090","0.0-17.0-2.10","6999","List1B","white","man","","","","null","","","","","","","","",""
"8562","","","survey-text","269","1664660","0.0-17.0-3.10","6999","List1B","white","man","","","","","{""Q0"":""ruth is greeting dave""}","<img src=""stim_listB/greet3.gif""style=""height:400px;""></stim_listB>","is greeting","","","","","",""
"null","<div style=""font-size:60px;"">+</div>","","html-keyboard-response","270","1665164","0.0-17.0-0.11","6999","List1B","white","man","","","","null","","","","","","","","",""
"null","<img src=""stim_listB/greet5.gif""style=""height:400px;""></stim_listB>","","html-keyboard-response","271","1667166","0.0-17.0-1.11","6999","List1B","white","man","","","","null","","","","","","","","",""
"null","is greeting","","html-keyboard-response","272","1669177","0.0-17.0-2.11","6999","List1B","white","man","","","","null","","","","","","","","",""
"8820","","","survey-text","273","1677997","0.0-17.0-3.11","6999","List1B","white","man","","","","","{""Q0"":""luke is greeting mike""}","<img src=""stim_listB/greet5.gif""style=""height:400px;""></stim_listB>","is greeting","","","","","",""
"null","<div style=""font-size:60px;"">+</div>","","html-keyboard-response","274","1678501","0.0-17.0-0.12","6999","List1B","white","man","","","","null","","","","","","","","",""
"null","<img src=""stim_listB/look5.gif""style=""height:400px;""></stim_listB>","","html-keyboard-response","275","1680504","0.0-17.0-1.12","6999","List1B","white","man","","","","null","","","","","","","","",""
"null","is looking at","","html-keyboard-response","276","1682513","0.0-17.0-2.12","6999","List1B","white","man","","","","null","","","","","","","","",""
"10754","","","survey-text","277","1693267","0.0-17.0-3.12","6999","List1B","white","man","","","","","{""Q0"":""luke is looking at fred""}","<img src=""stim_listB/look5.gif""style=""height:400px;""></stim_listB>","is looking at","","","","","",""
"null","<div style=""font-size:60px;"">+</div>","","html-keyboard-response","278","1693773","0.0-17.0-0.13","6999","List1B","white","man","","","","null","","","","","","","","",""
"null","<img src=""stim_listB/kiss5.gif""style=""height:400px;""></stim_listB>","","html-keyboard-response","279","1695785","0.0-17.0-1.13","6999","List1B","white","man","","","","null","","","","","","","","",""
"null","is kissing","","html-keyboard-response","280","1697795","0.0-17.0-2.13","6999","List1B","white","man","","","","null","","","","","","","","",""
"11076","","","survey-text","281","1708871","0.0-17.0-3.13","6999","List1B","white","man","","","","","{""Q0"":""luke is kissing fred""}","<img src=""stim_listB/kiss5.gif""style=""height:400px;""></stim_listB>","is kissing","","","","","",""
"null","<div style=""font-size:60px;"">+</div>","","html-keyboard-response","282","1709384","0.0-17.0-0.14","6999","List1B","white","man","","","","null","","","","","","","","",""
"null","<img src=""stim_listB/touch3.gif""style=""height:400px;""></stim_listB>","","html-keyboard-response","283","1711391","0.0-17.0-1.14","6999","List1B","white","man","","","","null","","","","","","","","",""
"null","is touching","","html-keyboard-response","284","1713399","0.0-17.0-2.14","6999","List1B","white","man","","","","null","","","","","","","","",""
"12092","","","survey-text","285","1725491","0.0-17.0-3.14","6999","List1B","white","man","","","","","{""Q0"":""dave is touching jane""}","<img src=""stim_listB/touch3.gif""style=""height:400px;""></stim_listB>","is touching","","","","","",""
"null","<div style=""font-size:60px;"">+</div>","","html-keyboard-response","286","1726007","0.0-17.0-0.15","6999","List1B","white","man","","","","null","","","","","","","","",""
"null","<img src=""stim_listB/shout8.gif""style=""height:400px;""></stim_listB>","","html-keyboard-response","287","1728018","0.0-17.0-1.15","6999","List1B","white","man","","","","null","","","","","","","","",""
"null","is being shouted at by","","html-keyboard-response","288","1730025","0.0-17.0-2.15","6999","List1B","white","man","","","","null","","","","","","","","",""
"11559","","","survey-text","289","1741584","0.0-17.0-3.15","6999","List1B","white","man","","","","","{""Q0"":""jane is being shouted at by kate""}","<img src=""stim_listB/shout8.gif""style=""height:400px;""></stim_listB>","is being shouted at by","","","","","",""
"null","<div style=""font-size:60px;"">+</div>","","html-keyboard-response","290","1742096","0.0-17.0-0.16","6999","List1B","white","man","","","","null","","","","","","","","",""
"null","<img src=""stim_listB/copy2.gif""style=""height:400px;""></stim_listB>","","html-keyboard-response","291","1744098","0.0-17.0-1.16","6999","List1B","white","man","","","","null","","","","","","","","",""
"null","is being copied by","","html-keyboard-response","292","1746105","0.0-17.0-2.16","6999","List1B","white","man","","","","null","","","","","","","","",""
"11895","","","survey-text","293","1758000","0.0-17.0-3.16","6999","List1B","white","man","","","","","{""Q0"":""fred is being copied by kate""}","<img src=""stim_listB/copy2.gif""style=""height:400px;""></stim_listB>","is being copied by","","","","","",""
"null","<div style=""font-size:60px;"">+</div>","","html-keyboard-response","294","1758507","0.0-17.0-0.17","6999","List1B","white","man","","","","null","","","","","","","","",""
"null","<img src=""stim_listB/seduce6.gif""style=""height:400px;""></stim_listB>","","html-keyboard-response","295","1760520","0.0-17.0-1.17","6999","List1B","white","man","","","","null","","","","","","","","",""
"null","is being seduced by","","html-keyboard-response","296","1762530","0.0-17.0-2.17","6999","List1B","white","man","","","","null","","","","","","","","",""
"9826","","","survey-text","297","1772356","0.0-17.0-3.17","6999","List1B","white","man","","","","","{""Q0"":""luke is being seduced by mike""}","<img src=""stim_listB/seduce6.gif""style=""height:400px;""></stim_listB>","is being seduced by","","","","","",""
"null","<div style=""font-size:60px;"">+</div>","","html-keyboard-response","298","1772859","0.0-17.0-0.18","6999","List1B","white","man","","","","null","","","","","","","","",""
"null","<img src=""stim_listB/oppose7.gif""style=""height:400px;""></stim_listB>","","html-keyboard-response","299","1774869","0.0-17.0-1.18","6999","List1B","white","man","","","","null","","","","","","","","",""
"null","is opposing","","html-keyboard-response","300","1776874","0.0-17.0-2.18","6999","List1B","white","man","","","","null","","","","","","","","",""
"8671","","","survey-text","301","1785545","0.0-17.0-3.18","6999","List1B","white","man","","","","","{""Q0"":""kate is opposing jane""}","<img src=""stim_listB/oppose7.gif""style=""height:400px;""></stim_listB>","is opposing","","","","","",""
"null","<div style=""font-size:60px;"">+</div>","","html-keyboard-response","302","1786061","0.0-17.0-0.19","6999","List1B","white","man","","","","null","","","","","","","","",""
"null","<img src=""stim_listB/copy5.gif""style=""height:400px;""></stim_listB>","","html-keyboard-response","303","1788063","0.0-17.0-1.19","6999","List1B","white","man","","","","null","","","","","","","","",""
"null","is copying","","html-keyboard-response","304","1790070","0.0-17.0-2.19","6999","List1B","white","man","","","","null","","","","","","","","",""
"8604","","","survey-text","305","1798674","0.0-17.0-3.19","6999","List1B","white","man","","","","","{""Q0"":""luke is copying mike""}","<img src=""stim_listB/copy5.gif""style=""height:400px;""></stim_listB>","is copying","","","","","",""
"5115","<img src='img/portrait_matrix_list1.jpg' style='width:900px;height:500px;''></img><p>If you have memorised all the portraits and names and are ready to start, press Continue.</p><p><strong>Please note: Your memory of these faces will be tested 4 times during this experiment.</strong></p>","0","html-button-response","306","1803789","0.0-18.0-0.0","6999","List1B","white","man","","","","","","","","","","","","",""
"5656","<img src=""portrait/WM1.jpg""style=""height:400px;""></img>","6","html-button-response","307","1810452","0.0-18.0-1.0","6999","List1B","white","man","","true","6","","","","","","","","","",""
"null","CORRECT","","html-keyboard-response","308","1811957","0.0-18.0-2.0-0.0","6999","List1B","white","man","","","","null","","","","","","","","",""
"2689","<img src=""portrait/BM1.jpg""style=""height:400px;""></img>","4","html-button-response","309","1814646","0.0-18.0-4.0","6999","List1B","white","man","","true","4","","","","","","","","","",""
"null","CORRECT","","html-keyboard-response","310","1816162","0.0-18.0-5.0-0.0","6999","List1B","white","man","","","","null","","","","","","","","",""
"2495","<img src=""portrait/WM2.jpg""style=""height:400px;""></img>","7","html-button-response","311","1818657","0.0-18.0-7.0","6999","List1B","white","man","","true","7","","","","","","","","","",""
"null","CORRECT","","html-keyboard-response","312","1820161","0.0-18.0-8.0-0.0","6999","List1B","white","man","","","","null","","","","","","","","",""
"8038","<img src=""portrait/WW1.jpg""style=""height:400px;""></img>","1","html-button-response","313","1828199","0.0-18.0-10.0","6999","List1B","white","man","","true","1","","","","","","","","","",""
"null","CORRECT","","html-keyboard-response","314","1829716","0.0-18.0-11.0-0.0","6999","List1B","white","man","","","","null","","","","","","","","",""
"2142","<img src=""portrait/BM2.jpg""style=""height:400px;""></img>","5","html-button-response","315","1831858","0.0-18.0-13.0","6999","List1B","white","man","","true","5","","","","","","","","","",""
"null","CORRECT","","html-keyboard-response","316","1833372","0.0-18.0-14.0-0.0","6999","List1B","white","man","","","","null","","","","","","","","",""
"4094","<img src=""portrait/BW1.jpg""style=""height:400px;""></img>","0","html-button-response","317","1837466","0.0-18.0-16.0","6999","List1B","white","man","","true","0","","","","","","","","","",""
"null","CORRECT","","html-keyboard-response","318","1838974","0.0-18.0-17.0-0.0","6999","List1B","white","man","","","","null","","","","","","","","",""
"1741","<img src=""portrait/WW2.jpg""style=""height:400px;""></img>","3","html-button-response","319","1840715","0.0-18.0-19.0","6999","List1B","white","man","","true","3","","","","","","","","","",""
"null","CORRECT","","html-keyboard-response","320","1842224","0.0-18.0-20.0-0.0","6999","List1B","white","man","","","","null","","","","","","","","",""
"2595","<img src=""portrait/BW2.jpg""style=""height:400px;""></img>","2","html-button-response","321","1844819","0.0-18.0-22.0","6999","List1B","white","man","","true","2","","","","","","","","","",""
"null","CORRECT","","html-keyboard-response","322","1846335","0.0-18.0-23.0-0.0","6999","List1B","white","man","","","","null","","","","","","","","",""
"2433","<p>You got 8 out of 8 right first time. Press Continue.</p>","0","html-button-response","323","1848768","0.0-18.0-25.0","6999","List1B","white","man","","","","","","","","","","","","",""
"null","<div style=""font-size:60px;"">+</div>","","html-keyboard-response","324","1850271","0.0-19.0-0.0","6999","List1B","white","man","","","","null","","","","","","","","",""
"null","<img src=""stim_listB/seduce3.gif""style=""height:400px;""></stim_listB>","","html-keyboard-response","325","1852280","0.0-19.0-1.0","6999","List1B","white","man","","","","null","","","","","","","","",""
"null","is seducing","","html-keyboard-response","326","1854286","0.0-19.0-2.0","6999","List1B","white","man","","","","null","","","","","","","","",""
"15438","","","survey-text","327","1869724","0.0-19.0-3.0","6999","List1B","white","man","","","","","{""Q0"":""luke is seducing jane""}","<img src=""stim_listB/seduce3.gif""style=""height:400px;""></stim_listB>","is seducing","","","","","",""
"null","<div style=""font-size:60px;"">+</div>","","html-keyboard-response","328","1870227","0.0-19.0-0.1","6999","List1B","white","man","","","","null","","","","","","","","",""
"null","<img src=""stim_listB/hug6.gif""style=""height:400px;""></stim_listB>","","html-keyboard-response","329","1872242","0.0-19.0-1.1","6999","List1B","white","man","","","","null","","","","","","","","",""
"null","is being hugged by","","html-keyboard-response","330","1874244","0.0-19.0-2.1","6999","List1B","white","man","","","","null","","","","","","","","",""
"9099","","","survey-text","331","1883343","0.0-19.0-3.1","6999","List1B","white","man","","","","","{""Q0"":""dave is being hugged by mike""}","<img src=""stim_listB/hug6.gif""style=""height:400px;""></stim_listB>","is being hugged by","","","","","",""
"null","<div style=""font-size:60px;"">+</div>","","html-keyboard-response","332","1883865","0.0-19.0-0.2","6999","List1B","white","man","","","","null","","","","","","","","",""
"null","<img src=""stim_listB/look6.gif""style=""height:400px;""></stim_listB>","","html-keyboard-response","333","1885875","0.0-19.0-1.2","6999","List1B","white","man","","","","null","","","","","","","","",""
"null","is being looked at by","","html-keyboard-response","334","1887882","0.0-19.0-2.2","6999","List1B","white","man","","","","null","","","","","","","","",""
"11515","","","survey-text","335","1899397","0.0-19.0-3.2","6999","List1B","white","man","","","","","{""Q0"":""dave is being looked at by mike""}","<img src=""stim_listB/look6.gif""style=""height:400px;""></stim_listB>","is being looked at by","","","","","",""
"null","<div style=""font-size:60px;"">+</div>","","html-keyboard-response","336","1899898","0.0-19.0-0.3","6999","List1B","white","man","","","","null","","","","","","","","",""
"null","<img src=""stim_listB/copy7.gif""style=""height:400px;""></stim_listB>","","html-keyboard-response","337","1901917","0.0-19.0-1.3","6999","List1B","white","man","","","","null","","","","","","","","",""
"null","is copying","","html-keyboard-response","338","1903923","0.0-19.0-2.3","6999","List1B","white","man","","","","null","","","","","","","","",""
"14974","","","survey-text","339","1918912","0.0-19.0-3.3","6999","List1B","white","man","","","","","{""Q0"":""ruth is copying kate""}","<img src=""stim_listB/copy7.gif""style=""height:400px;""></stim_listB>","is copying","","","","","",""
"null","<div style=""font-size:60px;"">+</div>","","html-keyboard-response","340","1919417","0.0-19.0-0.4","6999","List1B","white","man","","","","null","","","","","","","","",""
"null","<img src=""stim_listB/touch2.gif""style=""height:400px;""></stim_listB>","","html-keyboard-response","341","1921427","0.0-19.0-1.4","6999","List1B","white","man","","","","null","","","","","","","","",""
"null","is being touched by","","html-keyboard-response","342","1923434","0.0-19.0-2.4","6999","List1B","white","man","","","","null","","","","","","","","",""
"106746","","","survey-text","343","2030188","0.0-19.0-3.4","6999","List1B","white","man","","","","","{""Q0"":""dave is copying mike""}","<img src=""stim_listB/touch2.gif""style=""height:400px;""></stim_listB>","is being touched by","","","","","",""
"null","<div style=""font-size:60px;"">+</div>","","html-keyboard-response","344","2030701","0.0-19.0-0.5","6999","List1B","white","man","","","","null","","","","","","","","",""
"null","<img src=""stim_listB/seduce2.gif""style=""height:400px;""></stim_listB>","","html-keyboard-response","345","2032705","0.0-19.0-1.5","6999","List1B","white","man","","","","null","","","","","","","","",""
"null","is being seduced by","","html-keyboard-response","346","2034707","0.0-19.0-2.5","6999","List1B","white","man","","","","null","","","","","","","","",""
"11370","","","survey-text","347","2046077","0.0-19.0-3.5","6999","List1B","white","man","","","","","{""Q0"":""beth is being seduced by mike""}","<img src=""stim_listB/seduce2.gif""style=""height:400px;""></stim_listB>","is being seduced by","","","","","",""
"null","<div style=""font-size:60px;"">+</div>","","html-keyboard-response","348","2046587","0.0-19.0-0.6","6999","List1B","white","man","","","","null","","","","","","","","",""
"null","<img src=""stim_listB/greet7.gif""style=""height:400px;""></stim_listB>","","html-keyboard-response","349","2048588","0.0-19.0-1.6","6999","List1B","white","man","","","","null","","","","","","","","",""
"null","is greeting","","html-keyboard-response","350","2050591","0.0-19.0-2.6","6999","List1B","white","man","","","","null","","","","","","","","",""
"17499","","","survey-text","351","2068090","0.0-19.0-3.6","6999","List1B","white","man","","","","","{""Q0"":""kate is greeting ruth""}","<img src=""stim_listB/greet7.gif""style=""height:400px;""></stim_listB>","is greeting","","","","","",""
"null","<div style=""font-size:60px;"">+</div>","","html-keyboard-response","352","2068593","0.0-19.0-0.7","6999","List1B","white","man","","","","null","","","","","","","","",""
"null","<img src=""stim_listB/touch1.gif""style=""height:400px;""></stim_listB>","","html-keyboard-response","353","2070604","0.0-19.0-1.7","6999","List1B","white","man","","","","null","","","","","","","","",""
"null","is touching","","html-keyboard-response","354","2072606","0.0-19.0-2.7","6999","List1B","white","man","","","","null","","","","","","","","",""
"11701","","","survey-text","355","2084307","0.0-19.0-3.7","6999","List1B","white","man","","","","","{""Q0"":""mike is touching kate ""}","<img src=""stim_listB/touch1.gif""style=""height:400px;""></stim_listB>","is touching","","","","","",""
"null","<div style=""font-size:60px;"">+</div>","","html-keyboard-response","356","2084809","0.0-19.0-0.8","6999","List1B","white","man","","","","null","","","","","","","","",""
"null","<img src=""stim_listB/challenge1.gif""style=""height:400px;""></stim_listB>","","html-keyboard-response","357","2086824","0.0-19.0-1.8","6999","List1B","white","man","","","","null","","","","","","","","",""
"null","is challenging","","html-keyboard-response","358","2088826","0.0-19.0-2.8","6999","List1B","white","man","","","","null","","","","","","","","",""
"9196","","","survey-text","359","2098022","0.0-19.0-3.8","6999","List1B","white","man","","","","","{""Q0"":""mike is challenging beth""}","<img src=""stim_listB/challenge1.gif""style=""height:400px;""></stim_listB>","is challenging","","","","","",""
"null","<div style=""font-size:60px;"">+</div>","","html-keyboard-response","360","2098524","0.0-19.0-0.9","6999","List1B","white","man","","","","null","","","","","","","","",""
"null","<img src=""stim_listB/kiss1.gif""style=""height:400px;""></stim_listB>","","html-keyboard-response","361","2100540","0.0-19.0-1.9","6999","List1B","white","man","","","","null","","","","","","","","",""
"null","is kissing","","html-keyboard-response","362","2102542","0.0-19.0-2.9","6999","List1B","white","man","","","","null","","","","","","","","",""
"10866","","","survey-text","363","2113408","0.0-19.0-3.9","6999","List1B","white","man","","","","","{""Q0"":""fred is kissing beth""}","<img src=""stim_listB/kiss1.gif""style=""height:400px;""></stim_listB>","is kissing","","","","","",""
"null","<div style=""font-size:60px;"">+</div>","","html-keyboard-response","364","2113911","0.0-19.0-0.10","6999","List1B","white","man","","","","null","","","","","","","","",""
"null","<img src=""stim_listB/shout6.gif""style=""height:400px;""></stim_listB>","","html-keyboard-response","365","2115920","0.0-19.0-1.10","6999","List1B","white","man","","","","null","","","","","","","","",""
"null","is being shouted at by","","html-keyboard-response","366","2117922","0.0-19.0-2.10","6999","List1B","white","man","","","","null","","","","","","","","",""
"16355","","","survey-text","367","2134277","0.0-19.0-3.10","6999","List1B","white","man","","","","","{""Q0"":""dave is being shouted at by mike""}","<img src=""stim_listB/shout6.gif""style=""height:400px;""></stim_listB>","is being shouted at by","","","","","",""
"null","<div style=""font-size:60px;"">+</div>","","html-keyboard-response","368","2134779","0.0-19.0-0.11","6999","List1B","white","man","","","","null","","","","","","","","",""
"null","<img src=""stim_listB/kiss7.gif""style=""height:400px;""></stim_listB>","","html-keyboard-response","369","2136789","0.0-19.0-1.11","6999","List1B","white","man","","","","null","","","","","","","","",""
"null","is kissing","","html-keyboard-response","370","2138791","0.0-19.0-2.11","6999","List1B","white","man","","","","null","","","","","","","","",""
"8762","","","survey-text","371","2147553","0.0-19.0-3.11","6999","List1B","white","man","","","","","{""Q0"":""beth is kissing ruth""}","<img src=""stim_listB/kiss7.gif""style=""height:400px;""></stim_listB>","is kissing","","","","","",""
"null","<div style=""font-size:60px;"">+</div>","","html-keyboard-response","372","2148063","0.0-19.0-0.12","6999","List1B","white","man","","","","null","","","","","","","","",""
"null","<img src=""stim_listB/touch4.gif""style=""height:400px;""></stim_listB>","","html-keyboard-response","373","2150073","0.0-19.0-1.12","6999","List1B","white","man","","","","null","","","","","","","","",""
"null","is being touched by","","html-keyboard-response","374","2152075","0.0-19.0-2.12","6999","List1B","white","man","","","","null","","","","","","","","",""
"13720","","","survey-text","375","2165795","0.0-19.0-3.12","6999","List1B","white","man","","","","","{""Q0"":""ruth is being touched by luke""}","<img src=""stim_listB/touch4.gif""style=""height:400px;""></stim_listB>","is being touched by","","","","","",""
"null","<div style=""font-size:60px;"">+</div>","","html-keyboard-response","376","2166298","0.0-19.0-0.13","6999","List1B","white","man","","","","null","","","","","","","","",""
"null","<img src=""stim_listB/hug3.gif""style=""height:400px;""></stim_listB>","","html-keyboard-response","377","2168306","0.0-19.0-1.13","6999","List1B","white","man","","","","null","","","","","","","","",""
"null","is hugging","","html-keyboard-response","378","2170308","0.0-19.0-2.13","6999","List1B","white","man","","","","null","","","","","","","","",""
"11041","","","survey-text","379","2181349","0.0-19.0-3.13","6999","List1B","white","man","","","","","{""Q0"":""ruth is hugging luke""}","<img src=""stim_listB/hug3.gif""style=""height:400px;""></stim_listB>","is hugging","","","","","",""
"null","<div style=""font-size:60px;"">+</div>","","html-keyboard-response","380","2181859","0.0-19.0-0.14","6999","List1B","white","man","","","","null","","","","","","","","",""
"null","<img src=""stim_listB/hug8.gif""style=""height:400px;""></stim_listB>","","html-keyboard-response","381","2183860","0.0-19.0-1.14","6999","List1B","white","man","","","","null","","","","","","","","",""
"null","is being hugged by","","html-keyboard-response","382","2185862","0.0-19.0-2.14","6999","List1B","white","man","","","","null","","","","","","","","",""
"10095","","","survey-text","383","2195957","0.0-19.0-3.14","6999","List1B","white","man","","","","","{""Q0"":""kate is being hugged by jane""}","<img src=""stim_listB/hug8.gif""style=""height:400px;""></stim_listB>","is being hugged by","","","","","",""
"null","<div style=""font-size:60px;"">+</div>","","html-keyboard-response","384","2196459","0.0-19.0-0.15","6999","List1B","white","man","","","","null","","","","","","","","",""
"null","<img src=""stim_listB/copy8.gif""style=""height:400px;""></stim_listB>","","html-keyboard-response","385","2198465","0.0-19.0-1.15","6999","List1B","white","man","","","","null","","","","","","","","",""
"null","is being copied by","","html-keyboard-response","386","2200467","0.0-19.0-2.15","6999","List1B","white","man","","","","null","","","","","","","","",""
"15077","","","survey-text","387","2215560","0.0-19.0-3.15","6999","List1B","white","man","","","","","{""Q0"":""beth is being copied by jane""}","<img src=""stim_listB/copy8.gif""style=""height:400px;""></stim_listB>","is being copied by","","","","","",""
"null","<div style=""font-size:60px;"">+</div>","","html-keyboard-response","388","2216065","0.0-19.0-0.16","6999","List1B","white","man","","","","null","","","","","","","","",""
"null","<img src=""stim_listB/challenge3.gif""style=""height:400px;""></stim_listB>","","html-keyboard-response","389","2218076","0.0-19.0-1.16","6999","List1B","white","man","","","","null","","","","","","","","",""
"null","is challenging","","html-keyboard-response","390","2220078","0.0-19.0-2.16","6999","List1B","white","man","","","","null","","","","","","","","",""
"11976","","","survey-text","391","2232070","0.0-19.0-3.16","6999","List1B","white","man","","","","","{""Q0"":""ruth is challenging dave""}","<img src=""stim_listB/challenge3.gif""style=""height:400px;""></stim_listB>","is challenging","","","","","",""
"null","<div style=""font-size:60px;"">+</div>","","html-keyboard-response","392","2232575","0.0-19.0-0.17","6999","List1B","white","man","","","","null","","","","","","","","",""
"null","<img src=""stim_listB/greet1.gif""style=""height:400px;""></stim_listB>","","html-keyboard-response","393","2234591","0.0-19.0-1.17","6999","List1B","white","man","","","","null","","","","","","","","",""
"null","is greeting","","html-keyboard-response","394","2236593","0.0-19.0-2.17","6999","List1B","white","man","","","","null","","","","","","","","",""
"7426","","","survey-text","395","2244019","0.0-19.0-3.17","6999","List1B","white","man","","","","","{""Q0"":""mike is greeting beth""}","<img src=""stim_listB/greet1.gif""style=""height:400px;""></stim_listB>","is greeting","","","","","",""
"null","<div style=""font-size:60px;"">+</div>","","html-keyboard-response","396","2244528","0.0-19.0-0.18","6999","List1B","white","man","","","","null","","","","","","","","",""
"null","<img src=""stim_listB/look3.gif""style=""height:400px;""></stim_listB>","","html-keyboard-response","397","2246541","0.0-19.0-1.18","6999","List1B","white","man","","","","null","","","","","","","","",""
"null","is looking at","","html-keyboard-response","398","2248551","0.0-19.0-2.18","6999","List1B","white","man","","","","null","","","","","","","","",""
"8631","","","survey-text","399","2257182","0.0-19.0-3.18","6999","List1B","white","man","","","","","{""Q0"":""ruth is looking at luke""}","<img src=""stim_listB/look3.gif""style=""height:400px;""></stim_listB>","is looking at","","","","","",""
"null","<div style=""font-size:60px;"">+</div>","","html-keyboard-response","400","2257685","0.0-19.0-0.19","6999","List1B","white","man","","","","null","","","","","","","","",""
"null","<img src=""stim_listB/challenge2.gif""style=""height:400px;""></stim_listB>","","html-keyboard-response","401","2259692","0.0-19.0-1.19","6999","List1B","white","man","","","","null","","","","","","","","",""
"null","is being challenged by","","html-keyboard-response","402","2261708","0.0-19.0-2.19","6999","List1B","white","man","","","","null","","","","","","","","",""
"15264","","","survey-text","403","2276972","0.0-19.0-3.19","6999","List1B","white","man","","","","","{""Q0"":""fred is being challenged by kate""}","<img src=""stim_listB/challenge2.gif""style=""height:400px;""></stim_listB>","is being challenged by","","","","","",""
"2556","<p>Thank you for completing that task.</p><p>The final part of this session is a questionnaire that will take about 4 minutes.</p><p>Press Continue.</p>","0","html-button-response","404","2279528","0.0-20.0","6999","List1B","white","man","","","","","","","","","","","","",""
"86679","","","survey-text","405","2367213","0.0-21.0","6999","List1B","white","man","","","","","{""Q0"":""27"",""Q1"":""English"",""Q2"":""English"",""Q3"":""United States of America"",""Q4"":""American"",""Q5"":""Caucasian "",""Q6"":""Male""}","","","demographics","","","","",""
"4630","<p>Have you lived in the USA for the last 5 years or more?</p>","0","html-button-response","406","2371843","0.0-22.0","6999","List1B","white","man","","","","","","","","fiveyears","","","","",""
"3501","<p>Move the slider to show the extent to which you agree with the following statements.</p>","0","html-button-response","407","2376350","0.0-23.0","6999","List1B","white","man","","","","","","","","","","","","",""
"11352","","","html-slider-response","408","2388707","0.0-24.0-0.0-0.0","6999","List1B","white","man","","","","","","","","survey_gender","80","","","People of my gender have a lot in common with each other.","common"
"5992","","","html-slider-response","409","2394699","0.0-24.0-0.0-0.1","6999","List1B","white","man","","","","","","","","survey_gender","69","","","I am glad to have the friends that I have.","filler"
"5426","","","html-slider-response","410","2400125","0.0-24.0-0.0-0.2","6999","List1B","white","man","","","","","","","","survey_gender","37","","","I am similar to the average person of my gender.","similar"
"6182","","","html-slider-response","411","2406315","0.0-24.0-0.0-0.3","6999","List1B","white","man","","","","","","","","survey_gender","86","","","It is not always easy for people to know what I am thinking.","filler"
"4412","","","html-slider-response","412","2410727","0.0-24.0-0.0-0.4","6999","List1B","white","man","","","","","","","","survey_gender","88","","","Being my gender gives me a good feeling.","feeling"
"5706","","","html-slider-response","413","2416451","0.0-24.0-0.0-0.5","6999","List1B","white","man","","","","","","","","survey_gender","43","","","I often think about the fact that I am my gender.","often"
"4286","","","html-slider-response","414","2420737","0.0-24.0-0.0-0.6","6999","List1B","white","man","","","","","","","","survey_gender","83","","","I feel committed to my gender.","committed"
"3832","","","html-slider-response","415","2424575","0.0-24.0-0.0-0.7","6999","List1B","white","man","","","","","","","","survey_gender","66","","","I consider myself a highly empathetic person.","filler"
"5585","","","html-slider-response","416","2430160","0.0-24.0-0.0-0.8","6999","List1B","white","man","","","","","","","","survey_gender","67","","","People of my gender are very similar to each other.","verysimilar"
"3735","","","html-slider-response","417","2433903","0.0-24.0-0.0-0.9","6999","List1B","white","man","","","","","","","","survey_gender","66","","","My friends have a lot in common with each other.","filler"
"2824","","","html-slider-response","418","2436727","0.0-24.0-0.0-0.10","6999","List1B","white","man","","","","","","","","survey_gender","57","","","I am glad to be my gender.","glad"
"5097","","","html-slider-response","419","2441824","0.0-24.0-0.0-0.11","6999","List1B","white","man","","","","","","","","survey_gender","67","","","Routine is not important to me.","filler"
"4375","","","html-slider-response","420","2446199","0.0-24.0-0.0-0.12","6999","List1B","white","man","","","","","","","","survey_gender","44","","","I have a lot in common with the average person of my gender.","average"
"3975","","","html-slider-response","421","2450174","0.0-24.0-0.0-0.13","6999","List1B","white","man","","","","","","","","survey_gender","93","","","The fact that I am my gender is an important part of my identity.","identity"
"3790","","","html-slider-response","422","2453964","0.0-24.0-0.0-0.14","6999","List1B","white","man","","","","","","","","survey_gender","87","","","Being my gender is an important part of how I see myself.","important"
"4375","","","html-slider-response","423","2458339","0.0-24.0-0.0-0.15","6999","List1B","white","man","","","","","","","","survey_gender","93","","","I think that my gender has a lot to be proud of.","proud"
"4337","","","html-slider-response","424","2462676","0.0-24.0-0.0-0.16","6999","List1B","white","man","","","","","","","","survey_gender","76","","","I feel solidarity with my friends.","filler"
"4727","","","html-slider-response","425","2467403","0.0-24.0-0.0-0.17","6999","List1B","white","man","","","","","","","","survey_gender","82","","","I feel a bond with my gender.","bond"
"4119","","","html-slider-response","426","2471522","0.0-24.0-0.0-0.18","6999","List1B","white","man","","","","","","","","survey_gender","73","","","I often think about my actions.","filler"
"3621","","","html-slider-response","427","2475143","0.0-24.0-0.0-0.19","6999","List1B","white","man","","","","","","","","survey_gender","74","","","I have a lot in common with my friends.","filler"
"6111","","","html-slider-response","428","2481254","0.0-24.0-0.0-0.20","6999","List1B","white","man","","","","","","","","survey_gender","45","","","Family is not more important to me than friendship.","filler"
"3086","","","html-slider-response","429","2484340","0.0-24.0-0.0-0.21","6999","List1B","white","man","","","","","","","","survey_gender","67","","","I feel a bond with my friends.","filler"
"2990","","","html-slider-response","430","2487330","0.0-24.0-0.0-0.22","6999","List1B","white","man","","","","","","","","survey_gender","74","","","It is pleasant to be my gender.","pleasant"
"3609","","","html-slider-response","431","2490939","0.0-24.0-0.0-0.23","6999","List1B","white","man","","","","","","","","survey_gender","66","","","Most of the friends in my life are very similar to me.","filler"
"2507","","","html-slider-response","432","2493446","0.0-24.0-0.0-0.24","6999","List1B","white","man","","","","","","","","survey_gender","67","","","I feel solidarity with my gender.","solidarity"
"7837","","","html-slider-response","433","2501291","0.0-24.0-0.0-0.25","6999","List1B","white","man","","","","","","","","survey_gender","27","","","I would say I am an animal person.","filler"
"3876","","","html-slider-response","434","2505167","0.0-24.0-0.0-0.26","6999","List1B","white","man","","","","","","","","survey_gender","51","","","Being around my friends gives me a good feeling.","filler"
"3499","","","html-slider-response","435","2508666","0.0-24.0-0.0-0.27","6999","List1B","white","man","","","","","","","","survey_gender","68","","","My friends understand me.","filler"
"3039","","","html-slider-response","436","2511705","0.0-24.0-1.0-0.0","6999","List1B","white","man","","","","","","","","survey_race","78","","","It is pleasant to be my race.","pleasant"
"5089","","","html-slider-response","437","2516794","0.0-24.0-1.0-0.1","6999","List1B","white","man","","","","","","","","survey_race","64","","","My age is not an important part of who I am.","filler"
"3911","","","html-slider-response","438","2520705","0.0-24.0-1.0-0.2","6999","List1B","white","man","","","","","","","","survey_race","41","","","I enjoy being in large groups.","filler"
"3976","","","html-slider-response","439","2524681","0.0-24.0-1.0-0.3","6999","List1B","white","man","","","","","","","","survey_race","66","","","I have a lot in common with people of a similar age to me.","filler"
"3564","","","html-slider-response","440","2528245","0.0-24.0-1.0-0.4","6999","List1B","white","man","","","","","","","","survey_race","83","","","I think that my race has a lot to be proud of.","proud"
"4046","","","html-slider-response","441","2532299","0.0-24.0-1.0-0.5","6999","List1B","white","man","","","","","","","","survey_race","82","","","People of my race are very similar to each other.","verysimilar"
"3097","","","html-slider-response","442","2535396","0.0-24.0-1.0-0.6","6999","List1B","white","man","","","","","","","","survey_race","76","","","I am glad to be the age I am.","filler"
"3465","","","html-slider-response","443","2538861","0.0-24.0-1.0-0.7","6999","List1B","white","man","","","","","","","","survey_race","58","","","Being my age gives me a good feeling.","filler"
"4275","","","html-slider-response","444","2543136","0.0-24.0-1.0-0.8","6999","List1B","white","man","","","","","","","","survey_race","59","","","I often think about the fact that I am my race.","often"
"4801","","","html-slider-response","445","2547937","0.0-24.0-1.0-0.9","6999","List1B","white","man","","","","","","","","survey_race","52","","","I am similar to the average person of my race.","similar"
"3339","","","html-slider-response","446","2551276","0.0-24.0-1.0-0.10","6999","List1B","white","man","","","","","","","","survey_race","70","","","I feel solidarity with my race.","solidarity"
"4493","","","html-slider-response","447","2555769","0.0-24.0-1.0-0.11","6999","List1B","white","man","","","","","","","","survey_race","88","","","The older I get, the wiser I feel.","filler"
"5197","","","html-slider-response","448","2560974","0.0-24.0-1.0-0.12","6999","List1B","white","man","","","","","","","","survey_race","74","","","The fact that I am my race is an important part of my identity.","identity"
"2642","","","html-slider-response","449","2563623","0.0-24.0-1.0-0.13","6999","List1B","white","man","","","","","","","","survey_race","70","","","I am glad to be my age.","filler"
"2904","","","html-slider-response","450","2566527","0.0-24.0-1.0-0.14","6999","List1B","white","man","","","","","","","","survey_race","71","","","Being my race gives me a good feeling.","feeling"
"2791","","","html-slider-response","451","2569318","0.0-24.0-1.0-0.15","6999","List1B","white","man","","","","","","","","survey_race","35","","","I consider myself an extrovert.","filler"
"2764","","","html-slider-response","452","2572082","0.0-24.0-1.0-0.16","6999","List1B","white","man","","","","","","","","survey_race","71","","","I often think about the fact that I am my age.","filler"
"3679","","","html-slider-response","453","2575761","0.0-24.0-1.0-0.17","6999","List1B","white","man","","","","","","","","survey_race","74","","","People of my race have a lot in common with each other.","common"
"3304","","","html-slider-response","454","2579065","0.0-24.0-1.0-0.18","6999","List1B","white","man","","","","","","","","survey_race","76","","","I feel committed to my race.","committed"
"3379","","","html-slider-response","455","2582444","0.0-24.0-1.0-0.19","6999","List1B","white","man","","","","","","","","survey_race","72","","","I am glad to be my race.","glad"
"2683","","","html-slider-response","456","2585127","0.0-24.0-1.0-0.20","6999","List1B","white","man","","","","","","","","survey_race","71","","","I consider myself an introvert.","filler"
"2974","","","html-slider-response","457","2588101","0.0-24.0-1.0-0.21","6999","List1B","white","man","","","","","","","","survey_race","64","","","I feel a bond with my race.","bond"
"3891","","","html-slider-response","458","2591992","0.0-24.0-1.0-0.22","6999","List1B","white","man","","","","","","","","survey_race","78","","","I feel solidarity with people the same age as me.","filler"
"3256","","","html-slider-response","459","2595248","0.0-24.0-1.0-0.23","6999","List1B","white","man","","","","","","","","survey_race","69","","","People my age have a lot in common with each other.","filler"
"8549","","","html-slider-response","460","2603797","0.0-24.0-1.0-0.24","6999","List1B","white","man","","","","","","","","survey_race","65","","","I have a lot in common with the average person of my race.","average"
"3195","","","html-slider-response","461","2606992","0.0-24.0-1.0-0.25","6999","List1B","white","man","","","","","","","","survey_race","68","","","Getting older does not worry me.","filler"
"2795","","","html-slider-response","462","2609787","0.0-24.0-1.0-0.26","6999","List1B","white","man","","","","","","","","survey_race","68","","","Being my race is an important part of how I see myself.","important"
"2942","","","html-slider-response","463","2612729","0.0-24.0-1.0-0.27","6999","List1B","white","man","","","","","","","","survey_race","73","","","I feel a bond with people the same age as me.","filler"
"11459","","","survey-text","464","2624196","0.0-25.0","6999","List1B","white","man","","","","","{""Q0"":""6161fe7c48f62e65e5ef39a1""}","","","worker_id","","","","",""
"5035","","","external-html","465","2630841","0.0-26.0","6999","List1B","white","man","debrief.html","","","","","","","","","","","",""
