"rt","stimulus","button_pressed","trial_type","trial_index","time_elapsed","internal_node_id","subject","list","ppt_race","ppt_gender","url","first_guess","correct","key_press","responses","image_type","phrase_type","test_part","response","stimulus1","stimulus2","question_type","survey_item"
"3926.2999999998137","Welcome to the experiment. Press Continue to begin.","0","html-button-response","0","3928","0.0-0.0","70098","List2A","black","woman","","","","","","","","","","","","",""
"14555.099999999627","","","external-html","1","19617","0.0-1.0","70098","List2A","black","woman","consent.html","","","","","","","","","","","",""
"22127.299999999814","<p>On the next page, you will see portraits of 8 people and their names.</p><p>Your first task is to take a few minutes to memorise the names of these people.</p><p>You will have to recall their names during the rest of the experiment, so it is</p><p>essential that you try to memorise these people and their names as best as you can.</p><br><p><strong>You will then be tested on your memory of these names and portraits.</strong></p><br><p>The experiment will start after you have completed this memory test.</p><br><p>Ready?</p>","0","html-button-response","2","41745","0.0-2.0","70098","List2A","black","woman","","","","","","","","","","","","",""
"23770.299999999814","<img src='img/portrait_matrix_list2.jpg' style='width:900px;height:500px;''></img><p>If you have memorised all the portraits and names and are ready to start, press Continue.</p><p><strong>Please note: Your memory of these faces will be tested 4 times during this experiment.</strong></p>","0","html-button-response","3","66530","0.0-3.0-0.0","70098","List2A","black","woman","","","","","","","","","","","","",""
"6499.399999999907","<img src=""portrait/BM2.jpg""style=""height:400px;""></img>","5","html-button-response","4","74043","0.0-3.0-1.0","70098","List2A","black","woman","","true","5","","","","","","","","","",""
"null","CORRECT","","html-keyboard-response","5","75572","0.0-3.0-2.0-0.0","70098","List2A","black","woman","","","","null","","","","","","","","",""
"4277.100000000093","<img src=""portrait/BW2.jpg""style=""height:400px;""></img>","2","html-button-response","6","79850","0.0-3.0-4.0","70098","List2A","black","woman","","true","2","","","","","","","","","",""
"null","CORRECT","","html-keyboard-response","7","81377","0.0-3.0-5.0-0.0","70098","List2A","black","woman","","","","null","","","","","","","","",""
"4142.399999999907","<img src=""portrait/WM2.jpg""style=""height:400px;""></img>","7","html-button-response","8","85521","0.0-3.0-7.0","70098","List2A","black","woman","","true","7","","","","","","","","","",""
"null","CORRECT","","html-keyboard-response","9","87045","0.0-3.0-8.0-0.0","70098","List2A","black","woman","","","","null","","","","","","","","",""
"4166.200000000186","<img src=""portrait/BW1.jpg""style=""height:400px;""></img>","0","html-button-response","10","91212","0.0-3.0-10.0","70098","List2A","black","woman","","true","0","","","","","","","","","",""
"null","CORRECT","","html-keyboard-response","11","92735","0.0-3.0-11.0-0.0","70098","List2A","black","woman","","","","null","","","","","","","","",""
"6046.600000000093","<img src=""portrait/WM1.jpg""style=""height:400px;""></img>","6","html-button-response","12","98783","0.0-3.0-13.0","70098","List2A","black","woman","","true","6","","","","","","","","","",""
"null","CORRECT","","html-keyboard-response","13","100308","0.0-3.0-14.0-0.0","70098","List2A","black","woman","","","","null","","","","","","","","",""
"6842.600000000093","<img src=""portrait/WW1.jpg""style=""height:400px;""></img>","1","html-button-response","14","107152","0.0-3.0-16.0","70098","List2A","black","woman","","true","1","","","","","","","","","",""
"null","CORRECT","","html-keyboard-response","15","108664","0.0-3.0-17.0-0.0","70098","List2A","black","woman","","","","null","","","","","","","","",""
"3268.600000000093","<img src=""portrait/WW2.jpg""style=""height:400px;""></img>","3","html-button-response","16","111933","0.0-3.0-19.0","70098","List2A","black","woman","","true","3","","","","","","","","","",""
"null","CORRECT","","html-keyboard-response","17","113454","0.0-3.0-20.0-0.0","70098","List2A","black","woman","","","","null","","","","","","","","",""
"5296.600000000093","<img src=""portrait/BM1.jpg""style=""height:400px;""></img>","4","html-button-response","18","118752","0.0-3.0-22.0","70098","List2A","black","woman","","true","4","","","","","","","","","",""
"null","CORRECT","","html-keyboard-response","19","120278","0.0-3.0-23.0-0.0","70098","List2A","black","woman","","","","null","","","","","","","","",""
"2432.6999999997206","<p>You got 8 out of 8 right first time. Press Continue.</p>","0","html-button-response","20","122711","0.0-3.0-25.0","70098","List2A","black","woman","","","","","","","","","","","","",""
"25944","<p>In this experiment, you will view photographs of the people from the memory game interacting.</p><p>By using the <strong>exact</strong> phrase given <i>after</i> the photograph appears and recalling the correct names of the people in the photographs, form a sentence describing the interaction. You do not need to capitalise names.</p><p>Type your answer in the space provided. Please complete every sentence before moving onto the next trial.</p><p>You will only have a few seconds to memorise each given photograph and phrase before you can respond, so try your best to focus.</p><p>An example is given below. Press 'Continue' when you are ready.</p><img src='img/speaking_example.jpg' style='width:800px;height:460px;''></img>","0","html-button-response","21","149660","0.0-4.0","70098","List2A","black","woman","","","","","","","","","","","","",""
"2910.7999999998137","<p>Before the experiment starts, you will watch two example trials. Press 'Continue'.</p>","0","html-button-response","22","153583","0.0-5.0","70098","List2A","black","woman","","","","","","","","","","","","",""
"null","<img src='img/play_eg.gif' style='height:400px;''></img>","","html-keyboard-response","23","156599","0.0-6.0","70098","List2A","black","woman","","","","null","","","","","","","","",""
"null","<p>is playing with</p>","","html-keyboard-response","24","158602","0.0-7.0","70098","List2A","black","woman","","","","null","","","","","","","","",""
"2445","<p><b>Answer:</b> jane is playing with ruth</p>","0","html-button-response","25","161048","0.0-8.0","70098","List2A","black","woman","","","","","","","","","","","","",""
"null","<img src='img/dance_eg.gif' style='height:400px;''></img>","","html-keyboard-response","26","164061","0.0-9.0","70098","List2A","black","woman","","","","null","","","","","","","","",""
"null","<p>is being entertained by</p>","","html-keyboard-response","27","166071","0.0-10.0","70098","List2A","black","woman","","","","null","","","","","","","","",""
"3839.100000000093","<p><b>Answer:</b> fred is being entertained by mike</p>","0","html-button-response","28","169911","0.0-11.0","70098","List2A","black","woman","","","","","","","","","","","","",""
"5798.200000000186","<p>Ready to start the experiment?</p><br><p><strong>Remember to describe the picture using a full sentence,</strong></p><p><strong>that combines the names of the people with the <i>exact</i> phrase given.</strong></p><p><strong>To receive full payment you must do this correctly.</strong></p><p><strong> You do not need to capitalise names or use punctuation.</strong></p><br><p>Press 'Continue' to begin.</p>","0","html-button-response","29","176721","0.0-12.0","70098","List2A","black","woman","","","","","","","","","","","","",""
"null","<div style=""font-size:60px;"">+</div>","","html-keyboard-response","30","178246","0.0-13.0-0.0","70098","List2A","black","woman","","","","null","","","","","","","","",""
"null","<img src=""stim_listA/seduce8.gif""style=""height:400px;""></stim_listA>","","html-keyboard-response","31","180251","0.0-13.0-1.0","70098","List2A","black","woman","","","","null","","","","","","","","",""
"null","is being seduced by","","html-keyboard-response","32","182252","0.0-13.0-2.0","70098","List2A","black","woman","","","","null","","","","","","","","",""
"19785.19999999972","","","survey-text","33","202040","0.0-13.0-3.0","70098","List2A","black","woman","","","","","{""Q0"":""jane is being seduced by beth.""}","<img src=""stim_listA/seduce8.gif""style=""height:400px;""></stim_listA>","is being seduced by","","","","","",""
"null","<div style=""font-size:60px;"">+</div>","","html-keyboard-response","34","202556","0.0-13.0-0.1","70098","List2A","black","woman","","","","null","","","","","","","","",""
"null","<img src=""stim_listA/challenge8.gif""style=""height:400px;""></stim_listA>","","html-keyboard-response","35","204567","0.0-13.0-1.1","70098","List2A","black","woman","","","","null","","","","","","","","",""
"null","is being challenged by","","html-keyboard-response","36","206577","0.0-13.0-2.1","70098","List2A","black","woman","","","","null","","","","","","","","",""
"19318.599999999627","","","survey-text","37","225897","0.0-13.0-3.1","70098","List2A","black","woman","","","","","{""Q0"":""kate is being bothered by ruth.""}","<img src=""stim_listA/challenge8.gif""style=""height:400px;""></stim_listA>","is being challenged by","","","","","",""
"null","<div style=""font-size:60px;"">+</div>","","html-keyboard-response","38","226411","0.0-13.0-0.2","70098","List2A","black","woman","","","","null","","","","","","","","",""
"null","<img src=""stim_listA/seduce6.gif""style=""height:400px;""></stim_listA>","","html-keyboard-response","39","228420","0.0-13.0-1.2","70098","List2A","black","woman","","","","null","","","","","","","","",""
"null","is being seduced by","","html-keyboard-response","40","230422","0.0-13.0-2.2","70098","List2A","black","woman","","","","null","","","","","","","","",""
"13058.600000000093","","","survey-text","41","243482","0.0-13.0-3.2","70098","List2A","black","woman","","","","","{""Q0"":""fred is being seduced by dave.""}","<img src=""stim_listA/seduce6.gif""style=""height:400px;""></stim_listA>","is being seduced by","","","","","",""
"null","<div style=""font-size:60px;"">+</div>","","html-keyboard-response","42","243996","0.0-13.0-0.3","70098","List2A","black","woman","","","","null","","","","","","","","",""
"null","<img src=""stim_listA/oppose3.gif""style=""height:400px;""></stim_listA>","","html-keyboard-response","43","246008","0.0-13.0-1.3","70098","List2A","black","woman","","","","null","","","","","","","","",""
"null","is opposing","","html-keyboard-response","44","248021","0.0-13.0-2.3","70098","List2A","black","woman","","","","null","","","","","","","","",""
"12308.599999999627","","","survey-text","45","260331","0.0-13.0-3.3","70098","List2A","black","woman","","","","","{""Q0"":""kate is opposing mike.""}","<img src=""stim_listA/oppose3.gif""style=""height:400px;""></stim_listA>","is opposing","","","","","",""
"null","<div style=""font-size:60px;"">+</div>","","html-keyboard-response","46","260844","0.0-13.0-0.4","70098","List2A","black","woman","","","","null","","","","","","","","",""
"null","<img src=""stim_listA/greet1.gif""style=""height:400px;""></stim_listA>","","html-keyboard-response","47","262846","0.0-13.0-1.4","70098","List2A","black","woman","","","","null","","","","","","","","",""
"null","is greeting","","html-keyboard-response","48","264849","0.0-13.0-2.4","70098","List2A","black","woman","","","","null","","","","","","","","",""
"12211.399999999907","","","survey-text","49","277062","0.0-13.0-3.4","70098","List2A","black","woman","","","","","{""Q0"":""ruth is greeting dave.""}","<img src=""stim_listA/greet1.gif""style=""height:400px;""></stim_listA>","is greeting","","","","","",""
"null","<div style=""font-size:60px;"">+</div>","","html-keyboard-response","50","277575","0.0-13.0-0.5","70098","List2A","black","woman","","","","null","","","","","","","","",""
"null","<img src=""stim_listA/oppose2.gif""style=""height:400px;""></stim_listA>","","html-keyboard-response","51","279592","0.0-13.0-1.5","70098","List2A","black","woman","","","","null","","","","","","","","",""
"null","is being opposed by","","html-keyboard-response","52","281602","0.0-13.0-2.5","70098","List2A","black","woman","","","","null","","","","","","","","",""
"14809.700000000186","","","survey-text","53","296415","0.0-13.0-3.5","70098","List2A","black","woman","","","","","{""Q0"":""ruth is being opposed by luke.""}","<img src=""stim_listA/oppose2.gif""style=""height:400px;""></stim_listA>","is being opposed by","","","","","",""
"null","<div style=""font-size:60px;"">+</div>","","html-keyboard-response","54","296926","0.0-13.0-0.6","70098","List2A","black","woman","","","","null","","","","","","","","",""
"null","<img src=""stim_listA/kiss5.gif""style=""height:400px;""></stim_listA>","","html-keyboard-response","55","298936","0.0-13.0-1.6","70098","List2A","black","woman","","","","null","","","","","","","","",""
"null","is kissing","","html-keyboard-response","56","300936","0.0-13.0-2.6","70098","List2A","black","woman","","","","null","","","","","","","","",""
"11053.799999999814","","","survey-text","57","311992","0.0-13.0-3.6","70098","List2A","black","woman","","","","","{""Q0"":""fred is kissing luke.""}","<img src=""stim_listA/kiss5.gif""style=""height:400px;""></stim_listA>","is kissing","","","","","",""
"null","<div style=""font-size:60px;"">+</div>","","html-keyboard-response","58","312506","0.0-13.0-0.7","70098","List2A","black","woman","","","","null","","","","","","","","",""
"null","<img src=""stim_listA/oppose8.gif""style=""height:400px;""></stim_listA>","","html-keyboard-response","59","314520","0.0-13.0-1.7","70098","List2A","black","woman","","","","null","","","","","","","","",""
"null","is being opposed by","","html-keyboard-response","60","316522","0.0-13.0-2.7","70098","List2A","black","woman","","","","null","","","","","","","","",""
"11508.700000000186","","","survey-text","61","328033","0.0-13.0-3.7","70098","List2A","black","woman","","","","","{""Q0"":""beth is being opposed by ruth.""}","<img src=""stim_listA/oppose8.gif""style=""height:400px;""></stim_listA>","is being opposed by","","","","","",""
"null","<div style=""font-size:60px;"">+</div>","","html-keyboard-response","62","328546","0.0-13.0-0.8","70098","List2A","black","woman","","","","null","","","","","","","","",""
"null","<img src=""stim_listA/challenge6.gif""style=""height:400px;""></stim_listA>","","html-keyboard-response","63","330563","0.0-13.0-1.8","70098","List2A","black","woman","","","","null","","","","","","","","",""
"null","is being challenged by","","html-keyboard-response","64","332578","0.0-13.0-2.8","70098","List2A","black","woman","","","","null","","","","","","","","",""
"13773.399999999907","","","survey-text","65","346353","0.0-13.0-3.8","70098","List2A","black","woman","","","","","{""Q0"":""mike is being challenged by luke.""}","<img src=""stim_listA/challenge6.gif""style=""height:400px;""></stim_listA>","is being challenged by","","","","","",""
"null","<div style=""font-size:60px;"">+</div>","","html-keyboard-response","66","346864","0.0-13.0-0.9","70098","List2A","black","woman","","","","null","","","","","","","","",""
"null","<img src=""stim_listA/look5.gif""style=""height:400px;""></stim_listA>","","html-keyboard-response","67","348873","0.0-13.0-1.9","70098","List2A","black","woman","","","","null","","","","","","","","",""
"null","is looking at","","html-keyboard-response","68","350889","0.0-13.0-2.9","70098","List2A","black","woman","","","","null","","","","","","","","",""
"10319.200000000186","","","survey-text","69","361209","0.0-13.0-3.9","70098","List2A","black","woman","","","","","{""Q0"":""luke is looking at fred.""}","<img src=""stim_listA/look5.gif""style=""height:400px;""></stim_listA>","is looking at","","","","","",""
"null","<div style=""font-size:60px;"">+</div>","","html-keyboard-response","70","361724","0.0-13.0-0.10","70098","List2A","black","woman","","","","null","","","","","","","","",""
"null","<img src=""stim_listA/look8.gif""style=""height:400px;""></stim_listA>","","html-keyboard-response","71","363726","0.0-13.0-1.10","70098","List2A","black","woman","","","","null","","","","","","","","",""
"null","is being looked at by","","html-keyboard-response","72","365733","0.0-13.0-2.10","70098","List2A","black","woman","","","","null","","","","","","","","",""
"17577.19999999972","","","survey-text","73","383312","0.0-13.0-3.10","70098","List2A","black","woman","","","","","{""Q0"":""jane is being looked at by kate.""}","<img src=""stim_listA/look8.gif""style=""height:400px;""></stim_listA>","is being looked at by","","","","","",""
"null","<div style=""font-size:60px;"">+</div>","","html-keyboard-response","74","383825","0.0-13.0-0.11","70098","List2A","black","woman","","","","null","","","","","","","","",""
"null","<img src=""stim_listA/look4.gif""style=""height:400px;""></stim_listA>","","html-keyboard-response","75","385830","0.0-13.0-1.11","70098","List2A","black","woman","","","","null","","","","","","","","",""
"null","is being looked at by","","html-keyboard-response","76","387843","0.0-13.0-2.11","70098","List2A","black","woman","","","","null","","","","","","","","",""
"13721.80000000028","","","survey-text","77","401567","0.0-13.0-3.11","70098","List2A","black","woman","","","","","{""Q0"":""mike is being looked at by kate.""}","<img src=""stim_listA/look4.gif""style=""height:400px;""></stim_listA>","is being looked at by","","","","","",""
"null","<div style=""font-size:60px;"">+</div>","","html-keyboard-response","78","402079","0.0-13.0-0.12","70098","List2A","black","woman","","","","null","","","","","","","","",""
"null","<img src=""stim_listA/touch6.gif""style=""height:400px;""></stim_listA>","","html-keyboard-response","79","404085","0.0-13.0-1.12","70098","List2A","black","woman","","","","null","","","","","","","","",""
"null","is being touched by","","html-keyboard-response","80","406086","0.0-13.0-2.12","70098","List2A","black","woman","","","","null","","","","","","","","",""
"11457.700000000186","","","survey-text","81","417545","0.0-13.0-3.12","70098","List2A","black","woman","","","","","{""Q0"":""luke is being touched by fred.""}","<img src=""stim_listA/touch6.gif""style=""height:400px;""></stim_listA>","is being touched by","","","","","",""
"null","<div style=""font-size:60px;"">+</div>","","html-keyboard-response","82","418057","0.0-13.0-0.13","70098","List2A","black","woman","","","","null","","","","","","","","",""
"null","<img src=""stim_listA/greet6.gif""style=""height:400px;""></stim_listA>","","html-keyboard-response","83","420059","0.0-13.0-1.13","70098","List2A","black","woman","","","","null","","","","","","","","",""
"null","is being greeted by","","html-keyboard-response","84","422069","0.0-13.0-2.13","70098","List2A","black","woman","","","","null","","","","","","","","",""
"14478.400000000373","","","survey-text","85","436549","0.0-13.0-3.13","70098","List2A","black","woman","","","","","{""Q0"":""luke is being greeted by mike.""}","<img src=""stim_listA/greet6.gif""style=""height:400px;""></stim_listA>","is being greeted by","","","","","",""
"null","<div style=""font-size:60px;"">+</div>","","html-keyboard-response","86","437062","0.0-13.0-0.14","70098","List2A","black","woman","","","","null","","","","","","","","",""
"null","<img src=""stim_listA/greet2.gif""style=""height:400px;""></stim_listA>","","html-keyboard-response","87","439063","0.0-13.0-1.14","70098","List2A","black","woman","","","","null","","","","","","","","",""
"null","is being greeted by","","html-keyboard-response","88","441076","0.0-13.0-2.14","70098","List2A","black","woman","","","","null","","","","","","","","",""
"15021.899999999907","","","survey-text","89","456099","0.0-13.0-3.14","70098","List2A","black","woman","","","","","{""Q0"":""luke is being greeted by jane.""}","<img src=""stim_listA/greet2.gif""style=""height:400px;""></stim_listA>","is being greeted by","","","","","",""
"null","<div style=""font-size:60px;"">+</div>","","html-keyboard-response","90","456612","0.0-13.0-0.15","70098","List2A","black","woman","","","","null","","","","","","","","",""
"null","<img src=""stim_listA/kiss4.gif""style=""height:400px;""></stim_listA>","","html-keyboard-response","91","458614","0.0-13.0-1.15","70098","List2A","black","woman","","","","null","","","","","","","","",""
"null","is being kissed by","","html-keyboard-response","92","460617","0.0-13.0-2.15","70098","List2A","black","woman","","","","null","","","","","","","","",""
"12597.30000000028","","","survey-text","93","473216","0.0-13.0-3.15","70098","List2A","black","woman","","","","","{""Q0"":""mike is being kissed by kate.""}","<img src=""stim_listA/kiss4.gif""style=""height:400px;""></stim_listA>","is being kissed by","","","","","",""
"null","<div style=""font-size:60px;"">+</div>","","html-keyboard-response","94","473730","0.0-13.0-0.16","70098","List2A","black","woman","","","","null","","","","","","","","",""
"null","<img src=""stim_listA/hug2.gif""style=""height:400px;""></stim_listA>","","html-keyboard-response","95","475741","0.0-13.0-1.16","70098","List2A","black","woman","","","","null","","","","","","","","",""
"null","is being hugged by","","html-keyboard-response","96","477744","0.0-13.0-2.16","70098","List2A","black","woman","","","","null","","","","","","","","",""
"8904.100000000093","","","survey-text","97","486649","0.0-13.0-3.16","70098","List2A","black","woman","","","","","{""Q0"":""jane is being hugged by dave.""}","<img src=""stim_listA/hug2.gif""style=""height:400px;""></stim_listA>","is being hugged by","","","","","",""
"null","<div style=""font-size:60px;"">+</div>","","html-keyboard-response","98","487163","0.0-13.0-0.17","70098","List2A","black","woman","","","","null","","","","","","","","",""
"null","<img src=""stim_listA/greet3.gif""style=""height:400px;""></stim_listA>","","html-keyboard-response","99","489175","0.0-13.0-1.17","70098","List2A","black","woman","","","","null","","","","","","","","",""
"null","is greeting","","html-keyboard-response","100","491186","0.0-13.0-2.17","70098","List2A","black","woman","","","","null","","","","","","","","",""
"12407","","","survey-text","101","503595","0.0-13.0-3.17","70098","List2A","black","woman","","","","","{""Q0"":""beth is greeting mike.""}","<img src=""stim_listA/greet3.gif""style=""height:400px;""></stim_listA>","is greeting","","","","","",""
"null","<div style=""font-size:60px;"">+</div>","","html-keyboard-response","102","504107","0.0-13.0-0.18","70098","List2A","black","woman","","","","null","","","","","","","","",""
"null","<img src=""stim_listA/copy6.gif""style=""height:400px;""></stim_listA>","","html-keyboard-response","103","506109","0.0-13.0-1.18","70098","List2A","black","woman","","","","null","","","","","","","","",""
"null","is being copied by","","html-keyboard-response","104","508117","0.0-13.0-2.18","70098","List2A","black","woman","","","","null","","","","","","","","",""
"13181","","","survey-text","105","521300","0.0-13.0-3.18","70098","List2A","black","woman","","","","","{""Q0"":""luke is being copied by mike.""}","<img src=""stim_listA/copy6.gif""style=""height:400px;""></stim_listA>","is being copied by","","","","","",""
"null","<div style=""font-size:60px;"">+</div>","","html-keyboard-response","106","521813","0.0-13.0-0.19","70098","List2A","black","woman","","","","null","","","","","","","","",""
"null","<img src=""stim_listA/seduce2.gif""style=""height:400px;""></stim_listA>","","html-keyboard-response","107","523823","0.0-13.0-1.19","70098","List2A","black","woman","","","","null","","","","","","","","",""
"null","is being seduced by","","html-keyboard-response","108","525832","0.0-13.0-2.19","70098","List2A","black","woman","","","","null","","","","","","","","",""
"11060","","","survey-text","109","536893","0.0-13.0-3.19","70098","List2A","black","woman","","","","","{""Q0"":""dave is being seduced by ruth.""}","<img src=""stim_listA/seduce2.gif""style=""height:400px;""></stim_listA>","is being seduced by","","","","","",""
"15671.100000000093","<img src='img/portrait_matrix_list2.jpg' style='width:900px;height:500px;''></img><p>If you have memorised all the portraits and names and are ready to start, press Continue.</p><p><strong>Please note: Your memory of these faces will be tested 4 times during this experiment.</strong></p>","0","html-button-response","110","552565","0.0-14.0-0.0","70098","List2A","black","woman","","","","","","","","","","","","",""
"4204.899999999907","<img src=""portrait/WW1.jpg""style=""height:400px;""></img>","1","html-button-response","111","557779","0.0-14.0-1.0","70098","List2A","black","woman","","true","1","","","","","","","","","",""
"null","CORRECT","","html-keyboard-response","112","559286","0.0-14.0-2.0-0.0","70098","List2A","black","woman","","","","null","","","","","","","","",""
"3590","<img src=""portrait/WW2.jpg""style=""height:400px;""></img>","3","html-button-response","113","562877","0.0-14.0-4.0","70098","List2A","black","woman","","true","3","","","","","","","","","",""
"null","CORRECT","","html-keyboard-response","114","564394","0.0-14.0-5.0-0.0","70098","List2A","black","woman","","","","null","","","","","","","","",""
"4371.299999999814","<img src=""portrait/BM1.jpg""style=""height:400px;""></img>","4","html-button-response","115","568767","0.0-14.0-7.0","70098","List2A","black","woman","","true","4","","","","","","","","","",""
"null","CORRECT","","html-keyboard-response","116","570285","0.0-14.0-8.0-0.0","70098","List2A","black","woman","","","","null","","","","","","","","",""
"5583.799999999814","<img src=""portrait/WM1.jpg""style=""height:400px;""></img>","6","html-button-response","117","575871","0.0-14.0-10.0","70098","List2A","black","woman","","true","6","","","","","","","","","",""
"null","CORRECT","","html-keyboard-response","118","577378","0.0-14.0-11.0-0.0","70098","List2A","black","woman","","","","null","","","","","","","","",""
"5468.299999999814","<img src=""portrait/BW2.jpg""style=""height:400px;""></img>","2","html-button-response","119","582848","0.0-14.0-13.0","70098","List2A","black","woman","","true","2","","","","","","","","","",""
"null","CORRECT","","html-keyboard-response","120","584367","0.0-14.0-14.0-0.0","70098","List2A","black","woman","","","","null","","","","","","","","",""
"4832.899999999907","<img src=""portrait/BW1.jpg""style=""height:400px;""></img>","0","html-button-response","121","589201","0.0-14.0-16.0","70098","List2A","black","woman","","true","0","","","","","","","","","",""
"null","CORRECT","","html-keyboard-response","122","590721","0.0-14.0-17.0-0.0","70098","List2A","black","woman","","","","null","","","","","","","","",""
"4007.600000000093","<img src=""portrait/BM2.jpg""style=""height:400px;""></img>","5","html-button-response","123","594730","0.0-14.0-19.0","70098","List2A","black","woman","","true","5","","","","","","","","","",""
"null","CORRECT","","html-keyboard-response","124","596251","0.0-14.0-20.0-0.0","70098","List2A","black","woman","","","","null","","","","","","","","",""
"2701.100000000093","<img src=""portrait/WM2.jpg""style=""height:400px;""></img>","7","html-button-response","125","598954","0.0-14.0-22.0","70098","List2A","black","woman","","true","7","","","","","","","","","",""
"null","CORRECT","","html-keyboard-response","126","600472","0.0-14.0-23.0-0.0","70098","List2A","black","woman","","","","null","","","","","","","","",""
"1697.5","<p>You got 8 out of 8 right first time. Press Continue.</p>","0","html-button-response","127","602170","0.0-14.0-25.0","70098","List2A","black","woman","","","","","","","","","","","","",""
"null","<div style=""font-size:60px;"">+</div>","","html-keyboard-response","128","603703","0.0-15.0-0.0","70098","List2A","black","woman","","","","null","","","","","","","","",""
"null","<img src=""stim_listA/challenge2.gif""style=""height:400px;""></stim_listA>","","html-keyboard-response","129","605704","0.0-15.0-1.0","70098","List2A","black","woman","","","","null","","","","","","","","",""
"null","is being challenged by","","html-keyboard-response","130","607706","0.0-15.0-2.0","70098","List2A","black","woman","","","","null","","","","","","","","",""
"10646.100000000093","","","survey-text","131","618353","0.0-15.0-3.0","70098","List2A","black","woman","","","","","{""Q0"":""jane is being challenged by luke.""}","<img src=""stim_listA/challenge2.gif""style=""height:400px;""></stim_listA>","is being challenged by","","","","","",""
"null","<div style=""font-size:60px;"">+</div>","","html-keyboard-response","132","618856","0.0-15.0-0.1","70098","List2A","black","woman","","","","null","","","","","","","","",""
"null","<img src=""stim_listA/touch7.gif""style=""height:400px;""></stim_listA>","","html-keyboard-response","133","620861","0.0-15.0-1.1","70098","List2A","black","woman","","","","null","","","","","","","","",""
"null","is touching","","html-keyboard-response","134","622868","0.0-15.0-2.1","70098","List2A","black","woman","","","","null","","","","","","","","",""
"9602","","","survey-text","135","632472","0.0-15.0-3.1","70098","List2A","black","woman","","","","","{""Q0"":""jane is touching kate.""}","<img src=""stim_listA/touch7.gif""style=""height:400px;""></stim_listA>","is touching","","","","","",""
"null","<div style=""font-size:60px;"">+</div>","","html-keyboard-response","136","632973","0.0-15.0-0.2","70098","List2A","black","woman","","","","null","","","","","","","","",""
"null","<img src=""stim_listA/touch8.gif""style=""height:400px;""></stim_listA>","","html-keyboard-response","137","634982","0.0-15.0-1.2","70098","List2A","black","woman","","","","null","","","","","","","","",""
"null","is being touched by","","html-keyboard-response","138","636985","0.0-15.0-2.2","70098","List2A","black","woman","","","","null","","","","","","","","",""
"15837.299999999814","","","survey-text","139","652824","0.0-15.0-3.2","70098","List2A","black","woman","","","","","{""Q0"":""ruth is being touched by beth.""}","<img src=""stim_listA/touch8.gif""style=""height:400px;""></stim_listA>","is being touched by","","","","","",""
"null","<div style=""font-size:60px;"">+</div>","","html-keyboard-response","140","653339","0.0-15.0-0.3","70098","List2A","black","woman","","","","null","","","","","","","","",""
"null","<img src=""stim_listA/kiss1.gif""style=""height:400px;""></stim_listA>","","html-keyboard-response","141","655345","0.0-15.0-1.3","70098","List2A","black","woman","","","","null","","","","","","","","",""
"null","is kissing","","html-keyboard-response","142","657350","0.0-15.0-2.3","70098","List2A","black","woman","","","","null","","","","","","","","",""
"10283.5","","","survey-text","143","667635","0.0-15.0-3.3","70098","List2A","black","woman","","","","","{""Q0"":""ruth is kissing luke.""}","<img src=""stim_listA/kiss1.gif""style=""height:400px;""></stim_listA>","is kissing","","","","","",""
"null","<div style=""font-size:60px;"">+</div>","","html-keyboard-response","144","668137","0.0-15.0-0.4","70098","List2A","black","woman","","","","null","","","","","","","","",""
"null","<img src=""stim_listA/look7.gif""style=""height:400px;""></stim_listA>","","html-keyboard-response","145","670139","0.0-15.0-1.4","70098","List2A","black","woman","","","","null","","","","","","","","",""
"null","is looking at","","html-keyboard-response","146","672140","0.0-15.0-2.4","70098","List2A","black","woman","","","","null","","","","","","","","",""
"10176.899999999907","","","survey-text","147","682318","0.0-15.0-3.4","70098","List2A","black","woman","","","","","{""Q0"":""ruth is looking at beth.""}","<img src=""stim_listA/look7.gif""style=""height:400px;""></stim_listA>","is looking at","","","","","",""
"null","<div style=""font-size:60px;"">+</div>","","html-keyboard-response","148","682834","0.0-15.0-0.5","70098","List2A","black","woman","","","","null","","","","","","","","",""
"null","<img src=""stim_listA/oppose6.gif""style=""height:400px;""></stim_listA>","","html-keyboard-response","149","684841","0.0-15.0-1.5","70098","List2A","black","woman","","","","null","","","","","","","","",""
"null","is being opposed by","","html-keyboard-response","150","686856","0.0-15.0-2.5","70098","List2A","black","woman","","","","null","","","","","","","","",""
"12555.100000000093","","","survey-text","151","699413","0.0-15.0-3.5","70098","List2A","black","woman","","","","","{""Q0"":""luke is being opposed by fred.""}","<img src=""stim_listA/oppose6.gif""style=""height:400px;""></stim_listA>","is being opposed by","","","","","",""
"null","<div style=""font-size:60px;"">+</div>","","html-keyboard-response","152","699926","0.0-15.0-0.6","70098","List2A","black","woman","","","","null","","","","","","","","",""
"null","<img src=""stim_listA/hug8.gif""style=""height:400px;""></stim_listA>","","html-keyboard-response","153","701933","0.0-15.0-1.6","70098","List2A","black","woman","","","","null","","","","","","","","",""
"null","is being hugged by","","html-keyboard-response","154","703946","0.0-15.0-2.6","70098","List2A","black","woman","","","","null","","","","","","","","",""
"9735.600000000093","","","survey-text","155","713683","0.0-15.0-3.6","70098","List2A","black","woman","","","","","{""Q0"":""jane is being hugged by kate.""}","<img src=""stim_listA/hug8.gif""style=""height:400px;""></stim_listA>","is being hugged by","","","","","",""
"null","<div style=""font-size:60px;"">+</div>","","html-keyboard-response","156","714195","0.0-15.0-0.7","70098","List2A","black","woman","","","","null","","","","","","","","",""
"null","<img src=""stim_listA/shout4.gif""style=""height:400px;""></stim_listA>","","html-keyboard-response","157","716211","0.0-15.0-1.7","70098","List2A","black","woman","","","","null","","","","","","","","",""
"null","is being shouted at by","","html-keyboard-response","158","718213","0.0-15.0-2.7","70098","List2A","black","woman","","","","null","","","","","","","","",""
"9994.399999999907","","","survey-text","159","728210","0.0-15.0-3.7","70098","List2A","black","woman","","","","","{""Q0"":""kate is being shouted at by mike.""}","<img src=""stim_listA/shout4.gif""style=""height:400px;""></stim_listA>","is being shouted at by","","","","","",""
"null","<div style=""font-size:60px;"">+</div>","","html-keyboard-response","160","728720","0.0-15.0-0.8","70098","List2A","black","woman","","","","null","","","","","","","","",""
"null","<img src=""stim_listA/copy4.gif""style=""height:400px;""></stim_listA>","","html-keyboard-response","161","730732","0.0-15.0-1.8","70098","List2A","black","woman","","","","null","","","","","","","","",""
"null","is being copied by","","html-keyboard-response","162","732747","0.0-15.0-2.8","70098","List2A","black","woman","","","","null","","","","","","","","",""
"11057.100000000093","","","survey-text","163","743805","0.0-15.0-3.8","70098","List2A","black","woman","","","","","{""Q0"":""fred is being copied by kate.""}","<img src=""stim_listA/copy4.gif""style=""height:400px;""></stim_listA>","is being copied by","","","","","",""
"null","<div style=""font-size:60px;"">+</div>","","html-keyboard-response","164","744316","0.0-15.0-0.9","70098","List2A","black","woman","","","","null","","","","","","","","",""
"null","<img src=""stim_listA/seduce1.gif""style=""height:400px;""></stim_listA>","","html-keyboard-response","165","746319","0.0-15.0-1.9","70098","List2A","black","woman","","","","null","","","","","","","","",""
"null","is seducing","","html-keyboard-response","166","748321","0.0-15.0-2.9","70098","List2A","black","woman","","","","null","","","","","","","","",""
"7471.899999999907","","","survey-text","167","755795","0.0-15.0-3.9","70098","List2A","black","woman","","","","","{""Q0"":""jane is seducing luke.""}","<img src=""stim_listA/seduce1.gif""style=""height:400px;""></stim_listA>","is seducing","","","","","",""
"null","<div style=""font-size:60px;"">+</div>","","html-keyboard-response","168","756307","0.0-15.0-0.10","70098","List2A","black","woman","","","","null","","","","","","","","",""
"null","<img src=""stim_listA/touch2.gif""style=""height:400px;""></stim_listA>","","html-keyboard-response","169","758309","0.0-15.0-1.10","70098","List2A","black","woman","","","","null","","","","","","","","",""
"null","is being touched by","","html-keyboard-response","170","760322","0.0-15.0-2.10","70098","List2A","black","woman","","","","null","","","","","","","","",""
"13490","","","survey-text","171","773813","0.0-15.0-3.10","70098","List2A","black","woman","","","","","{""Q0"":""luke is being touched by ruth.""}","<img src=""stim_listA/touch2.gif""style=""height:400px;""></stim_listA>","is being touched by","","","","","",""
"null","<div style=""font-size:60px;"">+</div>","","html-keyboard-response","172","774328","0.0-15.0-0.11","70098","List2A","black","woman","","","","null","","","","","","","","",""
"null","<img src=""stim_listA/seduce5.gif""style=""height:400px;""></stim_listA>","","html-keyboard-response","173","776340","0.0-15.0-1.11","70098","List2A","black","woman","","","","null","","","","","","","","",""
"null","is seducing","","html-keyboard-response","174","778354","0.0-15.0-2.11","70098","List2A","black","woman","","","","null","","","","","","","","",""
"9533.299999999814","","","survey-text","175","787888","0.0-15.0-3.11","70098","List2A","black","woman","","","","","{""Q0"":""luke is seducing mike.""}","<img src=""stim_listA/seduce5.gif""style=""height:400px;""></stim_listA>","is seducing","","","","","",""
"null","<div style=""font-size:60px;"">+</div>","","html-keyboard-response","176","788402","0.0-15.0-0.12","70098","List2A","black","woman","","","","null","","","","","","","","",""
"null","<img src=""stim_listA/greet8.gif""style=""height:400px;""></stim_listA>","","html-keyboard-response","177","790404","0.0-15.0-1.12","70098","List2A","black","woman","","","","null","","","","","","","","",""
"null","is being greeted by","","html-keyboard-response","178","792410","0.0-15.0-2.12","70098","List2A","black","woman","","","","null","","","","","","","","",""
"22137.5","","","survey-text","179","814549","0.0-15.0-3.12","70098","List2A","black","woman","","","","","{""Q0"":""ruth is being greeted by kate.""}","<img src=""stim_listA/greet8.gif""style=""height:400px;""></stim_listA>","is being greeted by","","","","","",""
"null","<div style=""font-size:60px;"">+</div>","","html-keyboard-response","180","815066","0.0-15.0-0.13","70098","List2A","black","woman","","","","null","","","","","","","","",""
"null","<img src=""stim_listA/copy8.gif""style=""height:400px;""></stim_listA>","","html-keyboard-response","181","817067","0.0-15.0-1.13","70098","List2A","black","woman","","","","null","","","","","","","","",""
"null","is being copied by","","html-keyboard-response","182","819075","0.0-15.0-2.13","70098","List2A","black","woman","","","","null","","","","","","","","",""
"7835.300000000279","","","survey-text","183","826913","0.0-15.0-3.13","70098","List2A","black","woman","","","","","{""Q0"":""ruth is being copied by kate.""}","<img src=""stim_listA/copy8.gif""style=""height:400px;""></stim_listA>","is being copied by","","","","","",""
"null","<div style=""font-size:60px;"">+</div>","","html-keyboard-response","184","827421","0.0-15.0-0.14","70098","List2A","black","woman","","","","null","","","","","","","","",""
"null","<img src=""stim_listA/oppose1.gif""style=""height:400px;""></stim_listA>","","html-keyboard-response","185","829437","0.0-15.0-1.14","70098","List2A","black","woman","","","","null","","","","","","","","",""
"null","is opposing","","html-keyboard-response","186","831450","0.0-15.0-2.14","70098","List2A","black","woman","","","","null","","","","","","","","",""
"10762.899999999907","","","survey-text","187","842215","0.0-15.0-3.14","70098","List2A","black","woman","","","","","{""Q0"":""jane is opposing dave.""}","<img src=""stim_listA/oppose1.gif""style=""height:400px;""></stim_listA>","is opposing","","","","","",""
"null","<div style=""font-size:60px;"">+</div>","","html-keyboard-response","188","842727","0.0-15.0-0.15","70098","List2A","black","woman","","","","null","","","","","","","","",""
"null","<img src=""stim_listA/kiss8.gif""style=""height:400px;""></stim_listA>","","html-keyboard-response","189","844733","0.0-15.0-1.15","70098","List2A","black","woman","","","","null","","","","","","","","",""
"null","is being kissed by","","html-keyboard-response","190","846739","0.0-15.0-2.15","70098","List2A","black","woman","","","","null","","","","","","","","",""
"10971.899999999907","","","survey-text","191","857712","0.0-15.0-3.15","70098","List2A","black","woman","","","","","{""Q0"":""jane is kissing kate.""}","<img src=""stim_listA/kiss8.gif""style=""height:400px;""></stim_listA>","is being kissed by","","","","","",""
"null","<div style=""font-size:60px;"">+</div>","","html-keyboard-response","192","858227","0.0-15.0-0.16","70098","List2A","black","woman","","","","null","","","","","","","","",""
"null","<img src=""stim_listA/seduce7.gif""style=""height:400px;""></stim_listA>","","html-keyboard-response","193","860236","0.0-15.0-1.16","70098","List2A","black","woman","","","","null","","","","","","","","",""
"null","is seducing","","html-keyboard-response","194","862250","0.0-15.0-2.16","70098","List2A","black","woman","","","","null","","","","","","","","",""
"8227","","","survey-text","195","870479","0.0-15.0-3.16","70098","List2A","black","woman","","","","","{""Q0"":""ruth is seducing kate.""}","<img src=""stim_listA/seduce7.gif""style=""height:400px;""></stim_listA>","is seducing","","","","","",""
"null","<div style=""font-size:60px;"">+</div>","","html-keyboard-response","196","870981","0.0-15.0-0.17","70098","List2A","black","woman","","","","null","","","","","","","","",""
"null","<img src=""stim_listA/challenge1.gif""style=""height:400px;""></stim_listA>","","html-keyboard-response","197","872988","0.0-15.0-1.17","70098","List2A","black","woman","","","","null","","","","","","","","",""
"null","is challenging","","html-keyboard-response","198","874998","0.0-15.0-2.17","70098","List2A","black","woman","","","","null","","","","","","","","",""
"8552.5","","","survey-text","199","883552","0.0-15.0-3.17","70098","List2A","black","woman","","","","","{""Q0"":""ruth is challenging dave.""}","<img src=""stim_listA/challenge1.gif""style=""height:400px;""></stim_listA>","is challenging","","","","","",""
"null","<div style=""font-size:60px;"">+</div>","","html-keyboard-response","200","884066","0.0-15.0-0.18","70098","List2A","black","woman","","","","null","","","","","","","","",""
"null","<img src=""stim_listA/hug7.gif""style=""height:400px;""></stim_listA>","","html-keyboard-response","201","886071","0.0-15.0-1.18","70098","List2A","black","woman","","","","null","","","","","","","","",""
"null","is hugging","","html-keyboard-response","202","888084","0.0-15.0-2.18","70098","List2A","black","woman","","","","null","","","","","","","","",""
"10880.200000000186","","","survey-text","203","898966","0.0-15.0-3.18","70098","List2A","black","woman","","","","","{""Q0"":""ruth is hugging beth.""}","<img src=""stim_listA/hug7.gif""style=""height:400px;""></stim_listA>","is hugging","","","","","",""
"null","<div style=""font-size:60px;"">+</div>","","html-keyboard-response","204","899477","0.0-15.0-0.19","70098","List2A","black","woman","","","","null","","","","","","","","",""
"null","<img src=""stim_listA/challenge3.gif""style=""height:400px;""></stim_listA>","","html-keyboard-response","205","901480","0.0-15.0-1.19","70098","List2A","black","woman","","","","null","","","","","","","","",""
"null","is challenging","","html-keyboard-response","206","903490","0.0-15.0-2.19","70098","List2A","black","woman","","","","null","","","","","","","","",""
"12767.30000000028","","","survey-text","207","916259","0.0-15.0-3.19","70098","List2A","black","woman","","","","","{""Q0"":""beth is challenging mike.""}","<img src=""stim_listA/challenge3.gif""style=""height:400px;""></stim_listA>","is challenging","","","","","",""
"4941.899999999907","<img src='img/portrait_matrix_list2.jpg' style='width:900px;height:500px;''></img><p>If you have memorised all the portraits and names and are ready to start, press Continue.</p><p><strong>Please note: Your memory of these faces will be tested 4 times during this experiment.</strong></p>","0","html-button-response","208","921203","0.0-16.0-0.0","70098","List2A","black","woman","","","","","","","","","","","","",""
"1938.1000000000931","<img src=""portrait/BM2.jpg""style=""height:400px;""></img>","5","html-button-response","209","924151","0.0-16.0-1.0","70098","List2A","black","woman","","true","5","","","","","","","","","",""
"null","CORRECT","","html-keyboard-response","210","925671","0.0-16.0-2.0-0.0","70098","List2A","black","woman","","","","null","","","","","","","","",""
"3605.100000000093","<img src=""portrait/BW2.jpg""style=""height:400px;""></img>","2","html-button-response","211","929278","0.0-16.0-4.0","70098","List2A","black","woman","","true","2","","","","","","","","","",""
"null","CORRECT","","html-keyboard-response","212","930803","0.0-16.0-5.0-0.0","70098","List2A","black","woman","","","","null","","","","","","","","",""
"2265.600000000093","<img src=""portrait/BM1.jpg""style=""height:400px;""></img>","4","html-button-response","213","933070","0.0-16.0-7.0","70098","List2A","black","woman","","true","4","","","","","","","","","",""
"null","CORRECT","","html-keyboard-response","214","934588","0.0-16.0-8.0-0.0","70098","List2A","black","woman","","","","null","","","","","","","","",""
"5101.899999999907","<img src=""portrait/WW1.jpg""style=""height:400px;""></img>","1","html-button-response","215","939692","0.0-16.0-10.0","70098","List2A","black","woman","","true","1","","","","","","","","","",""
"null","CORRECT","","html-keyboard-response","216","941211","0.0-16.0-11.0-0.0","70098","List2A","black","woman","","","","null","","","","","","","","",""
"1854","<img src=""portrait/WM2.jpg""style=""height:400px;""></img>","7","html-button-response","217","943066","0.0-16.0-13.0","70098","List2A","black","woman","","true","7","","","","","","","","","",""
"null","CORRECT","","html-keyboard-response","218","944590","0.0-16.0-14.0-0.0","70098","List2A","black","woman","","","","null","","","","","","","","",""
"1743","<img src=""portrait/WW2.jpg""style=""height:400px;""></img>","3","html-button-response","219","946334","0.0-16.0-16.0","70098","List2A","black","woman","","true","3","","","","","","","","","",""
"null","CORRECT","","html-keyboard-response","220","947858","0.0-16.0-17.0-0.0","70098","List2A","black","woman","","","","null","","","","","","","","",""
"1913.3999999999069","<img src=""portrait/BW1.jpg""style=""height:400px;""></img>","0","html-button-response","221","949773","0.0-16.0-19.0","70098","List2A","black","woman","","true","0","","","","","","","","","",""
"null","CORRECT","","html-keyboard-response","222","951293","0.0-16.0-20.0-0.0","70098","List2A","black","woman","","","","null","","","","","","","","",""
"2118.5","<img src=""portrait/WM1.jpg""style=""height:400px;""></img>","6","html-button-response","223","953413","0.0-16.0-22.0","70098","List2A","black","woman","","true","6","","","","","","","","","",""
"null","CORRECT","","html-keyboard-response","224","954931","0.0-16.0-23.0-0.0","70098","List2A","black","woman","","","","null","","","","","","","","",""
"1681.6000000000931","<p>You got 8 out of 8 right first time. Press Continue.</p>","0","html-button-response","225","956614","0.0-16.0-25.0","70098","List2A","black","woman","","","","","","","","","","","","",""
"null","<div style=""font-size:60px;"">+</div>","","html-keyboard-response","226","958137","0.0-17.0-0.0","70098","List2A","black","woman","","","","null","","","","","","","","",""
"null","<img src=""stim_listA/hug1.gif""style=""height:400px;""></stim_listA>","","html-keyboard-response","227","960140","0.0-17.0-1.0","70098","List2A","black","woman","","","","null","","","","","","","","",""
"null","is hugging","","html-keyboard-response","228","962156","0.0-17.0-2.0","70098","List2A","black","woman","","","","null","","","","","","","","",""
"9384.900000000373","","","survey-text","229","971542","0.0-17.0-3.0","70098","List2A","black","woman","","","","","{""Q0"":""luke is hugging ruth""}","<img src=""stim_listA/hug1.gif""style=""height:400px;""></stim_listA>","is hugging","","","","","",""
"null","<div style=""font-size:60px;"">+</div>","","html-keyboard-response","230","972058","0.0-17.0-0.1","70098","List2A","black","woman","","","","null","","","","","","","","",""
"null","<img src=""stim_listA/hug4.gif""style=""height:400px;""></stim_listA>","","html-keyboard-response","231","974060","0.0-17.0-1.1","70098","List2A","black","woman","","","","null","","","","","","","","",""
"null","is being hugged by","","html-keyboard-response","232","976066","0.0-17.0-2.1","70098","List2A","black","woman","","","","null","","","","","","","","",""
"9622.80000000028","","","survey-text","233","985689","0.0-17.0-3.1","70098","List2A","black","woman","","","","","{""Q0"":""mike is being hugged by kate.""}","<img src=""stim_listA/hug4.gif""style=""height:400px;""></stim_listA>","is being hugged by","","","","","",""
"null","<div style=""font-size:60px;"">+</div>","","html-keyboard-response","234","986203","0.0-17.0-0.2","70098","List2A","black","woman","","","","null","","","","","","","","",""
"null","<img src=""stim_listA/shout2.gif""style=""height:400px;""></stim_listA>","","html-keyboard-response","235","988215","0.0-17.0-1.2","70098","List2A","black","woman","","","","null","","","","","","","","",""
"null","is being shouted at by","","html-keyboard-response","236","990229","0.0-17.0-2.2","70098","List2A","black","woman","","","","null","","","","","","","","",""
"13220.899999999907","","","survey-text","237","1003452","0.0-17.0-3.2","70098","List2A","black","woman","","","","","{""Q0"":""dave is being shouted at by jane.""}","<img src=""stim_listA/shout2.gif""style=""height:400px;""></stim_listA>","is being shouted at by","","","","","",""
"null","<div style=""font-size:60px;"">+</div>","","html-keyboard-response","238","1003963","0.0-17.0-0.3","70098","List2A","black","woman","","","","null","","","","","","","","",""
"null","<img src=""stim_listA/shout1.gif""style=""height:400px;""></stim_listA>","","html-keyboard-response","239","1005973","0.0-17.0-1.3","70098","List2A","black","woman","","","","null","","","","","","","","",""
"null","is shouting at","","html-keyboard-response","240","1007983","0.0-17.0-2.3","70098","List2A","black","woman","","","","null","","","","","","","","",""
"10959.5","","","survey-text","241","1018944","0.0-17.0-3.3","70098","List2A","black","woman","","","","","{""Q0"":""ruth is shouting at luke.""}","<img src=""stim_listA/shout1.gif""style=""height:400px;""></stim_listA>","is shouting at","","","","","",""
"null","<div style=""font-size:60px;"">+</div>","","html-keyboard-response","242","1019456","0.0-17.0-0.4","70098","List2A","black","woman","","","","null","","","","","","","","",""
"null","<img src=""stim_listA/challenge4.gif""style=""height:400px;""></stim_listA>","","html-keyboard-response","243","1021466","0.0-17.0-1.4","70098","List2A","black","woman","","","","null","","","","","","","","",""
"null","is being challenged by","","html-keyboard-response","244","1023473","0.0-17.0-2.4","70098","List2A","black","woman","","","","null","","","","","","","","",""
"10044.399999999907","","","survey-text","245","1033519","0.0-17.0-3.4","70098","List2A","black","woman","","","","","{""Q0"":""fred is being challenged by kate.""}","<img src=""stim_listA/challenge4.gif""style=""height:400px;""></stim_listA>","is being challenged by","","","","","",""
"null","<div style=""font-size:60px;"">+</div>","","html-keyboard-response","246","1034029","0.0-17.0-0.5","70098","List2A","black","woman","","","","null","","","","","","","","",""
"null","<img src=""stim_listA/oppose7.gif""style=""height:400px;""></stim_listA>","","html-keyboard-response","247","1036040","0.0-17.0-1.5","70098","List2A","black","woman","","","","null","","","","","","","","",""
"null","is opposing","","html-keyboard-response","248","1038052","0.0-17.0-2.5","70098","List2A","black","woman","","","","null","","","","","","","","",""
"8432.100000000093","","","survey-text","249","1046486","0.0-17.0-3.5","70098","List2A","black","woman","","","","","{""Q0"":""jane is opposing kate.""}","<img src=""stim_listA/oppose7.gif""style=""height:400px;""></stim_listA>","is opposing","","","","","",""
"null","<div style=""font-size:60px;"">+</div>","","html-keyboard-response","250","1046998","0.0-17.0-0.6","70098","List2A","black","woman","","","","null","","","","","","","","",""
"null","<img src=""stim_listA/copy7.gif""style=""height:400px;""></stim_listA>","","html-keyboard-response","251","1049010","0.0-17.0-1.6","70098","List2A","black","woman","","","","null","","","","","","","","",""
"null","is copying","","html-keyboard-response","252","1051025","0.0-17.0-2.6","70098","List2A","black","woman","","","","null","","","","","","","","",""
"6903.200000000186","","","survey-text","253","1057929","0.0-17.0-3.6","70098","List2A","black","woman","","","","","{""Q0"":""jane is copying beth.""}","<img src=""stim_listA/copy7.gif""style=""height:400px;""></stim_listA>","is copying","","","","","",""
"null","<div style=""font-size:60px;"">+</div>","","html-keyboard-response","254","1058441","0.0-17.0-0.7","70098","List2A","black","woman","","","","null","","","","","","","","",""
"null","<img src=""stim_listA/greet4.gif""style=""height:400px;""></stim_listA>","","html-keyboard-response","255","1060451","0.0-17.0-1.7","70098","List2A","black","woman","","","","null","","","","","","","","",""
"null","is being greeted by","","html-keyboard-response","256","1062458","0.0-17.0-2.7","70098","List2A","black","woman","","","","null","","","","","","","","",""
"10762.899999999907","","","survey-text","257","1073223","0.0-17.0-3.7","70098","List2A","black","woman","","","","","{""Q0"":""fred is being greeted by kate.""}","<img src=""stim_listA/greet4.gif""style=""height:400px;""></stim_listA>","is being greeted by","","","","","",""
"null","<div style=""font-size:60px;"">+</div>","","html-keyboard-response","258","1073736","0.0-17.0-0.8","70098","List2A","black","woman","","","","null","","","","","","","","",""
"null","<img src=""stim_listA/copy2.gif""style=""height:400px;""></stim_listA>","","html-keyboard-response","259","1075751","0.0-17.0-1.8","70098","List2A","black","woman","","","","null","","","","","","","","",""
"null","is being copied by","","html-keyboard-response","260","1077758","0.0-17.0-2.8","70098","List2A","black","woman","","","","null","","","","","","","","",""
"7456.300000000279","","","survey-text","261","1085216","0.0-17.0-3.8","70098","List2A","black","woman","","","","","{""Q0"":""luke is copying jane.""}","<img src=""stim_listA/copy2.gif""style=""height:400px;""></stim_listA>","is being copied by","","","","","",""
"null","<div style=""font-size:60px;"">+</div>","","html-keyboard-response","262","1085728","0.0-17.0-0.9","70098","List2A","black","woman","","","","null","","","","","","","","",""
"null","<img src=""stim_listA/hug5.gif""style=""height:400px;""></stim_listA>","","html-keyboard-response","263","1087730","0.0-17.0-1.9","70098","List2A","black","woman","","","","null","","","","","","","","",""
"null","is hugging","","html-keyboard-response","264","1089735","0.0-17.0-2.9","70098","List2A","black","woman","","","","null","","","","","","","","",""
"9935.399999999907","","","survey-text","265","1099672","0.0-17.0-3.9","70098","List2A","black","woman","","","","","{""Q0"":""fred is being hugged by luke.""}","<img src=""stim_listA/hug5.gif""style=""height:400px;""></stim_listA>","is hugging","","","","","",""
"null","<div style=""font-size:60px;"">+</div>","","html-keyboard-response","266","1100186","0.0-17.0-0.10","70098","List2A","black","woman","","","","null","","","","","","","","",""
"null","<img src=""stim_listA/oppose4.gif""style=""height:400px;""></stim_listA>","","html-keyboard-response","267","1102200","0.0-17.0-1.10","70098","List2A","black","woman","","","","null","","","","","","","","",""
"null","is being opposed by","","html-keyboard-response","268","1104211","0.0-17.0-2.10","70098","List2A","black","woman","","","","null","","","","","","","","",""
"10783","","","survey-text","269","1114996","0.0-17.0-3.10","70098","List2A","black","woman","","","","","{""Q0"":""beth is being opposed by fred.""}","<img src=""stim_listA/oppose4.gif""style=""height:400px;""></stim_listA>","is being opposed by","","","","","",""
"null","<div style=""font-size:60px;"">+</div>","","html-keyboard-response","270","1115505","0.0-17.0-0.11","70098","List2A","black","woman","","","","null","","","","","","","","",""
"null","<img src=""stim_listA/shout3.gif""style=""height:400px;""></stim_listA>","","html-keyboard-response","271","1117517","0.0-17.0-1.11","70098","List2A","black","woman","","","","null","","","","","","","","",""
"null","is shouting at","","html-keyboard-response","272","1119518","0.0-17.0-2.11","70098","List2A","black","woman","","","","null","","","","","","","","",""
"6516.200000000186","","","survey-text","273","1126035","0.0-17.0-3.11","70098","List2A","black","woman","","","","","{""Q0"":""beth is shouting at fred.""}","<img src=""stim_listA/shout3.gif""style=""height:400px;""></stim_listA>","is shouting at","","","","","",""
"null","<div style=""font-size:60px;"">+</div>","","html-keyboard-response","274","1126552","0.0-17.0-0.12","70098","List2A","black","woman","","","","null","","","","","","","","",""
"null","<img src=""stim_listA/look1.gif""style=""height:400px;""></stim_listA>","","html-keyboard-response","275","1128553","0.0-17.0-1.12","70098","List2A","black","woman","","","","null","","","","","","","","",""
"null","is looking at","","html-keyboard-response","276","1130567","0.0-17.0-2.12","70098","List2A","black","woman","","","","null","","","","","","","","",""
"14331.299999999814","","","survey-text","277","1144900","0.0-17.0-3.12","70098","List2A","black","woman","","","","","{""Q0"":""luke is looking at ruth.""}","<img src=""stim_listA/look1.gif""style=""height:400px;""></stim_listA>","is looking at","","","","","",""
"null","<div style=""font-size:60px;"">+</div>","","html-keyboard-response","278","1145411","0.0-17.0-0.13","70098","List2A","black","woman","","","","null","","","","","","","","",""
"null","<img src=""stim_listA/oppose5.gif""style=""height:400px;""></stim_listA>","","html-keyboard-response","279","1147413","0.0-17.0-1.13","70098","List2A","black","woman","","","","null","","","","","","","","",""
"null","is opposing","","html-keyboard-response","280","1149421","0.0-17.0-2.13","70098","List2A","black","woman","","","","null","","","","","","","","",""
"8093.899999999441","","","survey-text","281","1157517","0.0-17.0-3.13","70098","List2A","black","woman","","","","","{""Q0"":""mike is opposing dave.""}","<img src=""stim_listA/oppose5.gif""style=""height:400px;""></stim_listA>","is opposing","","","","","",""
"null","<div style=""font-size:60px;"">+</div>","","html-keyboard-response","282","1158026","0.0-17.0-0.14","70098","List2A","black","woman","","","","null","","","","","","","","",""
"null","<img src=""stim_listA/look3.gif""style=""height:400px;""></stim_listA>","","html-keyboard-response","283","1160030","0.0-17.0-1.14","70098","List2A","black","woman","","","","null","","","","","","","","",""
"null","is looking at","","html-keyboard-response","284","1162038","0.0-17.0-2.14","70098","List2A","black","woman","","","","null","","","","","","","","",""
"7524.399999999441","","","survey-text","285","1169564","0.0-17.0-3.14","70098","List2A","black","woman","","","","","{""Q0"":""beth is looking at fred.""}","<img src=""stim_listA/look3.gif""style=""height:400px;""></stim_listA>","is looking at","","","","","",""
"null","<div style=""font-size:60px;"">+</div>","","html-keyboard-response","286","1170080","0.0-17.0-0.15","70098","List2A","black","woman","","","","null","","","","","","","","",""
"null","<img src=""stim_listA/copy1.gif""style=""height:400px;""></stim_listA>","","html-keyboard-response","287","1172082","0.0-17.0-1.15","70098","List2A","black","woman","","","","null","","","","","","","","",""
"null","is copying","","html-keyboard-response","288","1174083","0.0-17.0-2.15","70098","List2A","black","woman","","","","null","","","","","","","","",""
"6763","","","survey-text","289","1180847","0.0-17.0-3.15","70098","List2A","black","woman","","","","","{""Q0"":""ruth is copying dave.""}","<img src=""stim_listA/copy1.gif""style=""height:400px;""></stim_listA>","is copying","","","","","",""
"null","<div style=""font-size:60px;"">+</div>","","html-keyboard-response","290","1181363","0.0-17.0-0.16","70098","List2A","black","woman","","","","null","","","","","","","","",""
"null","<img src=""stim_listA/hug3.gif""style=""height:400px;""></stim_listA>","","html-keyboard-response","291","1183367","0.0-17.0-1.16","70098","List2A","black","woman","","","","null","","","","","","","","",""
"null","is hugging","","html-keyboard-response","292","1185368","0.0-17.0-2.16","70098","List2A","black","woman","","","","null","","","","","","","","",""
"12809.399999999441","","","survey-text","293","1198179","0.0-17.0-3.16","70098","List2A","black","woman","","","","","{""Q0"":""beth is hugging fred.""}","<img src=""stim_listA/hug3.gif""style=""height:400px;""></stim_listA>","is hugging","","","","","",""
"null","<div style=""font-size:60px;"">+</div>","","html-keyboard-response","294","1198694","0.0-17.0-0.17","70098","List2A","black","woman","","","","null","","","","","","","","",""
"null","<img src=""stim_listA/look6.gif""style=""height:400px;""></stim_listA>","","html-keyboard-response","295","1200704","0.0-17.0-1.17","70098","List2A","black","woman","","","","null","","","","","","","","",""
"null","is being looked at by","","html-keyboard-response","296","1202715","0.0-17.0-2.17","70098","List2A","black","woman","","","","null","","","","","","","","",""
"11516.399999999441","","","survey-text","297","1214234","0.0-17.0-3.17","70098","List2A","black","woman","","","","","{""Q0"":""dave is being looked at by mike.""}","<img src=""stim_listA/look6.gif""style=""height:400px;""></stim_listA>","is being looked at by","","","","","",""
"null","<div style=""font-size:60px;"">+</div>","","html-keyboard-response","298","1214746","0.0-17.0-0.18","70098","List2A","black","woman","","","","null","","","","","","","","",""
"null","<img src=""stim_listA/kiss3.gif""style=""height:400px;""></stim_listA>","","html-keyboard-response","299","1216748","0.0-17.0-1.18","70098","List2A","black","woman","","","","null","","","","","","","","",""
"null","is kissing","","html-keyboard-response","300","1218751","0.0-17.0-2.18","70098","List2A","black","woman","","","","null","","","","","","","","",""
"8575.399999999441","","","survey-text","301","1227328","0.0-17.0-3.18","70098","List2A","black","woman","","","","","{""Q0"":""bethis kissing fred.""}","<img src=""stim_listA/kiss3.gif""style=""height:400px;""></stim_listA>","is kissing","","","","","",""
"null","<div style=""font-size:60px;"">+</div>","","html-keyboard-response","302","1227840","0.0-17.0-0.19","70098","List2A","black","woman","","","","null","","","","","","","","",""
"null","<img src=""stim_listA/greet5.gif""style=""height:400px;""></stim_listA>","","html-keyboard-response","303","1229846","0.0-17.0-1.19","70098","List2A","black","woman","","","","null","","","","","","","","",""
"null","is greeting","","html-keyboard-response","304","1231848","0.0-17.0-2.19","70098","List2A","black","woman","","","","null","","","","","","","","",""
"6714.5","","","survey-text","305","1238564","0.0-17.0-3.19","70098","List2A","black","woman","","","","","{""Q0"":""dave is greeting fred.""}","<img src=""stim_listA/greet5.gif""style=""height:400px;""></stim_listA>","is greeting","","","","","",""
"5099.200000000186","<img src='img/portrait_matrix_list2.jpg' style='width:900px;height:500px;''></img><p>If you have memorised all the portraits and names and are ready to start, press Continue.</p><p><strong>Please note: Your memory of these faces will be tested 4 times during this experiment.</strong></p>","0","html-button-response","306","1243665","0.0-18.0-0.0","70098","List2A","black","woman","","","","","","","","","","","","",""
"1881.7999999998137","<img src=""portrait/WM1.jpg""style=""height:400px;""></img>","6","html-button-response","307","1246555","0.0-18.0-1.0","70098","List2A","black","woman","","true","6","","","","","","","","","",""
"null","CORRECT","","html-keyboard-response","308","1248072","0.0-18.0-2.0-0.0","70098","List2A","black","woman","","","","null","","","","","","","","",""
"1710.7000000001863","<img src=""portrait/BM2.jpg""style=""height:400px;""></img>","5","html-button-response","309","1249784","0.0-18.0-4.0","70098","List2A","black","woman","","true","5","","","","","","","","","",""
"null","CORRECT","","html-keyboard-response","310","1251297","0.0-18.0-5.0-0.0","70098","List2A","black","woman","","","","null","","","","","","","","",""
"4089.2000000001863","<img src=""portrait/WW1.jpg""style=""height:400px;""></img>","1","html-button-response","311","1255387","0.0-18.0-7.0","70098","List2A","black","woman","","true","1","","","","","","","","","",""
"null","CORRECT","","html-keyboard-response","312","1256900","0.0-18.0-8.0-0.0","70098","List2A","black","woman","","","","null","","","","","","","","",""
"1793.1000000005588","<img src=""portrait/WM2.jpg""style=""height:400px;""></img>","7","html-button-response","313","1258694","0.0-18.0-10.0","70098","List2A","black","woman","","true","7","","","","","","","","","",""
"null","CORRECT","","html-keyboard-response","314","1260212","0.0-18.0-11.0-0.0","70098","List2A","black","woman","","","","null","","","","","","","","",""
"3531.7999999998137","<img src=""portrait/BW2.jpg""style=""height:400px;""></img>","2","html-button-response","315","1263745","0.0-18.0-13.0","70098","List2A","black","woman","","true","2","","","","","","","","","",""
"null","CORRECT","","html-keyboard-response","316","1265271","0.0-18.0-14.0-0.0","70098","List2A","black","woman","","","","null","","","","","","","","",""
"2120.5","<img src=""portrait/BM1.jpg""style=""height:400px;""></img>","4","html-button-response","317","1267393","0.0-18.0-16.0","70098","List2A","black","woman","","true","4","","","","","","","","","",""
"null","CORRECT","","html-keyboard-response","318","1268922","0.0-18.0-17.0-0.0","70098","List2A","black","woman","","","","null","","","","","","","","",""
"1603.800000000745","<img src=""portrait/BW1.jpg""style=""height:400px;""></img>","0","html-button-response","319","1270528","0.0-18.0-19.0","70098","List2A","black","woman","","true","0","","","","","","","","","",""
"null","CORRECT","","html-keyboard-response","320","1272042","0.0-18.0-20.0-0.0","70098","List2A","black","woman","","","","null","","","","","","","","",""
"1699.5","<img src=""portrait/WW2.jpg""style=""height:400px;""></img>","3","html-button-response","321","1273743","0.0-18.0-22.0","70098","List2A","black","woman","","true","3","","","","","","","","","",""
"null","CORRECT","","html-keyboard-response","322","1275274","0.0-18.0-23.0-0.0","70098","List2A","black","woman","","","","null","","","","","","","","",""
"2026.4000000003725","<p>You got 8 out of 8 right first time. Press Continue.</p>","0","html-button-response","323","1277302","0.0-18.0-25.0","70098","List2A","black","woman","","","","","","","","","","","","",""
"null","<div style=""font-size:60px;"">+</div>","","html-keyboard-response","324","1278815","0.0-19.0-0.0","70098","List2A","black","woman","","","","null","","","","","","","","",""
"null","<img src=""stim_listA/challenge5.gif""style=""height:400px;""></stim_listA>","","html-keyboard-response","325","1280831","0.0-19.0-1.0","70098","List2A","black","woman","","","","null","","","","","","","","",""
"null","is challenging","","html-keyboard-response","326","1282833","0.0-19.0-2.0","70098","List2A","black","woman","","","","null","","","","","","","","",""
"7972.299999999814","","","survey-text","327","1290807","0.0-19.0-3.0","70098","List2A","black","woman","","","","","{""Q0"":""dave is challenging fred.""}","<img src=""stim_listA/challenge5.gif""style=""height:400px;""></stim_listA>","is challenging","","","","","",""
"null","<div style=""font-size:60px;"">+</div>","","html-keyboard-response","328","1291317","0.0-19.0-0.1","70098","List2A","black","woman","","","","null","","","","","","","","",""
"null","<img src=""stim_listA/seduce3.gif""style=""height:400px;""></stim_listA>","","html-keyboard-response","329","1293329","0.0-19.0-1.1","70098","List2A","black","woman","","","","null","","","","","","","","",""
"null","is seducing","","html-keyboard-response","330","1295330","0.0-19.0-2.1","70098","List2A","black","woman","","","","null","","","","","","","","",""
"8186.5","","","survey-text","331","1303518","0.0-19.0-3.1","70098","List2A","black","woman","","","","","{""Q0"":""fred is seducing kate.""}","<img src=""stim_listA/seduce3.gif""style=""height:400px;""></stim_listA>","is seducing","","","","","",""
"null","<div style=""font-size:60px;"">+</div>","","html-keyboard-response","332","1304031","0.0-19.0-0.2","70098","List2A","black","woman","","","","null","","","","","","","","",""
"null","<img src=""stim_listA/touch5.gif""style=""height:400px;""></stim_listA>","","html-keyboard-response","333","1306044","0.0-19.0-1.2","70098","List2A","black","woman","","","","null","","","","","","","","",""
"null","is touching","","html-keyboard-response","334","1308058","0.0-19.0-2.2","70098","List2A","black","woman","","","","null","","","","","","","","",""
"7261.700000000186","","","survey-text","335","1315321","0.0-19.0-3.2","70098","List2A","black","woman","","","","","{""Q0"":""dave is touching mike.""}","<img src=""stim_listA/touch5.gif""style=""height:400px;""></stim_listA>","is touching","","","","","",""
"null","<div style=""font-size:60px;"">+</div>","","html-keyboard-response","336","1315834","0.0-19.0-0.3","70098","List2A","black","woman","","","","null","","","","","","","","",""
"null","<img src=""stim_listA/copy3.gif""style=""height:400px;""></stim_listA>","","html-keyboard-response","337","1317837","0.0-19.0-1.3","70098","List2A","black","woman","","","","null","","","","","","","","",""
"null","is copying","","html-keyboard-response","338","1319838","0.0-19.0-2.3","70098","List2A","black","woman","","","","null","","","","","","","","",""
"9324","","","survey-text","339","1329164","0.0-19.0-3.3","70098","List2A","black","woman","","","","","{""Q0"":""mike is copying beth.""}","<img src=""stim_listA/copy3.gif""style=""height:400px;""></stim_listA>","is copying","","","","","",""
"null","<div style=""font-size:60px;"">+</div>","","html-keyboard-response","340","1329679","0.0-19.0-0.4","70098","List2A","black","woman","","","","null","","","","","","","","",""
"null","<img src=""stim_listA/kiss7.gif""style=""height:400px;""></stim_listA>","","html-keyboard-response","341","1331680","0.0-19.0-1.4","70098","List2A","black","woman","","","","null","","","","","","","","",""
"null","is kissing","","html-keyboard-response","342","1333691","0.0-19.0-2.4","70098","List2A","black","woman","","","","null","","","","","","","","",""
"11409.5","","","survey-text","343","1345101","0.0-19.0-3.4","70098","List2A","black","woman","","","","","{""Q0"":""ruth is kissing beth.""}","<img src=""stim_listA/kiss7.gif""style=""height:400px;""></stim_listA>","is kissing","","","","","",""
"null","<div style=""font-size:60px;"">+</div>","","html-keyboard-response","344","1345615","0.0-19.0-0.5","70098","List2A","black","woman","","","","null","","","","","","","","",""
"null","<img src=""stim_listA/touch3.gif""style=""height:400px;""></stim_listA>","","html-keyboard-response","345","1347626","0.0-19.0-1.5","70098","List2A","black","woman","","","","null","","","","","","","","",""
"null","is touching","","html-keyboard-response","346","1349643","0.0-19.0-2.5","70098","List2A","black","woman","","","","null","","","","","","","","",""
"9961","","","survey-text","347","1359606","0.0-19.0-3.5","70098","List2A","black","woman","","","","","{""Q0"":""mike is touching kate.""}","<img src=""stim_listA/touch3.gif""style=""height:400px;""></stim_listA>","is touching","","","","","",""
"null","<div style=""font-size:60px;"">+</div>","","html-keyboard-response","348","1360108","0.0-19.0-0.6","70098","List2A","black","woman","","","","null","","","","","","","","",""
"null","<img src=""stim_listA/shout5.gif""style=""height:400px;""></stim_listA>","","html-keyboard-response","349","1362119","0.0-19.0-1.6","70098","List2A","black","woman","","","","null","","","","","","","","",""
"null","is shouting at","","html-keyboard-response","350","1364120","0.0-19.0-2.6","70098","List2A","black","woman","","","","null","","","","","","","","",""
"6402.699999999255","","","survey-text","351","1370524","0.0-19.0-3.6","70098","List2A","black","woman","","","","","{""Q0"":""luke is shouting at fred.""}","<img src=""stim_listA/shout5.gif""style=""height:400px;""></stim_listA>","is shouting at","","","","","",""
"null","<div style=""font-size:60px;"">+</div>","","html-keyboard-response","352","1371025","0.0-19.0-0.7","70098","List2A","black","woman","","","","null","","","","","","","","",""
"null","<img src=""stim_listA/copy5.gif""style=""height:400px;""></stim_listA>","","html-keyboard-response","353","1373027","0.0-19.0-1.7","70098","List2A","black","woman","","","","null","","","","","","","","",""
"null","is copying","","html-keyboard-response","354","1375029","0.0-19.0-2.7","70098","List2A","black","woman","","","","null","","","","","","","","",""
"13447.700000000186","","","survey-text","355","1388479","0.0-19.0-3.7","70098","List2A","black","woman","","","","","{""Q0"":""dave is copying fred.""}","<img src=""stim_listA/copy5.gif""style=""height:400px;""></stim_listA>","is copying","","","","","",""
"null","<div style=""font-size:60px;"">+</div>","","html-keyboard-response","356","1388988","0.0-19.0-0.8","70098","List2A","black","woman","","","","null","","","","","","","","",""
"null","<img src=""stim_listA/shout8.gif""style=""height:400px;""></stim_listA>","","html-keyboard-response","357","1390992","0.0-19.0-1.8","70098","List2A","black","woman","","","","null","","","","","","","","",""
"null","is being shouted at by","","html-keyboard-response","358","1392994","0.0-19.0-2.8","70098","List2A","black","woman","","","","null","","","","","","","","",""
"10456.100000000559","","","survey-text","359","1403451","0.0-19.0-3.8","70098","List2A","black","woman","","","","","{""Q0"":""kate is being shouted at by jane.""}","<img src=""stim_listA/shout8.gif""style=""height:400px;""></stim_listA>","is being shouted at by","","","","","",""
"null","<div style=""font-size:60px;"">+</div>","","html-keyboard-response","360","1403965","0.0-19.0-0.9","70098","List2A","black","woman","","","","null","","","","","","","","",""
"null","<img src=""stim_listA/look2.gif""style=""height:400px;""></stim_listA>","","html-keyboard-response","361","1405975","0.0-19.0-1.9","70098","List2A","black","woman","","","","null","","","","","","","","",""
"null","is being looked at by","","html-keyboard-response","362","1407984","0.0-19.0-2.9","70098","List2A","black","woman","","","","null","","","","","","","","",""
"18492.199999999255","","","survey-text","363","1426479","0.0-19.0-3.9","70098","List2A","black","woman","","","","","{""Q0"":""jane is being looked at by dave.""}","<img src=""stim_listA/look2.gif""style=""height:400px;""></stim_listA>","is being looked at by","","","","","",""
"null","<div style=""font-size:60px;"">+</div>","","html-keyboard-response","364","1426990","0.0-19.0-0.10","70098","List2A","black","woman","","","","null","","","","","","","","",""
"null","<img src=""stim_listA/kiss6.gif""style=""height:400px;""></stim_listA>","","html-keyboard-response","365","1428992","0.0-19.0-1.10","70098","List2A","black","woman","","","","null","","","","","","","","",""
"null","is being kissed by","","html-keyboard-response","366","1430994","0.0-19.0-2.10","70098","List2A","black","woman","","","","null","","","","","","","","",""
"11426.199999999255","","","survey-text","367","1442423","0.0-19.0-3.10","70098","List2A","black","woman","","","","","{""Q0"":""mike is being kissed by dave.""}","<img src=""stim_listA/kiss6.gif""style=""height:400px;""></stim_listA>","is being kissed by","","","","","",""
"null","<div style=""font-size:60px;"">+</div>","","html-keyboard-response","368","1442937","0.0-19.0-0.11","70098","List2A","black","woman","","","","null","","","","","","","","",""
"null","<img src=""stim_listA/shout6.gif""style=""height:400px;""></stim_listA>","","html-keyboard-response","369","1444946","0.0-19.0-1.11","70098","List2A","black","woman","","","","null","","","","","","","","",""
"null","is being shouted at by","","html-keyboard-response","370","1446948","0.0-19.0-2.11","70098","List2A","black","woman","","","","null","","","","","","","","",""
"12409.400000000373","","","survey-text","371","1459360","0.0-19.0-3.11","70098","List2A","black","woman","","","","","{""Q0"":""mike is being shouted at by dave.""}","<img src=""stim_listA/shout6.gif""style=""height:400px;""></stim_listA>","is being shouted at by","","","","","",""
"null","<div style=""font-size:60px;"">+</div>","","html-keyboard-response","372","1459875","0.0-19.0-0.12","70098","List2A","black","woman","","","","null","","","","","","","","",""
"null","<img src=""stim_listA/touch4.gif""style=""height:400px;""></stim_listA>","","html-keyboard-response","373","1461878","0.0-19.0-1.12","70098","List2A","black","woman","","","","null","","","","","","","","",""
"null","is being touched by","","html-keyboard-response","374","1463885","0.0-19.0-2.12","70098","List2A","black","woman","","","","null","","","","","","","","",""
"11535.600000000559","","","survey-text","375","1475422","0.0-19.0-3.12","70098","List2A","black","woman","","","","","{""Q0"":""fred is being touched by beth.""}","<img src=""stim_listA/touch4.gif""style=""height:400px;""></stim_listA>","is being touched by","","","","","",""
"null","<div style=""font-size:60px;"">+</div>","","html-keyboard-response","376","1475935","0.0-19.0-0.13","70098","List2A","black","woman","","","","null","","","","","","","","",""
"null","<img src=""stim_listA/kiss2.gif""style=""height:400px;""></stim_listA>","","html-keyboard-response","377","1477948","0.0-19.0-1.13","70098","List2A","black","woman","","","","null","","","","","","","","",""
"null","is being kissed by","","html-keyboard-response","378","1479962","0.0-19.0-2.13","70098","List2A","black","woman","","","","null","","","","","","","","",""
"12009.799999999814","","","survey-text","379","1491974","0.0-19.0-3.13","70098","List2A","black","woman","","","","","{""Q0"":""jane is being kissed by dave.""}","<img src=""stim_listA/kiss2.gif""style=""height:400px;""></stim_listA>","is being kissed by","","","","","",""
"null","<div style=""font-size:60px;"">+</div>","","html-keyboard-response","380","1492486","0.0-19.0-0.14","70098","List2A","black","woman","","","","null","","","","","","","","",""
"null","<img src=""stim_listA/hug6.gif""style=""height:400px;""></stim_listA>","","html-keyboard-response","381","1494493","0.0-19.0-1.14","70098","List2A","black","woman","","","","null","","","","","","","","",""
"null","is being hugged by","","html-keyboard-response","382","1496495","0.0-19.0-2.14","70098","List2A","black","woman","","","","null","","","","","","","","",""
"19996.60000000056","","","survey-text","383","1516493","0.0-19.0-3.14","70098","List2A","black","woman","","","","","{""Q0"":""dave is being hugged by mike.""}","<img src=""stim_listA/hug6.gif""style=""height:400px;""></stim_listA>","is being hugged by","","","","","",""
"null","<div style=""font-size:60px;"">+</div>","","html-keyboard-response","384","1517005","0.0-19.0-0.15","70098","List2A","black","woman","","","","null","","","","","","","","",""
"null","<img src=""stim_listA/seduce4.gif""style=""height:400px;""></stim_listA>","","html-keyboard-response","385","1519012","0.0-19.0-1.15","70098","List2A","black","woman","","","","null","","","","","","","","",""
"null","is being seduced by","","html-keyboard-response","386","1521015","0.0-19.0-2.15","70098","List2A","black","woman","","","","null","","","","","","","","",""
"8111.0999999996275","","","survey-text","387","1529128","0.0-19.0-3.15","70098","List2A","black","woman","","","","","{""Q0"":""beth is being seduced by mike.""}","<img src=""stim_listA/seduce4.gif""style=""height:400px;""></stim_listA>","is being seduced by","","","","","",""
"null","<div style=""font-size:60px;"">+</div>","","html-keyboard-response","388","1529643","0.0-19.0-0.16","70098","List2A","black","woman","","","","null","","","","","","","","",""
"null","<img src=""stim_listA/challenge7.gif""style=""height:400px;""></stim_listA>","","html-keyboard-response","389","1531645","0.0-19.0-1.16","70098","List2A","black","woman","","","","null","","","","","","","","",""
"null","is challenging","","html-keyboard-response","390","1533651","0.0-19.0-2.16","70098","List2A","black","woman","","","","null","","","","","","","","",""
"18317.5","","","survey-text","391","1551972","0.0-19.0-3.16","70098","List2A","black","woman","","","","","{""Q0"":""beth is being challenged by jane.""}","<img src=""stim_listA/challenge7.gif""style=""height:400px;""></stim_listA>","is challenging","","","","","",""
"null","<div style=""font-size:60px;"">+</div>","","html-keyboard-response","392","1552485","0.0-19.0-0.17","70098","List2A","black","woman","","","","null","","","","","","","","",""
"null","<img src=""stim_listA/shout7.gif""style=""height:400px;""></stim_listA>","","html-keyboard-response","393","1554487","0.0-19.0-1.17","70098","List2A","black","woman","","","","null","","","","","","","","",""
"null","is shouting at","","html-keyboard-response","394","1556488","0.0-19.0-2.17","70098","List2A","black","woman","","","","null","","","","","","","","",""
"7120.899999999441","","","survey-text","395","1563611","0.0-19.0-3.17","70098","List2A","black","woman","","","","","{""Q0"":""ruth is shouting at beth.""}","<img src=""stim_listA/shout7.gif""style=""height:400px;""></stim_listA>","is shouting at","","","","","",""
"null","<div style=""font-size:60px;"">+</div>","","html-keyboard-response","396","1564112","0.0-19.0-0.18","70098","List2A","black","woman","","","","null","","","","","","","","",""
"null","<img src=""stim_listA/greet7.gif""style=""height:400px;""></stim_listA>","","html-keyboard-response","397","1566114","0.0-19.0-1.18","70098","List2A","black","woman","","","","null","","","","","","","","",""
"null","is greeting","","html-keyboard-response","398","1568116","0.0-19.0-2.18","70098","List2A","black","woman","","","","null","","","","","","","","",""
"8518.5","","","survey-text","399","1576637","0.0-19.0-3.18","70098","List2A","black","woman","","","","","{""Q0"":""beth is greeting jane.""}","<img src=""stim_listA/greet7.gif""style=""height:400px;""></stim_listA>","is greeting","","","","","",""
"null","<div style=""font-size:60px;"">+</div>","","html-keyboard-response","400","1577144","0.0-19.0-0.19","70098","List2A","black","woman","","","","null","","","","","","","","",""
"null","<img src=""stim_listA/touch1.gif""style=""height:400px;""></stim_listA>","","html-keyboard-response","401","1579146","0.0-19.0-1.19","70098","List2A","black","woman","","","","null","","","","","","","","",""
"null","is touching","","html-keyboard-response","402","1581157","0.0-19.0-2.19","70098","List2A","black","woman","","","","null","","","","","","","","",""
"9243.899999999441","","","survey-text","403","1590403","0.0-19.0-3.19","70098","List2A","black","woman","","","","","{""Q0"":""dave is touching jane.""}","<img src=""stim_listA/touch1.gif""style=""height:400px;""></stim_listA>","is touching","","","","","",""
"2882.2999999998137","<p>Thank you for completing that task.</p><p>The final part of this session is a questionnaire that will take about 4 minutes.</p><p>Press Continue.</p>","0","html-button-response","404","1593286","0.0-20.0","70098","List2A","black","woman","","","","","","","","","","","","",""
"40512.39999999944","","","survey-text","405","1634814","0.0-21.0","70098","List2A","black","woman","","","","","{""Q0"":""43"",""Q1"":""english"",""Q2"":""english"",""Q3"":""USA"",""Q4"":""african american"",""Q5"":""black"",""Q6"":""female""}","","","demographics","","","","",""
"3211.2000000001863","<p>Have you lived in the USA for the last 5 years or more?</p>","0","html-button-response","406","1638027","0.0-22.0","70098","List2A","black","woman","","","","","","","","fiveyears","","","","",""
"2564.2999999998137","<p>Move the slider to show the extent to which you agree with the following statements.</p>","0","html-button-response","407","1641606","0.0-23.0","70098","List2A","black","woman","","","","","","","","","","","","",""
"5560.0999999996275","","","html-slider-response","408","1648171","0.0-24.0-0.0-0.0","70098","List2A","black","woman","","","","","","","","survey_gender","100","","","I am glad to have the friends that I have.","filler"
"8213.400000000373","","","html-slider-response","409","1656386","0.0-24.0-0.0-0.1","70098","List2A","black","woman","","","","","","","","survey_gender","51","","","People of my gender are very similar to each other.","verysimilar"
"4680.0999999996275","","","html-slider-response","410","1661068","0.0-24.0-0.0-0.2","70098","List2A","black","woman","","","","","","","","survey_gender","100","","","Being my gender is an important part of how I see myself.","important"
"2831.7999999998137","","","html-slider-response","411","1663902","0.0-24.0-0.0-0.3","70098","List2A","black","woman","","","","","","","","survey_gender","100","","","I am glad to be my gender.","glad"
"7464.0999999996275","","","html-slider-response","412","1671367","0.0-24.0-0.0-0.4","70098","List2A","black","woman","","","","","","","","survey_gender","62","","","It is not always easy for people to know what I am thinking.","filler"
"6102.5","","","html-slider-response","413","1677471","0.0-24.0-0.0-0.5","70098","List2A","black","woman","","","","","","","","survey_gender","100","","","I feel a bond with my gender.","bond"
"5616.199999999255","","","html-slider-response","414","1683089","0.0-24.0-0.0-0.6","70098","List2A","black","woman","","","","","","","","survey_gender","45","","","I often think about the fact that I am my gender.","often"
"6775.799999999814","","","html-slider-response","415","1689867","0.0-24.0-0.0-0.7","70098","List2A","black","woman","","","","","","","","survey_gender","100","","","I feel solidarity with my friends.","filler"
"3592.399999999441","","","html-slider-response","416","1693461","0.0-24.0-0.0-0.8","70098","List2A","black","woman","","","","","","","","survey_gender","100","","","Being around my friends gives me a good feeling.","filler"
"5709.4000000003725","","","html-slider-response","417","1699172","0.0-24.0-0.0-0.9","70098","List2A","black","woman","","","","","","","","survey_gender","69","","","I have a lot in common with the average person of my gender.","average"
"3533.2999999998137","","","html-slider-response","418","1702707","0.0-24.0-0.0-0.10","70098","List2A","black","woman","","","","","","","","survey_gender","100","","","I have a lot in common with my friends.","filler"
"3593.2999999998137","","","html-slider-response","419","1706302","0.0-24.0-0.0-0.11","70098","List2A","black","woman","","","","","","","","survey_gender","56","","","I feel solidarity with my gender.","solidarity"
"3385.600000000559","","","html-slider-response","420","1709690","0.0-24.0-0.0-0.12","70098","List2A","black","woman","","","","","","","","survey_gender","100","","","I feel committed to my gender.","committed"
"3093.100000000559","","","html-slider-response","421","1712784","0.0-24.0-0.0-0.13","70098","List2A","black","woman","","","","","","","","survey_gender","85","","","My friends understand me.","filler"
"3480","","","html-slider-response","422","1716266","0.0-24.0-0.0-0.14","70098","List2A","black","woman","","","","","","","","survey_gender","100","","","It is pleasant to be my gender.","pleasant"
"3501.5","","","html-slider-response","423","1719769","0.0-24.0-0.0-0.15","70098","List2A","black","woman","","","","","","","","survey_gender","100","","","I would say I am an animal person.","filler"
"4313.899999999441","","","html-slider-response","424","1724084","0.0-24.0-0.0-0.16","70098","List2A","black","woman","","","","","","","","survey_gender","100","","","I feel a bond with my friends.","filler"
"7931.399999999441","","","html-slider-response","425","1732017","0.0-24.0-0.0-0.17","70098","List2A","black","woman","","","","","","","","survey_gender","22","","","Family is not more important to me than friendship.","filler"
"3251.5","","","html-slider-response","426","1735271","0.0-24.0-0.0-0.18","70098","List2A","black","woman","","","","","","","","survey_gender","100","","","I often think about my actions.","filler"
"4142.799999999814","","","html-slider-response","427","1739415","0.0-24.0-0.0-0.19","70098","List2A","black","woman","","","","","","","","survey_gender","100","","","I think that my gender has a lot to be proud of.","proud"
"4099.799999999814","","","html-slider-response","428","1743516","0.0-24.0-0.0-0.20","70098","List2A","black","woman","","","","","","","","survey_gender","11","","","Routine is not important to me.","filler"
"4734.5999999996275","","","html-slider-response","429","1748252","0.0-24.0-0.0-0.21","70098","List2A","black","woman","","","","","","","","survey_gender","60","","","People of my gender have a lot in common with each other.","common"
"3792.4000000003725","","","html-slider-response","430","1752046","0.0-24.0-0.0-0.22","70098","List2A","black","woman","","","","","","","","survey_gender","81","","","My friends have a lot in common with each other.","filler"
"5756.899999999441","","","html-slider-response","431","1757804","0.0-24.0-0.0-0.23","70098","List2A","black","woman","","","","","","","","survey_gender","60","","","I am similar to the average person of my gender.","similar"
"3597.2000000001863","","","html-slider-response","432","1761403","0.0-24.0-0.0-0.24","70098","List2A","black","woman","","","","","","","","survey_gender","100","","","I consider myself a highly empathetic person.","filler"
"7137.4000000003725","","","html-slider-response","433","1768542","0.0-24.0-0.0-0.25","70098","List2A","black","woman","","","","","","","","survey_gender","100","","","Being my gender gives me a good feeling.","feeling"
"4844.800000000745","","","html-slider-response","434","1773389","0.0-24.0-0.0-0.26","70098","List2A","black","woman","","","","","","","","survey_gender","52","","","Most of the friends in my life are very similar to me.","filler"
"4016.800000000745","","","html-slider-response","435","1777407","0.0-24.0-0.0-0.27","70098","List2A","black","woman","","","","","","","","survey_gender","100","","","The fact that I am my gender is an important part of my identity.","identity"
"3292.100000000559","","","html-slider-response","436","1780701","0.0-24.0-1.0-0.0","70098","List2A","black","woman","","","","","","","","survey_race","100","","","Being my race gives me a good feeling.","feeling"
"4658.0999999996275","","","html-slider-response","437","1785361","0.0-24.0-1.0-0.1","70098","List2A","black","woman","","","","","","","","survey_race","100","","","Being my race is an important part of how I see myself.","important"
"5629.300000000745","","","html-slider-response","438","1790992","0.0-24.0-1.0-0.2","70098","List2A","black","woman","","","","","","","","survey_race","45","","","I have a lot in common with people of a similar age to me.","filler"
"5916.0999999996275","","","html-slider-response","439","1796910","0.0-24.0-1.0-0.3","70098","List2A","black","woman","","","","","","","","survey_race","48","","","I have a lot in common with the average person of my race.","average"
"4449.699999999255","","","html-slider-response","440","1801362","0.0-24.0-1.0-0.4","70098","List2A","black","woman","","","","","","","","survey_race","90","","","I am glad to be the age I am.","filler"
"10034.099999999627","","","html-slider-response","441","1811398","0.0-24.0-1.0-0.5","70098","List2A","black","woman","","","","","","","","survey_race","48","","","I often think about the fact that I am my age.","filler"
"4077.100000000559","","","html-slider-response","442","1815477","0.0-24.0-1.0-0.6","70098","List2A","black","woman","","","","","","","","survey_race","86","","","The older I get, the wiser I feel.","filler"
"4177.899999999441","","","html-slider-response","443","1819656","0.0-24.0-1.0-0.7","70098","List2A","black","woman","","","","","","","","survey_race","46","","","People my age have a lot in common with each other.","filler"
"3686.800000000745","","","html-slider-response","444","1823345","0.0-24.0-1.0-0.8","70098","List2A","black","woman","","","","","","","","survey_race","100","","","I feel a bond with my race.","bond"
"3528.7000000001863","","","html-slider-response","445","1826875","0.0-24.0-1.0-0.9","70098","List2A","black","woman","","","","","","","","survey_race","62","","","I enjoy being in large groups.","filler"
"5082.700000000186","","","html-slider-response","446","1831960","0.0-24.0-1.0-0.10","70098","List2A","black","woman","","","","","","","","survey_race","55","","","Getting older does not worry me.","filler"
"4116","","","html-slider-response","447","1836080","0.0-24.0-1.0-0.11","70098","List2A","black","woman","","","","","","","","survey_race","45","","","People of my race are very similar to each other.","verysimilar"
"4793.100000000559","","","html-slider-response","448","1840874","0.0-24.0-1.0-0.12","70098","List2A","black","woman","","","","","","","","survey_race","46","","","I am similar to the average person of my race.","similar"
"3266.2999999998137","","","html-slider-response","449","1844143","0.0-24.0-1.0-0.13","70098","List2A","black","woman","","","","","","","","survey_race","47","","","I consider myself an extrovert.","filler"
"3135.5","","","html-slider-response","450","1847280","0.0-24.0-1.0-0.14","70098","List2A","black","woman","","","","","","","","survey_race","100","","","I am glad to be my race.","glad"
"3558.5","","","html-slider-response","451","1850840","0.0-24.0-1.0-0.15","70098","List2A","black","woman","","","","","","","","survey_race","100","","","I think that my race has a lot to be proud of.","proud"
"4536","","","html-slider-response","452","1855378","0.0-24.0-1.0-0.16","70098","List2A","black","woman","","","","","","","","survey_race","49","","","I feel solidarity with people the same age as me.","filler"
"3138.399999999441","","","html-slider-response","453","1858518","0.0-24.0-1.0-0.17","70098","List2A","black","woman","","","","","","","","survey_race","100","","","It is pleasant to be my race.","pleasant"
"3533.7999999998137","","","html-slider-response","454","1862053","0.0-24.0-1.0-0.18","70098","List2A","black","woman","","","","","","","","survey_race","100","","","I feel committed to my race.","committed"
"5352.5999999996275","","","html-slider-response","455","1867408","0.0-24.0-1.0-0.19","70098","List2A","black","woman","","","","","","","","survey_race","49","","","I often think about the fact that I am my race.","often"
"3734.9000000003725","","","html-slider-response","456","1871144","0.0-24.0-1.0-0.20","70098","List2A","black","woman","","","","","","","","survey_race","74","","","I feel solidarity with my race.","solidarity"
"4068","","","html-slider-response","457","1875213","0.0-24.0-1.0-0.21","70098","List2A","black","woman","","","","","","","","survey_race","89","","","I consider myself an introvert.","filler"
"4336.399999999441","","","html-slider-response","458","1879552","0.0-24.0-1.0-0.22","70098","List2A","black","woman","","","","","","","","survey_race","100","","","The fact that I am my race is an important part of my identity.","identity"
"3753.800000000745","","","html-slider-response","459","1883307","0.0-24.0-1.0-0.23","70098","List2A","black","woman","","","","","","","","survey_race","67","","","Being my age gives me a good feeling.","filler"
"4269.200000000186","","","html-slider-response","460","1887577","0.0-24.0-1.0-0.24","70098","List2A","black","woman","","","","","","","","survey_race","53","","","People of my race have a lot in common with each other.","common"
"5709.700000000186","","","html-slider-response","461","1893289","0.0-24.0-1.0-0.25","70098","List2A","black","woman","","","","","","","","survey_race","53","","","I feel a bond with people the same age as me.","filler"
"5531.799999999814","","","html-slider-response","462","1898822","0.0-24.0-1.0-0.26","70098","List2A","black","woman","","","","","","","","survey_race","6","","","My age is not an important part of who I am.","filler"
"6486.700000000186","","","html-slider-response","463","1905310","0.0-24.0-1.0-0.27","70098","List2A","black","woman","","","","","","","","survey_race","92","","","I am glad to be my age.","filler"
"9002.100000000559","","","survey-text","464","1914315","0.0-25.0","70098","List2A","black","woman","","","","","{""Q0"":""5d562050b125380015b55388""}","","","worker_id","","","","",""
"41878.700000000186","","","external-html","465","1956614","0.0-26.0","70098","List2A","black","woman","debrief.html","","","","","","","","","","","",""
