rt,stimulus,button_pressed,trial_type,trial_index,time_elapsed,internal_node_id,subject,list,ppt_race,ppt_gender,url,first_guess,correct,key_press,responses,image_type,phrase_type,test_part,response,stimulus1,stimulus2,question_type,survey_item
5666.9,Welcome to the experiment. Press Continue to begin.,0,html-button-response,0,5668,0.0-0.0,70520,List1B,white,man,,,,,,,,,,,,,
13658.4,,,external-html,1,20342,0.0-1.0,70520,List1B,white,man,consent.html,,,,,,,,,,,,
3650.8,"<p>On the next page, you will see portraits of 8 people and their names.</p><p>Your first task is to take a few minutes to memorise the names of these people.</p><p>You will have to recall their names during the rest of the experiment, so it is</p><p>essential that you try to memorise these people and their names as best as you can.</p><br><p><strong>You will then be tested on your memory of these names and portraits.</strong></p><br><p>The experiment will start after you have completed this memory test.</p><br><p>Ready?</p>",0,html-button-response,2,23994,0.0-2.0,70520,List1B,white,man,,,,,,,,,,,,,
12687.3,"<img src='img/portrait_matrix_list1.jpg' style='width:900px;height:500px;''></img><p>If you have memorised all the portraits and names and are ready to start, press Continue.</p><p><strong>Please note: Your memory of these faces will be tested 4 times during this experiment.</strong></p>",0,html-button-response,3,37698,0.0-3.0-0.0,70520,List1B,white,man,,,,,,,,,,,,,
5591.3,"<img src=""portrait/BM1.jpg""style=""height:400px;""></img>",4,html-button-response,4,44302,0.0-3.0-1.0,70520,List1B,white,man,,TRUE,4,,,,,,,,,,
null,CORRECT,,html-keyboard-response,5,45828,0.0-3.0-2.0-0.0,70520,List1B,white,man,,,,null,,,,,,,,,
5225.7,"<img src=""portrait/WM1.jpg""style=""height:400px;""></img>",6,html-button-response,6,51055,0.0-3.0-4.0,70520,List1B,white,man,,TRUE,6,,,,,,,,,,
null,CORRECT,,html-keyboard-response,7,52561,0.0-3.0-5.0-0.0,70520,List1B,white,man,,,,null,,,,,,,,,
3342.8,"<img src=""portrait/WM2.jpg""style=""height:400px;""></img>",7,html-button-response,8,55905,0.0-3.0-7.0,70520,List1B,white,man,,TRUE,7,,,,,,,,,,
null,CORRECT,,html-keyboard-response,9,57422,0.0-3.0-8.0-0.0,70520,List1B,white,man,,,,null,,,,,,,,,
4994.1,"<img src=""portrait/BM2.jpg""style=""height:400px;""></img>",5,html-button-response,10,62418,0.0-3.0-10.0,70520,List1B,white,man,,TRUE,5,,,,,,,,,,
null,CORRECT,,html-keyboard-response,11,63939,0.0-3.0-11.0-0.0,70520,List1B,white,man,,,,null,,,,,,,,,
3661.6,"<img src=""portrait/BW1.jpg""style=""height:400px;""></img>",0,html-button-response,12,67602,0.0-3.0-13.0,70520,List1B,white,man,,TRUE,0,,,,,,,,,,
null,CORRECT,,html-keyboard-response,13,69121,0.0-3.0-14.0-0.0,70520,List1B,white,man,,,,null,,,,,,,,,
5742.8,"<img src=""portrait/BW2.jpg""style=""height:400px;""></img>",2,html-button-response,14,74865,0.0-3.0-16.0,70520,List1B,white,man,,TRUE,2,,,,,,,,,,
null,CORRECT,,html-keyboard-response,15,76374,0.0-3.0-17.0-0.0,70520,List1B,white,man,,,,null,,,,,,,,,
4880.7,"<img src=""portrait/WW1.jpg""style=""height:400px;""></img>",1,html-button-response,16,81256,0.0-3.0-19.0,70520,List1B,white,man,,TRUE,1,,,,,,,,,,
null,CORRECT,,html-keyboard-response,17,82772,0.0-3.0-20.0-0.0,70520,List1B,white,man,,,,null,,,,,,,,,
50660.5,"<img src=""portrait/WW2.jpg""style=""height:400px;""></img>",3,html-button-response,18,133434,0.0-3.0-22.0,70520,List1B,white,man,,TRUE,3,,,,,,,,,,
null,CORRECT,,html-keyboard-response,19,134952,0.0-3.0-23.0-0.0,70520,List1B,white,man,,,,null,,,,,,,,,
2775.3,<p>You got 8 out of 8 right first time. Press Continue.</p>,0,html-button-response,20,137729,0.0-3.0-25.0,70520,List1B,white,man,,,,,,,,,,,,,
70787.4,"<p>In this experiment, you will view photographs of the people from the memory game interacting.</p><p>By using the <strong>exact</strong> phrase given <i>after</i> the photograph appears and recalling the correct names of the people in the photographs, form a sentence describing the interaction. You do not need to capitalise names.</p><p>Type your answer in the space provided. Please complete every sentence before moving onto the next trial.</p><p>You will only have a few seconds to memorise each given photograph and phrase before you can respond, so try your best to focus.</p><p>An example is given below. Press 'Continue' when you are ready.</p><img src='img/speaking_example.jpg' style='width:800px;height:460px;''></img>",0,html-button-response,21,209527,0.0-4.0,70520,List1B,white,man,,,,,,,,,,,,,
3623.2,"<p>Before the experiment starts, you will watch two example trials. Press 'Continue'.</p>",0,html-button-response,22,214158,0.0-5.0,70520,List1B,white,man,,,,,,,,,,,,,
null,<img src='img/play_eg.gif' style='height:400px;''></img>,,html-keyboard-response,23,217182,0.0-6.0,70520,List1B,white,man,,,,null,,,,,,,,,
null,<p>is playing with</p>,,html-keyboard-response,24,219187,0.0-7.0,70520,List1B,white,man,,,,null,,,,,,,,,
43408.2,<p><b>Answer:</b> kate is playing with beth</p>,0,html-button-response,25,262596,0.0-8.0,70520,List1B,white,man,,,,,,,,,,,,,
null,<img src='img/dance_eg.gif' style='height:400px;''></img>,,html-keyboard-response,26,265614,0.0-9.0,70520,List1B,white,man,,,,null,,,,,,,,,
null,<p>is being entertained by</p>,,html-keyboard-response,27,267620,0.0-10.0,70520,List1B,white,man,,,,null,,,,,,,,,
4018,<p><b>Answer:</b> luke is being entertained by dave</p>,0,html-button-response,28,271639,0.0-11.0,70520,List1B,white,man,,,,,,,,,,,,,
50545.2,"<p>Ready to start the experiment?</p><br><p><strong>Remember to describe the picture using a full sentence,</strong></p><p><strong>that combines the names of the people with the <i>exact</i> phrase given.</strong></p><p><strong>To receive full payment you must do this correctly.</strong></p><p><strong> You do not need to capitalise names or use punctuation.</strong></p><br><p>Press 'Continue' to begin.</p>",0,html-button-response,29,323195,0.0-12.0,70520,List1B,white,man,,,,,,,,,,,,,
null,"<div style=""font-size:60px;"">+</div>",,html-keyboard-response,30,324713,0.0-13.0-0.0,70520,List1B,white,man,,,,null,,,,,,,,,
null,"<img src=""stim_listB/oppose4.gif""style=""height:400px;""></stim_listB>",,html-keyboard-response,31,326715,0.0-13.0-1.0,70520,List1B,white,man,,,,null,,,,,,,,,
null,is being opposed by,,html-keyboard-response,32,328728,0.0-13.0-2.0,70520,List1B,white,man,,,,null,,,,,,,,,
29360.3,,,survey-text,33,358092,0.0-13.0-3.0,70520,List1B,white,man,,,,,"{""Q0"":""ruth is fighting with dave.""}","<img src=""stim_listB/oppose4.gif""style=""height:400px;""></stim_listB>",is being opposed by,,,,,,
null,"<div style=""font-size:60px;"">+</div>",,html-keyboard-response,34,358607,0.0-13.0-0.1,70520,List1B,white,man,,,,null,,,,,,,,,
null,"<img src=""stim_listB/kiss3.gif""style=""height:400px;""></stim_listB>",,html-keyboard-response,35,360613,0.0-13.0-1.1,70520,List1B,white,man,,,,null,,,,,,,,,
null,is kissing,,html-keyboard-response,36,362615,0.0-13.0-2.1,70520,List1B,white,man,,,,null,,,,,,,,,
14947.9,,,survey-text,37,377566,0.0-13.0-3.1,70520,List1B,white,man,,,,,"{""Q0"":""Ruth is kissing dave""}","<img src=""stim_listB/kiss3.gif""style=""height:400px;""></stim_listB>",is kissing,,,,,,
null,"<div style=""font-size:60px;"">+</div>",,html-keyboard-response,38,378077,0.0-13.0-0.2,70520,List1B,white,man,,,,null,,,,,,,,,
null,"<img src=""stim_listB/shout6.gif""style=""height:400px;""></stim_listB>",,html-keyboard-response,39,380079,0.0-13.0-1.2,70520,List1B,white,man,,,,null,,,,,,,,,
null,is being shouted at by,,html-keyboard-response,40,382082,0.0-13.0-2.2,70520,List1B,white,man,,,,null,,,,,,,,,
19172.6,,,survey-text,41,401257,0.0-13.0-3.2,70520,List1B,white,man,,,,,"{""Q0"":""Fred is been shouted at by mike.""}","<img src=""stim_listB/shout6.gif""style=""height:400px;""></stim_listB>",is being shouted at by,,,,,,
null,"<div style=""font-size:60px;"">+</div>",,html-keyboard-response,42,401763,0.0-13.0-0.3,70520,List1B,white,man,,,,null,,,,,,,,,
null,"<img src=""stim_listB/challenge6.gif""style=""height:400px;""></stim_listB>",,html-keyboard-response,43,403777,0.0-13.0-1.3,70520,List1B,white,man,,,,null,,,,,,,,,
null,is being challenged by,,html-keyboard-response,44,405781,0.0-13.0-2.3,70520,List1B,white,man,,,,null,,,,,,,,,
21509.8,,,survey-text,45,427293,0.0-13.0-3.3,70520,List1B,white,man,,,,,"{""Q0"":""fred is been challenged by dave""}","<img src=""stim_listB/challenge6.gif""style=""height:400px;""></stim_listB>",is being challenged by,,,,,,
null,"<div style=""font-size:60px;"">+</div>",,html-keyboard-response,46,427809,0.0-13.0-0.4,70520,List1B,white,man,,,,null,,,,,,,,,
null,"<img src=""stim_listB/greet7.gif""style=""height:400px;""></stim_listB>",,html-keyboard-response,47,429812,0.0-13.0-1.4,70520,List1B,white,man,,,,null,,,,,,,,,
null,is greeting,,html-keyboard-response,48,431828,0.0-13.0-2.4,70520,List1B,white,man,,,,null,,,,,,,,,
15785.2,,,survey-text,49,447616,0.0-13.0-3.4,70520,List1B,white,man,,,,,"{""Q0"":""Ruth is greeting kate""}","<img src=""stim_listB/greet7.gif""style=""height:400px;""></stim_listB>",is greeting,,,,,,
null,"<div style=""font-size:60px;"">+</div>",,html-keyboard-response,50,448124,0.0-13.0-0.5,70520,List1B,white,man,,,,null,,,,,,,,,
null,"<img src=""stim_listB/challenge1.gif""style=""height:400px;""></stim_listB>",,html-keyboard-response,51,450140,0.0-13.0-1.5,70520,List1B,white,man,,,,null,,,,,,,,,
null,is challenging,,html-keyboard-response,52,452145,0.0-13.0-2.5,70520,List1B,white,man,,,,null,,,,,,,,,
16785.6,,,survey-text,53,468933,0.0-13.0-3.5,70520,List1B,white,man,,,,,"{""Q0"":""Fred is challenging beth.""}","<img src=""stim_listB/challenge1.gif""style=""height:400px;""></stim_listB>",is challenging,,,,,,
null,"<div style=""font-size:60px;"">+</div>",,html-keyboard-response,54,469443,0.0-13.0-0.6,70520,List1B,white,man,,,,null,,,,,,,,,
null,"<img src=""stim_listB/copy8.gif""style=""height:400px;""></stim_listB>",,html-keyboard-response,55,471457,0.0-13.0-1.6,70520,List1B,white,man,,,,null,,,,,,,,,
null,is being copied by,,html-keyboard-response,56,473461,0.0-13.0-2.6,70520,List1B,white,man,,,,null,,,,,,,,,
17475.8,,,survey-text,57,490940,0.0-13.0-3.6,70520,List1B,white,man,,,,,"{""Q0"":""Jane is been copied by Beth.""}","<img src=""stim_listB/copy8.gif""style=""height:400px;""></stim_listB>",is being copied by,,,,,,
null,"<div style=""font-size:60px;"">+</div>",,html-keyboard-response,58,491443,0.0-13.0-0.7,70520,List1B,white,man,,,,null,,,,,,,,,
null,"<img src=""stim_listB/greet1.gif""style=""height:400px;""></stim_listB>",,html-keyboard-response,59,493458,0.0-13.0-1.7,70520,List1B,white,man,,,,null,,,,,,,,,
null,is greeting,,html-keyboard-response,60,495460,0.0-13.0-2.7,70520,List1B,white,man,,,,null,,,,,,,,,
12188.2,,,survey-text,61,507651,0.0-13.0-3.7,70520,List1B,white,man,,,,,"{""Q0"":""Beth is greeting Mike.""}","<img src=""stim_listB/greet1.gif""style=""height:400px;""></stim_listB>",is greeting,,,,,,
null,"<div style=""font-size:60px;"">+</div>",,html-keyboard-response,62,508156,0.0-13.0-0.8,70520,List1B,white,man,,,,null,,,,,,,,,
null,"<img src=""stim_listB/challenge4.gif""style=""height:400px;""></stim_listB>",,html-keyboard-response,63,510172,0.0-13.0-1.8,70520,List1B,white,man,,,,null,,,,,,,,,
null,is being challenged by,,html-keyboard-response,64,512176,0.0-13.0-2.8,70520,List1B,white,man,,,,null,,,,,,,,,
18596.8,,,survey-text,65,530775,0.0-13.0-3.8,70520,List1B,white,man,,,,,"{""Q0"":""Luke is been challenged by jane.""}","<img src=""stim_listB/challenge4.gif""style=""height:400px;""></stim_listB>",is being challenged by,,,,,,
null,"<div style=""font-size:60px;"">+</div>",,html-keyboard-response,66,531288,0.0-13.0-0.9,70520,List1B,white,man,,,,null,,,,,,,,,
null,"<img src=""stim_listB/challenge7.gif""style=""height:400px;""></stim_listB>",,html-keyboard-response,67,533304,0.0-13.0-1.9,70520,List1B,white,man,,,,null,,,,,,,,,
null,is challenging,,html-keyboard-response,68,535312,0.0-13.0-2.9,70520,List1B,white,man,,,,null,,,,,,,,,
14402.6,,,survey-text,69,549717,0.0-13.0-3.9,70520,List1B,white,man,,,,,"{""Q0"":""Kate is challenging Ruth.""}","<img src=""stim_listB/challenge7.gif""style=""height:400px;""></stim_listB>",is challenging,,,,,,
null,"<div style=""font-size:60px;"">+</div>",,html-keyboard-response,70,550223,0.0-13.0-0.10,70520,List1B,white,man,,,,null,,,,,,,,,
null,"<img src=""stim_listB/kiss5.gif""style=""height:400px;""></stim_listB>",,html-keyboard-response,71,552236,0.0-13.0-1.10,70520,List1B,white,man,,,,null,,,,,,,,,
null,is kissing,,html-keyboard-response,72,554243,0.0-13.0-2.10,70520,List1B,white,man,,,,null,,,,,,,,,
11523.4,,,survey-text,73,565770,0.0-13.0-3.10,70520,List1B,white,man,,,,,"{""Q0"":""Fred is kissing Luke""}","<img src=""stim_listB/kiss5.gif""style=""height:400px;""></stim_listB>",is kissing,,,,,,
null,"<div style=""font-size:60px;"">+</div>",,html-keyboard-response,74,566271,0.0-13.0-0.11,70520,List1B,white,man,,,,null,,,,,,,,,
null,"<img src=""stim_listB/greet8.gif""style=""height:400px;""></stim_listB>",,html-keyboard-response,75,568286,0.0-13.0-1.11,70520,List1B,white,man,,,,null,,,,,,,,,
null,is being greeted by,,html-keyboard-response,76,570289,0.0-13.0-2.11,70520,List1B,white,man,,,,null,,,,,,,,,
12957.4,,,survey-text,77,583249,0.0-13.0-3.11,70520,List1B,white,man,,,,,"{""Q0"":""Jane is greeted by Beth.""}","<img src=""stim_listB/greet8.gif""style=""height:400px;""></stim_listB>",is being greeted by,,,,,,
null,"<div style=""font-size:60px;"">+</div>",,html-keyboard-response,78,583754,0.0-13.0-0.12,70520,List1B,white,man,,,,null,,,,,,,,,
null,"<img src=""stim_listB/hug8.gif""style=""height:400px;""></stim_listB>",,html-keyboard-response,79,585771,0.0-13.0-1.12,70520,List1B,white,man,,,,null,,,,,,,,,
null,is being hugged by,,html-keyboard-response,80,587773,0.0-13.0-2.12,70520,List1B,white,man,,,,null,,,,,,,,,
19018.8,,,survey-text,81,606794,0.0-13.0-3.12,70520,List1B,white,man,,,,,"{""Q0"":""Kate is been hugged by Jane.""}","<img src=""stim_listB/hug8.gif""style=""height:400px;""></stim_listB>",is being hugged by,,,,,,
null,"<div style=""font-size:60px;"">+</div>",,html-keyboard-response,82,607304,0.0-13.0-0.13,70520,List1B,white,man,,,,null,,,,,,,,,
null,"<img src=""stim_listB/hug3.gif""style=""height:400px;""></stim_listB>",,html-keyboard-response,83,609313,0.0-13.0-1.13,70520,List1B,white,man,,,,null,,,,,,,,,
null,is hugging,,html-keyboard-response,84,611325,0.0-13.0-2.13,70520,List1B,white,man,,,,null,,,,,,,,,
11569.4,,,survey-text,85,622897,0.0-13.0-3.13,70520,List1B,white,man,,,,,"{""Q0"":""Luke is hugging Jane.""}","<img src=""stim_listB/hug3.gif""style=""height:400px;""></stim_listB>",is hugging,,,,,,
null,"<div style=""font-size:60px;"">+</div>",,html-keyboard-response,86,623402,0.0-13.0-0.14,70520,List1B,white,man,,,,null,,,,,,,,,
null,"<img src=""stim_listB/oppose2.gif""style=""height:400px;""></stim_listB>",,html-keyboard-response,87,625417,0.0-13.0-1.14,70520,List1B,white,man,,,,null,,,,,,,,,
null,is being opposed by,,html-keyboard-response,88,627422,0.0-13.0-2.14,70520,List1B,white,man,,,,null,,,,,,,,,
19881.6,,,survey-text,89,647305,0.0-13.0-3.14,70520,List1B,white,man,,,,,"{""Q0"":""Fred is been opposed by Beth.""}","<img src=""stim_listB/oppose2.gif""style=""height:400px;""></stim_listB>",is being opposed by,,,,,,
null,"<div style=""font-size:60px;"">+</div>",,html-keyboard-response,90,647815,0.0-13.0-0.15,70520,List1B,white,man,,,,null,,,,,,,,,
null,"<img src=""stim_listB/shout8.gif""style=""height:400px;""></stim_listB>",,html-keyboard-response,91,649833,0.0-13.0-1.15,70520,List1B,white,man,,,,null,,,,,,,,,
null,is being shouted at by,,html-keyboard-response,92,651841,0.0-13.0-2.15,70520,List1B,white,man,,,,null,,,,,,,,,
15254.9,,,survey-text,93,667098,0.0-13.0-3.15,70520,List1B,white,man,,,,,"{""Q0"":""Kate is been shouted at by Jane.""}","<img src=""stim_listB/shout8.gif""style=""height:400px;""></stim_listB>",is being shouted at by,,,,,,
null,"<div style=""font-size:60px;"">+</div>",,html-keyboard-response,94,667599,0.0-13.0-0.16,70520,List1B,white,man,,,,null,,,,,,,,,
null,"<img src=""stim_listB/look7.gif""style=""height:400px;""></stim_listB>",,html-keyboard-response,95,669603,0.0-13.0-1.16,70520,List1B,white,man,,,,null,,,,,,,,,
null,is looking at,,html-keyboard-response,96,671611,0.0-13.0-2.16,70520,List1B,white,man,,,,null,,,,,,,,,
12655.5,,,survey-text,97,684270,0.0-13.0-3.16,70520,List1B,white,man,,,,,"{""Q0"":""Ruth is looking at Beth.""}","<img src=""stim_listB/look7.gif""style=""height:400px;""></stim_listB>",is looking at,,,,,,
null,"<div style=""font-size:60px;"">+</div>",,html-keyboard-response,98,684782,0.0-13.0-0.17,70520,List1B,white,man,,,,null,,,,,,,,,
null,"<img src=""stim_listB/oppose7.gif""style=""height:400px;""></stim_listB>",,html-keyboard-response,99,686785,0.0-13.0-1.17,70520,List1B,white,man,,,,null,,,,,,,,,
null,is opposing,,html-keyboard-response,100,688786,0.0-13.0-2.17,70520,List1B,white,man,,,,null,,,,,,,,,
12307.5,,,survey-text,101,701096,0.0-13.0-3.17,70520,List1B,white,man,,,,,"{""Q0"":""Kate is opposing Jane.""}","<img src=""stim_listB/oppose7.gif""style=""height:400px;""></stim_listB>",is opposing,,,,,,
null,"<div style=""font-size:60px;"">+</div>",,html-keyboard-response,102,701602,0.0-13.0-0.18,70520,List1B,white,man,,,,null,,,,,,,,,
null,"<img src=""stim_listB/greet6.gif""style=""height:400px;""></stim_listB>",,html-keyboard-response,103,703615,0.0-13.0-1.18,70520,List1B,white,man,,,,null,,,,,,,,,
null,is being greeted by,,html-keyboard-response,104,705618,0.0-13.0-2.18,70520,List1B,white,man,,,,null,,,,,,,,,
12003.3,,,survey-text,105,717623,0.0-13.0-3.18,70520,List1B,white,man,,,,,"{""Q0"":""Fred is been greeted by dave.""}","<img src=""stim_listB/greet6.gif""style=""height:400px;""></stim_listB>",is being greeted by,,,,,,
null,"<div style=""font-size:60px;"">+</div>",,html-keyboard-response,106,718130,0.0-13.0-0.19,70520,List1B,white,man,,,,null,,,,,,,,,
null,"<img src=""stim_listB/oppose6.gif""style=""height:400px;""></stim_listB>",,html-keyboard-response,107,720132,0.0-13.0-1.19,70520,List1B,white,man,,,,null,,,,,,,,,
null,is being opposed by,,html-keyboard-response,108,722134,0.0-13.0-2.19,70520,List1B,white,man,,,,null,,,,,,,,,
15858.8,,,survey-text,109,737995,0.0-13.0-3.19,70520,List1B,white,man,,,,,"{""Q0"":""Fred is been opposed by Luke.""}","<img src=""stim_listB/oppose6.gif""style=""height:400px;""></stim_listB>",is being opposed by,,,,,,
15014.3,"<img src='img/portrait_matrix_list1.jpg' style='width:900px;height:500px;''></img><p>If you have memorised all the portraits and names and are ready to start, press Continue.</p><p><strong>Please note: Your memory of these faces will be tested 4 times during this experiment.</strong></p>",0,html-button-response,110,753011,0.0-14.0-0.0,70520,List1B,white,man,,,,,,,,,,,,,
5353.7,"<img src=""portrait/WM2.jpg""style=""height:400px;""></img>",7,html-button-response,111,759371,0.0-14.0-1.0,70520,List1B,white,man,,TRUE,7,,,,,,,,,,
null,CORRECT,,html-keyboard-response,112,760896,0.0-14.0-2.0-0.0,70520,List1B,white,man,,,,null,,,,,,,,,
2760.9,"<img src=""portrait/BM1.jpg""style=""height:400px;""></img>",4,html-button-response,113,763659,0.0-14.0-4.0,70520,List1B,white,man,,TRUE,4,,,,,,,,,,
null,CORRECT,,html-keyboard-response,114,765179,0.0-14.0-5.0-0.0,70520,List1B,white,man,,,,null,,,,,,,,,
3875.3,"<img src=""portrait/BM2.jpg""style=""height:400px;""></img>",5,html-button-response,115,769056,0.0-14.0-7.0,70520,List1B,white,man,,TRUE,5,,,,,,,,,,
null,CORRECT,,html-keyboard-response,116,770565,0.0-14.0-8.0-0.0,70520,List1B,white,man,,,,null,,,,,,,,,
4520.5,"<img src=""portrait/WW2.jpg""style=""height:400px;""></img>",3,html-button-response,117,775088,0.0-14.0-10.0,70520,List1B,white,man,,TRUE,3,,,,,,,,,,
null,CORRECT,,html-keyboard-response,118,776612,0.0-14.0-11.0-0.0,70520,List1B,white,man,,,,null,,,,,,,,,
3477.9,"<img src=""portrait/BW1.jpg""style=""height:400px;""></img>",0,html-button-response,119,780092,0.0-14.0-13.0,70520,List1B,white,man,,TRUE,0,,,,,,,,,,
null,CORRECT,,html-keyboard-response,120,781611,0.0-14.0-14.0-0.0,70520,List1B,white,man,,,,null,,,,,,,,,
3614.1,"<img src=""portrait/WM1.jpg""style=""height:400px;""></img>",6,html-button-response,121,785227,0.0-14.0-16.0,70520,List1B,white,man,,TRUE,6,,,,,,,,,,
null,CORRECT,,html-keyboard-response,122,786736,0.0-14.0-17.0-0.0,70520,List1B,white,man,,,,null,,,,,,,,,
4915.3,"<img src=""portrait/BW2.jpg""style=""height:400px;""></img>",2,html-button-response,123,791653,0.0-14.0-19.0,70520,List1B,white,man,,TRUE,2,,,,,,,,,,
null,CORRECT,,html-keyboard-response,124,793177,0.0-14.0-20.0-0.0,70520,List1B,white,man,,,,null,,,,,,,,,
1730.4,"<img src=""portrait/WW1.jpg""style=""height:400px;""></img>",1,html-button-response,125,794910,0.0-14.0-22.0,70520,List1B,white,man,,TRUE,1,,,,,,,,,,
null,CORRECT,,html-keyboard-response,126,796426,0.0-14.0-23.0-0.0,70520,List1B,white,man,,,,null,,,,,,,,,
2308.4,<p>You got 8 out of 8 right first time. Press Continue.</p>,0,html-button-response,127,798736,0.0-14.0-25.0,70520,List1B,white,man,,,,,,,,,,,,,
null,"<div style=""font-size:60px;"">+</div>",,html-keyboard-response,128,800260,0.0-15.0-0.0,70520,List1B,white,man,,,,null,,,,,,,,,
null,"<img src=""stim_listB/oppose8.gif""style=""height:400px;""></stim_listB>",,html-keyboard-response,129,802278,0.0-15.0-1.0,70520,List1B,white,man,,,,null,,,,,,,,,
null,is being opposed by,,html-keyboard-response,130,804284,0.0-15.0-2.0,70520,List1B,white,man,,,,null,,,,,,,,,
14237.5,,,survey-text,131,818524,0.0-15.0-3.0,70520,List1B,white,man,,,,,"{""Q0"":""Beth is been opposed by Ruth.""}","<img src=""stim_listB/oppose8.gif""style=""height:400px;""></stim_listB>",is being opposed by,,,,,,
null,"<div style=""font-size:60px;"">+</div>",,html-keyboard-response,132,819027,0.0-15.0-0.1,70520,List1B,white,man,,,,null,,,,,,,,,
null,"<img src=""stim_listB/kiss7.gif""style=""height:400px;""></stim_listB>",,html-keyboard-response,133,821042,0.0-15.0-1.1,70520,List1B,white,man,,,,null,,,,,,,,,
null,is kissing,,html-keyboard-response,134,823047,0.0-15.0-2.1,70520,List1B,white,man,,,,null,,,,,,,,,
11758.7,,,survey-text,135,834808,0.0-15.0-3.1,70520,List1B,white,man,,,,,"{""Q0"":""Bethe is kissing Ruth""}","<img src=""stim_listB/kiss7.gif""style=""height:400px;""></stim_listB>",is kissing,,,,,,
null,"<div style=""font-size:60px;"">+</div>",,html-keyboard-response,136,835324,0.0-15.0-0.2,70520,List1B,white,man,,,,null,,,,,,,,,
null,"<img src=""stim_listB/seduce3.gif""style=""height:400px;""></stim_listB>",,html-keyboard-response,137,837326,0.0-15.0-1.2,70520,List1B,white,man,,,,null,,,,,,,,,
null,is seducing,,html-keyboard-response,138,839329,0.0-15.0-2.2,70520,List1B,white,man,,,,null,,,,,,,,,
11792.5,,,survey-text,139,851124,0.0-15.0-3.2,70520,List1B,white,man,,,,,"{""Q0"":""Luke is seducing Jane.""}","<img src=""stim_listB/seduce3.gif""style=""height:400px;""></stim_listB>",is seducing,,,,,,
null,"<div style=""font-size:60px;"">+</div>",,html-keyboard-response,140,851627,0.0-15.0-0.3,70520,List1B,white,man,,,,null,,,,,,,,,
null,"<img src=""stim_listB/shout1.gif""style=""height:400px;""></stim_listB>",,html-keyboard-response,141,853644,0.0-15.0-1.3,70520,List1B,white,man,,,,null,,,,,,,,,
null,is shouting at,,html-keyboard-response,142,855661,0.0-15.0-2.3,70520,List1B,white,man,,,,null,,,,,,,,,
14109.6,,,survey-text,143,869772,0.0-15.0-3.3,70520,List1B,white,man,,,,,"{""Q0"":""Beth is shouting at Fred.""}","<img src=""stim_listB/shout1.gif""style=""height:400px;""></stim_listB>",is shouting at,,,,,,
null,"<div style=""font-size:60px;"">+</div>",,html-keyboard-response,144,870274,0.0-15.0-0.4,70520,List1B,white,man,,,,null,,,,,,,,,
null,"<img src=""stim_listB/oppose1.gif""style=""height:400px;""></stim_listB>",,html-keyboard-response,145,872290,0.0-15.0-1.4,70520,List1B,white,man,,,,null,,,,,,,,,
null,is opposing,,html-keyboard-response,146,874300,0.0-15.0-2.4,70520,List1B,white,man,,,,null,,,,,,,,,
9597.5,,,survey-text,147,883900,0.0-15.0-3.4,70520,List1B,white,man,,,,,"{""Q0"":""Mike is opposing Kate.""}","<img src=""stim_listB/oppose1.gif""style=""height:400px;""></stim_listB>",is opposing,,,,,,
null,"<div style=""font-size:60px;"">+</div>",,html-keyboard-response,148,884407,0.0-15.0-0.5,70520,List1B,white,man,,,,null,,,,,,,,,
null,"<img src=""stim_listB/copy7.gif""style=""height:400px;""></stim_listB>",,html-keyboard-response,149,886424,0.0-15.0-1.5,70520,List1B,white,man,,,,null,,,,,,,,,
null,is copying,,html-keyboard-response,150,888432,0.0-15.0-2.5,70520,List1B,white,man,,,,null,,,,,,,,,
12069.9,,,survey-text,151,900504,0.0-15.0-3.5,70520,List1B,white,man,,,,,"{""Q0"":""Jane is copying Kate.""}","<img src=""stim_listB/copy7.gif""style=""height:400px;""></stim_listB>",is copying,,,,,,
null,"<div style=""font-size:60px;"">+</div>",,html-keyboard-response,152,901006,0.0-15.0-0.6,70520,List1B,white,man,,,,null,,,,,,,,,
null,"<img src=""stim_listB/kiss8.gif""style=""height:400px;""></stim_listB>",,html-keyboard-response,153,903010,0.0-15.0-1.6,70520,List1B,white,man,,,,null,,,,,,,,,
null,is being kissed by,,html-keyboard-response,154,905014,0.0-15.0-2.6,70520,List1B,white,man,,,,null,,,,,,,,,
10100.2,,,survey-text,155,915115,0.0-15.0-3.6,70520,List1B,white,man,,,,,"{""Q0"":""Jane is been kissed by Kate.""}","<img src=""stim_listB/kiss8.gif""style=""height:400px;""></stim_listB>",is being kissed by,,,,,,
null,"<div style=""font-size:60px;"">+</div>",,html-keyboard-response,156,915625,0.0-15.0-0.7,70520,List1B,white,man,,,,null,,,,,,,,,
null,"<img src=""stim_listB/kiss4.gif""style=""height:400px;""></stim_listB>",,html-keyboard-response,157,917641,0.0-15.0-1.7,70520,List1B,white,man,,,,null,,,,,,,,,
null,is being kissed by,,html-keyboard-response,158,919654,0.0-15.0-2.7,70520,List1B,white,man,,,,null,,,,,,,,,
10871.2,,,survey-text,159,930527,0.0-15.0-3.7,70520,List1B,white,man,,,,,"{""Q0"":""Dave is been kissed by Jane.""}","<img src=""stim_listB/kiss4.gif""style=""height:400px;""></stim_listB>",is being kissed by,,,,,,
null,"<div style=""font-size:60px;"">+</div>",,html-keyboard-response,160,931037,0.0-15.0-0.8,70520,List1B,white,man,,,,null,,,,,,,,,
null,"<img src=""stim_listB/seduce2.gif""style=""height:400px;""></stim_listB>",,html-keyboard-response,161,933054,0.0-15.0-1.8,70520,List1B,white,man,,,,null,,,,,,,,,
null,is being seduced by,,html-keyboard-response,162,935059,0.0-15.0-2.8,70520,List1B,white,man,,,,null,,,,,,,,,
13848.4,,,survey-text,163,948909,0.0-15.0-3.8,70520,List1B,white,man,,,,,"{""Q0"":""Beth is been seduced by Mike.""}","<img src=""stim_listB/seduce2.gif""style=""height:400px;""></stim_listB>",is being seduced by,,,,,,
null,"<div style=""font-size:60px;"">+</div>",,html-keyboard-response,164,949417,0.0-15.0-0.9,70520,List1B,white,man,,,,null,,,,,,,,,
null,"<img src=""stim_listB/touch1.gif""style=""height:400px;""></stim_listB>",,html-keyboard-response,165,951422,0.0-15.0-1.9,70520,List1B,white,man,,,,null,,,,,,,,,
null,is touching,,html-keyboard-response,166,953438,0.0-15.0-2.9,70520,List1B,white,man,,,,null,,,,,,,,,
14052.2,,,survey-text,167,967492,0.0-15.0-3.9,70520,List1B,white,man,,,,,"{""Q0"":""Kate is touching Mike.""}","<img src=""stim_listB/touch1.gif""style=""height:400px;""></stim_listB>",is touching,,,,,,
null,"<div style=""font-size:60px;"">+</div>",,html-keyboard-response,168,968002,0.0-15.0-0.10,70520,List1B,white,man,,,,null,,,,,,,,,
null,"<img src=""stim_listB/touch8.gif""style=""height:400px;""></stim_listB>",,html-keyboard-response,169,970007,0.0-15.0-1.10,70520,List1B,white,man,,,,null,,,,,,,,,
null,is being touched by,,html-keyboard-response,170,972014,0.0-15.0-2.10,70520,List1B,white,man,,,,null,,,,,,,,,
13758.7,,,survey-text,171,985775,0.0-15.0-3.10,70520,List1B,white,man,,,,,"{""Q0"":""Ruth is been touched by Beth.""}","<img src=""stim_listB/touch8.gif""style=""height:400px;""></stim_listB>",is being touched by,,,,,,
null,"<div style=""font-size:60px;"">+</div>",,html-keyboard-response,172,986286,0.0-15.0-0.11,70520,List1B,white,man,,,,null,,,,,,,,,
null,"<img src=""stim_listB/greet3.gif""style=""height:400px;""></stim_listB>",,html-keyboard-response,173,988303,0.0-15.0-1.11,70520,List1B,white,man,,,,null,,,,,,,,,
null,is greeting,,html-keyboard-response,174,990308,0.0-15.0-2.11,70520,List1B,white,man,,,,null,,,,,,,,,
14428.1,,,survey-text,175,1004739,0.0-15.0-3.11,70520,List1B,white,man,,,,,"{""Q0"":""Ruth is greeting dave.""}","<img src=""stim_listB/greet3.gif""style=""height:400px;""></stim_listB>",is greeting,,,,,,
null,"<div style=""font-size:60px;"">+</div>",,html-keyboard-response,176,1005251,0.0-15.0-0.12,70520,List1B,white,man,,,,null,,,,,,,,,
null,"<img src=""stim_listB/hug1.gif""style=""height:400px;""></stim_listB>",,html-keyboard-response,177,1007255,0.0-15.0-1.12,70520,List1B,white,man,,,,null,,,,,,,,,
null,is hugging,,html-keyboard-response,178,1009257,0.0-15.0-2.12,70520,List1B,white,man,,,,null,,,,,,,,,
10322.5,,,survey-text,179,1019581,0.0-15.0-3.12,70520,List1B,white,man,,,,,"{""Q0"":""Fred is hugging Beth.""}","<img src=""stim_listB/hug1.gif""style=""height:400px;""></stim_listB>",is hugging,,,,,,
null,"<div style=""font-size:60px;"">+</div>",,html-keyboard-response,180,1020086,0.0-15.0-0.13,70520,List1B,white,man,,,,null,,,,,,,,,
null,"<img src=""stim_listB/hug7.gif""style=""height:400px;""></stim_listB>",,html-keyboard-response,181,1022101,0.0-15.0-1.13,70520,List1B,white,man,,,,null,,,,,,,,,
null,is hugging,,html-keyboard-response,182,1024105,0.0-15.0-2.13,70520,List1B,white,man,,,,null,,,,,,,,,
10256.6,,,survey-text,183,1034364,0.0-15.0-3.13,70520,List1B,white,man,,,,,"{""Q0"":""Ruth is hugging Beth.""}","<img src=""stim_listB/hug7.gif""style=""height:400px;""></stim_listB>",is hugging,,,,,,
null,"<div style=""font-size:60px;"">+</div>",,html-keyboard-response,184,1034870,0.0-15.0-0.14,70520,List1B,white,man,,,,null,,,,,,,,,
null,"<img src=""stim_listB/look1.gif""style=""height:400px;""></stim_listB>",,html-keyboard-response,185,1036885,0.0-15.0-1.14,70520,List1B,white,man,,,,null,,,,,,,,,
null,is looking at,,html-keyboard-response,186,1038890,0.0-15.0-2.14,70520,List1B,white,man,,,,null,,,,,,,,,
8799.3,,,survey-text,187,1047692,0.0-15.0-3.14,70520,List1B,white,man,,,,,"{""Q0"":""Fred is looking at Beth.""}","<img src=""stim_listB/look1.gif""style=""height:400px;""></stim_listB>",is looking at,,,,,,
null,"<div style=""font-size:60px;"">+</div>",,html-keyboard-response,188,1048199,0.0-15.0-0.15,70520,List1B,white,man,,,,null,,,,,,,,,
null,"<img src=""stim_listB/copy3.gif""style=""height:400px;""></stim_listB>",,html-keyboard-response,189,1050203,0.0-15.0-1.15,70520,List1B,white,man,,,,null,,,,,,,,,
null,is copying,,html-keyboard-response,190,1052212,0.0-15.0-2.15,70520,List1B,white,man,,,,null,,,,,,,,,
10470.6,,,survey-text,191,1062685,0.0-15.0-3.15,70520,List1B,white,man,,,,,"{""Q0"":""Dave is copying Ruth.""}","<img src=""stim_listB/copy3.gif""style=""height:400px;""></stim_listB>",is copying,,,,,,
null,"<div style=""font-size:60px;"">+</div>",,html-keyboard-response,192,1063198,0.0-15.0-0.16,70520,List1B,white,man,,,,null,,,,,,,,,
null,"<img src=""stim_listB/greet5.gif""style=""height:400px;""></stim_listB>",,html-keyboard-response,193,1065200,0.0-15.0-1.16,70520,List1B,white,man,,,,null,,,,,,,,,
null,is greeting,,html-keyboard-response,194,1067205,0.0-15.0-2.16,70520,List1B,white,man,,,,null,,,,,,,,,
10063.9,,,survey-text,195,1077271,0.0-15.0-3.16,70520,List1B,white,man,,,,,"{""Q0"":""Mike is greeting Luke.""}","<img src=""stim_listB/greet5.gif""style=""height:400px;""></stim_listB>",is greeting,,,,,,
null,"<div style=""font-size:60px;"">+</div>",,html-keyboard-response,196,1077783,0.0-15.0-0.17,70520,List1B,white,man,,,,null,,,,,,,,,
null,"<img src=""stim_listB/hug4.gif""style=""height:400px;""></stim_listB>",,html-keyboard-response,197,1079794,0.0-15.0-1.17,70520,List1B,white,man,,,,null,,,,,,,,,
null,is being hugged by,,html-keyboard-response,198,1081806,0.0-15.0-2.17,70520,List1B,white,man,,,,null,,,,,,,,,
18232.5,,,survey-text,199,1100041,0.0-15.0-3.17,70520,List1B,white,man,,,,,"{""Q0"":""Jane is been hugged by Dave.""}","<img src=""stim_listB/hug4.gif""style=""height:400px;""></stim_listB>",is being hugged by,,,,,,
null,"<div style=""font-size:60px;"">+</div>",,html-keyboard-response,200,1100550,0.0-15.0-0.18,70520,List1B,white,man,,,,null,,,,,,,,,
null,"<img src=""stim_listB/touch7.gif""style=""height:400px;""></stim_listB>",,html-keyboard-response,201,1102566,0.0-15.0-1.18,70520,List1B,white,man,,,,null,,,,,,,,,
null,is touching,,html-keyboard-response,202,1104569,0.0-15.0-2.18,70520,List1B,white,man,,,,null,,,,,,,,,
11072.6,,,survey-text,203,1115644,0.0-15.0-3.18,70520,List1B,white,man,,,,,"{""Q0"":""Kate is touching Jane.""}","<img src=""stim_listB/touch7.gif""style=""height:400px;""></stim_listB>",is touching,,,,,,
null,"<div style=""font-size:60px;"">+</div>",,html-keyboard-response,204,1116151,0.0-15.0-0.19,70520,List1B,white,man,,,,null,,,,,,,,,
null,"<img src=""stim_listB/look8.gif""style=""height:400px;""></stim_listB>",,html-keyboard-response,205,1118163,0.0-15.0-1.19,70520,List1B,white,man,,,,null,,,,,,,,,
null,is being looked at by,,html-keyboard-response,206,1120172,0.0-15.0-2.19,70520,List1B,white,man,,,,null,,,,,,,,,
13082.4,,,survey-text,207,1133256,0.0-15.0-3.19,70520,List1B,white,man,,,,,"{""Q0"":""Jane is been looked at by Kate.""}","<img src=""stim_listB/look8.gif""style=""height:400px;""></stim_listB>",is being looked at by,,,,,,
15982.7,"<img src='img/portrait_matrix_list1.jpg' style='width:900px;height:500px;''></img><p>If you have memorised all the portraits and names and are ready to start, press Continue.</p><p><strong>Please note: Your memory of these faces will be tested 4 times during this experiment.</strong></p>",0,html-button-response,208,1149241,0.0-16.0-0.0,70520,List1B,white,man,,,,,,,,,,,,,
4876.5,"<img src=""portrait/WM1.jpg""style=""height:400px;""></img>",6,html-button-response,209,1155127,0.0-16.0-1.0,70520,List1B,white,man,,TRUE,6,,,,,,,,,,
null,CORRECT,,html-keyboard-response,210,1156645,0.0-16.0-2.0-0.0,70520,List1B,white,man,,,,null,,,,,,,,,
2272,"<img src=""portrait/BW1.jpg""style=""height:400px;""></img>",1,html-button-response,211,1158920,0.0-16.0-4.0,70520,List1B,white,man,,TRUE,0,,,,,,,,,,
3210.6,"<img src=""portrait/BW1.jpg""style=""height:400px;""></img>",0,html-button-response,212,1163144,0.0-16.0-6.0-0.0,70520,List1B,white,man,,FALSE,0,,,,,,,,,,
null,CORRECT,,html-keyboard-response,213,1164664,0.0-16.0-6.0-1.0-0.0,70520,List1B,white,man,,,,null,,,,,,,,,
4129.5,"<img src=""portrait/BM1.jpg""style=""height:400px;""></img>",4,html-button-response,214,1168796,0.0-16.0-7.0,70520,List1B,white,man,,TRUE,4,,,,,,,,,,
null,CORRECT,,html-keyboard-response,215,1170315,0.0-16.0-8.0-0.0,70520,List1B,white,man,,,,null,,,,,,,,,
3024.8,"<img src=""portrait/WW1.jpg""style=""height:400px;""></img>",1,html-button-response,216,1173341,0.0-16.0-10.0,70520,List1B,white,man,,TRUE,1,,,,,,,,,,
null,CORRECT,,html-keyboard-response,217,1174865,0.0-16.0-11.0-0.0,70520,List1B,white,man,,,,null,,,,,,,,,
3758.6,"<img src=""portrait/BW2.jpg""style=""height:400px;""></img>",2,html-button-response,218,1178625,0.0-16.0-13.0,70520,List1B,white,man,,TRUE,2,,,,,,,,,,
null,CORRECT,,html-keyboard-response,219,1180146,0.0-16.0-14.0-0.0,70520,List1B,white,man,,,,null,,,,,,,,,
1786.5,"<img src=""portrait/WW2.jpg""style=""height:400px;""></img>",3,html-button-response,220,1181934,0.0-16.0-16.0,70520,List1B,white,man,,TRUE,3,,,,,,,,,,
null,CORRECT,,html-keyboard-response,221,1183449,0.0-16.0-17.0-0.0,70520,List1B,white,man,,,,null,,,,,,,,,
2731.8,"<img src=""portrait/WM2.jpg""style=""height:400px;""></img>",7,html-button-response,222,1186183,0.0-16.0-19.0,70520,List1B,white,man,,TRUE,7,,,,,,,,,,
null,CORRECT,,html-keyboard-response,223,1187712,0.0-16.0-20.0-0.0,70520,List1B,white,man,,,,null,,,,,,,,,
2532.6,"<img src=""portrait/BM2.jpg""style=""height:400px;""></img>",5,html-button-response,224,1190246,0.0-16.0-22.0,70520,List1B,white,man,,TRUE,5,,,,,,,,,,
null,CORRECT,,html-keyboard-response,225,1191765,0.0-16.0-23.0-0.0,70520,List1B,white,man,,,,null,,,,,,,,,
6658.4,<p>You got 7 out of 8 right first time. Press Continue.</p>,0,html-button-response,226,1198426,0.0-16.0-25.0,70520,List1B,white,man,,,,,,,,,,,,,
4727.1,"As you did not score 100%, the memory game will repeat. Press Continue.",0,html-button-response,227,1204160,0.0-16.0-26.0-0.0,70520,List1B,white,man,,,,,,,,,,,,,
2928,"<img src='img/portrait_matrix_list1.jpg' style='width:900px;height:500px;''></img><p>If you have memorised all the portraits and names and are ready to start, press Continue.</p><p><strong>Please note: Your memory of these faces will be tested 4 times during this experiment.</strong></p>",0,html-button-response,228,1208091,0.0-16.1-0.1,70520,List1B,white,man,,,,,,,,,,,,,
3594,"<img src=""portrait/WM1.jpg""style=""height:400px;""></img>",6,html-button-response,229,1212694,0.0-16.1-1.1,70520,List1B,white,man,,TRUE,6,,,,,,,,,,
null,CORRECT,,html-keyboard-response,230,1214212,0.0-16.1-2.1-0.1,70520,List1B,white,man,,,,null,,,,,,,,,
3126.3,"<img src=""portrait/BW1.jpg""style=""height:400px;""></img>",0,html-button-response,231,1217340,0.0-16.1-4.1,70520,List1B,white,man,,TRUE,0,,,,,,,,,,
null,CORRECT,,html-keyboard-response,232,1218860,0.0-16.1-5.1-0.1,70520,List1B,white,man,,,,null,,,,,,,,,
3729,"<img src=""portrait/BM1.jpg""style=""height:400px;""></img>",4,html-button-response,233,1222591,0.0-16.1-7.1,70520,List1B,white,man,,TRUE,4,,,,,,,,,,
null,CORRECT,,html-keyboard-response,234,1224112,0.0-16.1-8.1-0.1,70520,List1B,white,man,,,,null,,,,,,,,,
3282.9,"<img src=""portrait/WW1.jpg""style=""height:400px;""></img>",1,html-button-response,235,1227397,0.0-16.1-10.1,70520,List1B,white,man,,TRUE,1,,,,,,,,,,
null,CORRECT,,html-keyboard-response,236,1228927,0.0-16.1-11.1-0.1,70520,List1B,white,man,,,,null,,,,,,,,,
2995.3,"<img src=""portrait/BW2.jpg""style=""height:400px;""></img>",2,html-button-response,237,1231924,0.0-16.1-13.1,70520,List1B,white,man,,TRUE,2,,,,,,,,,,
null,CORRECT,,html-keyboard-response,238,1233445,0.0-16.1-14.1-0.1,70520,List1B,white,man,,,,null,,,,,,,,,
1412.7,"<img src=""portrait/WW2.jpg""style=""height:400px;""></img>",3,html-button-response,239,1234860,0.0-16.1-16.1,70520,List1B,white,man,,TRUE,3,,,,,,,,,,
null,CORRECT,,html-keyboard-response,240,1236376,0.0-16.1-17.1-0.1,70520,List1B,white,man,,,,null,,,,,,,,,
3215.4,"<img src=""portrait/WM2.jpg""style=""height:400px;""></img>",7,html-button-response,241,1239594,0.0-16.1-19.1,70520,List1B,white,man,,TRUE,7,,,,,,,,,,
null,CORRECT,,html-keyboard-response,242,1241111,0.0-16.1-20.1-0.1,70520,List1B,white,man,,,,null,,,,,,,,,
1619.6,"<img src=""portrait/BM2.jpg""style=""height:400px;""></img>",5,html-button-response,243,1242732,0.0-16.1-22.1,70520,List1B,white,man,,TRUE,5,,,,,,,,,,
null,CORRECT,,html-keyboard-response,244,1244261,0.0-16.1-23.1-0.1,70520,List1B,white,man,,,,null,,,,,,,,,
2195.5,<p>You got 8 out of 8 right first time. Press Continue.</p>,0,html-button-response,245,1246458,0.0-16.1-25.1,70520,List1B,white,man,,,,,,,,,,,,,
null,"<div style=""font-size:60px;"">+</div>",,html-keyboard-response,246,1247977,0.0-17.0-0.0,70520,List1B,white,man,,,,null,,,,,,,,,
null,"<img src=""stim_listB/seduce8.gif""style=""height:400px;""></stim_listB>",,html-keyboard-response,247,1249994,0.0-17.0-1.0,70520,List1B,white,man,,,,null,,,,,,,,,
null,is being seduced by,,html-keyboard-response,248,1252001,0.0-17.0-2.0,70520,List1B,white,man,,,,null,,,,,,,,,
9546.5,,,survey-text,249,1261550,0.0-17.0-3.0,70520,List1B,white,man,,,,,"{""Q0"":""Kate is been seduced by Jane""}","<img src=""stim_listB/seduce8.gif""style=""height:400px;""></stim_listB>",is being seduced by,,,,,,
null,"<div style=""font-size:60px;"">+</div>",,html-keyboard-response,250,1262058,0.0-17.0-0.1,70520,List1B,white,man,,,,null,,,,,,,,,
null,"<img src=""stim_listB/greet2.gif""style=""height:400px;""></stim_listB>",,html-keyboard-response,251,1264062,0.0-17.0-1.1,70520,List1B,white,man,,,,null,,,,,,,,,
null,is being greeted by,,html-keyboard-response,252,1266067,0.0-17.0-2.1,70520,List1B,white,man,,,,null,,,,,,,,,
16954.6,,,survey-text,253,1283024,0.0-17.0-3.1,70520,List1B,white,man,,,,,"{""Q0"":""Kate is been greeted by Fred""}","<img src=""stim_listB/greet2.gif""style=""height:400px;""></stim_listB>",is being greeted by,,,,,,
null,"<div style=""font-size:60px;"">+</div>",,html-keyboard-response,254,1283529,0.0-17.0-0.2,70520,List1B,white,man,,,,null,,,,,,,,,
null,"<img src=""stim_listB/seduce6.gif""style=""height:400px;""></stim_listB>",,html-keyboard-response,255,1285543,0.0-17.0-1.2,70520,List1B,white,man,,,,null,,,,,,,,,
null,is being seduced by,,html-keyboard-response,256,1287546,0.0-17.0-2.2,70520,List1B,white,man,,,,null,,,,,,,,,
14290.7,,,survey-text,257,1301839,0.0-17.0-3.2,70520,List1B,white,man,,,,,"{""Q0"":""Mike is been seduced by Luke.""}","<img src=""stim_listB/seduce6.gif""style=""height:400px;""></stim_listB>",is being seduced by,,,,,,
null,"<div style=""font-size:60px;"">+</div>",,html-keyboard-response,258,1302343,0.0-17.0-0.3,70520,List1B,white,man,,,,null,,,,,,,,,
null,"<img src=""stim_listB/challenge5.gif""style=""height:400px;""></stim_listB>",,html-keyboard-response,259,1304357,0.0-17.0-1.3,70520,List1B,white,man,,,,null,,,,,,,,,
null,is challenging,,html-keyboard-response,260,1306365,0.0-17.0-2.3,70520,List1B,white,man,,,,null,,,,,,,,,
9255.9,,,survey-text,261,1315623,0.0-17.0-3.3,70520,List1B,white,man,,,,,"{""Q0"":""Mike is challenging Luke.""}","<img src=""stim_listB/challenge5.gif""style=""height:400px;""></stim_listB>",is challenging,,,,,,
null,"<div style=""font-size:60px;"">+</div>",,html-keyboard-response,262,1316124,0.0-17.0-0.4,70520,List1B,white,man,,,,null,,,,,,,,,
null,"<img src=""stim_listB/kiss1.gif""style=""height:400px;""></stim_listB>",,html-keyboard-response,263,1318128,0.0-17.0-1.4,70520,List1B,white,man,,,,null,,,,,,,,,
null,is kissing,,html-keyboard-response,264,1320131,0.0-17.0-2.4,70520,List1B,white,man,,,,null,,,,,,,,,
8606.2,,,survey-text,265,1328740,0.0-17.0-3.4,70520,List1B,white,man,,,,,"{""Q0"":""Fred is kissing Beth""}","<img src=""stim_listB/kiss1.gif""style=""height:400px;""></stim_listB>",is kissing,,,,,,
null,"<div style=""font-size:60px;"">+</div>",,html-keyboard-response,266,1329242,0.0-17.0-0.5,70520,List1B,white,man,,,,null,,,,,,,,,
null,"<img src=""stim_listB/touch4.gif""style=""height:400px;""></stim_listB>",,html-keyboard-response,267,1331256,0.0-17.0-1.5,70520,List1B,white,man,,,,null,,,,,,,,,
null,is being touched by,,html-keyboard-response,268,1333261,0.0-17.0-2.5,70520,List1B,white,man,,,,null,,,,,,,,,
14618.6,,,survey-text,269,1347882,0.0-17.0-3.5,70520,List1B,white,man,,,,,"{""Q0"":""Luke is been touched by Ruth""}","<img src=""stim_listB/touch4.gif""style=""height:400px;""></stim_listB>",is being touched by,,,,,,
null,"<div style=""font-size:60px;"">+</div>",,html-keyboard-response,270,1348388,0.0-17.0-0.6,70520,List1B,white,man,,,,null,,,,,,,,,
null,"<img src=""stim_listB/shout3.gif""style=""height:400px;""></stim_listB>",,html-keyboard-response,271,1350393,0.0-17.0-1.6,70520,List1B,white,man,,,,null,,,,,,,,,
null,is shouting at,,html-keyboard-response,272,1352400,0.0-17.0-2.6,70520,List1B,white,man,,,,null,,,,,,,,,
13732.7,,,survey-text,273,1366135,0.0-17.0-3.6,70520,List1B,white,man,,,,,"{""Q0"":""Luke is shouting at Ruth.""}","<img src=""stim_listB/shout3.gif""style=""height:400px;""></stim_listB>",is shouting at,,,,,,
null,"<div style=""font-size:60px;"">+</div>",,html-keyboard-response,274,1366640,0.0-17.0-0.7,70520,List1B,white,man,,,,null,,,,,,,,,
null,"<img src=""stim_listB/kiss6.gif""style=""height:400px;""></stim_listB>",,html-keyboard-response,275,1368648,0.0-17.0-1.7,70520,List1B,white,man,,,,null,,,,,,,,,
null,is being kissed by,,html-keyboard-response,276,1370659,0.0-17.0-2.7,70520,List1B,white,man,,,,null,,,,,,,,,
11930.5,,,survey-text,277,1382592,0.0-17.0-3.7,70520,List1B,white,man,,,,,"{""Q0"":""Dave is been kissed by Mike.""}","<img src=""stim_listB/kiss6.gif""style=""height:400px;""></stim_listB>",is being kissed by,,,,,,
null,"<div style=""font-size:60px;"">+</div>",,html-keyboard-response,278,1383104,0.0-17.0-0.8,70520,List1B,white,man,,,,null,,,,,,,,,
null,"<img src=""stim_listB/touch3.gif""style=""height:400px;""></stim_listB>",,html-keyboard-response,279,1385121,0.0-17.0-1.8,70520,List1B,white,man,,,,null,,,,,,,,,
null,is touching,,html-keyboard-response,280,1387126,0.0-17.0-2.8,70520,List1B,white,man,,,,null,,,,,,,,,
15109,,,survey-text,281,1402237,0.0-17.0-3.8,70520,List1B,white,man,,,,,"{""Q0"":""Dave is touching Jane.""}","<img src=""stim_listB/touch3.gif""style=""height:400px;""></stim_listB>",is touching,,,,,,
null,"<div style=""font-size:60px;"">+</div>",,html-keyboard-response,282,1402739,0.0-17.0-0.9,70520,List1B,white,man,,,,null,,,,,,,,,
null,"<img src=""stim_listB/shout2.gif""style=""height:400px;""></stim_listB>",,html-keyboard-response,283,1404754,0.0-17.0-1.9,70520,List1B,white,man,,,,null,,,,,,,,,
null,is being shouted at by,,html-keyboard-response,284,1406760,0.0-17.0-2.9,70520,List1B,white,man,,,,null,,,,,,,,,
21016.5,,,survey-text,285,1427779,0.0-17.0-3.9,70520,List1B,white,man,,,,,"{""Q0"":""Kate is been shouted at by Mike.""}","<img src=""stim_listB/shout2.gif""style=""height:400px;""></stim_listB>",is being shouted at by,,,,,,
null,"<div style=""font-size:60px;"">+</div>",,html-keyboard-response,286,1428285,0.0-17.0-0.10,70520,List1B,white,man,,,,null,,,,,,,,,
null,"<img src=""stim_listB/seduce7.gif""style=""height:400px;""></stim_listB>",,html-keyboard-response,287,1430301,0.0-17.0-1.10,70520,List1B,white,man,,,,null,,,,,,,,,
null,is seducing,,html-keyboard-response,288,1432307,0.0-17.0-2.10,70520,List1B,white,man,,,,null,,,,,,,,,
20089,,,survey-text,289,1452399,0.0-17.0-3.10,70520,List1B,white,man,,,,,"{""Q0"":""Kate is looking at Jane.""}","<img src=""stim_listB/seduce7.gif""style=""height:400px;""></stim_listB>",is seducing,,,,,,
null,"<div style=""font-size:60px;"">+</div>",,html-keyboard-response,290,1452904,0.0-17.0-0.11,70520,List1B,white,man,,,,null,,,,,,,,,
null,"<img src=""stim_listB/look3.gif""style=""height:400px;""></stim_listB>",,html-keyboard-response,291,1454919,0.0-17.0-1.11,70520,List1B,white,man,,,,null,,,,,,,,,
null,is looking at,,html-keyboard-response,292,1456924,0.0-17.0-2.11,70520,List1B,white,man,,,,null,,,,,,,,,
16552.5,,,survey-text,293,1473479,0.0-17.0-3.11,70520,List1B,white,man,,,,,"{""Q0"":""Ruth is looking at Ruth.""}","<img src=""stim_listB/look3.gif""style=""height:400px;""></stim_listB>",is looking at,,,,,,
null,"<div style=""font-size:60px;"">+</div>",,html-keyboard-response,294,1473986,0.0-17.0-0.12,70520,List1B,white,man,,,,null,,,,,,,,,
null,"<img src=""stim_listB/touch6.gif""style=""height:400px;""></stim_listB>",,html-keyboard-response,295,1476001,0.0-17.0-1.12,70520,List1B,white,man,,,,null,,,,,,,,,
null,is being touched by,,html-keyboard-response,296,1478005,0.0-17.0-2.12,70520,List1B,white,man,,,,null,,,,,,,,,
17002.4,,,survey-text,297,1495010,0.0-17.0-3.12,70520,List1B,white,man,,,,,"{""Q0"":""Fred is been touched by Luke.""}","<img src=""stim_listB/touch6.gif""style=""height:400px;""></stim_listB>",is being touched by,,,,,,
null,"<div style=""font-size:60px;"">+</div>",,html-keyboard-response,298,1495519,0.0-17.0-0.13,70520,List1B,white,man,,,,null,,,,,,,,,
null,"<img src=""stim_listB/look6.gif""style=""height:400px;""></stim_listB>",,html-keyboard-response,299,1497533,0.0-17.0-1.13,70520,List1B,white,man,,,,null,,,,,,,,,
null,is being looked at by,,html-keyboard-response,300,1499542,0.0-17.0-2.13,70520,List1B,white,man,,,,null,,,,,,,,,
15470.9,,,survey-text,301,1515015,0.0-17.0-3.13,70520,List1B,white,man,,,,,"{""Q0"":""Dave is been looked at by Mike""}","<img src=""stim_listB/look6.gif""style=""height:400px;""></stim_listB>",is being looked at by,,,,,,
null,"<div style=""font-size:60px;"">+</div>",,html-keyboard-response,302,1515519,0.0-17.0-0.14,70520,List1B,white,man,,,,null,,,,,,,,,
null,"<img src=""stim_listB/touch2.gif""style=""height:400px;""></stim_listB>",,html-keyboard-response,303,1517534,0.0-17.0-1.14,70520,List1B,white,man,,,,null,,,,,,,,,
null,is being touched by,,html-keyboard-response,304,1519538,0.0-17.0-2.14,70520,List1B,white,man,,,,null,,,,,,,,,
12753.6,,,survey-text,305,1532294,0.0-17.0-3.14,70520,List1B,white,man,,,,,"{""Q0"":""Beth is been touched by Fred.""}","<img src=""stim_listB/touch2.gif""style=""height:400px;""></stim_listB>",is being touched by,,,,,,
null,"<div style=""font-size:60px;"">+</div>",,html-keyboard-response,306,1532801,0.0-17.0-0.15,70520,List1B,white,man,,,,null,,,,,,,,,
null,"<img src=""stim_listB/look4.gif""style=""height:400px;""></stim_listB>",,html-keyboard-response,307,1534817,0.0-17.0-1.15,70520,List1B,white,man,,,,null,,,,,,,,,
null,is being looked at by,,html-keyboard-response,308,1536820,0.0-17.0-2.15,70520,List1B,white,man,,,,null,,,,,,,,,
14451.1,,,survey-text,309,1551274,0.0-17.0-3.15,70520,List1B,white,man,,,,,"{""Q0"":""Dave is been looked at by Jane""}","<img src=""stim_listB/look4.gif""style=""height:400px;""></stim_listB>",is being looked at by,,,,,,
null,"<div style=""font-size:60px;"">+</div>",,html-keyboard-response,310,1551782,0.0-17.0-0.16,70520,List1B,white,man,,,,null,,,,,,,,,
null,"<img src=""stim_listB/seduce4.gif""style=""height:400px;""></stim_listB>",,html-keyboard-response,311,1553786,0.0-17.0-1.16,70520,List1B,white,man,,,,null,,,,,,,,,
null,is being seduced by,,html-keyboard-response,312,1555800,0.0-17.0-2.16,70520,List1B,white,man,,,,null,,,,,,,,,
12360.8,,,survey-text,313,1568163,0.0-17.0-3.16,70520,List1B,white,man,,,,,"{""Q0"":""Dave is been seduced by ruth.""}","<img src=""stim_listB/seduce4.gif""style=""height:400px;""></stim_listB>",is being seduced by,,,,,,
null,"<div style=""font-size:60px;"">+</div>",,html-keyboard-response,314,1568679,0.0-17.0-0.17,70520,List1B,white,man,,,,null,,,,,,,,,
null,"<img src=""stim_listB/shout7.gif""style=""height:400px;""></stim_listB>",,html-keyboard-response,315,1570692,0.0-17.0-1.17,70520,List1B,white,man,,,,null,,,,,,,,,
null,is shouting at,,html-keyboard-response,316,1572701,0.0-17.0-2.17,70520,List1B,white,man,,,,null,,,,,,,,,
13226.2,,,survey-text,317,1585930,0.0-17.0-3.17,70520,List1B,white,man,,,,,"{""Q0"":""Beth is shouting at Ruth.""}","<img src=""stim_listB/shout7.gif""style=""height:400px;""></stim_listB>",is shouting at,,,,,,
null,"<div style=""font-size:60px;"">+</div>",,html-keyboard-response,318,1586433,0.0-17.0-0.18,70520,List1B,white,man,,,,null,,,,,,,,,
null,"<img src=""stim_listB/copy5.gif""style=""height:400px;""></stim_listB>",,html-keyboard-response,319,1588447,0.0-17.0-1.18,70520,List1B,white,man,,,,null,,,,,,,,,
null,is copying,,html-keyboard-response,320,1590455,0.0-17.0-2.18,70520,List1B,white,man,,,,null,,,,,,,,,
14087.6,,,survey-text,321,1604545,0.0-17.0-3.18,70520,List1B,white,man,,,,,"{""Q0"":""Luke is copying mike.""}","<img src=""stim_listB/copy5.gif""style=""height:400px;""></stim_listB>",is copying,,,,,,
null,"<div style=""font-size:60px;"">+</div>",,html-keyboard-response,322,1605046,0.0-17.0-0.19,70520,List1B,white,man,,,,null,,,,,,,,,
null,"<img src=""stim_listB/look2.gif""style=""height:400px;""></stim_listB>",,html-keyboard-response,323,1607061,0.0-17.0-1.19,70520,List1B,white,man,,,,null,,,,,,,,,
null,is being looked at by,,html-keyboard-response,324,1609066,0.0-17.0-2.19,70520,List1B,white,man,,,,null,,,,,,,,,
11500.1,,,survey-text,325,1620569,0.0-17.0-3.19,70520,List1B,white,man,,,,,"{""Q0"":""Kate is been looked at by Mike.""}","<img src=""stim_listB/look2.gif""style=""height:400px;""></stim_listB>",is being looked at by,,,,,,
12695.5,"<img src='img/portrait_matrix_list1.jpg' style='width:900px;height:500px;''></img><p>If you have memorised all the portraits and names and are ready to start, press Continue.</p><p><strong>Please note: Your memory of these faces will be tested 4 times during this experiment.</strong></p>",0,html-button-response,326,1633266,0.0-18.0-0.0,70520,List1B,white,man,,,,,,,,,,,,,
3487.2,"<img src=""portrait/WW2.jpg""style=""height:400px;""></img>",3,html-button-response,327,1637768,0.0-18.0-1.0,70520,List1B,white,man,,TRUE,3,,,,,,,,,,
null,CORRECT,,html-keyboard-response,328,1639279,0.0-18.0-2.0-0.0,70520,List1B,white,man,,,,null,,,,,,,,,
2812.5,"<img src=""portrait/WW1.jpg""style=""height:400px;""></img>",1,html-button-response,329,1642094,0.0-18.0-4.0,70520,List1B,white,man,,TRUE,1,,,,,,,,,,
null,CORRECT,,html-keyboard-response,330,1643609,0.0-18.0-5.0-0.0,70520,List1B,white,man,,,,null,,,,,,,,,
2792.4,"<img src=""portrait/BM1.jpg""style=""height:400px;""></img>",4,html-button-response,331,1646404,0.0-18.0-7.0,70520,List1B,white,man,,TRUE,4,,,,,,,,,,
null,CORRECT,,html-keyboard-response,332,1647929,0.0-18.0-8.0-0.0,70520,List1B,white,man,,,,null,,,,,,,,,
2491.8,"<img src=""portrait/BW2.jpg""style=""height:400px;""></img>",2,html-button-response,333,1650423,0.0-18.0-10.0,70520,List1B,white,man,,TRUE,2,,,,,,,,,,
null,CORRECT,,html-keyboard-response,334,1651945,0.0-18.0-11.0-0.0,70520,List1B,white,man,,,,null,,,,,,,,,
2974,"<img src=""portrait/BM2.jpg""style=""height:400px;""></img>",5,html-button-response,335,1654921,0.0-18.0-13.0,70520,List1B,white,man,,TRUE,5,,,,,,,,,,
null,CORRECT,,html-keyboard-response,336,1656445,0.0-18.0-14.0-0.0,70520,List1B,white,man,,,,null,,,,,,,,,
4986.3,"<img src=""portrait/BW1.jpg""style=""height:400px;""></img>",0,html-button-response,337,1661434,0.0-18.0-16.0,70520,List1B,white,man,,TRUE,0,,,,,,,,,,
null,CORRECT,,html-keyboard-response,338,1662960,0.0-18.0-17.0-0.0,70520,List1B,white,man,,,,null,,,,,,,,,
2627.8,"<img src=""portrait/WM2.jpg""style=""height:400px;""></img>",7,html-button-response,339,1665590,0.0-18.0-19.0,70520,List1B,white,man,,TRUE,7,,,,,,,,,,
null,CORRECT,,html-keyboard-response,340,1667111,0.0-18.0-20.0-0.0,70520,List1B,white,man,,,,null,,,,,,,,,
3780.5,"<img src=""portrait/WM1.jpg""style=""height:400px;""></img>",6,html-button-response,341,1670893,0.0-18.0-22.0,70520,List1B,white,man,,TRUE,6,,,,,,,,,,
null,CORRECT,,html-keyboard-response,342,1672411,0.0-18.0-23.0-0.0,70520,List1B,white,man,,,,null,,,,,,,,,
3194.7,<p>You got 8 out of 8 right first time. Press Continue.</p>,0,html-button-response,343,1675607,0.0-18.0-25.0,70520,List1B,white,man,,,,,,,,,,,,,
null,"<div style=""font-size:60px;"">+</div>",,html-keyboard-response,344,1677127,0.0-19.0-0.0,70520,List1B,white,man,,,,null,,,,,,,,,
null,"<img src=""stim_listB/copy2.gif""style=""height:400px;""></stim_listB>",,html-keyboard-response,345,1679129,0.0-19.0-1.0,70520,List1B,white,man,,,,null,,,,,,,,,
null,is being copied by,,html-keyboard-response,346,1681132,0.0-19.0-2.0,70520,List1B,white,man,,,,null,,,,,,,,,
13566.6,,,survey-text,347,1694700,0.0-19.0-3.0,70520,List1B,white,man,,,,,"{""Q0"":""Kate is been copied by Fred.""}","<img src=""stim_listB/copy2.gif""style=""height:400px;""></stim_listB>",is being copied by,,,,,,
null,"<div style=""font-size:60px;"">+</div>",,html-keyboard-response,348,1695208,0.0-19.0-0.1,70520,List1B,white,man,,,,null,,,,,,,,,
null,"<img src=""stim_listB/touch5.gif""style=""height:400px;""></stim_listB>",,html-keyboard-response,349,1697223,0.0-19.0-1.1,70520,List1B,white,man,,,,null,,,,,,,,,
null,is touching,,html-keyboard-response,350,1699232,0.0-19.0-2.1,70520,List1B,white,man,,,,null,,,,,,,,,
10262.2,,,survey-text,351,1709496,0.0-19.0-3.1,70520,List1B,white,man,,,,,"{""Q0"":""Dave is touching Mike.""}","<img src=""stim_listB/touch5.gif""style=""height:400px;""></stim_listB>",is touching,,,,,,
null,"<div style=""font-size:60px;"">+</div>",,html-keyboard-response,352,1710008,0.0-19.0-0.2,70520,List1B,white,man,,,,null,,,,,,,,,
null,"<img src=""stim_listB/copy4.gif""style=""height:400px;""></stim_listB>",,html-keyboard-response,353,1712024,0.0-19.0-1.2,70520,List1B,white,man,,,,null,,,,,,,,,
null,is being copied by,,html-keyboard-response,354,1714029,0.0-19.0-2.2,70520,List1B,white,man,,,,null,,,,,,,,,
12260.3,,,survey-text,355,1726292,0.0-19.0-3.2,70520,List1B,white,man,,,,,"{""Q0"":""Luke is been copied by Jane.""}","<img src=""stim_listB/copy4.gif""style=""height:400px;""></stim_listB>",is being copied by,,,,,,
null,"<div style=""font-size:60px;"">+</div>",,html-keyboard-response,356,1726796,0.0-19.0-0.3,70520,List1B,white,man,,,,null,,,,,,,,,
null,"<img src=""stim_listB/oppose5.gif""style=""height:400px;""></stim_listB>",,html-keyboard-response,357,1728809,0.0-19.0-1.3,70520,List1B,white,man,,,,null,,,,,,,,,
null,is opposing,,html-keyboard-response,358,1730811,0.0-19.0-2.3,70520,List1B,white,man,,,,null,,,,,,,,,
8686.4,,,survey-text,359,1739499,0.0-19.0-3.3,70520,List1B,white,man,,,,,"{""Q0"":""Mike is opposing Dave.""}","<img src=""stim_listB/oppose5.gif""style=""height:400px;""></stim_listB>",is opposing,,,,,,
null,"<div style=""font-size:60px;"">+</div>",,html-keyboard-response,360,1740006,0.0-19.0-0.4,70520,List1B,white,man,,,,null,,,,,,,,,
null,"<img src=""stim_listB/challenge2.gif""style=""height:400px;""></stim_listB>",,html-keyboard-response,361,1742009,0.0-19.0-1.4,70520,List1B,white,man,,,,null,,,,,,,,,
null,is being challenged by,,html-keyboard-response,362,1744013,0.0-19.0-2.4,70520,List1B,white,man,,,,null,,,,,,,,,
14167.2,,,survey-text,363,1758182,0.0-19.0-3.4,70520,List1B,white,man,,,,,"{""Q0"":""Kate is been challenged by Fred.""}","<img src=""stim_listB/challenge2.gif""style=""height:400px;""></stim_listB>",is being challenged by,,,,,,
null,"<div style=""font-size:60px;"">+</div>",,html-keyboard-response,364,1758689,0.0-19.0-0.5,70520,List1B,white,man,,,,null,,,,,,,,,
null,"<img src=""stim_listB/seduce1.gif""style=""height:400px;""></stim_listB>",,html-keyboard-response,365,1760691,0.0-19.0-1.5,70520,List1B,white,man,,,,null,,,,,,,,,
null,is seducing,,html-keyboard-response,366,1762694,0.0-19.0-2.5,70520,List1B,white,man,,,,null,,,,,,,,,
12752.9,,,survey-text,367,1775450,0.0-19.0-3.5,70520,List1B,white,man,,,,,"{""Q0"":""Kate is seducing Fred.""}","<img src=""stim_listB/seduce1.gif""style=""height:400px;""></stim_listB>",is seducing,,,,,,
null,"<div style=""font-size:60px;"">+</div>",,html-keyboard-response,368,1775956,0.0-19.0-0.6,70520,List1B,white,man,,,,null,,,,,,,,,
null,"<img src=""stim_listB/challenge8.gif""style=""height:400px;""></stim_listB>",,html-keyboard-response,369,1777971,0.0-19.0-1.6,70520,List1B,white,man,,,,null,,,,,,,,,
null,is being challenged by,,html-keyboard-response,370,1779977,0.0-19.0-2.6,70520,List1B,white,man,,,,null,,,,,,,,,
12058,,,survey-text,371,1792038,0.0-19.0-3.6,70520,List1B,white,man,,,,,"{""Q0"":""Kate is been challenged by jane""}","<img src=""stim_listB/challenge8.gif""style=""height:400px;""></stim_listB>",is being challenged by,,,,,,
null,"<div style=""font-size:60px;"">+</div>",,html-keyboard-response,372,1792540,0.0-19.0-0.7,70520,List1B,white,man,,,,null,,,,,,,,,
null,"<img src=""stim_listB/shout5.gif""style=""height:400px;""></stim_listB>",,html-keyboard-response,373,1794556,0.0-19.0-1.7,70520,List1B,white,man,,,,null,,,,,,,,,
null,is shouting at,,html-keyboard-response,374,1796567,0.0-19.0-2.7,70520,List1B,white,man,,,,null,,,,,,,,,
11800.7,,,survey-text,375,1808370,0.0-19.0-3.7,70520,List1B,white,man,,,,,"{""Q0"":""Luke is shouting at Fred.""}","<img src=""stim_listB/shout5.gif""style=""height:400px;""></stim_listB>",is shouting at,,,,,,
null,"<div style=""font-size:60px;"">+</div>",,html-keyboard-response,376,1808875,0.0-19.0-0.8,70520,List1B,white,man,,,,null,,,,,,,,,
null,"<img src=""stim_listB/look5.gif""style=""height:400px;""></stim_listB>",,html-keyboard-response,377,1810889,0.0-19.0-1.8,70520,List1B,white,man,,,,null,,,,,,,,,
null,is looking at,,html-keyboard-response,378,1812892,0.0-19.0-2.8,70520,List1B,white,man,,,,null,,,,,,,,,
9425.3,,,survey-text,379,1822320,0.0-19.0-3.8,70520,List1B,white,man,,,,,"{""Q0"":""Luke is looking at Fred.""}","<img src=""stim_listB/look5.gif""style=""height:400px;""></stim_listB>",is looking at,,,,,,
null,"<div style=""font-size:60px;"">+</div>",,html-keyboard-response,380,1822822,0.0-19.0-0.9,70520,List1B,white,man,,,,null,,,,,,,,,
null,"<img src=""stim_listB/challenge3.gif""style=""height:400px;""></stim_listB>",,html-keyboard-response,381,1824839,0.0-19.0-1.9,70520,List1B,white,man,,,,null,,,,,,,,,
null,is challenging,,html-keyboard-response,382,1826857,0.0-19.0-2.9,70520,List1B,white,man,,,,null,,,,,,,,,
15476.2,,,survey-text,383,1842336,0.0-19.0-3.9,70520,List1B,white,man,,,,,"{""Q0"":""Ruth is challenging Dave.""}","<img src=""stim_listB/challenge3.gif""style=""height:400px;""></stim_listB>",is challenging,,,,,,
null,"<div style=""font-size:60px;"">+</div>",,html-keyboard-response,384,1842838,0.0-19.0-0.10,70520,List1B,white,man,,,,null,,,,,,,,,
null,"<img src=""stim_listB/oppose3.gif""style=""height:400px;""></stim_listB>",,html-keyboard-response,385,1844853,0.0-19.0-1.10,70520,List1B,white,man,,,,null,,,,,,,,,
null,is opposing,,html-keyboard-response,386,1846859,0.0-19.0-2.10,70520,List1B,white,man,,,,null,,,,,,,,,
10354.5,,,survey-text,387,1857216,0.0-19.0-3.10,70520,List1B,white,man,,,,,"{""Q0"":""Jane is opposing Dave.""}","<img src=""stim_listB/oppose3.gif""style=""height:400px;""></stim_listB>",is opposing,,,,,,
null,"<div style=""font-size:60px;"">+</div>",,html-keyboard-response,388,1857731,0.0-19.0-0.11,70520,List1B,white,man,,,,null,,,,,,,,,
null,"<img src=""stim_listB/hug6.gif""style=""height:400px;""></stim_listB>",,html-keyboard-response,389,1859747,0.0-19.0-1.11,70520,List1B,white,man,,,,null,,,,,,,,,
null,is being hugged by,,html-keyboard-response,390,1861758,0.0-19.0-2.11,70520,List1B,white,man,,,,null,,,,,,,,,
13608.8,,,survey-text,391,1875369,0.0-19.0-3.11,70520,List1B,white,man,,,,,"{""Q0"":""Mike is been hugged by Dave.""}","<img src=""stim_listB/hug6.gif""style=""height:400px;""></stim_listB>",is being hugged by,,,,,,
null,"<div style=""font-size:60px;"">+</div>",,html-keyboard-response,392,1875885,0.0-19.0-0.12,70520,List1B,white,man,,,,null,,,,,,,,,
null,"<img src=""stim_listB/copy1.gif""style=""height:400px;""></stim_listB>",,html-keyboard-response,393,1877902,0.0-19.0-1.12,70520,List1B,white,man,,,,null,,,,,,,,,
null,is copying,,html-keyboard-response,394,1879907,0.0-19.0-2.12,70520,List1B,white,man,,,,null,,,,,,,,,
18127.5,,,survey-text,395,1898036,0.0-19.0-3.12,70520,List1B,white,man,,,,,"{""Q0"":""Beth is copying Mike.""}","<img src=""stim_listB/copy1.gif""style=""height:400px;""></stim_listB>",is copying,,,,,,
null,"<div style=""font-size:60px;"">+</div>",,html-keyboard-response,396,1898552,0.0-19.0-0.13,70520,List1B,white,man,,,,null,,,,,,,,,
null,"<img src=""stim_listB/kiss2.gif""style=""height:400px;""></stim_listB>",,html-keyboard-response,397,1900567,0.0-19.0-1.13,70520,List1B,white,man,,,,null,,,,,,,,,
null,is being kissed by,,html-keyboard-response,398,1902572,0.0-19.0-2.13,70520,List1B,white,man,,,,null,,,,,,,,,
15091.1,,,survey-text,399,1917666,0.0-19.0-3.13,70520,List1B,white,man,,,,,"{""Q0"":""Kate is been kissed by Mike.""}","<img src=""stim_listB/kiss2.gif""style=""height:400px;""></stim_listB>",is being kissed by,,,,,,
null,"<div style=""font-size:60px;"">+</div>",,html-keyboard-response,400,1918168,0.0-19.0-0.14,70520,List1B,white,man,,,,null,,,,,,,,,
null,"<img src=""stim_listB/seduce5.gif""style=""height:400px;""></stim_listB>",,html-keyboard-response,401,1920182,0.0-19.0-1.14,70520,List1B,white,man,,,,null,,,,,,,,,
null,is seducing,,html-keyboard-response,402,1922187,0.0-19.0-2.14,70520,List1B,white,man,,,,null,,,,,,,,,
9146.8,,,survey-text,403,1931336,0.0-19.0-3.14,70520,List1B,white,man,,,,,"{""Q0"":""Fred is seducing Dave.""}","<img src=""stim_listB/seduce5.gif""style=""height:400px;""></stim_listB>",is seducing,,,,,,
null,"<div style=""font-size:60px;"">+</div>",,html-keyboard-response,404,1931850,0.0-19.0-0.15,70520,List1B,white,man,,,,null,,,,,,,,,
null,"<img src=""stim_listB/hug5.gif""style=""height:400px;""></stim_listB>",,html-keyboard-response,405,1933852,0.0-19.0-1.15,70520,List1B,white,man,,,,null,,,,,,,,,
null,is hugging,,html-keyboard-response,406,1935868,0.0-19.0-2.15,70520,List1B,white,man,,,,null,,,,,,,,,
9259.6,,,survey-text,407,1945130,0.0-19.0-3.15,70520,List1B,white,man,,,,,"{""Q0"":""Fred is hugging Luke.""}","<img src=""stim_listB/hug5.gif""style=""height:400px;""></stim_listB>",is hugging,,,,,,
null,"<div style=""font-size:60px;"">+</div>",,html-keyboard-response,408,1945632,0.0-19.0-0.16,70520,List1B,white,man,,,,null,,,,,,,,,
null,"<img src=""stim_listB/copy6.gif""style=""height:400px;""></stim_listB>",,html-keyboard-response,409,1947650,0.0-19.0-1.16,70520,List1B,white,man,,,,null,,,,,,,,,
null,is being copied by,,html-keyboard-response,410,1949662,0.0-19.0-2.16,70520,List1B,white,man,,,,null,,,,,,,,,
13093,,,survey-text,411,1962758,0.0-19.0-3.16,70520,List1B,white,man,,,,,"{""Q0"":""Dave is been copied by Dave.""}","<img src=""stim_listB/copy6.gif""style=""height:400px;""></stim_listB>",is being copied by,,,,,,
null,"<div style=""font-size:60px;"">+</div>",,html-keyboard-response,412,1963264,0.0-19.0-0.17,70520,List1B,white,man,,,,null,,,,,,,,,
null,"<img src=""stim_listB/hug2.gif""style=""height:400px;""></stim_listB>",,html-keyboard-response,413,1965279,0.0-19.0-1.17,70520,List1B,white,man,,,,null,,,,,,,,,
null,is being hugged by,,html-keyboard-response,414,1967284,0.0-19.0-2.17,70520,List1B,white,man,,,,null,,,,,,,,,
17704.2,,,survey-text,415,1984991,0.0-19.0-3.17,70520,List1B,white,man,,,,,"{""Q0"":""Kate is been hugged by Mike.""}","<img src=""stim_listB/hug2.gif""style=""height:400px;""></stim_listB>",is being hugged by,,,,,,
null,"<div style=""font-size:60px;"">+</div>",,html-keyboard-response,416,1985498,0.0-19.0-0.18,70520,List1B,white,man,,,,null,,,,,,,,,
null,"<img src=""stim_listB/greet4.gif""style=""height:400px;""></stim_listB>",,html-keyboard-response,417,1987516,0.0-19.0-1.18,70520,List1B,white,man,,,,null,,,,,,,,,
null,is being greeted by,,html-keyboard-response,418,1989519,0.0-19.0-2.18,70520,List1B,white,man,,,,null,,,,,,,,,
10319.2,,,survey-text,419,1999840,0.0-19.0-3.18,70520,List1B,white,man,,,,,"{""Q0"":""Jane is been greeted by Luke.""}","<img src=""stim_listB/greet4.gif""style=""height:400px;""></stim_listB>",is being greeted by,,,,,,
null,"<div style=""font-size:60px;"">+</div>",,html-keyboard-response,420,2000347,0.0-19.0-0.19,70520,List1B,white,man,,,,null,,,,,,,,,
null,"<img src=""stim_listB/shout4.gif""style=""height:400px;""></stim_listB>",,html-keyboard-response,421,2002350,0.0-19.0-1.19,70520,List1B,white,man,,,,null,,,,,,,,,
null,is being shouted at by,,html-keyboard-response,422,2004352,0.0-19.0-2.19,70520,List1B,white,man,,,,null,,,,,,,,,
18375.7,,,survey-text,423,2022730,0.0-19.0-3.19,70520,List1B,white,man,,,,,"{""Q0"":""Dave is been shouted on by Jane.""}","<img src=""stim_listB/shout4.gif""style=""height:400px;""></stim_listB>",is being shouted at by,,,,,,
4396.7,<p>Thank you for completing that task.</p><p>The final part of this session is a questionnaire that will take about 4 minutes.</p><p>Press Continue.</p>,0,html-button-response,424,2027128,0.0-20.0,70520,List1B,white,man,,,,,,,,,,,,,
67031.6,,,survey-text,425,2095164,0.0-21.0,70520,List1B,white,man,,,,,"{""Q0"":""39"",""Q1"":""English"",""Q2"":""English"",""Q3"":""United States"",""Q4"":""American"",""Q5"":""White"",""Q6"":""Male""}",,,demographics,,,,,
2486.3,<p>Have you lived in the USA for the last 5 years or more?</p>,0,html-button-response,426,2097653,0.0-22.0,70520,List1B,white,man,,,,,,,,fiveyears,,,,,
5975.4,<p>Move the slider to show the extent to which you agree with the following statements.</p>,0,html-button-response,427,2104639,0.0-23.0,70520,List1B,white,man,,,,,,,,,,,,,
16300.3,,,html-slider-response,428,2121948,0.0-24.0-0.0-0.0,70520,List1B,white,man,,,,,,,,survey_race,100,,,I have a lot in common with people of a similar age to me.,filler
18945.3,,,html-slider-response,429,2140896,0.0-24.0-0.0-0.1,70520,List1B,white,man,,,,,,,,survey_race,100,,,I am similar to the average person of my race.,similar
12942.4,,,html-slider-response,430,2153841,0.0-24.0-0.0-0.2,70520,List1B,white,man,,,,,,,,survey_race,100,,,Getting older does not worry me.,filler
12610.3,,,html-slider-response,431,2166454,0.0-24.0-0.0-0.3,70520,List1B,white,man,,,,,,,,survey_race,78,,,I often think about the fact that I am my age.,filler
6793,,,html-slider-response,432,2173250,0.0-24.0-0.0-0.4,70520,List1B,white,man,,,,,,,,survey_race,100,,,Being my race gives me a good feeling.,feeling
21029.9,,,html-slider-response,433,2194282,0.0-24.0-0.0-0.5,70520,List1B,white,man,,,,,,,,survey_race,80,,,People my age have a lot in common with each other.,filler
13086.7,,,html-slider-response,434,2207371,0.0-24.0-0.0-0.6,70520,List1B,white,man,,,,,,,,survey_race,100,,,I consider myself an extrovert.,filler
12759.1,,,html-slider-response,435,2220133,0.0-24.0-0.0-0.7,70520,List1B,white,man,,,,,,,,survey_race,94,,,I feel solidarity with people the same age as me.,filler
9479,,,html-slider-response,436,2229614,0.0-24.0-0.0-0.8,70520,List1B,white,man,,,,,,,,survey_race,100,,,I feel solidarity with my race.,solidarity
8905.2,,,html-slider-response,437,2238522,0.0-24.0-0.0-0.9,70520,List1B,white,man,,,,,,,,survey_race,100,,,I feel a bond with my race.,bond
21292.5,,,html-slider-response,438,2259817,0.0-24.0-0.0-0.10,70520,List1B,white,man,,,,,,,,survey_race,51,,,I often think about the fact that I am my race.,often
9102.3,,,html-slider-response,439,2268921,0.0-24.0-0.0-0.11,70520,List1B,white,man,,,,,,,,survey_race,100,,,Being my age gives me a good feeling.,filler
12859.9,,,html-slider-response,440,2281783,0.0-24.0-0.0-0.12,70520,List1B,white,man,,,,,,,,survey_race,53,,,I am glad to be the age I am.,filler
10950.4,,,html-slider-response,441,2292736,0.0-24.0-0.0-0.13,70520,List1B,white,man,,,,,,,,survey_race,100,,,I am glad to be my age.,filler
7126.2,,,html-slider-response,442,2299865,0.0-24.0-0.0-0.14,70520,List1B,white,man,,,,,,,,survey_race,100,,,I feel committed to my race.,committed
9698,,,html-slider-response,443,2309565,0.0-24.0-0.0-0.15,70520,List1B,white,man,,,,,,,,survey_race,100,,,Being my race is an important part of how I see myself.,important
31549,,,html-slider-response,444,2341116,0.0-24.0-0.0-0.16,70520,List1B,white,man,,,,,,,,survey_race,60,,,I have a lot in common with the average person of my race.,average
17433.2,,,html-slider-response,445,2358551,0.0-24.0-0.0-0.17,70520,List1B,white,man,,,,,,,,survey_race,85,,,I feel a bond with people the same age as me.,filler
23670.7,,,html-slider-response,446,2382225,0.0-24.0-0.0-0.18,70520,List1B,white,man,,,,,,,,survey_race,52,,,People of my race are very similar to each other.,verysimilar
11065.7,,,html-slider-response,447,2393293,0.0-24.0-0.0-0.19,70520,List1B,white,man,,,,,,,,survey_race,100,,,I think that my race has a lot to be proud of.,proud
11369.6,,,html-slider-response,448,2404665,0.0-24.0-0.0-0.20,70520,List1B,white,man,,,,,,,,survey_race,0,,,I consider myself an introvert.,filler
12196.1,,,html-slider-response,449,2416864,0.0-24.0-0.0-0.21,70520,List1B,white,man,,,,,,,,survey_race,0,,,My age is not an important part of who I am.,filler
13428.1,,,html-slider-response,450,2430294,0.0-24.0-0.0-0.22,70520,List1B,white,man,,,,,,,,survey_race,13,,,I enjoy being in large groups.,filler
6159.1,,,html-slider-response,451,2436456,0.0-24.0-0.0-0.23,70520,List1B,white,man,,,,,,,,survey_race,100,,,I am glad to be my race.,glad
17746.5,,,html-slider-response,452,2454205,0.0-24.0-0.0-0.24,70520,List1B,white,man,,,,,,,,survey_race,100,,,"The older I get, the wiser I feel.",filler
9346.3,,,html-slider-response,453,2463554,0.0-24.0-0.0-0.25,70520,List1B,white,man,,,,,,,,survey_race,52,,,People of my race have a lot in common with each other.,common
16806.1,,,html-slider-response,454,2480362,0.0-24.0-0.0-0.26,70520,List1B,white,man,,,,,,,,survey_race,100,,,The fact that I am my race is an important part of my identity.,identity
11188.8,,,html-slider-response,455,2491554,0.0-24.0-0.0-0.27,70520,List1B,white,man,,,,,,,,survey_race,100,,,It is pleasant to be my race.,pleasant
21424.4,,,html-slider-response,456,2512981,0.0-24.0-1.0-0.0,70520,List1B,white,man,,,,,,,,survey_gender,52,,,I have a lot in common with the average person of my gender.,average
9610.3,,,html-slider-response,457,2522594,0.0-24.0-1.0-0.1,70520,List1B,white,man,,,,,,,,survey_gender,90,,,My friends have a lot in common with each other.,filler
14880.6,,,html-slider-response,458,2537477,0.0-24.0-1.0-0.2,70520,List1B,white,man,,,,,,,,survey_gender,52,,,I feel committed to my gender.,committed
19905.9,,,html-slider-response,459,2557385,0.0-24.0-1.0-0.3,70520,List1B,white,man,,,,,,,,survey_gender,100,,,I am glad to be my gender.,glad
5204.1,,,html-slider-response,460,2562592,0.0-24.0-1.0-0.4,70520,List1B,white,man,,,,,,,,survey_gender,100,,,Being my gender gives me a good feeling.,feeling
14523.4,,,html-slider-response,461,2577118,0.0-24.0-1.0-0.5,70520,List1B,white,man,,,,,,,,survey_gender,91,,,It is not always easy for people to know what I am thinking.,filler
8522.4,,,html-slider-response,462,2585643,0.0-24.0-1.0-0.6,70520,List1B,white,man,,,,,,,,survey_gender,100,,,Being my gender is an important part of how I see myself.,important
12291.9,,,html-slider-response,463,2597937,0.0-24.0-1.0-0.7,70520,List1B,white,man,,,,,,,,survey_gender,87,,,I often think about my actions.,filler
35583.7,,,html-slider-response,464,2633523,0.0-24.0-1.0-0.8,70520,List1B,white,man,,,,,,,,survey_gender,88,,,I feel solidarity with my friends.,filler
16946.4,,,html-slider-response,465,2650472,0.0-24.0-1.0-0.9,70520,List1B,white,man,,,,,,,,survey_gender,0,,,I would say I am an animal person.,filler
11832.5,,,html-slider-response,466,2662307,0.0-24.0-1.0-0.10,70520,List1B,white,man,,,,,,,,survey_gender,90,,,I feel a bond with my friends.,filler
19697.6,,,html-slider-response,467,2682007,0.0-24.0-1.0-0.11,70520,List1B,white,man,,,,,,,,survey_gender,100,,,I am glad to have the friends that I have.,filler
6277,,,html-slider-response,468,2688287,0.0-24.0-1.0-0.12,70520,List1B,white,man,,,,,,,,survey_gender,100,,,Being around my friends gives me a good feeling.,filler
12878.7,,,html-slider-response,469,2701167,0.0-24.0-1.0-0.13,70520,List1B,white,man,,,,,,,,survey_gender,57,,,I often think about the fact that I am my gender.,often
9212.1,,,html-slider-response,470,2710382,0.0-24.0-1.0-0.14,70520,List1B,white,man,,,,,,,,survey_gender,0,,,Family is not more important to me than friendship.,filler
9619,,,html-slider-response,471,2720003,0.0-24.0-1.0-0.15,70520,List1B,white,man,,,,,,,,survey_gender,100,,,I feel solidarity with my gender.,solidarity
4929.4,,,html-slider-response,472,2724935,0.0-24.0-1.0-0.16,70520,List1B,white,man,,,,,,,,survey_gender,100,,,It is pleasant to be my gender.,pleasant
6282.8,,,html-slider-response,473,2731219,0.0-24.0-1.0-0.17,70520,List1B,white,man,,,,,,,,survey_gender,91,,,I consider myself a highly empathetic person.,filler
121074.3,,,html-slider-response,474,2852295,0.0-24.0-1.0-0.18,70520,List1B,white,man,,,,,,,,survey_gender,64,,,I have a lot in common with my friends.,filler
8206.6,,,html-slider-response,475,2860504,0.0-24.0-1.0-0.19,70520,List1B,white,man,,,,,,,,survey_gender,71,,,I feel a bond with my gender.,bond
6333.4,,,html-slider-response,476,2866840,0.0-24.0-1.0-0.20,70520,List1B,white,man,,,,,,,,survey_gender,71,,,People of my gender are very similar to each other.,verysimilar
3608.1,,,html-slider-response,477,2870450,0.0-24.0-1.0-0.21,70520,List1B,white,man,,,,,,,,survey_gender,76,,,People of my gender have a lot in common with each other.,common
4517.8,,,html-slider-response,478,2874970,0.0-24.0-1.0-0.22,70520,List1B,white,man,,,,,,,,survey_gender,26,,,Routine is not important to me.,filler
8791.1,,,html-slider-response,479,2883763,0.0-24.0-1.0-0.23,70520,List1B,white,man,,,,,,,,survey_gender,29,,,Most of the friends in my life are very similar to me.,filler
7391.2,,,html-slider-response,480,2891157,0.0-24.0-1.0-0.24,70520,List1B,white,man,,,,,,,,survey_gender,87,,,The fact that I am my gender is an important part of my identity.,identity
121813.6,,,html-slider-response,481,3012973,0.0-24.0-1.0-0.25,70520,List1B,white,man,,,,,,,,survey_gender,52,,,I am similar to the average person of my gender.,similar
9441.1,,,html-slider-response,482,3022417,0.0-24.0-1.0-0.26,70520,List1B,white,man,,,,,,,,survey_gender,100,,,I think that my gender has a lot to be proud of.,proud
4902.1,,,html-slider-response,483,3027321,0.0-24.0-1.0-0.27,70520,List1B,white,man,,,,,,,,survey_gender,100,,,My friends understand me.,filler
15377.2,,,survey-text,484,3042702,0.0-25.0,70520,List1B,white,man,,,,,"{""Q0"":""ccc""}",,,worker_id,,,,,
57836.8,,,external-html,485,3103464,0.0-26.0,70520,List1B,white,man,debrief.html,,,,,,,,,,,,
