rt,stimulus,button_pressed,trial_type,trial_index,time_elapsed,internal_node_id,subject,list,ppt_race,ppt_gender,url,first_guess,correct,key_press,responses,image_type,phrase_type,test_part,response,stimulus1,stimulus2,question_type,survey_item
1692.3,Welcome to the experiment. Press Continue to begin.,0,html-button-response,0,1695,0.0-0.0,71408,List2B,white,woman,,,,,,,,,,,,,
17523.1,,,external-html,1,20391,0.0-1.0,71408,List2B,white,woman,consent.html,,,,,,,,,,,,
14125.8,"<p>On the next page, you will see portraits of 8 people and their names.</p><p>Your first task is to take a few minutes to memorise the names of these people.</p><p>You will have to recall their names during the rest of the experiment, so it is</p><p>essential that you try to memorise these people and their names as best as you can.</p><br><p><strong>You will then be tested on your memory of these names and portraits.</strong></p><br><p>The experiment will start after you have completed this memory test.</p><br><p>Ready?</p>",0,html-button-response,2,34518,0.0-2.0,71408,List2B,white,woman,,,,,,,,,,,,,
85397.3,"<img src='img/portrait_matrix_list2.jpg' style='width:900px;height:500px;''></img><p>If you have memorised all the portraits and names and are ready to start, press Continue.</p><p><strong>Please note: Your memory of these faces will be tested 4 times during this experiment.</strong></p>",0,html-button-response,3,120919,0.0-3.0-0.0,71408,List2B,white,woman,,,,,,,,,,,,,
3277.4,"<img src=""portrait/WW1.jpg""style=""height:400px;""></img>",1,html-button-response,4,125198,0.0-3.0-1.0,71408,List2B,white,woman,,TRUE,1,,,,,,,,,,
null,CORRECT,,html-keyboard-response,5,126701,0.0-3.0-2.0-0.0,71408,List2B,white,woman,,,,null,,,,,,,,,
2559.6,"<img src=""portrait/BW2.jpg""style=""height:400px;""></img>",2,html-button-response,6,129263,0.0-3.0-4.0,71408,List2B,white,woman,,TRUE,2,,,,,,,,,,
null,CORRECT,,html-keyboard-response,7,130766,0.0-3.0-5.0-0.0,71408,List2B,white,woman,,,,null,,,,,,,,,
1822.7,"<img src=""portrait/BM1.jpg""style=""height:400px;""></img>",4,html-button-response,8,132591,0.0-3.0-7.0,71408,List2B,white,woman,,TRUE,4,,,,,,,,,,
null,CORRECT,,html-keyboard-response,9,134094,0.0-3.0-8.0-0.0,71408,List2B,white,woman,,,,null,,,,,,,,,
1799.2,"<img src=""portrait/WW2.jpg""style=""height:400px;""></img>",3,html-button-response,10,135894,0.0-3.0-10.0,71408,List2B,white,woman,,TRUE,3,,,,,,,,,,
null,CORRECT,,html-keyboard-response,11,137398,0.0-3.0-11.0-0.0,71408,List2B,white,woman,,,,null,,,,,,,,,
2199.3,"<img src=""portrait/WM1.jpg""style=""height:400px;""></img>",6,html-button-response,12,139598,0.0-3.0-13.0,71408,List2B,white,woman,,TRUE,6,,,,,,,,,,
null,CORRECT,,html-keyboard-response,13,141101,0.0-3.0-14.0-0.0,71408,List2B,white,woman,,,,null,,,,,,,,,
2152.5,"<img src=""portrait/BM2.jpg""style=""height:400px;""></img>",5,html-button-response,14,143255,0.0-3.0-16.0,71408,List2B,white,woman,,TRUE,5,,,,,,,,,,
null,CORRECT,,html-keyboard-response,15,144759,0.0-3.0-17.0-0.0,71408,List2B,white,woman,,,,null,,,,,,,,,
1790.8,"<img src=""portrait/WM2.jpg""style=""height:400px;""></img>",7,html-button-response,16,146551,0.0-3.0-19.0,71408,List2B,white,woman,,TRUE,7,,,,,,,,,,
null,CORRECT,,html-keyboard-response,17,148053,0.0-3.0-20.0-0.0,71408,List2B,white,woman,,,,null,,,,,,,,,
5289,"<img src=""portrait/BW1.jpg""style=""height:400px;""></img>",0,html-button-response,18,153343,0.0-3.0-22.0,71408,List2B,white,woman,,TRUE,0,,,,,,,,,,
null,CORRECT,,html-keyboard-response,19,154846,0.0-3.0-23.0-0.0,71408,List2B,white,woman,,,,null,,,,,,,,,
2094.6,<p>You got 8 out of 8 right first time. Press Continue.</p>,0,html-button-response,20,156942,0.0-3.0-25.0,71408,List2B,white,woman,,,,,,,,,,,,,
29605.5,"<p>In this experiment, you will view photographs of the people from the memory game interacting.</p><p>By using the <strong>exact</strong> phrase given <i>after</i> the photograph appears and recalling the correct names of the people in the photographs, form a sentence describing the interaction. You do not need to capitalise names.</p><p>Type your answer in the space provided. Please complete every sentence before moving onto the next trial.</p><p>You will only have a few seconds to memorise each given photograph and phrase before you can respond, so try your best to focus.</p><p>An example is given below. Press 'Continue' when you are ready.</p><img src='img/speaking_example.jpg' style='width:800px;height:460px;''></img>",0,html-button-response,21,187551,0.0-4.0,71408,List2B,white,woman,,,,,,,,,,,,,
2733.3,"<p>Before the experiment starts, you will watch two example trials. Press 'Continue'.</p>",0,html-button-response,22,191286,0.0-5.0,71408,List2B,white,woman,,,,,,,,,,,,,
null,<img src='img/play_eg.gif' style='height:400px;''></img>,,html-keyboard-response,23,194289,0.0-6.0,71408,List2B,white,woman,,,,null,,,,,,,,,
null,<p>is playing with</p>,,html-keyboard-response,24,196291,0.0-7.0,71408,List2B,white,woman,,,,null,,,,,,,,,
2722.8,<p><b>Answer:</b> jane is playing with ruth</p>,0,html-button-response,25,199015,0.0-8.0,71408,List2B,white,woman,,,,,,,,,,,,,
null,<img src='img/dance_eg.gif' style='height:400px;''></img>,,html-keyboard-response,26,202018,0.0-9.0,71408,List2B,white,woman,,,,null,,,,,,,,,
null,<p>is being entertained by</p>,,html-keyboard-response,27,204019,0.0-10.0,71408,List2B,white,woman,,,,null,,,,,,,,,
1802.2,<p><b>Answer:</b> fred is being entertained by mike</p>,0,html-button-response,28,205823,0.0-11.0,71408,List2B,white,woman,,,,,,,,,,,,,
10005.6,"<p>Ready to start the experiment?</p><br><p><strong>Remember to describe the picture using a full sentence,</strong></p><p><strong>that combines the names of the people with the <i>exact</i> phrase given.</strong></p><p><strong>To receive full payment you must do this correctly.</strong></p><p><strong> You do not need to capitalise names or use punctuation.</strong></p><br><p>Press 'Continue' to begin.</p>",0,html-button-response,29,216830,0.0-12.0,71408,List2B,white,woman,,,,,,,,,,,,,
null,"<div style=""font-size:60px;"">+</div>",,html-keyboard-response,30,218333,0.0-13.0-0.0,71408,List2B,white,woman,,,,null,,,,,,,,,
null,"<img src=""stim_listB/challenge3.gif""style=""height:400px;""></stim_listB>",,html-keyboard-response,31,220335,0.0-13.0-1.0,71408,List2B,white,woman,,,,null,,,,,,,,,
null,is challenging,,html-keyboard-response,32,222336,0.0-13.0-2.0,71408,List2B,white,woman,,,,null,,,,,,,,,
6534,,,survey-text,33,228874,0.0-13.0-3.0,71408,List2B,white,woman,,,,,"{""Q0"":""Beth is challenging Mike""}","<img src=""stim_listB/challenge3.gif""style=""height:400px;""></stim_listB>",is challenging,,,,,,
null,"<div style=""font-size:60px;"">+</div>",,html-keyboard-response,34,229376,0.0-13.0-0.1,71408,List2B,white,woman,,,,null,,,,,,,,,
null,"<img src=""stim_listB/greet7.gif""style=""height:400px;""></stim_listB>",,html-keyboard-response,35,231379,0.0-13.0-1.1,71408,List2B,white,woman,,,,null,,,,,,,,,
null,is greeting,,html-keyboard-response,36,233380,0.0-13.0-2.1,71408,List2B,white,woman,,,,null,,,,,,,,,
6432.5,,,survey-text,37,239815,0.0-13.0-3.1,71408,List2B,white,woman,,,,,"{""Q0"":""Beth is greeting Jane""}","<img src=""stim_listB/greet7.gif""style=""height:400px;""></stim_listB>",is greeting,,,,,,
null,"<div style=""font-size:60px;"">+</div>",,html-keyboard-response,38,240317,0.0-13.0-0.2,71408,List2B,white,woman,,,,null,,,,,,,,,
null,"<img src=""stim_listB/kiss6.gif""style=""height:400px;""></stim_listB>",,html-keyboard-response,39,242306,0.0-13.0-1.2,71408,List2B,white,woman,,,,null,,,,,,,,,
null,is being kissed by,,html-keyboard-response,40,244308,0.0-13.0-2.2,71408,List2B,white,woman,,,,null,,,,,,,,,
6525.4,,,survey-text,41,250835,0.0-13.0-3.2,71408,List2B,white,woman,,,,,"{""Q0"":""Dave is being kissed by Mike""}","<img src=""stim_listB/kiss6.gif""style=""height:400px;""></stim_listB>",is being kissed by,,,,,,
null,"<div style=""font-size:60px;"">+</div>",,html-keyboard-response,42,251337,0.0-13.0-0.3,71408,List2B,white,woman,,,,null,,,,,,,,,
null,"<img src=""stim_listB/copy4.gif""style=""height:400px;""></stim_listB>",,html-keyboard-response,43,253339,0.0-13.0-1.3,71408,List2B,white,woman,,,,null,,,,,,,,,
null,is being copied by,,html-keyboard-response,44,255340,0.0-13.0-2.3,71408,List2B,white,woman,,,,null,,,,,,,,,
6613.1,,,survey-text,45,261955,0.0-13.0-3.3,71408,List2B,white,woman,,,,,"{""Q0"":""Mike is being copied by Kate""}","<img src=""stim_listB/copy4.gif""style=""height:400px;""></stim_listB>",is being copied by,,,,,,
null,"<div style=""font-size:60px;"">+</div>",,html-keyboard-response,46,262457,0.0-13.0-0.4,71408,List2B,white,woman,,,,null,,,,,,,,,
null,"<img src=""stim_listB/oppose1.gif""style=""height:400px;""></stim_listB>",,html-keyboard-response,47,264458,0.0-13.0-1.4,71408,List2B,white,woman,,,,null,,,,,,,,,
null,is opposing,,html-keyboard-response,48,266460,0.0-13.0-2.4,71408,List2B,white,woman,,,,null,,,,,,,,,
5211.8,,,survey-text,49,271674,0.0-13.0-3.4,71408,List2B,white,woman,,,,,"{""Q0"":""Dave is opposing Jane""}","<img src=""stim_listB/oppose1.gif""style=""height:400px;""></stim_listB>",is opposing,,,,,,
null,"<div style=""font-size:60px;"">+</div>",,html-keyboard-response,50,272176,0.0-13.0-0.5,71408,List2B,white,woman,,,,null,,,,,,,,,
null,"<img src=""stim_listB/touch2.gif""style=""height:400px;""></stim_listB>",,html-keyboard-response,51,274177,0.0-13.0-1.5,71408,List2B,white,woman,,,,null,,,,,,,,,
null,is being touched by,,html-keyboard-response,52,276179,0.0-13.0-2.5,71408,List2B,white,woman,,,,null,,,,,,,,,
7549.5,,,survey-text,53,283731,0.0-13.0-3.5,71408,List2B,white,woman,,,,,"{""Q0"":""Luke is being touched by Ruth""}","<img src=""stim_listB/touch2.gif""style=""height:400px;""></stim_listB>",is being touched by,,,,,,
null,"<div style=""font-size:60px;"">+</div>",,html-keyboard-response,54,284232,0.0-13.0-0.6,71408,List2B,white,woman,,,,null,,,,,,,,,
null,"<img src=""stim_listB/greet4.gif""style=""height:400px;""></stim_listB>",,html-keyboard-response,55,286234,0.0-13.0-1.6,71408,List2B,white,woman,,,,null,,,,,,,,,
null,is being greeted by,,html-keyboard-response,56,288236,0.0-13.0-2.6,71408,List2B,white,woman,,,,null,,,,,,,,,
6573.1,,,survey-text,57,294811,0.0-13.0-3.6,71408,List2B,white,woman,,,,,"{""Q0"":""Fred is being greeted by Kate""}","<img src=""stim_listB/greet4.gif""style=""height:400px;""></stim_listB>",is being greeted by,,,,,,
null,"<div style=""font-size:60px;"">+</div>",,html-keyboard-response,58,295312,0.0-13.0-0.7,71408,List2B,white,woman,,,,null,,,,,,,,,
null,"<img src=""stim_listB/seduce4.gif""style=""height:400px;""></stim_listB>",,html-keyboard-response,59,297315,0.0-13.0-1.7,71408,List2B,white,woman,,,,null,,,,,,,,,
null,is being seduced by,,html-keyboard-response,60,299317,0.0-13.0-2.7,71408,List2B,white,woman,,,,null,,,,,,,,,
8363,,,survey-text,61,307638,0.0-13.0-3.7,71408,List2B,white,woman,,,,,"{""Q0"":""Beth is being seduced by Mike""}","<img src=""stim_listB/seduce4.gif""style=""height:400px;""></stim_listB>",is being seduced by,,,,,,
null,"<div style=""font-size:60px;"">+</div>",,html-keyboard-response,62,308140,0.0-13.0-0.8,71408,List2B,white,woman,,,,null,,,,,,,,,
null,"<img src=""stim_listB/shout2.gif""style=""height:400px;""></stim_listB>",,html-keyboard-response,63,310142,0.0-13.0-1.8,71408,List2B,white,woman,,,,null,,,,,,,,,
null,is being shouted at by,,html-keyboard-response,64,312143,0.0-13.0-2.8,71408,List2B,white,woman,,,,null,,,,,,,,,
7845.6,,,survey-text,65,319991,0.0-13.0-3.8,71408,List2B,white,woman,,,,,"{""Q0"":""Jane is being shouted at by Dave""}","<img src=""stim_listB/shout2.gif""style=""height:400px;""></stim_listB>",is being shouted at by,,,,,,
null,"<div style=""font-size:60px;"">+</div>",,html-keyboard-response,66,320493,0.0-13.0-0.9,71408,List2B,white,woman,,,,null,,,,,,,,,
null,"<img src=""stim_listB/copy5.gif""style=""height:400px;""></stim_listB>",,html-keyboard-response,67,322494,0.0-13.0-1.9,71408,List2B,white,woman,,,,null,,,,,,,,,
null,is copying,,html-keyboard-response,68,324498,0.0-13.0-2.9,71408,List2B,white,woman,,,,null,,,,,,,,,
4665.9,,,survey-text,69,329167,0.0-13.0-3.9,71408,List2B,white,woman,,,,,"{""Q0"":""Fred is copying Dave""}","<img src=""stim_listB/copy5.gif""style=""height:400px;""></stim_listB>",is copying,,,,,,
null,"<div style=""font-size:60px;"">+</div>",,html-keyboard-response,70,329668,0.0-13.0-0.10,71408,List2B,white,woman,,,,null,,,,,,,,,
null,"<img src=""stim_listB/look3.gif""style=""height:400px;""></stim_listB>",,html-keyboard-response,71,331670,0.0-13.0-1.10,71408,List2B,white,woman,,,,null,,,,,,,,,
null,is looking at,,html-keyboard-response,72,333671,0.0-13.0-2.10,71408,List2B,white,woman,,,,null,,,,,,,,,
4709.5,,,survey-text,73,338382,0.0-13.0-3.10,71408,List2B,white,woman,,,,,"{""Q0"":""Beth is looking at Fred""}","<img src=""stim_listB/look3.gif""style=""height:400px;""></stim_listB>",is looking at,,,,,,
null,"<div style=""font-size:60px;"">+</div>",,html-keyboard-response,74,338885,0.0-13.0-0.11,71408,List2B,white,woman,,,,null,,,,,,,,,
null,"<img src=""stim_listB/shout8.gif""style=""height:400px;""></stim_listB>",,html-keyboard-response,75,340887,0.0-13.0-1.11,71408,List2B,white,woman,,,,null,,,,,,,,,
null,is being shouted at by,,html-keyboard-response,76,342889,0.0-13.0-2.11,71408,List2B,white,woman,,,,null,,,,,,,,,
7842.5,,,survey-text,77,350735,0.0-13.0-3.11,71408,List2B,white,woman,,,,,"{""Q0"":""Kate is being shouted at by Jane""}","<img src=""stim_listB/shout8.gif""style=""height:400px;""></stim_listB>",is being shouted at by,,,,,,
null,"<div style=""font-size:60px;"">+</div>",,html-keyboard-response,78,351237,0.0-13.0-0.12,71408,List2B,white,woman,,,,null,,,,,,,,,
null,"<img src=""stim_listB/kiss5.gif""style=""height:400px;""></stim_listB>",,html-keyboard-response,79,353240,0.0-13.0-1.12,71408,List2B,white,woman,,,,null,,,,,,,,,
null,is kissing,,html-keyboard-response,80,355242,0.0-13.0-2.12,71408,List2B,white,woman,,,,null,,,,,,,,,
4138.5,,,survey-text,81,359383,0.0-13.0-3.12,71408,List2B,white,woman,,,,,"{""Q0"":""Luke is kissing Fred""}","<img src=""stim_listB/kiss5.gif""style=""height:400px;""></stim_listB>",is kissing,,,,,,
null,"<div style=""font-size:60px;"">+</div>",,html-keyboard-response,82,359885,0.0-13.0-0.13,71408,List2B,white,woman,,,,null,,,,,,,,,
null,"<img src=""stim_listB/look8.gif""style=""height:400px;""></stim_listB>",,html-keyboard-response,83,361845,0.0-13.0-1.13,71408,List2B,white,woman,,,,null,,,,,,,,,
null,is being looked at by,,html-keyboard-response,84,363846,0.0-13.0-2.13,71408,List2B,white,woman,,,,null,,,,,,,,,
6930,,,survey-text,85,370779,0.0-13.0-3.13,71408,List2B,white,woman,,,,,"{""Q0"":""Jane is being looked at by Kate""}","<img src=""stim_listB/look8.gif""style=""height:400px;""></stim_listB>",is being looked at by,,,,,,
null,"<div style=""font-size:60px;"">+</div>",,html-keyboard-response,86,371281,0.0-13.0-0.14,71408,List2B,white,woman,,,,null,,,,,,,,,
null,"<img src=""stim_listB/greet2.gif""style=""height:400px;""></stim_listB>",,html-keyboard-response,87,373284,0.0-13.0-1.14,71408,List2B,white,woman,,,,null,,,,,,,,,
null,is being greeted by,,html-keyboard-response,88,375285,0.0-13.0-2.14,71408,List2B,white,woman,,,,null,,,,,,,,,
7019.9,,,survey-text,89,382307,0.0-13.0-3.14,71408,List2B,white,woman,,,,,"{""Q0"":""Luke is being greeted by Jane""}","<img src=""stim_listB/greet2.gif""style=""height:400px;""></stim_listB>",is being greeted by,,,,,,
null,"<div style=""font-size:60px;"">+</div>",,html-keyboard-response,90,382809,0.0-13.0-0.15,71408,List2B,white,woman,,,,null,,,,,,,,,
null,"<img src=""stim_listB/hug6.gif""style=""height:400px;""></stim_listB>",,html-keyboard-response,91,384811,0.0-13.0-1.15,71408,List2B,white,woman,,,,null,,,,,,,,,
null,is being hugged by,,html-keyboard-response,92,386813,0.0-13.0-2.15,71408,List2B,white,woman,,,,null,,,,,,,,,
5875.7,,,survey-text,93,392691,0.0-13.0-3.15,71408,List2B,white,woman,,,,,"{""Q0"":""Dave is being hugged by Mike""}","<img src=""stim_listB/hug6.gif""style=""height:400px;""></stim_listB>",is being hugged by,,,,,,
null,"<div style=""font-size:60px;"">+</div>",,html-keyboard-response,94,393192,0.0-13.0-0.16,71408,List2B,white,woman,,,,null,,,,,,,,,
null,"<img src=""stim_listB/kiss8.gif""style=""height:400px;""></stim_listB>",,html-keyboard-response,95,395194,0.0-13.0-1.16,71408,List2B,white,woman,,,,null,,,,,,,,,
null,is being kissed by,,html-keyboard-response,96,397196,0.0-13.0-2.16,71408,List2B,white,woman,,,,null,,,,,,,,,
6902.5,,,survey-text,97,404100,0.0-13.0-3.16,71408,List2B,white,woman,,,,,"{""Q0"":""Jane is being kissed by Kate""}","<img src=""stim_listB/kiss8.gif""style=""height:400px;""></stim_listB>",is being kissed by,,,,,,
null,"<div style=""font-size:60px;"">+</div>",,html-keyboard-response,98,404601,0.0-13.0-0.17,71408,List2B,white,woman,,,,null,,,,,,,,,
null,"<img src=""stim_listB/challenge1.gif""style=""height:400px;""></stim_listB>",,html-keyboard-response,99,406604,0.0-13.0-1.17,71408,List2B,white,woman,,,,null,,,,,,,,,
null,is challenging,,html-keyboard-response,100,408605,0.0-13.0-2.17,71408,List2B,white,woman,,,,null,,,,,,,,,
5581.1,,,survey-text,101,414188,0.0-13.0-3.17,71408,List2B,white,woman,,,,,"{""Q0"":""Dave is challenging Ruth""}","<img src=""stim_listB/challenge1.gif""style=""height:400px;""></stim_listB>",is challenging,,,,,,
null,"<div style=""font-size:60px;"">+</div>",,html-keyboard-response,102,414689,0.0-13.0-0.18,71408,List2B,white,woman,,,,null,,,,,,,,,
null,"<img src=""stim_listB/challenge8.gif""style=""height:400px;""></stim_listB>",,html-keyboard-response,103,416691,0.0-13.0-1.18,71408,List2B,white,woman,,,,null,,,,,,,,,
null,is being challenged by,,html-keyboard-response,104,418693,0.0-13.0-2.18,71408,List2B,white,woman,,,,null,,,,,,,,,
8411.3,,,survey-text,105,427064,0.0-13.0-3.18,71408,List2B,white,woman,,,,,"{""Q0"":""Kate is being challenged by Ruth""}","<img src=""stim_listB/challenge8.gif""style=""height:400px;""></stim_listB>",is being challenged by,,,,,,
null,"<div style=""font-size:60px;"">+</div>",,html-keyboard-response,106,427566,0.0-13.0-0.19,71408,List2B,white,woman,,,,null,,,,,,,,,
null,"<img src=""stim_listB/look1.gif""style=""height:400px;""></stim_listB>",,html-keyboard-response,107,429569,0.0-13.0-1.19,71408,List2B,white,woman,,,,null,,,,,,,,,
null,is looking at,,html-keyboard-response,108,431572,0.0-13.0-2.19,71408,List2B,white,woman,,,,null,,,,,,,,,
4865.8,,,survey-text,109,436440,0.0-13.0-3.19,71408,List2B,white,woman,,,,,"{""Q0"":""Luke is looking at Ruth""}","<img src=""stim_listB/look1.gif""style=""height:400px;""></stim_listB>",is looking at,,,,,,
7509.9,"<img src='img/portrait_matrix_list2.jpg' style='width:900px;height:500px;''></img><p>If you have memorised all the portraits and names and are ready to start, press Continue.</p><p><strong>Please note: Your memory of these faces will be tested 4 times during this experiment.</strong></p>",0,html-button-response,110,443951,0.0-14.0-0.0,71408,List2B,white,woman,,,,,,,,,,,,,
2311.1,"<img src=""portrait/BW1.jpg""style=""height:400px;""></img>",0,html-button-response,111,447265,0.0-14.0-1.0,71408,List2B,white,woman,,TRUE,0,,,,,,,,,,
null,CORRECT,,html-keyboard-response,112,448768,0.0-14.0-2.0-0.0,71408,List2B,white,woman,,,,null,,,,,,,,,
1335.2,"<img src=""portrait/WW1.jpg""style=""height:400px;""></img>",1,html-button-response,113,450104,0.0-14.0-4.0,71408,List2B,white,woman,,TRUE,1,,,,,,,,,,
null,CORRECT,,html-keyboard-response,114,451608,0.0-14.0-5.0-0.0,71408,List2B,white,woman,,,,null,,,,,,,,,
1774.3,"<img src=""portrait/BM2.jpg""style=""height:400px;""></img>",5,html-button-response,115,453383,0.0-14.0-7.0,71408,List2B,white,woman,,TRUE,5,,,,,,,,,,
null,CORRECT,,html-keyboard-response,116,454887,0.0-14.0-8.0-0.0,71408,List2B,white,woman,,,,null,,,,,,,,,
1487.3,"<img src=""portrait/BM1.jpg""style=""height:400px;""></img>",4,html-button-response,117,456376,0.0-14.0-10.0,71408,List2B,white,woman,,TRUE,4,,,,,,,,,,
null,CORRECT,,html-keyboard-response,118,457879,0.0-14.0-11.0-0.0,71408,List2B,white,woman,,,,null,,,,,,,,,
1967.5,"<img src=""portrait/WM1.jpg""style=""height:400px;""></img>",6,html-button-response,119,459848,0.0-14.0-13.0,71408,List2B,white,woman,,TRUE,6,,,,,,,,,,
null,CORRECT,,html-keyboard-response,120,461351,0.0-14.0-14.0-0.0,71408,List2B,white,woman,,,,null,,,,,,,,,
1374.9,"<img src=""portrait/WM2.jpg""style=""height:400px;""></img>",7,html-button-response,121,462728,0.0-14.0-16.0,71408,List2B,white,woman,,TRUE,7,,,,,,,,,,
null,CORRECT,,html-keyboard-response,122,464230,0.0-14.0-17.0-0.0,71408,List2B,white,woman,,,,null,,,,,,,,,
1799.7,"<img src=""portrait/BW2.jpg""style=""height:400px;""></img>",2,html-button-response,123,466031,0.0-14.0-19.0,71408,List2B,white,woman,,TRUE,2,,,,,,,,,,
null,CORRECT,,html-keyboard-response,124,467534,0.0-14.0-20.0-0.0,71408,List2B,white,woman,,,,null,,,,,,,,,
1320.3,"<img src=""portrait/WW2.jpg""style=""height:400px;""></img>",3,html-button-response,125,468856,0.0-14.0-22.0,71408,List2B,white,woman,,TRUE,3,,,,,,,,,,
null,CORRECT,,html-keyboard-response,126,470358,0.0-14.0-23.0-0.0,71408,List2B,white,woman,,,,null,,,,,,,,,
1263.4,<p>You got 8 out of 8 right first time. Press Continue.</p>,0,html-button-response,127,471623,0.0-14.0-25.0,71408,List2B,white,woman,,,,,,,,,,,,,
null,"<div style=""font-size:60px;"">+</div>",,html-keyboard-response,128,473127,0.0-15.0-0.0,71408,List2B,white,woman,,,,null,,,,,,,,,
null,"<img src=""stim_listB/oppose2.gif""style=""height:400px;""></stim_listB>",,html-keyboard-response,129,475129,0.0-15.0-1.0,71408,List2B,white,woman,,,,null,,,,,,,,,
null,is being opposed by,,html-keyboard-response,130,477130,0.0-15.0-2.0,71408,List2B,white,woman,,,,null,,,,,,,,,
7843.5,,,survey-text,131,484932,0.0-15.0-3.0,71408,List2B,white,woman,,,,,"{""Q0"":""Ruth is being opposed by Luke""}","<img src=""stim_listB/oppose2.gif""style=""height:400px;""></stim_listB>",is being opposed by,,,,,,
null,"<div style=""font-size:60px;"">+</div>",,html-keyboard-response,132,485433,0.0-15.0-0.1,71408,List2B,white,woman,,,,null,,,,,,,,,
null,"<img src=""stim_listB/challenge2.gif""style=""height:400px;""></stim_listB>",,html-keyboard-response,133,487437,0.0-15.0-1.1,71408,List2B,white,woman,,,,null,,,,,,,,,
null,is being challenged by,,html-keyboard-response,134,489438,0.0-15.0-2.1,71408,List2B,white,woman,,,,null,,,,,,,,,
5795.5,,,survey-text,135,495236,0.0-15.0-3.1,71408,List2B,white,woman,,,,,"{""Q0"":""Jane is being challenged by Luke""}","<img src=""stim_listB/challenge2.gif""style=""height:400px;""></stim_listB>",is being challenged by,,,,,,
null,"<div style=""font-size:60px;"">+</div>",,html-keyboard-response,136,495738,0.0-15.0-0.2,71408,List2B,white,woman,,,,null,,,,,,,,,
null,"<img src=""stim_listB/copy1.gif""style=""height:400px;""></stim_listB>",,html-keyboard-response,137,497741,0.0-15.0-1.2,71408,List2B,white,woman,,,,null,,,,,,,,,
null,is copying,,html-keyboard-response,138,499743,0.0-15.0-2.2,71408,List2B,white,woman,,,,null,,,,,,,,,
4089.6,,,survey-text,139,503835,0.0-15.0-3.2,71408,List2B,white,woman,,,,,"{""Q0"":""Ruth is copying Dave""}","<img src=""stim_listB/copy1.gif""style=""height:400px;""></stim_listB>",is copying,,,,,,
null,"<div style=""font-size:60px;"">+</div>",,html-keyboard-response,140,504337,0.0-15.0-0.3,71408,List2B,white,woman,,,,null,,,,,,,,,
null,"<img src=""stim_listB/greet3.gif""style=""height:400px;""></stim_listB>",,html-keyboard-response,141,506340,0.0-15.0-1.3,71408,List2B,white,woman,,,,null,,,,,,,,,
null,is greeting,,html-keyboard-response,142,508342,0.0-15.0-2.3,71408,List2B,white,woman,,,,null,,,,,,,,,
3882.6,,,survey-text,143,512227,0.0-15.0-3.3,71408,List2B,white,woman,,,,,"{""Q0"":""Beth is greeting Mike""}","<img src=""stim_listB/greet3.gif""style=""height:400px;""></stim_listB>",is greeting,,,,,,
null,"<div style=""font-size:60px;"">+</div>",,html-keyboard-response,144,512729,0.0-15.0-0.4,71408,List2B,white,woman,,,,null,,,,,,,,,
null,"<img src=""stim_listB/seduce7.gif""style=""height:400px;""></stim_listB>",,html-keyboard-response,145,514732,0.0-15.0-1.4,71408,List2B,white,woman,,,,null,,,,,,,,,
null,is seducing,,html-keyboard-response,146,516734,0.0-15.0-2.4,71408,List2B,white,woman,,,,null,,,,,,,,,
3987,,,survey-text,147,520724,0.0-15.0-3.4,71408,List2B,white,woman,,,,,"{""Q0"":""Ruth is seducing Kate""}","<img src=""stim_listB/seduce7.gif""style=""height:400px;""></stim_listB>",is seducing,,,,,,
null,"<div style=""font-size:60px;"">+</div>",,html-keyboard-response,148,521225,0.0-15.0-0.5,71408,List2B,white,woman,,,,null,,,,,,,,,
null,"<img src=""stim_listB/touch5.gif""style=""height:400px;""></stim_listB>",,html-keyboard-response,149,523227,0.0-15.0-1.5,71408,List2B,white,woman,,,,null,,,,,,,,,
null,is touching,,html-keyboard-response,150,525229,0.0-15.0-2.5,71408,List2B,white,woman,,,,null,,,,,,,,,
3492.3,,,survey-text,151,528724,0.0-15.0-3.5,71408,List2B,white,woman,,,,,"{""Q0"":""Mike is touching Dave""}","<img src=""stim_listB/touch5.gif""style=""height:400px;""></stim_listB>",is touching,,,,,,
null,"<div style=""font-size:60px;"">+</div>",,html-keyboard-response,152,529225,0.0-15.0-0.6,71408,List2B,white,woman,,,,null,,,,,,,,,
null,"<img src=""stim_listB/challenge4.gif""style=""height:400px;""></stim_listB>",,html-keyboard-response,153,531227,0.0-15.0-1.6,71408,List2B,white,woman,,,,null,,,,,,,,,
null,is being challenged by,,html-keyboard-response,154,533227,0.0-15.0-2.6,71408,List2B,white,woman,,,,null,,,,,,,,,
6566.4,,,survey-text,155,539795,0.0-15.0-3.6,71408,List2B,white,woman,,,,,"{""Q0"":""Beth is being challenged by Fred""}","<img src=""stim_listB/challenge4.gif""style=""height:400px;""></stim_listB>",is being challenged by,,,,,,
null,"<div style=""font-size:60px;"">+</div>",,html-keyboard-response,156,540297,0.0-15.0-0.7,71408,List2B,white,woman,,,,null,,,,,,,,,
null,"<img src=""stim_listB/touch4.gif""style=""height:400px;""></stim_listB>",,html-keyboard-response,157,542269,0.0-15.0-1.7,71408,List2B,white,woman,,,,null,,,,,,,,,
null,is being touched by,,html-keyboard-response,158,544272,0.0-15.0-2.7,71408,List2B,white,woman,,,,null,,,,,,,,,
7795,,,survey-text,159,552069,0.0-15.0-3.7,71408,List2B,white,woman,,,,,"{""Q0"":""Fred is being touched by Beth""}","<img src=""stim_listB/touch4.gif""style=""height:400px;""></stim_listB>",is being touched by,,,,,,
null,"<div style=""font-size:60px;"">+</div>",,html-keyboard-response,160,552570,0.0-15.0-0.8,71408,List2B,white,woman,,,,null,,,,,,,,,
null,"<img src=""stim_listB/challenge6.gif""style=""height:400px;""></stim_listB>",,html-keyboard-response,161,554572,0.0-15.0-1.8,71408,List2B,white,woman,,,,null,,,,,,,,,
null,is being challenged by,,html-keyboard-response,162,556573,0.0-15.0-2.8,71408,List2B,white,woman,,,,null,,,,,,,,,
6749.1,,,survey-text,163,563325,0.0-15.0-3.8,71408,List2B,white,woman,,,,,"{""Q0"":""Mike is being challenged by Luke""}","<img src=""stim_listB/challenge6.gif""style=""height:400px;""></stim_listB>",is being challenged by,,,,,,
null,"<div style=""font-size:60px;"">+</div>",,html-keyboard-response,164,563828,0.0-15.0-0.9,71408,List2B,white,woman,,,,null,,,,,,,,,
null,"<img src=""stim_listB/touch8.gif""style=""height:400px;""></stim_listB>",,html-keyboard-response,165,565829,0.0-15.0-1.9,71408,List2B,white,woman,,,,null,,,,,,,,,
null,is being touched by,,html-keyboard-response,166,567830,0.0-15.0-2.9,71408,List2B,white,woman,,,,null,,,,,,,,,
6436.9,,,survey-text,167,574269,0.0-15.0-3.9,71408,List2B,white,woman,,,,,"{""Q0"":""Beth is being touched by Ruth""}","<img src=""stim_listB/touch8.gif""style=""height:400px;""></stim_listB>",is being touched by,,,,,,
null,"<div style=""font-size:60px;"">+</div>",,html-keyboard-response,168,574772,0.0-15.0-0.10,71408,List2B,white,woman,,,,null,,,,,,,,,
null,"<img src=""stim_listB/greet6.gif""style=""height:400px;""></stim_listB>",,html-keyboard-response,169,576775,0.0-15.0-1.10,71408,List2B,white,woman,,,,null,,,,,,,,,
null,is being greeted by,,html-keyboard-response,170,578776,0.0-15.0-2.10,71408,List2B,white,woman,,,,null,,,,,,,,,
7003,,,survey-text,171,585781,0.0-15.0-3.10,71408,List2B,white,woman,,,,,"{""Q0"":""Luke is being greeted by Mike""}","<img src=""stim_listB/greet6.gif""style=""height:400px;""></stim_listB>",is being greeted by,,,,,,
null,"<div style=""font-size:60px;"">+</div>",,html-keyboard-response,172,586283,0.0-15.0-0.11,71408,List2B,white,woman,,,,null,,,,,,,,,
null,"<img src=""stim_listB/copy7.gif""style=""height:400px;""></stim_listB>",,html-keyboard-response,173,588285,0.0-15.0-1.11,71408,List2B,white,woman,,,,null,,,,,,,,,
null,is copying,,html-keyboard-response,174,590287,0.0-15.0-2.11,71408,List2B,white,woman,,,,null,,,,,,,,,
3733.2,,,survey-text,175,594022,0.0-15.0-3.11,71408,List2B,white,woman,,,,,"{""Q0"":""Beth is copying Jane""}","<img src=""stim_listB/copy7.gif""style=""height:400px;""></stim_listB>",is copying,,,,,,
null,"<div style=""font-size:60px;"">+</div>",,html-keyboard-response,176,594524,0.0-15.0-0.12,71408,List2B,white,woman,,,,null,,,,,,,,,
null,"<img src=""stim_listB/greet1.gif""style=""height:400px;""></stim_listB>",,html-keyboard-response,177,596527,0.0-15.0-1.12,71408,List2B,white,woman,,,,null,,,,,,,,,
null,is greeting,,html-keyboard-response,178,598528,0.0-15.0-2.12,71408,List2B,white,woman,,,,null,,,,,,,,,
4058.3,,,survey-text,179,602589,0.0-15.0-3.12,71408,List2B,white,woman,,,,,"{""Q0"":""Dave is greeting Ruth""}","<img src=""stim_listB/greet1.gif""style=""height:400px;""></stim_listB>",is greeting,,,,,,
null,"<div style=""font-size:60px;"">+</div>",,html-keyboard-response,180,603090,0.0-15.0-0.13,71408,List2B,white,woman,,,,null,,,,,,,,,
null,"<img src=""stim_listB/shout7.gif""style=""height:400px;""></stim_listB>",,html-keyboard-response,181,605093,0.0-15.0-1.13,71408,List2B,white,woman,,,,null,,,,,,,,,
null,is shouting at,,html-keyboard-response,182,607094,0.0-15.0-2.13,71408,List2B,white,woman,,,,null,,,,,,,,,
5517.7,,,survey-text,183,612613,0.0-15.0-3.13,71408,List2B,white,woman,,,,,"{""Q0"":""Ruth is shouting at Beth""}","<img src=""stim_listB/shout7.gif""style=""height:400px;""></stim_listB>",is shouting at,,,,,,
null,"<div style=""font-size:60px;"">+</div>",,html-keyboard-response,184,613115,0.0-15.0-0.14,71408,List2B,white,woman,,,,null,,,,,,,,,
null,"<img src=""stim_listB/look6.gif""style=""height:400px;""></stim_listB>",,html-keyboard-response,185,615116,0.0-15.0-1.14,71408,List2B,white,woman,,,,null,,,,,,,,,
null,is being looked at by,,html-keyboard-response,186,617117,0.0-15.0-2.14,71408,List2B,white,woman,,,,null,,,,,,,,,
6350.4,,,survey-text,187,623469,0.0-15.0-3.14,71408,List2B,white,woman,,,,,"{""Q0"":"" Dave is being looked at by Mike""}","<img src=""stim_listB/look6.gif""style=""height:400px;""></stim_listB>",is being looked at by,,,,,,
null,"<div style=""font-size:60px;"">+</div>",,html-keyboard-response,188,623971,0.0-15.0-0.15,71408,List2B,white,woman,,,,null,,,,,,,,,
null,"<img src=""stim_listB/hug4.gif""style=""height:400px;""></stim_listB>",,html-keyboard-response,189,625974,0.0-15.0-1.15,71408,List2B,white,woman,,,,null,,,,,,,,,
null,is being hugged by,,html-keyboard-response,190,627975,0.0-15.0-2.15,71408,List2B,white,woman,,,,null,,,,,,,,,
5859.1,,,survey-text,191,633837,0.0-15.0-3.15,71408,List2B,white,woman,,,,,"{""Q0"":""Mike is being hugged by Kate""}","<img src=""stim_listB/hug4.gif""style=""height:400px;""></stim_listB>",is being hugged by,,,,,,
null,"<div style=""font-size:60px;"">+</div>",,html-keyboard-response,192,634338,0.0-15.0-0.16,71408,List2B,white,woman,,,,null,,,,,,,,,
null,"<img src=""stim_listB/kiss2.gif""style=""height:400px;""></stim_listB>",,html-keyboard-response,193,636340,0.0-15.0-1.16,71408,List2B,white,woman,,,,null,,,,,,,,,
null,is being kissed by,,html-keyboard-response,194,638341,0.0-15.0-2.16,71408,List2B,white,woman,,,,null,,,,,,,,,
6789.3,,,survey-text,195,645133,0.0-15.0-3.16,71408,List2B,white,woman,,,,,"{""Q0"":""Jane is being kissed by Dave""}","<img src=""stim_listB/kiss2.gif""style=""height:400px;""></stim_listB>",is being kissed by,,,,,,
null,"<div style=""font-size:60px;"">+</div>",,html-keyboard-response,196,645634,0.0-15.0-0.17,71408,List2B,white,woman,,,,null,,,,,,,,,
null,"<img src=""stim_listB/touch1.gif""style=""height:400px;""></stim_listB>",,html-keyboard-response,197,647636,0.0-15.0-1.17,71408,List2B,white,woman,,,,null,,,,,,,,,
null,is touching,,html-keyboard-response,198,649638,0.0-15.0-2.17,71408,List2B,white,woman,,,,null,,,,,,,,,
4099.7,,,survey-text,199,653741,0.0-15.0-3.17,71408,List2B,white,woman,,,,,"{""Q0"":""Dave is touching Jane""}","<img src=""stim_listB/touch1.gif""style=""height:400px;""></stim_listB>",is touching,,,,,,
null,"<div style=""font-size:60px;"">+</div>",,html-keyboard-response,200,654244,0.0-15.0-0.18,71408,List2B,white,woman,,,,null,,,,,,,,,
null,"<img src=""stim_listB/seduce5.gif""style=""height:400px;""></stim_listB>",,html-keyboard-response,201,656247,0.0-15.0-1.18,71408,List2B,white,woman,,,,null,,,,,,,,,
null,is seducing,,html-keyboard-response,202,658249,0.0-15.0-2.18,71408,List2B,white,woman,,,,null,,,,,,,,,
4186.3,,,survey-text,203,662438,0.0-15.0-3.18,71408,List2B,white,woman,,,,,"{""Q0"":""Luke is seducing Mike""}","<img src=""stim_listB/seduce5.gif""style=""height:400px;""></stim_listB>",is seducing,,,,,,
null,"<div style=""font-size:60px;"">+</div>",,html-keyboard-response,204,662940,0.0-15.0-0.19,71408,List2B,white,woman,,,,null,,,,,,,,,
null,"<img src=""stim_listB/oppose4.gif""style=""height:400px;""></stim_listB>",,html-keyboard-response,205,664941,0.0-15.0-1.19,71408,List2B,white,woman,,,,null,,,,,,,,,
null,is being opposed by,,html-keyboard-response,206,666943,0.0-15.0-2.19,71408,List2B,white,woman,,,,null,,,,,,,,,
6500.4,,,survey-text,207,673445,0.0-15.0-3.19,71408,List2B,white,woman,,,,,"{""Q0"":""Fred is being opposed by Beth""}","<img src=""stim_listB/oppose4.gif""style=""height:400px;""></stim_listB>",is being opposed by,,,,,,
3599.3,"<img src='img/portrait_matrix_list2.jpg' style='width:900px;height:500px;''></img><p>If you have memorised all the portraits and names and are ready to start, press Continue.</p><p><strong>Please note: Your memory of these faces will be tested 4 times during this experiment.</strong></p>",0,html-button-response,208,677046,0.0-16.0-0.0,71408,List2B,white,woman,,,,,,,,,,,,,
1564.1,"<img src=""portrait/WW1.jpg""style=""height:400px;""></img>",1,html-button-response,209,679613,0.0-16.0-1.0,71408,List2B,white,woman,,TRUE,1,,,,,,,,,,
null,CORRECT,,html-keyboard-response,210,681116,0.0-16.0-2.0-0.0,71408,List2B,white,woman,,,,null,,,,,,,,,
1222.4,"<img src=""portrait/WM2.jpg""style=""height:400px;""></img>",7,html-button-response,211,682341,0.0-16.0-4.0,71408,List2B,white,woman,,TRUE,7,,,,,,,,,,
null,CORRECT,,html-keyboard-response,212,683843,0.0-16.0-5.0-0.0,71408,List2B,white,woman,,,,null,,,,,,,,,
1239.5,"<img src=""portrait/WW2.jpg""style=""height:400px;""></img>",3,html-button-response,213,685084,0.0-16.0-7.0,71408,List2B,white,woman,,TRUE,3,,,,,,,,,,
null,CORRECT,,html-keyboard-response,214,686586,0.0-16.0-8.0-0.0,71408,List2B,white,woman,,,,null,,,,,,,,,
1401.1,"<img src=""portrait/BW2.jpg""style=""height:400px;""></img>",2,html-button-response,215,687989,0.0-16.0-10.0,71408,List2B,white,woman,,TRUE,2,,,,,,,,,,
null,CORRECT,,html-keyboard-response,216,689490,0.0-16.0-11.0-0.0,71408,List2B,white,woman,,,,null,,,,,,,,,
1458,"<img src=""portrait/WM1.jpg""style=""height:400px;""></img>",6,html-button-response,217,690950,0.0-16.0-13.0,71408,List2B,white,woman,,TRUE,6,,,,,,,,,,
null,CORRECT,,html-keyboard-response,218,692452,0.0-16.0-14.0-0.0,71408,List2B,white,woman,,,,null,,,,,,,,,
1383.6,"<img src=""portrait/BM1.jpg""style=""height:400px;""></img>",4,html-button-response,219,693837,0.0-16.0-16.0,71408,List2B,white,woman,,TRUE,4,,,,,,,,,,
null,CORRECT,,html-keyboard-response,220,695340,0.0-16.0-17.0-0.0,71408,List2B,white,woman,,,,null,,,,,,,,,
1830.9,"<img src=""portrait/BW1.jpg""style=""height:400px;""></img>",0,html-button-response,221,697173,0.0-16.0-19.0,71408,List2B,white,woman,,TRUE,0,,,,,,,,,,
null,CORRECT,,html-keyboard-response,222,698676,0.0-16.0-20.0-0.0,71408,List2B,white,woman,,,,null,,,,,,,,,
1255.3,"<img src=""portrait/BM2.jpg""style=""height:400px;""></img>",5,html-button-response,223,699932,0.0-16.0-22.0,71408,List2B,white,woman,,TRUE,5,,,,,,,,,,
null,CORRECT,,html-keyboard-response,224,701435,0.0-16.0-23.0-0.0,71408,List2B,white,woman,,,,null,,,,,,,,,
856,<p>You got 8 out of 8 right first time. Press Continue.</p>,0,html-button-response,225,702293,0.0-16.0-25.0,71408,List2B,white,woman,,,,,,,,,,,,,
null,"<div style=""font-size:60px;"">+</div>",,html-keyboard-response,226,703797,0.0-17.0-0.0,71408,List2B,white,woman,,,,null,,,,,,,,,
null,"<img src=""stim_listB/kiss4.gif""style=""height:400px;""></stim_listB>",,html-keyboard-response,227,705799,0.0-17.0-1.0,71408,List2B,white,woman,,,,null,,,,,,,,,
null,is being kissed by,,html-keyboard-response,228,707801,0.0-17.0-2.0,71408,List2B,white,woman,,,,null,,,,,,,,,
5770.2,,,survey-text,229,713574,0.0-17.0-3.0,71408,List2B,white,woman,,,,,"{""Q0"":""Kate is being kissed by Mike""}","<img src=""stim_listB/kiss4.gif""style=""height:400px;""></stim_listB>",is being kissed by,,,,,,
null,"<div style=""font-size:60px;"">+</div>",,html-keyboard-response,230,714075,0.0-17.0-0.1,71408,List2B,white,woman,,,,null,,,,,,,,,
null,"<img src=""stim_listB/oppose8.gif""style=""height:400px;""></stim_listB>",,html-keyboard-response,231,716078,0.0-17.0-1.1,71408,List2B,white,woman,,,,null,,,,,,,,,
null,is being opposed by,,html-keyboard-response,232,718079,0.0-17.0-2.1,71408,List2B,white,woman,,,,null,,,,,,,,,
5755.7,,,survey-text,233,723837,0.0-17.0-3.1,71408,List2B,white,woman,,,,,"{""Q0"":""Beth is being opposed by Ruth""}","<img src=""stim_listB/oppose8.gif""style=""height:400px;""></stim_listB>",is being opposed by,,,,,,
null,"<div style=""font-size:60px;"">+</div>",,html-keyboard-response,234,724338,0.0-17.0-0.2,71408,List2B,white,woman,,,,null,,,,,,,,,
null,"<img src=""stim_listB/touch3.gif""style=""height:400px;""></stim_listB>",,html-keyboard-response,235,726341,0.0-17.0-1.2,71408,List2B,white,woman,,,,null,,,,,,,,,
null,is touching,,html-keyboard-response,236,728343,0.0-17.0-2.2,71408,List2B,white,woman,,,,null,,,,,,,,,
3107,,,survey-text,237,731453,0.0-17.0-3.2,71408,List2B,white,woman,,,,,"{""Q0"":""Mike is touching Kate""}","<img src=""stim_listB/touch3.gif""style=""height:400px;""></stim_listB>",is touching,,,,,,
null,"<div style=""font-size:60px;"">+</div>",,html-keyboard-response,238,731955,0.0-17.0-0.3,71408,List2B,white,woman,,,,null,,,,,,,,,
null,"<img src=""stim_listB/seduce6.gif""style=""height:400px;""></stim_listB>",,html-keyboard-response,239,733957,0.0-17.0-1.3,71408,List2B,white,woman,,,,null,,,,,,,,,
null,is being seduced by,,html-keyboard-response,240,735959,0.0-17.0-2.3,71408,List2B,white,woman,,,,null,,,,,,,,,
6796.5,,,survey-text,241,742758,0.0-17.0-3.3,71408,List2B,white,woman,,,,,"{""Q0"":""Fred is being seduced by Dave""}","<img src=""stim_listB/seduce6.gif""style=""height:400px;""></stim_listB>",is being seduced by,,,,,,
null,"<div style=""font-size:60px;"">+</div>",,html-keyboard-response,242,743261,0.0-17.0-0.4,71408,List2B,white,woman,,,,null,,,,,,,,,
null,"<img src=""stim_listB/hug7.gif""style=""height:400px;""></stim_listB>",,html-keyboard-response,243,745263,0.0-17.0-1.4,71408,List2B,white,woman,,,,null,,,,,,,,,
null,is hugging,,html-keyboard-response,244,747265,0.0-17.0-2.4,71408,List2B,white,woman,,,,null,,,,,,,,,
4385.7,,,survey-text,245,751653,0.0-17.0-3.4,71408,List2B,white,woman,,,,,"{""Q0"":""Beth is hugging Ruth""}","<img src=""stim_listB/hug7.gif""style=""height:400px;""></stim_listB>",is hugging,,,,,,
null,"<div style=""font-size:60px;"">+</div>",,html-keyboard-response,246,752154,0.0-17.0-0.5,71408,List2B,white,woman,,,,null,,,,,,,,,
null,"<img src=""stim_listB/oppose3.gif""style=""height:400px;""></stim_listB>",,html-keyboard-response,247,754157,0.0-17.0-1.5,71408,List2B,white,woman,,,,null,,,,,,,,,
null,is opposing,,html-keyboard-response,248,756158,0.0-17.0-2.5,71408,List2B,white,woman,,,,null,,,,,,,,,
4109.2,,,survey-text,249,760270,0.0-17.0-3.5,71408,List2B,white,woman,,,,,"{""Q0"":""Mike is opposing Kate""}","<img src=""stim_listB/oppose3.gif""style=""height:400px;""></stim_listB>",is opposing,,,,,,
null,"<div style=""font-size:60px;"">+</div>",,html-keyboard-response,250,760772,0.0-17.0-0.6,71408,List2B,white,woman,,,,null,,,,,,,,,
null,"<img src=""stim_listB/copy3.gif""style=""height:400px;""></stim_listB>",,html-keyboard-response,251,762775,0.0-17.0-1.6,71408,List2B,white,woman,,,,null,,,,,,,,,
null,is copying,,html-keyboard-response,252,764776,0.0-17.0-2.6,71408,List2B,white,woman,,,,null,,,,,,,,,
3531.2,,,survey-text,253,768309,0.0-17.0-3.6,71408,List2B,white,woman,,,,,"{""Q0"":""Mike is copying Beth""}","<img src=""stim_listB/copy3.gif""style=""height:400px;""></stim_listB>",is copying,,,,,,
null,"<div style=""font-size:60px;"">+</div>",,html-keyboard-response,254,768811,0.0-17.0-0.7,71408,List2B,white,woman,,,,null,,,,,,,,,
null,"<img src=""stim_listB/oppose5.gif""style=""height:400px;""></stim_listB>",,html-keyboard-response,255,770814,0.0-17.0-1.7,71408,List2B,white,woman,,,,null,,,,,,,,,
null,is opposing,,html-keyboard-response,256,772815,0.0-17.0-2.7,71408,List2B,white,woman,,,,null,,,,,,,,,
5787.8,,,survey-text,257,778605,0.0-17.0-3.7,71408,List2B,white,woman,,,,,"{""Q0"":""Dave is opposing Mike""}","<img src=""stim_listB/oppose5.gif""style=""height:400px;""></stim_listB>",is opposing,,,,,,
null,"<div style=""font-size:60px;"">+</div>",,html-keyboard-response,258,779106,0.0-17.0-0.8,71408,List2B,white,woman,,,,null,,,,,,,,,
null,"<img src=""stim_listB/oppose7.gif""style=""height:400px;""></stim_listB>",,html-keyboard-response,259,781109,0.0-17.0-1.8,71408,List2B,white,woman,,,,null,,,,,,,,,
null,is opposing,,html-keyboard-response,260,783112,0.0-17.0-2.8,71408,List2B,white,woman,,,,null,,,,,,,,,
5283,,,survey-text,261,788397,0.0-17.0-3.8,71408,List2B,white,woman,,,,,"{""Q0"":""Jane is opposing Kate""}","<img src=""stim_listB/oppose7.gif""style=""height:400px;""></stim_listB>",is opposing,,,,,,
null,"<div style=""font-size:60px;"">+</div>",,html-keyboard-response,262,788899,0.0-17.0-0.9,71408,List2B,white,woman,,,,null,,,,,,,,,
null,"<img src=""stim_listB/kiss1.gif""style=""height:400px;""></stim_listB>",,html-keyboard-response,263,790901,0.0-17.0-1.9,71408,List2B,white,woman,,,,null,,,,,,,,,
null,is kissing,,html-keyboard-response,264,792903,0.0-17.0-2.9,71408,List2B,white,woman,,,,null,,,,,,,,,
3675.9,,,survey-text,265,796582,0.0-17.0-3.9,71408,List2B,white,woman,,,,,"{""Q0"":""Luke is kissing Ruth""}","<img src=""stim_listB/kiss1.gif""style=""height:400px;""></stim_listB>",is kissing,,,,,,
null,"<div style=""font-size:60px;"">+</div>",,html-keyboard-response,266,797084,0.0-17.0-0.10,71408,List2B,white,woman,,,,null,,,,,,,,,
null,"<img src=""stim_listB/hug8.gif""style=""height:400px;""></stim_listB>",,html-keyboard-response,267,799085,0.0-17.0-1.10,71408,List2B,white,woman,,,,null,,,,,,,,,
null,is being hugged by,,html-keyboard-response,268,801087,0.0-17.0-2.10,71408,List2B,white,woman,,,,null,,,,,,,,,
4789.4,,,survey-text,269,805878,0.0-17.0-3.10,71408,List2B,white,woman,,,,,"{""Q0"":""Jane is being hugged by Kate""}","<img src=""stim_listB/hug8.gif""style=""height:400px;""></stim_listB>",is being hugged by,,,,,,
null,"<div style=""font-size:60px;"">+</div>",,html-keyboard-response,270,806380,0.0-17.0-0.11,71408,List2B,white,woman,,,,null,,,,,,,,,
null,"<img src=""stim_listB/seduce8.gif""style=""height:400px;""></stim_listB>",,html-keyboard-response,271,808382,0.0-17.0-1.11,71408,List2B,white,woman,,,,null,,,,,,,,,
null,is being seduced by,,html-keyboard-response,272,810384,0.0-17.0-2.11,71408,List2B,white,woman,,,,null,,,,,,,,,
5315.2,,,survey-text,273,815701,0.0-17.0-3.11,71408,List2B,white,woman,,,,,"{""Q0"":""Jane is being seduced by Beth""}","<img src=""stim_listB/seduce8.gif""style=""height:400px;""></stim_listB>",is being seduced by,,,,,,
null,"<div style=""font-size:60px;"">+</div>",,html-keyboard-response,274,816203,0.0-17.0-0.12,71408,List2B,white,woman,,,,null,,,,,,,,,
null,"<img src=""stim_listB/hug1.gif""style=""height:400px;""></stim_listB>",,html-keyboard-response,275,818207,0.0-17.0-1.12,71408,List2B,white,woman,,,,null,,,,,,,,,
null,is hugging,,html-keyboard-response,276,820209,0.0-17.0-2.12,71408,List2B,white,woman,,,,null,,,,,,,,,
4810.7,,,survey-text,277,825021,0.0-17.0-3.12,71408,List2B,white,woman,,,,,"{""Q0"":""Luke is hugging Ruth""}","<img src=""stim_listB/hug1.gif""style=""height:400px;""></stim_listB>",is hugging,,,,,,
null,"<div style=""font-size:60px;"">+</div>",,html-keyboard-response,278,825523,0.0-17.0-0.13,71408,List2B,white,woman,,,,null,,,,,,,,,
null,"<img src=""stim_listB/shout5.gif""style=""height:400px;""></stim_listB>",,html-keyboard-response,279,827525,0.0-17.0-1.13,71408,List2B,white,woman,,,,null,,,,,,,,,
null,is shouting at,,html-keyboard-response,280,829527,0.0-17.0-2.13,71408,List2B,white,woman,,,,null,,,,,,,,,
4324.7,,,survey-text,281,833854,0.0-17.0-3.13,71408,List2B,white,woman,,,,,"{""Q0"":""Luke is shouting at Fred""}","<img src=""stim_listB/shout5.gif""style=""height:400px;""></stim_listB>",is shouting at,,,,,,
null,"<div style=""font-size:60px;"">+</div>",,html-keyboard-response,282,834355,0.0-17.0-0.14,71408,List2B,white,woman,,,,null,,,,,,,,,
null,"<img src=""stim_listB/hug2.gif""style=""height:400px;""></stim_listB>",,html-keyboard-response,283,836358,0.0-17.0-1.14,71408,List2B,white,woman,,,,null,,,,,,,,,
null,is being hugged by,,html-keyboard-response,284,838359,0.0-17.0-2.14,71408,List2B,white,woman,,,,null,,,,,,,,,
4876,,,survey-text,285,843238,0.0-17.0-3.14,71408,List2B,white,woman,,,,,"{""Q0"":""Jane is being hugged by Dave""}","<img src=""stim_listB/hug2.gif""style=""height:400px;""></stim_listB>",is being hugged by,,,,,,
null,"<div style=""font-size:60px;"">+</div>",,html-keyboard-response,286,843739,0.0-17.0-0.15,71408,List2B,white,woman,,,,null,,,,,,,,,
null,"<img src=""stim_listB/challenge7.gif""style=""height:400px;""></stim_listB>",,html-keyboard-response,287,845742,0.0-17.0-1.15,71408,List2B,white,woman,,,,null,,,,,,,,,
null,is challenging,,html-keyboard-response,288,847744,0.0-17.0-2.15,71408,List2B,white,woman,,,,null,,,,,,,,,
5147.1,,,survey-text,289,852894,0.0-17.0-3.15,71408,List2B,white,woman,,,,,"{""Q0"":""Jane is challenging Beth""}","<img src=""stim_listB/challenge7.gif""style=""height:400px;""></stim_listB>",is challenging,,,,,,
null,"<div style=""font-size:60px;"">+</div>",,html-keyboard-response,290,853395,0.0-17.0-0.16,71408,List2B,white,woman,,,,null,,,,,,,,,
null,"<img src=""stim_listB/seduce2.gif""style=""height:400px;""></stim_listB>",,html-keyboard-response,291,855397,0.0-17.0-1.16,71408,List2B,white,woman,,,,null,,,,,,,,,
null,is being seduced by,,html-keyboard-response,292,857398,0.0-17.0-2.16,71408,List2B,white,woman,,,,null,,,,,,,,,
7292.5,,,survey-text,293,864693,0.0-17.0-3.16,71408,List2B,white,woman,,,,,"{""Q0"":""Ruth is being seduced by Dave""}","<img src=""stim_listB/seduce2.gif""style=""height:400px;""></stim_listB>",is being seduced by,,,,,,
null,"<div style=""font-size:60px;"">+</div>",,html-keyboard-response,294,865195,0.0-17.0-0.17,71408,List2B,white,woman,,,,null,,,,,,,,,
null,"<img src=""stim_listB/touch6.gif""style=""height:400px;""></stim_listB>",,html-keyboard-response,295,867197,0.0-17.0-1.17,71408,List2B,white,woman,,,,null,,,,,,,,,
null,is being touched by,,html-keyboard-response,296,869198,0.0-17.0-2.17,71408,List2B,white,woman,,,,null,,,,,,,,,
9316.6,,,survey-text,297,878517,0.0-17.0-3.17,71408,List2B,white,woman,,,,,"{""Q0"":""Fred is being touched by Luke""}","<img src=""stim_listB/touch6.gif""style=""height:400px;""></stim_listB>",is being touched by,,,,,,
null,"<div style=""font-size:60px;"">+</div>",,html-keyboard-response,298,879019,0.0-17.0-0.18,71408,List2B,white,woman,,,,null,,,,,,,,,
null,"<img src=""stim_listB/shout3.gif""style=""height:400px;""></stim_listB>",,html-keyboard-response,299,881021,0.0-17.0-1.18,71408,List2B,white,woman,,,,null,,,,,,,,,
null,is shouting at,,html-keyboard-response,300,883023,0.0-17.0-2.18,71408,List2B,white,woman,,,,null,,,,,,,,,
4333,,,survey-text,301,887358,0.0-17.0-3.18,71408,List2B,white,woman,,,,,"{""Q0"":""Fred is shouting at Beth""}","<img src=""stim_listB/shout3.gif""style=""height:400px;""></stim_listB>",is shouting at,,,,,,
null,"<div style=""font-size:60px;"">+</div>",,html-keyboard-response,302,887860,0.0-17.0-0.19,71408,List2B,white,woman,,,,null,,,,,,,,,
null,"<img src=""stim_listB/copy2.gif""style=""height:400px;""></stim_listB>",,html-keyboard-response,303,889862,0.0-17.0-1.19,71408,List2B,white,woman,,,,null,,,,,,,,,
null,is being copied by,,html-keyboard-response,304,891864,0.0-17.0-2.19,71408,List2B,white,woman,,,,null,,,,,,,,,
6987.5,,,survey-text,305,898854,0.0-17.0-3.19,71408,List2B,white,woman,,,,,"{""Q0"":""Jane is being copied by Luke""}","<img src=""stim_listB/copy2.gif""style=""height:400px;""></stim_listB>",is being copied by,,,,,,
4373.5,"<img src='img/portrait_matrix_list2.jpg' style='width:900px;height:500px;''></img><p>If you have memorised all the portraits and names and are ready to start, press Continue.</p><p><strong>Please note: Your memory of these faces will be tested 4 times during this experiment.</strong></p>",0,html-button-response,306,903229,0.0-18.0-0.0,71408,List2B,white,woman,,,,,,,,,,,,,
1334.2,"<img src=""portrait/BW2.jpg""style=""height:400px;""></img>",2,html-button-response,307,905565,0.0-18.0-1.0,71408,List2B,white,woman,,TRUE,2,,,,,,,,,,
null,CORRECT,,html-keyboard-response,308,907068,0.0-18.0-2.0-0.0,71408,List2B,white,woman,,,,null,,,,,,,,,
1128.8,"<img src=""portrait/BM2.jpg""style=""height:400px;""></img>",5,html-button-response,309,908198,0.0-18.0-4.0,71408,List2B,white,woman,,TRUE,5,,,,,,,,,,
null,CORRECT,,html-keyboard-response,310,909700,0.0-18.0-5.0-0.0,71408,List2B,white,woman,,,,null,,,,,,,,,
1391.3,"<img src=""portrait/BW1.jpg""style=""height:400px;""></img>",0,html-button-response,311,911093,0.0-18.0-7.0,71408,List2B,white,woman,,TRUE,0,,,,,,,,,,
null,CORRECT,,html-keyboard-response,312,912595,0.0-18.0-8.0-0.0,71408,List2B,white,woman,,,,null,,,,,,,,,
1504.5,"<img src=""portrait/WM2.jpg""style=""height:400px;""></img>",7,html-button-response,313,914101,0.0-18.0-10.0,71408,List2B,white,woman,,TRUE,7,,,,,,,,,,
null,CORRECT,,html-keyboard-response,314,915605,0.0-18.0-11.0-0.0,71408,List2B,white,woman,,,,null,,,,,,,,,
1438.4,"<img src=""portrait/BM1.jpg""style=""height:400px;""></img>",4,html-button-response,315,917046,0.0-18.0-13.0,71408,List2B,white,woman,,TRUE,4,,,,,,,,,,
null,CORRECT,,html-keyboard-response,316,918547,0.0-18.0-14.0-0.0,71408,List2B,white,woman,,,,null,,,,,,,,,
1328.7,"<img src=""portrait/WW1.jpg""style=""height:400px;""></img>",1,html-button-response,317,919877,0.0-18.0-16.0,71408,List2B,white,woman,,TRUE,1,,,,,,,,,,
null,CORRECT,,html-keyboard-response,318,921381,0.0-18.0-17.0-0.0,71408,List2B,white,woman,,,,null,,,,,,,,,
1950.8,"<img src=""portrait/WW2.jpg""style=""height:400px;""></img>",3,html-button-response,319,923333,0.0-18.0-19.0,71408,List2B,white,woman,,TRUE,3,,,,,,,,,,
null,CORRECT,,html-keyboard-response,320,924836,0.0-18.0-20.0-0.0,71408,List2B,white,woman,,,,null,,,,,,,,,
1512.1,"<img src=""portrait/WM1.jpg""style=""height:400px;""></img>",6,html-button-response,321,926350,0.0-18.0-22.0,71408,List2B,white,woman,,TRUE,6,,,,,,,,,,
null,CORRECT,,html-keyboard-response,322,927853,0.0-18.0-23.0-0.0,71408,List2B,white,woman,,,,null,,,,,,,,,
2406.5,<p>You got 8 out of 8 right first time. Press Continue.</p>,0,html-button-response,323,930261,0.0-18.0-25.0,71408,List2B,white,woman,,,,,,,,,,,,,
null,"<div style=""font-size:60px;"">+</div>",,html-keyboard-response,324,931766,0.0-19.0-0.0,71408,List2B,white,woman,,,,null,,,,,,,,,
null,"<img src=""stim_listB/kiss3.gif""style=""height:400px;""></stim_listB>",,html-keyboard-response,325,933769,0.0-19.0-1.0,71408,List2B,white,woman,,,,null,,,,,,,,,
null,is kissing,,html-keyboard-response,326,935771,0.0-19.0-2.0,71408,List2B,white,woman,,,,null,,,,,,,,,
3359.4,,,survey-text,327,939134,0.0-19.0-3.0,71408,List2B,white,woman,,,,,"{""Q0"":""Fred is kissing Beth""}","<img src=""stim_listB/kiss3.gif""style=""height:400px;""></stim_listB>",is kissing,,,,,,
null,"<div style=""font-size:60px;"">+</div>",,html-keyboard-response,328,939635,0.0-19.0-0.1,71408,List2B,white,woman,,,,null,,,,,,,,,
null,"<img src=""stim_listB/touch7.gif""style=""height:400px;""></stim_listB>",,html-keyboard-response,329,941637,0.0-19.0-1.1,71408,List2B,white,woman,,,,null,,,,,,,,,
null,is touching,,html-keyboard-response,330,943639,0.0-19.0-2.1,71408,List2B,white,woman,,,,null,,,,,,,,,
4244.3,,,survey-text,331,947886,0.0-19.0-3.1,71408,List2B,white,woman,,,,,"{""Q0"":""Jane is touching Kate""}","<img src=""stim_listB/touch7.gif""style=""height:400px;""></stim_listB>",is touching,,,,,,
null,"<div style=""font-size:60px;"">+</div>",,html-keyboard-response,332,948389,0.0-19.0-0.2,71408,List2B,white,woman,,,,null,,,,,,,,,
null,"<img src=""stim_listB/copy6.gif""style=""height:400px;""></stim_listB>",,html-keyboard-response,333,950392,0.0-19.0-1.2,71408,List2B,white,woman,,,,null,,,,,,,,,
null,is being copied by,,html-keyboard-response,334,952394,0.0-19.0-2.2,71408,List2B,white,woman,,,,null,,,,,,,,,
7402.3,,,survey-text,335,959798,0.0-19.0-3.2,71408,List2B,white,woman,,,,,"{""Q0"":""Mike is being copied by Luke""}","<img src=""stim_listB/copy6.gif""style=""height:400px;""></stim_listB>",is being copied by,,,,,,
null,"<div style=""font-size:60px;"">+</div>",,html-keyboard-response,336,960299,0.0-19.0-0.3,71408,List2B,white,woman,,,,null,,,,,,,,,
null,"<img src=""stim_listB/look2.gif""style=""height:400px;""></stim_listB>",,html-keyboard-response,337,962302,0.0-19.0-1.3,71408,List2B,white,woman,,,,null,,,,,,,,,
null,is being looked at by,,html-keyboard-response,338,964304,0.0-19.0-2.3,71408,List2B,white,woman,,,,null,,,,,,,,,
5354.5,,,survey-text,339,969661,0.0-19.0-3.3,71408,List2B,white,woman,,,,,"{""Q0"":""Jane is being looked at by Dave""}","<img src=""stim_listB/look2.gif""style=""height:400px;""></stim_listB>",is being looked at by,,,,,,
null,"<div style=""font-size:60px;"">+</div>",,html-keyboard-response,340,970163,0.0-19.0-0.4,71408,List2B,white,woman,,,,null,,,,,,,,,
null,"<img src=""stim_listB/shout4.gif""style=""height:400px;""></stim_listB>",,html-keyboard-response,341,972164,0.0-19.0-1.4,71408,List2B,white,woman,,,,null,,,,,,,,,
null,is being shouted at by,,html-keyboard-response,342,974166,0.0-19.0-2.4,71408,List2B,white,woman,,,,null,,,,,,,,,
5405.6,,,survey-text,343,979573,0.0-19.0-3.4,71408,List2B,white,woman,,,,,"{""Q0"":""Kate is being shouted at by Mike""}","<img src=""stim_listB/shout4.gif""style=""height:400px;""></stim_listB>",is being shouted at by,,,,,,
null,"<div style=""font-size:60px;"">+</div>",,html-keyboard-response,344,980075,0.0-19.0-0.5,71408,List2B,white,woman,,,,null,,,,,,,,,
null,"<img src=""stim_listB/greet8.gif""style=""height:400px;""></stim_listB>",,html-keyboard-response,345,982076,0.0-19.0-1.5,71408,List2B,white,woman,,,,null,,,,,,,,,
null,is being greeted by,,html-keyboard-response,346,984078,0.0-19.0-2.5,71408,List2B,white,woman,,,,null,,,,,,,,,
6109.1,,,survey-text,347,990189,0.0-19.0-3.5,71408,List2B,white,woman,,,,,"{""Q0"":""Kate is being greeted by Ruth""}","<img src=""stim_listB/greet8.gif""style=""height:400px;""></stim_listB>",is being greeted by,,,,,,
null,"<div style=""font-size:60px;"">+</div>",,html-keyboard-response,348,990691,0.0-19.0-0.6,71408,List2B,white,woman,,,,null,,,,,,,,,
null,"<img src=""stim_listB/greet5.gif""style=""height:400px;""></stim_listB>",,html-keyboard-response,349,992694,0.0-19.0-1.6,71408,List2B,white,woman,,,,null,,,,,,,,,
null,is greeting,,html-keyboard-response,350,994695,0.0-19.0-2.6,71408,List2B,white,woman,,,,null,,,,,,,,,
3837.9,,,survey-text,351,998535,0.0-19.0-3.6,71408,List2B,white,woman,,,,,"{""Q0"":""Fred is greeting Dave""}","<img src=""stim_listB/greet5.gif""style=""height:400px;""></stim_listB>",is greeting,,,,,,
null,"<div style=""font-size:60px;"">+</div>",,html-keyboard-response,352,999037,0.0-19.0-0.7,71408,List2B,white,woman,,,,null,,,,,,,,,
null,"<img src=""stim_listB/copy8.gif""style=""height:400px;""></stim_listB>",,html-keyboard-response,353,1001039,0.0-19.0-1.7,71408,List2B,white,woman,,,,null,,,,,,,,,
null,is being copied by,,html-keyboard-response,354,1003041,0.0-19.0-2.7,71408,List2B,white,woman,,,,null,,,,,,,,,
4154.5,,,survey-text,355,1007198,0.0-19.0-3.7,71408,List2B,white,woman,,,,,"{""Q0"":""Ruth is being copied by Kate""}","<img src=""stim_listB/copy8.gif""style=""height:400px;""></stim_listB>",is being copied by,,,,,,
null,"<div style=""font-size:60px;"">+</div>",,html-keyboard-response,356,1007700,0.0-19.0-0.8,71408,List2B,white,woman,,,,null,,,,,,,,,
null,"<img src=""stim_listB/hug3.gif""style=""height:400px;""></stim_listB>",,html-keyboard-response,357,1009702,0.0-19.0-1.8,71408,List2B,white,woman,,,,null,,,,,,,,,
null,is hugging,,html-keyboard-response,358,1011702,0.0-19.0-2.8,71408,List2B,white,woman,,,,null,,,,,,,,,
3940.2,,,survey-text,359,1015645,0.0-19.0-3.8,71408,List2B,white,woman,,,,,"{""Q0"":""Fred is hugging Beth""}","<img src=""stim_listB/hug3.gif""style=""height:400px;""></stim_listB>",is hugging,,,,,,
null,"<div style=""font-size:60px;"">+</div>",,html-keyboard-response,360,1016147,0.0-19.0-0.9,71408,List2B,white,woman,,,,null,,,,,,,,,
null,"<img src=""stim_listB/challenge5.gif""style=""height:400px;""></stim_listB>",,html-keyboard-response,361,1018150,0.0-19.0-1.9,71408,List2B,white,woman,,,,null,,,,,,,,,
null,is challenging,,html-keyboard-response,362,1020152,0.0-19.0-2.9,71408,List2B,white,woman,,,,null,,,,,,,,,
4707.3,,,survey-text,363,1024861,0.0-19.0-3.9,71408,List2B,white,woman,,,,,"{""Q0"":""Dave is challenging Fred""}","<img src=""stim_listB/challenge5.gif""style=""height:400px;""></stim_listB>",is challenging,,,,,,
null,"<div style=""font-size:60px;"">+</div>",,html-keyboard-response,364,1025362,0.0-19.0-0.10,71408,List2B,white,woman,,,,null,,,,,,,,,
null,"<img src=""stim_listB/kiss7.gif""style=""height:400px;""></stim_listB>",,html-keyboard-response,365,1027363,0.0-19.0-1.10,71408,List2B,white,woman,,,,null,,,,,,,,,
null,is kissing,,html-keyboard-response,366,1029365,0.0-19.0-2.10,71408,List2B,white,woman,,,,null,,,,,,,,,
3700.5,,,survey-text,367,1033068,0.0-19.0-3.10,71408,List2B,white,woman,,,,,"{""Q0"":""Ruth is kissing Beth""}","<img src=""stim_listB/kiss7.gif""style=""height:400px;""></stim_listB>",is kissing,,,,,,
null,"<div style=""font-size:60px;"">+</div>",,html-keyboard-response,368,1033569,0.0-19.0-0.11,71408,List2B,white,woman,,,,null,,,,,,,,,
null,"<img src=""stim_listB/seduce3.gif""style=""height:400px;""></stim_listB>",,html-keyboard-response,369,1035572,0.0-19.0-1.11,71408,List2B,white,woman,,,,null,,,,,,,,,
null,is seducing,,html-keyboard-response,370,1037574,0.0-19.0-2.11,71408,List2B,white,woman,,,,null,,,,,,,,,
3988.9,,,survey-text,371,1041564,0.0-19.0-3.11,71408,List2B,white,woman,,,,,"{""Q0"":""Fred is seducing Kate""}","<img src=""stim_listB/seduce3.gif""style=""height:400px;""></stim_listB>",is seducing,,,,,,
null,"<div style=""font-size:60px;"">+</div>",,html-keyboard-response,372,1042066,0.0-19.0-0.12,71408,List2B,white,woman,,,,null,,,,,,,,,
null,"<img src=""stim_listB/shout1.gif""style=""height:400px;""></stim_listB>",,html-keyboard-response,373,1044068,0.0-19.0-1.12,71408,List2B,white,woman,,,,null,,,,,,,,,
null,is shouting at,,html-keyboard-response,374,1046069,0.0-19.0-2.12,71408,List2B,white,woman,,,,null,,,,,,,,,
4189.5,,,survey-text,375,1050261,0.0-19.0-3.12,71408,List2B,white,woman,,,,,"{""Q0"":""Luke is shouting at Ruth""}","<img src=""stim_listB/shout1.gif""style=""height:400px;""></stim_listB>",is shouting at,,,,,,
null,"<div style=""font-size:60px;"">+</div>",,html-keyboard-response,376,1050762,0.0-19.0-0.13,71408,List2B,white,woman,,,,null,,,,,,,,,
null,"<img src=""stim_listB/seduce1.gif""style=""height:400px;""></stim_listB>",,html-keyboard-response,377,1052765,0.0-19.0-1.13,71408,List2B,white,woman,,,,null,,,,,,,,,
null,is seducing,,html-keyboard-response,378,1054767,0.0-19.0-2.13,71408,List2B,white,woman,,,,null,,,,,,,,,
4970.2,,,survey-text,379,1059740,0.0-19.0-3.13,71408,List2B,white,woman,,,,,"{""Q0"":""Luke is seducing Jane""}","<img src=""stim_listB/seduce1.gif""style=""height:400px;""></stim_listB>",is seducing,,,,,,
null,"<div style=""font-size:60px;"">+</div>",,html-keyboard-response,380,1060242,0.0-19.0-0.14,71408,List2B,white,woman,,,,null,,,,,,,,,
null,"<img src=""stim_listB/look7.gif""style=""height:400px;""></stim_listB>",,html-keyboard-response,381,1062244,0.0-19.0-1.14,71408,List2B,white,woman,,,,null,,,,,,,,,
null,is looking at,,html-keyboard-response,382,1064246,0.0-19.0-2.14,71408,List2B,white,woman,,,,null,,,,,,,,,
3723.9,,,survey-text,383,1067972,0.0-19.0-3.14,71408,List2B,white,woman,,,,,"{""Q0"":""Ruth is looking at Beth""}","<img src=""stim_listB/look7.gif""style=""height:400px;""></stim_listB>",is looking at,,,,,,
null,"<div style=""font-size:60px;"">+</div>",,html-keyboard-response,384,1068473,0.0-19.0-0.15,71408,List2B,white,woman,,,,null,,,,,,,,,
null,"<img src=""stim_listB/oppose6.gif""style=""height:400px;""></stim_listB>",,html-keyboard-response,385,1070476,0.0-19.0-1.15,71408,List2B,white,woman,,,,null,,,,,,,,,
null,is being opposed by,,html-keyboard-response,386,1072478,0.0-19.0-2.15,71408,List2B,white,woman,,,,null,,,,,,,,,
6027.9,,,survey-text,387,1078509,0.0-19.0-3.15,71408,List2B,white,woman,,,,,"{""Q0"":""Fred is being opposed by Luke""}","<img src=""stim_listB/oppose6.gif""style=""height:400px;""></stim_listB>",is being opposed by,,,,,,
null,"<div style=""font-size:60px;"">+</div>",,html-keyboard-response,388,1079013,0.0-19.0-0.16,71408,List2B,white,woman,,,,null,,,,,,,,,
null,"<img src=""stim_listB/look4.gif""style=""height:400px;""></stim_listB>",,html-keyboard-response,389,1081017,0.0-19.0-1.16,71408,List2B,white,woman,,,,null,,,,,,,,,
null,is being looked at by,,html-keyboard-response,390,1083018,0.0-19.0-2.16,71408,List2B,white,woman,,,,null,,,,,,,,,
5726.7,,,survey-text,391,1088748,0.0-19.0-3.16,71408,List2B,white,woman,,,,,"{""Q0"":""Kate is being looked at by Mike""}","<img src=""stim_listB/look4.gif""style=""height:400px;""></stim_listB>",is being looked at by,,,,,,
null,"<div style=""font-size:60px;"">+</div>",,html-keyboard-response,392,1089249,0.0-19.0-0.17,71408,List2B,white,woman,,,,null,,,,,,,,,
null,"<img src=""stim_listB/hug5.gif""style=""height:400px;""></stim_listB>",,html-keyboard-response,393,1091253,0.0-19.0-1.17,71408,List2B,white,woman,,,,null,,,,,,,,,
null,is hugging,,html-keyboard-response,394,1093254,0.0-19.0-2.17,71408,List2B,white,woman,,,,null,,,,,,,,,
4603.8,,,survey-text,395,1097861,0.0-19.0-3.17,71408,List2B,white,woman,,,,,"{""Q0"":""Luke is hugging Fred""}","<img src=""stim_listB/hug5.gif""style=""height:400px;""></stim_listB>",is hugging,,,,,,
null,"<div style=""font-size:60px;"">+</div>",,html-keyboard-response,396,1098362,0.0-19.0-0.18,71408,List2B,white,woman,,,,null,,,,,,,,,
null,"<img src=""stim_listB/shout6.gif""style=""height:400px;""></stim_listB>",,html-keyboard-response,397,1100365,0.0-19.0-1.18,71408,List2B,white,woman,,,,null,,,,,,,,,
null,is being shouted at by,,html-keyboard-response,398,1102366,0.0-19.0-2.18,71408,List2B,white,woman,,,,null,,,,,,,,,
7026.2,,,survey-text,399,1109395,0.0-19.0-3.18,71408,List2B,white,woman,,,,,"{""Q0"":""Mike is being shouted at by Dave""}","<img src=""stim_listB/shout6.gif""style=""height:400px;""></stim_listB>",is being shouted at by,,,,,,
null,"<div style=""font-size:60px;"">+</div>",,html-keyboard-response,400,1109897,0.0-19.0-0.19,71408,List2B,white,woman,,,,null,,,,,,,,,
null,"<img src=""stim_listB/look5.gif""style=""height:400px;""></stim_listB>",,html-keyboard-response,401,1111900,0.0-19.0-1.19,71408,List2B,white,woman,,,,null,,,,,,,,,
null,is looking at,,html-keyboard-response,402,1113902,0.0-19.0-2.19,71408,List2B,white,woman,,,,null,,,,,,,,,
3899.6,,,survey-text,403,1117804,0.0-19.0-3.19,71408,List2B,white,woman,,,,,"{""Q0"":""Luke is looking at Fred""}","<img src=""stim_listB/look5.gif""style=""height:400px;""></stim_listB>",is looking at,,,,,,
4574.3,<p>Thank you for completing that task.</p><p>The final part of this session is a questionnaire that will take about 4 minutes.</p><p>Press Continue.</p>,0,html-button-response,404,1122379,0.0-20.0,71408,List2B,white,woman,,,,,,,,,,,,,
36433.9,,,survey-text,405,1159819,0.0-21.0,71408,List2B,white,woman,,,,,"{""Q0"":""34"",""Q1"":""English"",""Q2"":""English"",""Q3"":""United States"",""Q4"":""American"",""Q5"":""White/ Caucasian"",""Q6"":""Female""}",,,demographics,,,,,
2669.7,<p>Have you lived in the USA for the last 5 years or more?</p>,0,html-button-response,406,1162490,0.0-22.0,71408,List2B,white,woman,,,,,,,,fiveyears,,,,,
3253.8,<p>Move the slider to show the extent to which you agree with the following statements.</p>,0,html-button-response,407,1166746,0.0-23.0,71408,List2B,white,woman,,,,,,,,,,,,,
3909.1,,,html-slider-response,408,1171666,0.0-24.0-0.0-0.0,71408,List2B,white,woman,,,,,,,,survey_gender,100,,,I feel committed to my gender.,committed
5221.7,,,html-slider-response,409,1176890,0.0-24.0-0.0-0.1,71408,List2B,white,woman,,,,,,,,survey_gender,9,,,Routine is not important to me.,filler
5894.4,,,html-slider-response,410,1182786,0.0-24.0-0.0-0.2,71408,List2B,white,woman,,,,,,,,survey_gender,76,,,People of my gender have a lot in common with each other.,common
2990,,,html-slider-response,411,1185778,0.0-24.0-0.0-0.3,71408,List2B,white,woman,,,,,,,,survey_gender,100,,,I feel solidarity with my gender.,solidarity
3743.1,,,html-slider-response,412,1189522,0.0-24.0-0.0-0.4,71408,List2B,white,woman,,,,,,,,survey_gender,100,,,I consider myself a highly empathetic person.,filler
4285.7,,,html-slider-response,413,1193810,0.0-24.0-0.0-0.5,71408,List2B,white,woman,,,,,,,,survey_gender,77,,,I have a lot in common with the average person of my gender.,average
5638.2,,,html-slider-response,414,1199450,0.0-24.0-0.0-0.6,71408,List2B,white,woman,,,,,,,,survey_gender,100,,,Most of the friends in my life are very similar to me.,filler
9526.5,,,html-slider-response,415,1208977,0.0-24.0-0.0-0.7,71408,List2B,white,woman,,,,,,,,survey_gender,100,,,I have a lot in common with my friends.,filler
3478,,,html-slider-response,416,1212457,0.0-24.0-0.0-0.8,71408,List2B,white,woman,,,,,,,,survey_gender,100,,,Being my gender gives me a good feeling.,feeling
4422.6,,,html-slider-response,417,1216881,0.0-24.0-0.0-0.9,71408,List2B,white,woman,,,,,,,,survey_gender,78,,,It is not always easy for people to know what I am thinking.,filler
2750.3,,,html-slider-response,418,1219633,0.0-24.0-0.0-0.10,71408,List2B,white,woman,,,,,,,,survey_gender,100,,,I feel solidarity with my friends.,filler
2206.2,,,html-slider-response,419,1221841,0.0-24.0-0.0-0.11,71408,List2B,white,woman,,,,,,,,survey_gender,100,,,I am glad to be my gender.,glad
3495.1,,,html-slider-response,420,1225337,0.0-24.0-0.0-0.12,71408,List2B,white,woman,,,,,,,,survey_gender,100,,,I often think about the fact that I am my gender.,often
3989.7,,,html-slider-response,421,1229329,0.0-24.0-0.0-0.13,71408,List2B,white,woman,,,,,,,,survey_gender,100,,,I feel a bond with my gender.,bond
5438.2,,,html-slider-response,422,1234769,0.0-24.0-0.0-0.14,71408,List2B,white,woman,,,,,,,,survey_gender,100,,,Being my gender is an important part of how I see myself.,important
2254.6,,,html-slider-response,423,1237025,0.0-24.0-0.0-0.15,71408,List2B,white,woman,,,,,,,,survey_gender,100,,,My friends understand me.,filler
3039.3,,,html-slider-response,424,1240066,0.0-24.0-0.0-0.16,71408,List2B,white,woman,,,,,,,,survey_gender,100,,,I often think about my actions.,filler
2373.8,,,html-slider-response,425,1242441,0.0-24.0-0.0-0.17,71408,List2B,white,woman,,,,,,,,survey_gender,100,,,I am glad to have the friends that I have.,filler
2839.1,,,html-slider-response,426,1245281,0.0-24.0-0.0-0.18,71408,List2B,white,woman,,,,,,,,survey_gender,100,,,Being around my friends gives me a good feeling.,filler
2510.5,,,html-slider-response,427,1247794,0.0-24.0-0.0-0.19,71408,List2B,white,woman,,,,,,,,survey_gender,100,,,My friends have a lot in common with each other.,filler
4463.2,,,html-slider-response,428,1252258,0.0-24.0-0.0-0.20,71408,List2B,white,woman,,,,,,,,survey_gender,80,,,I am similar to the average person of my gender.,similar
2997.2,,,html-slider-response,429,1255257,0.0-24.0-0.0-0.21,71408,List2B,white,woman,,,,,,,,survey_gender,100,,,I would say I am an animal person.,filler
12215,,,html-slider-response,430,1267473,0.0-24.0-0.0-0.22,71408,List2B,white,woman,,,,,,,,survey_gender,82,,,People of my gender are very similar to each other.,verysimilar
24885.6,,,html-slider-response,431,1292360,0.0-24.0-0.0-0.23,71408,List2B,white,woman,,,,,,,,survey_gender,81,,,Family is not more important to me than friendship.,filler
2534.3,,,html-slider-response,432,1294896,0.0-24.0-0.0-0.24,71408,List2B,white,woman,,,,,,,,survey_gender,100,,,It is pleasant to be my gender.,pleasant
2142.8,,,html-slider-response,433,1297040,0.0-24.0-0.0-0.25,71408,List2B,white,woman,,,,,,,,survey_gender,100,,,I feel a bond with my friends.,filler
2679.7,,,html-slider-response,434,1299721,0.0-24.0-0.0-0.26,71408,List2B,white,woman,,,,,,,,survey_gender,100,,,The fact that I am my gender is an important part of my identity.,identity
2550.1,,,html-slider-response,435,1302272,0.0-24.0-0.0-0.27,71408,List2B,white,woman,,,,,,,,survey_gender,100,,,I think that my gender has a lot to be proud of.,proud
4927.5,,,html-slider-response,436,1307201,0.0-24.0-1.0-0.0,71408,List2B,white,woman,,,,,,,,survey_race,18,,,Being my race gives me a good feeling.,feeling
3669.6,,,html-slider-response,437,1310872,0.0-24.0-1.0-0.1,71408,List2B,white,woman,,,,,,,,survey_race,32,,,I feel a bond with people the same age as me.,filler
3190.2,,,html-slider-response,438,1314064,0.0-24.0-1.0-0.2,71408,List2B,white,woman,,,,,,,,survey_race,21,,,It is pleasant to be my race.,pleasant
7670.4,,,html-slider-response,439,1321736,0.0-24.0-1.0-0.3,71408,List2B,white,woman,,,,,,,,survey_race,49,,,I am similar to the average person of my race.,similar
4494.1,,,html-slider-response,440,1326232,0.0-24.0-1.0-0.4,71408,List2B,white,woman,,,,,,,,survey_race,76,,,I am glad to be the age I am.,filler
3086.2,,,html-slider-response,441,1329320,0.0-24.0-1.0-0.5,71408,List2B,white,woman,,,,,,,,survey_race,57,,,I feel a bond with my race.,bond
2526.6,,,html-slider-response,442,1331848,0.0-24.0-1.0-0.6,71408,List2B,white,woman,,,,,,,,survey_race,72,,,I am glad to be my age.,filler
5798.3,,,html-slider-response,443,1337648,0.0-24.0-1.0-0.7,71408,List2B,white,woman,,,,,,,,survey_race,14,,,Being my race is an important part of how I see myself.,important
2702.4,,,html-slider-response,444,1340352,0.0-24.0-1.0-0.8,71408,List2B,white,woman,,,,,,,,survey_race,0,,,I consider myself an extrovert.,filler
2910.6,,,html-slider-response,445,1343264,0.0-24.0-1.0-0.9,71408,List2B,white,woman,,,,,,,,survey_race,8,,,"The older I get, the wiser I feel.",filler
3422.3,,,html-slider-response,446,1346688,0.0-24.0-1.0-0.10,71408,List2B,white,woman,,,,,,,,survey_race,0,,,I often think about the fact that I am my age.,filler
3382.6,,,html-slider-response,447,1350072,0.0-24.0-1.0-0.11,71408,List2B,white,woman,,,,,,,,survey_race,0,,,Getting older does not worry me.,filler
5838.6,,,html-slider-response,448,1355912,0.0-24.0-1.0-0.12,71408,List2B,white,woman,,,,,,,,survey_race,66,,,People of my race have a lot in common with each other.,common
2694.2,,,html-slider-response,449,1358608,0.0-24.0-1.0-0.13,71408,List2B,white,woman,,,,,,,,survey_race,29,,,I am glad to be my race.,glad
6022.1,,,html-slider-response,450,1364632,0.0-24.0-1.0-0.14,71408,List2B,white,woman,,,,,,,,survey_race,100,,,My age is not an important part of who I am.,filler
3070.4,,,html-slider-response,451,1367704,0.0-24.0-1.0-0.15,71408,List2B,white,woman,,,,,,,,survey_race,17,,,I feel solidarity with my race.,solidarity
4319,,,html-slider-response,452,1372024,0.0-24.0-1.0-0.16,71408,List2B,white,woman,,,,,,,,survey_race,31,,,I have a lot in common with people of a similar age to me.,filler
2847.1,,,html-slider-response,453,1374873,0.0-24.0-1.0-0.17,71408,List2B,white,woman,,,,,,,,survey_race,0,,,I enjoy being in large groups.,filler
3301.8,,,html-slider-response,454,1378176,0.0-24.0-1.0-0.18,71408,List2B,white,woman,,,,,,,,survey_race,0,,,I feel solidarity with people the same age as me.,filler
2542.3,,,html-slider-response,455,1380720,0.0-24.0-1.0-0.19,71408,List2B,white,woman,,,,,,,,survey_race,100,,,I consider myself an introvert.,filler
4070.7,,,html-slider-response,456,1384792,0.0-24.0-1.0-0.20,71408,List2B,white,woman,,,,,,,,survey_race,0,,,I think that my race has a lot to be proud of.,proud
9710.2,,,html-slider-response,457,1394504,0.0-24.0-1.0-0.21,71408,List2B,white,woman,,,,,,,,survey_race,39,,,People of my race are very similar to each other.,verysimilar
6630.5,,,html-slider-response,458,1401136,0.0-24.0-1.0-0.22,71408,List2B,white,woman,,,,,,,,survey_race,49,,,Being my age gives me a good feeling.,filler
4751,,,html-slider-response,459,1405889,0.0-24.0-1.0-0.23,71408,List2B,white,woman,,,,,,,,survey_race,39,,,People my age have a lot in common with each other.,filler
4877.4,,,html-slider-response,460,1410768,0.0-24.0-1.0-0.24,71408,List2B,white,woman,,,,,,,,survey_race,28,,,I have a lot in common with the average person of my race.,average
3325.8,,,html-slider-response,461,1414095,0.0-24.0-1.0-0.25,71408,List2B,white,woman,,,,,,,,survey_race,100,,,I often think about the fact that I am my race.,often
2630.6,,,html-slider-response,462,1416728,0.0-24.0-1.0-0.26,71408,List2B,white,woman,,,,,,,,survey_race,26,,,I feel committed to my race.,committed
4438.6,,,html-slider-response,463,1421168,0.0-24.0-1.0-0.27,71408,List2B,white,woman,,,,,,,,survey_race,67,,,The fact that I am my race is an important part of my identity.,identity
4005.3,,,survey-text,464,1425176,0.0-25.0,71408,List2B,white,woman,,,,,"{""Q0"":""ccc""}",,,worker_id,,,,,
22032.6,,,external-html,465,1447745,0.0-26.0,71408,List2B,white,woman,debrief.html,,,,,,,,,,,,
