rt,stimulus,button_pressed,trial_type,trial_index,time_elapsed,internal_node_id,subject,list,ppt_race,ppt_gender,url,first_guess,correct,key_press,responses,image_type,phrase_type,test_part,response,stimulus1,stimulus2,question_type,survey_item
1187.3,Welcome to the experiment. Press Continue to begin.,0,html-button-response,0,1189,0.0-0.0,71750,List1B,white,woman,,,,,,,,,,,,,
7585.5,,,external-html,1,9921,0.0-1.0,71750,List1B,white,woman,consent.html,,,,,,,,,,,,
6790.1,"<p>On the next page, you will see portraits of 8 people and their names.</p><p>Your first task is to take a few minutes to memorise the names of these people.</p><p>You will have to recall their names during the rest of the experiment, so it is</p><p>essential that you try to memorise these people and their names as best as you can.</p><br><p><strong>You will then be tested on your memory of these names and portraits.</strong></p><br><p>The experiment will start after you have completed this memory test.</p><br><p>Ready?</p>",0,html-button-response,2,16713,0.0-2.0,71750,List1B,white,woman,,,,,,,,,,,,,
31394.9,"<img src='img/portrait_matrix_list1.jpg' style='width:900px;height:500px;''></img><p>If you have memorised all the portraits and names and are ready to start, press Continue.</p><p><strong>Please note: Your memory of these faces will be tested 4 times during this experiment.</strong></p>",0,html-button-response,3,49115,0.0-3.0-0.0,71750,List1B,white,woman,,,,,,,,,,,,,
2579.4,"<img src=""portrait/WW2.jpg""style=""height:400px;""></img>",3,html-button-response,4,52701,0.0-3.0-1.0,71750,List1B,white,woman,,TRUE,3,,,,,,,,,,
null,CORRECT,,html-keyboard-response,5,54215,0.0-3.0-2.0-0.0,71750,List1B,white,woman,,,,null,,,,,,,,,
1531.9,"<img src=""portrait/WM2.jpg""style=""height:400px;""></img>",7,html-button-response,6,55751,0.0-3.0-4.0,71750,List1B,white,woman,,TRUE,7,,,,,,,,,,
null,CORRECT,,html-keyboard-response,7,57260,0.0-3.0-5.0-0.0,71750,List1B,white,woman,,,,null,,,,,,,,,
3207,"<img src=""portrait/WM1.jpg""style=""height:400px;""></img>",6,html-button-response,8,60471,0.0-3.0-7.0,71750,List1B,white,woman,,TRUE,6,,,,,,,,,,
null,CORRECT,,html-keyboard-response,9,61978,0.0-3.0-8.0-0.0,71750,List1B,white,woman,,,,null,,,,,,,,,
2017.3,"<img src=""portrait/BM1.jpg""style=""height:400px;""></img>",4,html-button-response,10,63999,0.0-3.0-10.0,71750,List1B,white,woman,,TRUE,4,,,,,,,,,,
null,CORRECT,,html-keyboard-response,11,65508,0.0-3.0-11.0-0.0,71750,List1B,white,woman,,,,null,,,,,,,,,
4228.5,"<img src=""portrait/BM2.jpg""style=""height:400px;""></img>",5,html-button-response,12,69739,0.0-3.0-13.0,71750,List1B,white,woman,,TRUE,5,,,,,,,,,,
null,CORRECT,,html-keyboard-response,13,71247,0.0-3.0-14.0-0.0,71750,List1B,white,woman,,,,null,,,,,,,,,
2449.8,"<img src=""portrait/WW1.jpg""style=""height:400px;""></img>",1,html-button-response,14,73700,0.0-3.0-16.0,71750,List1B,white,woman,,TRUE,1,,,,,,,,,,
null,CORRECT,,html-keyboard-response,15,75207,0.0-3.0-17.0-0.0,71750,List1B,white,woman,,,,null,,,,,,,,,
2321.1,"<img src=""portrait/BW2.jpg""style=""height:400px;""></img>",2,html-button-response,16,77531,0.0-3.0-19.0,71750,List1B,white,woman,,TRUE,2,,,,,,,,,,
null,CORRECT,,html-keyboard-response,17,79044,0.0-3.0-20.0-0.0,71750,List1B,white,woman,,,,null,,,,,,,,,
2305.3,"<img src=""portrait/BW1.jpg""style=""height:400px;""></img>",0,html-button-response,18,81351,0.0-3.0-22.0,71750,List1B,white,woman,,TRUE,0,,,,,,,,,,
null,CORRECT,,html-keyboard-response,19,82863,0.0-3.0-23.0-0.0,71750,List1B,white,woman,,,,null,,,,,,,,,
1405.1,<p>You got 8 out of 8 right first time. Press Continue.</p>,0,html-button-response,20,84271,0.0-3.0-25.0,71750,List1B,white,woman,,,,,,,,,,,,,
15417.6,"<p>In this experiment, you will view photographs of the people from the memory game interacting.</p><p>By using the <strong>exact</strong> phrase given <i>after</i> the photograph appears and recalling the correct names of the people in the photographs, form a sentence describing the interaction. You do not need to capitalise names.</p><p>Type your answer in the space provided. Please complete every sentence before moving onto the next trial.</p><p>You will only have a few seconds to memorise each given photograph and phrase before you can respond, so try your best to focus.</p><p>An example is given below. Press 'Continue' when you are ready.</p><img src='img/speaking_example.jpg' style='width:800px;height:460px;''></img>",0,html-button-response,21,100697,0.0-4.0,71750,List1B,white,woman,,,,,,,,,,,,,
1490.3,"<p>Before the experiment starts, you will watch two example trials. Press 'Continue'.</p>",0,html-button-response,22,103191,0.0-5.0,71750,List1B,white,woman,,,,,,,,,,,,,
null,<img src='img/play_eg.gif' style='height:400px;''></img>,,html-keyboard-response,23,106200,0.0-6.0,71750,List1B,white,woman,,,,null,,,,,,,,,
null,<p>is playing with</p>,,html-keyboard-response,24,108206,0.0-7.0,71750,List1B,white,woman,,,,null,,,,,,,,,
1577.4,<p><b>Answer:</b> kate is playing with beth</p>,0,html-button-response,25,109785,0.0-8.0,71750,List1B,white,woman,,,,,,,,,,,,,
null,<img src='img/dance_eg.gif' style='height:400px;''></img>,,html-keyboard-response,26,112792,0.0-9.0,71750,List1B,white,woman,,,,null,,,,,,,,,
null,<p>is being entertained by</p>,,html-keyboard-response,27,114798,0.0-10.0,71750,List1B,white,woman,,,,null,,,,,,,,,
2268,<p><b>Answer:</b> luke is being entertained by dave</p>,0,html-button-response,28,117068,0.0-11.0,71750,List1B,white,woman,,,,,,,,,,,,,
4815.3,"<p>Ready to start the experiment?</p><br><p><strong>Remember to describe the picture using a full sentence,</strong></p><p><strong>that combines the names of the people with the <i>exact</i> phrase given.</strong></p><p><strong>To receive full payment you must do this correctly.</strong></p><p><strong> You do not need to capitalise names or use punctuation.</strong></p><br><p>Press 'Continue' to begin.</p>",0,html-button-response,29,122890,0.0-12.0,71750,List1B,white,woman,,,,,,,,,,,,,
null,"<div style=""font-size:60px;"">+</div>",,html-keyboard-response,30,124397,0.0-13.0-0.0,71750,List1B,white,woman,,,,null,,,,,,,,,
null,"<img src=""stim_listB/touch2.gif""style=""height:400px;""></stim_listB>",,html-keyboard-response,31,126402,0.0-13.0-1.0,71750,List1B,white,woman,,,,null,,,,,,,,,
null,is being touched by,,html-keyboard-response,32,128406,0.0-13.0-2.0,71750,List1B,white,woman,,,,null,,,,,,,,,
9541.2,,,survey-text,33,137954,0.0-13.0-3.0,71750,List1B,white,woman,,,,,"{""Q0"":""beth is being touched by fred""}","<img src=""stim_listB/touch2.gif""style=""height:400px;""></stim_listB>",is being touched by,,,,,,
null,"<div style=""font-size:60px;"">+</div>",,html-keyboard-response,34,138458,0.0-13.0-0.1,71750,List1B,white,woman,,,,null,,,,,,,,,
null,"<img src=""stim_listB/challenge8.gif""style=""height:400px;""></stim_listB>",,html-keyboard-response,35,140465,0.0-13.0-1.1,71750,List1B,white,woman,,,,null,,,,,,,,,
null,is being challenged by,,html-keyboard-response,36,142467,0.0-13.0-2.1,71750,List1B,white,woman,,,,null,,,,,,,,,
4394,,,survey-text,37,146866,0.0-13.0-3.1,71750,List1B,white,woman,,,,,"{""Q0"":""beth is being challenged by jane""}","<img src=""stim_listB/challenge8.gif""style=""height:400px;""></stim_listB>",is being challenged by,,,,,,
null,"<div style=""font-size:60px;"">+</div>",,html-keyboard-response,38,147369,0.0-13.0-0.2,71750,List1B,white,woman,,,,null,,,,,,,,,
null,"<img src=""stim_listB/kiss6.gif""style=""height:400px;""></stim_listB>",,html-keyboard-response,39,149374,0.0-13.0-1.2,71750,List1B,white,woman,,,,null,,,,,,,,,
null,is being kissed by,,html-keyboard-response,40,151377,0.0-13.0-2.2,71750,List1B,white,woman,,,,null,,,,,,,,,
4335.5,,,survey-text,41,155719,0.0-13.0-3.2,71750,List1B,white,woman,,,,,"{""Q0"":""dave is being kissed by mike""}","<img src=""stim_listB/kiss6.gif""style=""height:400px;""></stim_listB>",is being kissed by,,,,,,
null,"<div style=""font-size:60px;"">+</div>",,html-keyboard-response,42,156222,0.0-13.0-0.3,71750,List1B,white,woman,,,,null,,,,,,,,,
null,"<img src=""stim_listB/touch5.gif""style=""height:400px;""></stim_listB>",,html-keyboard-response,43,158225,0.0-13.0-1.3,71750,List1B,white,woman,,,,null,,,,,,,,,
null,is touching,,html-keyboard-response,44,160226,0.0-13.0-2.3,71750,List1B,white,woman,,,,null,,,,,,,,,
3188.7,,,survey-text,45,163420,0.0-13.0-3.3,71750,List1B,white,woman,,,,,"{""Q0"":""mike is touching dave""}","<img src=""stim_listB/touch5.gif""style=""height:400px;""></stim_listB>",is touching,,,,,,
null,"<div style=""font-size:60px;"">+</div>",,html-keyboard-response,46,163922,0.0-13.0-0.4,71750,List1B,white,woman,,,,null,,,,,,,,,
null,"<img src=""stim_listB/shout7.gif""style=""height:400px;""></stim_listB>",,html-keyboard-response,47,165926,0.0-13.0-1.4,71750,List1B,white,woman,,,,null,,,,,,,,,
null,is shouting at,,html-keyboard-response,48,167928,0.0-13.0-2.4,71750,List1B,white,woman,,,,null,,,,,,,,,
3486.3,,,survey-text,49,171421,0.0-13.0-3.4,71750,List1B,white,woman,,,,,"{""Q0"":""ruth is shouting at beth""}","<img src=""stim_listB/shout7.gif""style=""height:400px;""></stim_listB>",is shouting at,,,,,,
null,"<div style=""font-size:60px;"">+</div>",,html-keyboard-response,50,171924,0.0-13.0-0.5,71750,List1B,white,woman,,,,null,,,,,,,,,
null,"<img src=""stim_listB/seduce7.gif""style=""height:400px;""></stim_listB>",,html-keyboard-response,51,173931,0.0-13.0-1.5,71750,List1B,white,woman,,,,null,,,,,,,,,
null,is seducing,,html-keyboard-response,52,175934,0.0-13.0-2.5,71750,List1B,white,woman,,,,null,,,,,,,,,
3945,,,survey-text,53,179885,0.0-13.0-3.5,71750,List1B,white,woman,,,,,"{""Q0"":""jane is seducing beth""}","<img src=""stim_listB/seduce7.gif""style=""height:400px;""></stim_listB>",is seducing,,,,,,
null,"<div style=""font-size:60px;"">+</div>",,html-keyboard-response,54,180388,0.0-13.0-0.6,71750,List1B,white,woman,,,,null,,,,,,,,,
null,"<img src=""stim_listB/seduce4.gif""style=""height:400px;""></stim_listB>",,html-keyboard-response,55,182394,0.0-13.0-1.6,71750,List1B,white,woman,,,,null,,,,,,,,,
null,is being seduced by,,html-keyboard-response,56,184399,0.0-13.0-2.6,71750,List1B,white,woman,,,,null,,,,,,,,,
4420.5,,,survey-text,57,188826,0.0-13.0-3.6,71750,List1B,white,woman,,,,,"{""Q0"":""dave is being seduced by ruth""}","<img src=""stim_listB/seduce4.gif""style=""height:400px;""></stim_listB>",is being seduced by,,,,,,
null,"<div style=""font-size:60px;"">+</div>",,html-keyboard-response,58,189327,0.0-13.0-0.7,71750,List1B,white,woman,,,,null,,,,,,,,,
null,"<img src=""stim_listB/oppose7.gif""style=""height:400px;""></stim_listB>",,html-keyboard-response,59,191333,0.0-13.0-1.7,71750,List1B,white,woman,,,,null,,,,,,,,,
null,is opposing,,html-keyboard-response,60,193338,0.0-13.0-2.7,71750,List1B,white,woman,,,,null,,,,,,,,,
3404,,,survey-text,61,196748,0.0-13.0-3.7,71750,List1B,white,woman,,,,,"{""Q0"":""kate is opposing jane""}","<img src=""stim_listB/oppose7.gif""style=""height:400px;""></stim_listB>",is opposing,,,,,,
null,"<div style=""font-size:60px;"">+</div>",,html-keyboard-response,62,197250,0.0-13.0-0.8,71750,List1B,white,woman,,,,null,,,,,,,,,
null,"<img src=""stim_listB/shout3.gif""style=""height:400px;""></stim_listB>",,html-keyboard-response,63,199258,0.0-13.0-1.8,71750,List1B,white,woman,,,,null,,,,,,,,,
null,is shouting at,,html-keyboard-response,64,201262,0.0-13.0-2.8,71750,List1B,white,woman,,,,null,,,,,,,,,
4641.4,,,survey-text,65,205907,0.0-13.0-3.8,71750,List1B,white,woman,,,,,"{""Q0"":""ruth is shouting at luke""}","<img src=""stim_listB/shout3.gif""style=""height:400px;""></stim_listB>",is shouting at,,,,,,
null,"<div style=""font-size:60px;"">+</div>",,html-keyboard-response,66,206410,0.0-13.0-0.9,71750,List1B,white,woman,,,,null,,,,,,,,,
null,"<img src=""stim_listB/greet6.gif""style=""height:400px;""></stim_listB>",,html-keyboard-response,67,208415,0.0-13.0-1.9,71750,List1B,white,woman,,,,null,,,,,,,,,
null,is being greeted by,,html-keyboard-response,68,210421,0.0-13.0-2.9,71750,List1B,white,woman,,,,null,,,,,,,,,
4394.7,,,survey-text,69,214821,0.0-13.0-3.9,71750,List1B,white,woman,,,,,"{""Q0"":""dave is being greeted by fred""}","<img src=""stim_listB/greet6.gif""style=""height:400px;""></stim_listB>",is being greeted by,,,,,,
null,"<div style=""font-size:60px;"">+</div>",,html-keyboard-response,70,215324,0.0-13.0-0.10,71750,List1B,white,woman,,,,null,,,,,,,,,
null,"<img src=""stim_listB/look5.gif""style=""height:400px;""></stim_listB>",,html-keyboard-response,71,217332,0.0-13.0-1.10,71750,List1B,white,woman,,,,null,,,,,,,,,
null,is looking at,,html-keyboard-response,72,219337,0.0-13.0-2.10,71750,List1B,white,woman,,,,null,,,,,,,,,
3499.3,,,survey-text,73,222843,0.0-13.0-3.10,71750,List1B,white,woman,,,,,"{""Q0"":""luke is looking at fred""}","<img src=""stim_listB/look5.gif""style=""height:400px;""></stim_listB>",is looking at,,,,,,
null,"<div style=""font-size:60px;"">+</div>",,html-keyboard-response,74,223346,0.0-13.0-0.11,71750,List1B,white,woman,,,,null,,,,,,,,,
null,"<img src=""stim_listB/shout5.gif""style=""height:400px;""></stim_listB>",,html-keyboard-response,75,225353,0.0-13.0-1.11,71750,List1B,white,woman,,,,null,,,,,,,,,
null,is shouting at,,html-keyboard-response,76,227358,0.0-13.0-2.11,71750,List1B,white,woman,,,,null,,,,,,,,,
4819.7,,,survey-text,77,232184,0.0-13.0-3.11,71750,List1B,white,woman,,,,,"{""Q0"":""fred is shouting at luke""}","<img src=""stim_listB/shout5.gif""style=""height:400px;""></stim_listB>",is shouting at,,,,,,
null,"<div style=""font-size:60px;"">+</div>",,html-keyboard-response,78,232687,0.0-13.0-0.12,71750,List1B,white,woman,,,,null,,,,,,,,,
null,"<img src=""stim_listB/hug8.gif""style=""height:400px;""></stim_listB>",,html-keyboard-response,79,234691,0.0-13.0-1.12,71750,List1B,white,woman,,,,null,,,,,,,,,
null,is being hugged by,,html-keyboard-response,80,236696,0.0-13.0-2.12,71750,List1B,white,woman,,,,null,,,,,,,,,
3984.7,,,survey-text,81,240687,0.0-13.0-3.12,71750,List1B,white,woman,,,,,"{""Q0"":""kate is being hugged by jane""}","<img src=""stim_listB/hug8.gif""style=""height:400px;""></stim_listB>",is being hugged by,,,,,,
null,"<div style=""font-size:60px;"">+</div>",,html-keyboard-response,82,241190,0.0-13.0-0.13,71750,List1B,white,woman,,,,null,,,,,,,,,
null,"<img src=""stim_listB/look4.gif""style=""height:400px;""></stim_listB>",,html-keyboard-response,83,243197,0.0-13.0-1.13,71750,List1B,white,woman,,,,null,,,,,,,,,
null,is being looked at by,,html-keyboard-response,84,245204,0.0-13.0-2.13,71750,List1B,white,woman,,,,null,,,,,,,,,
4420.8,,,survey-text,85,249630,0.0-13.0-3.13,71750,List1B,white,woman,,,,,"{""Q0"":""ruth is being looked at by dave""}","<img src=""stim_listB/look4.gif""style=""height:400px;""></stim_listB>",is being looked at by,,,,,,
null,"<div style=""font-size:60px;"">+</div>",,html-keyboard-response,86,250132,0.0-13.0-0.14,71750,List1B,white,woman,,,,null,,,,,,,,,
null,"<img src=""stim_listB/greet1.gif""style=""height:400px;""></stim_listB>",,html-keyboard-response,87,252137,0.0-13.0-1.14,71750,List1B,white,woman,,,,null,,,,,,,,,
null,is greeting,,html-keyboard-response,88,254141,0.0-13.0-2.14,71750,List1B,white,woman,,,,null,,,,,,,,,
3219.2,,,survey-text,89,257366,0.0-13.0-3.14,71750,List1B,white,woman,,,,,"{""Q0"":""beth is greeting mike""}","<img src=""stim_listB/greet1.gif""style=""height:400px;""></stim_listB>",is greeting,,,,,,
null,"<div style=""font-size:60px;"">+</div>",,html-keyboard-response,90,257870,0.0-13.0-0.15,71750,List1B,white,woman,,,,null,,,,,,,,,
null,"<img src=""stim_listB/look8.gif""style=""height:400px;""></stim_listB>",,html-keyboard-response,91,259876,0.0-13.0-1.15,71750,List1B,white,woman,,,,null,,,,,,,,,
null,is being looked at by,,html-keyboard-response,92,261879,0.0-13.0-2.15,71750,List1B,white,woman,,,,null,,,,,,,,,
4502.6,,,survey-text,93,266386,0.0-13.0-3.15,71750,List1B,white,woman,,,,,"{""Q0"":""jane is being looked at by kate""}","<img src=""stim_listB/look8.gif""style=""height:400px;""></stim_listB>",is being looked at by,,,,,,
null,"<div style=""font-size:60px;"">+</div>",,html-keyboard-response,94,266888,0.0-13.0-0.16,71750,List1B,white,woman,,,,null,,,,,,,,,
null,"<img src=""stim_listB/look1.gif""style=""height:400px;""></stim_listB>",,html-keyboard-response,95,268892,0.0-13.0-1.16,71750,List1B,white,woman,,,,null,,,,,,,,,
null,is looking at,,html-keyboard-response,96,270897,0.0-13.0-2.16,71750,List1B,white,woman,,,,null,,,,,,,,,
5616.4,,,survey-text,97,276516,0.0-13.0-3.16,71750,List1B,white,woman,,,,,"{""Q0"":""beth is being looked at by fred""}","<img src=""stim_listB/look1.gif""style=""height:400px;""></stim_listB>",is looking at,,,,,,
null,"<div style=""font-size:60px;"">+</div>",,html-keyboard-response,98,277019,0.0-13.0-0.17,71750,List1B,white,woman,,,,null,,,,,,,,,
null,"<img src=""stim_listB/touch6.gif""style=""height:400px;""></stim_listB>",,html-keyboard-response,99,279025,0.0-13.0-1.17,71750,List1B,white,woman,,,,null,,,,,,,,,
null,is being touched by,,html-keyboard-response,100,281030,0.0-13.0-2.17,71750,List1B,white,woman,,,,null,,,,,,,,,
4712.4,,,survey-text,101,285748,0.0-13.0-3.17,71750,List1B,white,woman,,,,,"{""Q0"":""luke is being touched by fred""}","<img src=""stim_listB/touch6.gif""style=""height:400px;""></stim_listB>",is being touched by,,,,,,
null,"<div style=""font-size:60px;"">+</div>",,html-keyboard-response,102,286251,0.0-13.0-0.18,71750,List1B,white,woman,,,,null,,,,,,,,,
null,"<img src=""stim_listB/seduce5.gif""style=""height:400px;""></stim_listB>",,html-keyboard-response,103,288257,0.0-13.0-1.18,71750,List1B,white,woman,,,,null,,,,,,,,,
null,is seducing,,html-keyboard-response,104,290262,0.0-13.0-2.18,71750,List1B,white,woman,,,,null,,,,,,,,,
3614.6,,,survey-text,105,293882,0.0-13.0-3.18,71750,List1B,white,woman,,,,,"{""Q0"":""dave is seducing fred""}","<img src=""stim_listB/seduce5.gif""style=""height:400px;""></stim_listB>",is seducing,,,,,,
null,"<div style=""font-size:60px;"">+</div>",,html-keyboard-response,106,294386,0.0-13.0-0.19,71750,List1B,white,woman,,,,null,,,,,,,,,
null,"<img src=""stim_listB/seduce8.gif""style=""height:400px;""></stim_listB>",,html-keyboard-response,107,296392,0.0-13.0-1.19,71750,List1B,white,woman,,,,null,,,,,,,,,
null,is being seduced by,,html-keyboard-response,108,298395,0.0-13.0-2.19,71750,List1B,white,woman,,,,null,,,,,,,,,
5360.5,,,survey-text,109,303761,0.0-13.0-3.19,71750,List1B,white,woman,,,,,"{""Q0"":""kate is being seduced by ruth""}","<img src=""stim_listB/seduce8.gif""style=""height:400px;""></stim_listB>",is being seduced by,,,,,,
6289.1,"<img src='img/portrait_matrix_list1.jpg' style='width:900px;height:500px;''></img><p>If you have memorised all the portraits and names and are ready to start, press Continue.</p><p><strong>Please note: Your memory of these faces will be tested 4 times during this experiment.</strong></p>",0,html-button-response,110,310053,0.0-14.0-0.0,71750,List1B,white,woman,,,,,,,,,,,,,
2157.4,"<img src=""portrait/WW2.jpg""style=""height:400px;""></img>",3,html-button-response,111,313217,0.0-14.0-1.0,71750,List1B,white,woman,,TRUE,3,,,,,,,,,,
null,CORRECT,,html-keyboard-response,112,314725,0.0-14.0-2.0-0.0,71750,List1B,white,woman,,,,null,,,,,,,,,
2589.2,"<img src=""portrait/BM2.jpg""style=""height:400px;""></img>",5,html-button-response,113,317317,0.0-14.0-4.0,71750,List1B,white,woman,,TRUE,5,,,,,,,,,,
null,CORRECT,,html-keyboard-response,114,318826,0.0-14.0-5.0-0.0,71750,List1B,white,woman,,,,null,,,,,,,,,
1945.2,"<img src=""portrait/BW1.jpg""style=""height:400px;""></img>",0,html-button-response,115,320774,0.0-14.0-7.0,71750,List1B,white,woman,,TRUE,0,,,,,,,,,,
null,CORRECT,,html-keyboard-response,116,322282,0.0-14.0-8.0-0.0,71750,List1B,white,woman,,,,null,,,,,,,,,
2310.9,"<img src=""portrait/WM1.jpg""style=""height:400px;""></img>",6,html-button-response,117,324596,0.0-14.0-10.0,71750,List1B,white,woman,,TRUE,6,,,,,,,,,,
null,CORRECT,,html-keyboard-response,118,326106,0.0-14.0-11.0-0.0,71750,List1B,white,woman,,,,null,,,,,,,,,
1520.1,"<img src=""portrait/BM1.jpg""style=""height:400px;""></img>",4,html-button-response,119,327629,0.0-14.0-13.0,71750,List1B,white,woman,,TRUE,4,,,,,,,,,,
null,CORRECT,,html-keyboard-response,120,329135,0.0-14.0-14.0-0.0,71750,List1B,white,woman,,,,null,,,,,,,,,
1759.4,"<img src=""portrait/WM2.jpg""style=""height:400px;""></img>",7,html-button-response,121,330898,0.0-14.0-16.0,71750,List1B,white,woman,,TRUE,7,,,,,,,,,,
null,CORRECT,,html-keyboard-response,122,332409,0.0-14.0-17.0-0.0,71750,List1B,white,woman,,,,null,,,,,,,,,
1543,"<img src=""portrait/BW2.jpg""style=""height:400px;""></img>",2,html-button-response,123,333955,0.0-14.0-19.0,71750,List1B,white,woman,,TRUE,2,,,,,,,,,,
null,CORRECT,,html-keyboard-response,124,335466,0.0-14.0-20.0-0.0,71750,List1B,white,woman,,,,null,,,,,,,,,
2031.3,"<img src=""portrait/WW1.jpg""style=""height:400px;""></img>",1,html-button-response,125,337499,0.0-14.0-22.0,71750,List1B,white,woman,,TRUE,1,,,,,,,,,,
null,CORRECT,,html-keyboard-response,126,339006,0.0-14.0-23.0-0.0,71750,List1B,white,woman,,,,null,,,,,,,,,
968.6,<p>You got 8 out of 8 right first time. Press Continue.</p>,0,html-button-response,127,339978,0.0-14.0-25.0,71750,List1B,white,woman,,,,,,,,,,,,,
null,"<div style=""font-size:60px;"">+</div>",,html-keyboard-response,128,341483,0.0-15.0-0.0,71750,List1B,white,woman,,,,null,,,,,,,,,
null,"<img src=""stim_listB/copy4.gif""style=""height:400px;""></stim_listB>",,html-keyboard-response,129,343492,0.0-15.0-1.0,71750,List1B,white,woman,,,,null,,,,,,,,,
null,is being copied by,,html-keyboard-response,130,345497,0.0-15.0-2.0,71750,List1B,white,woman,,,,null,,,,,,,,,
4057.6,,,survey-text,131,349560,0.0-15.0-3.0,71750,List1B,white,woman,,,,,"{""Q0"":""luke is being copied by ruth""}","<img src=""stim_listB/copy4.gif""style=""height:400px;""></stim_listB>",is being copied by,,,,,,
null,"<div style=""font-size:60px;"">+</div>",,html-keyboard-response,132,350063,0.0-15.0-0.1,71750,List1B,white,woman,,,,null,,,,,,,,,
null,"<img src=""stim_listB/hug3.gif""style=""height:400px;""></stim_listB>",,html-keyboard-response,133,352068,0.0-15.0-1.1,71750,List1B,white,woman,,,,null,,,,,,,,,
null,is hugging,,html-keyboard-response,134,354073,0.0-15.0-2.1,71750,List1B,white,woman,,,,null,,,,,,,,,
3602.5,,,survey-text,135,357682,0.0-15.0-3.1,71750,List1B,white,woman,,,,,"{""Q0"":""luke is hugging ruth""}","<img src=""stim_listB/hug3.gif""style=""height:400px;""></stim_listB>",is hugging,,,,,,
null,"<div style=""font-size:60px;"">+</div>",,html-keyboard-response,136,358185,0.0-15.0-0.2,71750,List1B,white,woman,,,,null,,,,,,,,,
null,"<img src=""stim_listB/oppose5.gif""style=""height:400px;""></stim_listB>",,html-keyboard-response,137,360190,0.0-15.0-1.2,71750,List1B,white,woman,,,,null,,,,,,,,,
null,is opposing,,html-keyboard-response,138,362195,0.0-15.0-2.2,71750,List1B,white,woman,,,,null,,,,,,,,,
4313.3,,,survey-text,139,366514,0.0-15.0-3.2,71750,List1B,white,woman,,,,,"{""Q0"":""dave is opposing mike""}","<img src=""stim_listB/oppose5.gif""style=""height:400px;""></stim_listB>",is opposing,,,,,,
null,"<div style=""font-size:60px;"">+</div>",,html-keyboard-response,140,367018,0.0-15.0-0.3,71750,List1B,white,woman,,,,null,,,,,,,,,
null,"<img src=""stim_listB/kiss8.gif""style=""height:400px;""></stim_listB>",,html-keyboard-response,141,369022,0.0-15.0-1.3,71750,List1B,white,woman,,,,null,,,,,,,,,
null,is being kissed by,,html-keyboard-response,142,371027,0.0-15.0-2.3,71750,List1B,white,woman,,,,null,,,,,,,,,
4600.7,,,survey-text,143,375634,0.0-15.0-3.3,71750,List1B,white,woman,,,,,"{""Q0"":""kate is being kissed by jane""}","<img src=""stim_listB/kiss8.gif""style=""height:400px;""></stim_listB>",is being kissed by,,,,,,
null,"<div style=""font-size:60px;"">+</div>",,html-keyboard-response,144,376137,0.0-15.0-0.4,71750,List1B,white,woman,,,,null,,,,,,,,,
null,"<img src=""stim_listB/challenge4.gif""style=""height:400px;""></stim_listB>",,html-keyboard-response,145,378142,0.0-15.0-1.4,71750,List1B,white,woman,,,,null,,,,,,,,,
null,is being challenged by,,html-keyboard-response,146,380147,0.0-15.0-2.4,71750,List1B,white,woman,,,,null,,,,,,,,,
4380,,,survey-text,147,384532,0.0-15.0-3.4,71750,List1B,white,woman,,,,,"{""Q0"":""jane is being challenged by luke""}","<img src=""stim_listB/challenge4.gif""style=""height:400px;""></stim_listB>",is being challenged by,,,,,,
null,"<div style=""font-size:60px;"">+</div>",,html-keyboard-response,148,385035,0.0-15.0-0.5,71750,List1B,white,woman,,,,null,,,,,,,,,
null,"<img src=""stim_listB/hug4.gif""style=""height:400px;""></stim_listB>",,html-keyboard-response,149,387043,0.0-15.0-1.5,71750,List1B,white,woman,,,,null,,,,,,,,,
null,is being hugged by,,html-keyboard-response,150,389048,0.0-15.0-2.5,71750,List1B,white,woman,,,,null,,,,,,,,,
3075.4,,,survey-text,151,392129,0.0-15.0-3.5,71750,List1B,white,woman,,,,,"{""Q0"":""ruth is being hugged by dave""}","<img src=""stim_listB/hug4.gif""style=""height:400px;""></stim_listB>",is being hugged by,,,,,,
null,"<div style=""font-size:60px;"">+</div>",,html-keyboard-response,152,392632,0.0-15.0-0.6,71750,List1B,white,woman,,,,null,,,,,,,,,
null,"<img src=""stim_listB/kiss2.gif""style=""height:400px;""></stim_listB>",,html-keyboard-response,153,394636,0.0-15.0-1.6,71750,List1B,white,woman,,,,null,,,,,,,,,
null,is being kissed by,,html-keyboard-response,154,396642,0.0-15.0-2.6,71750,List1B,white,woman,,,,null,,,,,,,,,
4371.4,,,survey-text,155,401019,0.0-15.0-3.6,71750,List1B,white,woman,,,,,"{""Q0"":""kate is being kissed by mike""}","<img src=""stim_listB/kiss2.gif""style=""height:400px;""></stim_listB>",is being kissed by,,,,,,
null,"<div style=""font-size:60px;"">+</div>",,html-keyboard-response,156,401522,0.0-15.0-0.7,71750,List1B,white,woman,,,,null,,,,,,,,,
null,"<img src=""stim_listB/copy7.gif""style=""height:400px;""></stim_listB>",,html-keyboard-response,157,403527,0.0-15.0-1.7,71750,List1B,white,woman,,,,null,,,,,,,,,
null,is copying,,html-keyboard-response,158,405532,0.0-15.0-2.7,71750,List1B,white,woman,,,,null,,,,,,,,,
2746,,,survey-text,159,408283,0.0-15.0-3.7,71750,List1B,white,woman,,,,,"{""Q0"":""ruth is copying kate""}","<img src=""stim_listB/copy7.gif""style=""height:400px;""></stim_listB>",is copying,,,,,,
null,"<div style=""font-size:60px;"">+</div>",,html-keyboard-response,160,408785,0.0-15.0-0.8,71750,List1B,white,woman,,,,null,,,,,,,,,
null,"<img src=""stim_listB/touch3.gif""style=""height:400px;""></stim_listB>",,html-keyboard-response,161,410790,0.0-15.0-1.8,71750,List1B,white,woman,,,,null,,,,,,,,,
null,is touching,,html-keyboard-response,162,412792,0.0-15.0-2.8,71750,List1B,white,woman,,,,null,,,,,,,,,
2217.6,,,survey-text,163,415016,0.0-15.0-3.8,71750,List1B,white,woman,,,,,"{""Q0"":""jane is touching dave""}","<img src=""stim_listB/touch3.gif""style=""height:400px;""></stim_listB>",is touching,,,,,,
null,"<div style=""font-size:60px;"">+</div>",,html-keyboard-response,164,415517,0.0-15.0-0.9,71750,List1B,white,woman,,,,null,,,,,,,,,
null,"<img src=""stim_listB/copy1.gif""style=""height:400px;""></stim_listB>",,html-keyboard-response,165,417521,0.0-15.0-1.9,71750,List1B,white,woman,,,,null,,,,,,,,,
null,is copying,,html-keyboard-response,166,419526,0.0-15.0-2.9,71750,List1B,white,woman,,,,null,,,,,,,,,
2308.3,,,survey-text,167,421839,0.0-15.0-3.9,71750,List1B,white,woman,,,,,"{""Q0"":""beth is copying mike""}","<img src=""stim_listB/copy1.gif""style=""height:400px;""></stim_listB>",is copying,,,,,,
null,"<div style=""font-size:60px;"">+</div>",,html-keyboard-response,168,422342,0.0-15.0-0.10,71750,List1B,white,woman,,,,null,,,,,,,,,
null,"<img src=""stim_listB/oppose3.gif""style=""height:400px;""></stim_listB>",,html-keyboard-response,169,424347,0.0-15.0-1.10,71750,List1B,white,woman,,,,null,,,,,,,,,
null,is opposing,,html-keyboard-response,170,426353,0.0-15.0-2.10,71750,List1B,white,woman,,,,null,,,,,,,,,
2437.7,,,survey-text,171,428796,0.0-15.0-3.10,71750,List1B,white,woman,,,,,"{""Q0"":""dave is opposing jane""}","<img src=""stim_listB/oppose3.gif""style=""height:400px;""></stim_listB>",is opposing,,,,,,
null,"<div style=""font-size:60px;"">+</div>",,html-keyboard-response,172,429300,0.0-15.0-0.11,71750,List1B,white,woman,,,,null,,,,,,,,,
null,"<img src=""stim_listB/seduce1.gif""style=""height:400px;""></stim_listB>",,html-keyboard-response,173,431307,0.0-15.0-1.11,71750,List1B,white,woman,,,,null,,,,,,,,,
null,is seducing,,html-keyboard-response,174,433312,0.0-15.0-2.11,71750,List1B,white,woman,,,,null,,,,,,,,,
3444,,,survey-text,175,436762,0.0-15.0-3.11,71750,List1B,white,woman,,,,,"{""Q0"":""fred is seducing kate""}","<img src=""stim_listB/seduce1.gif""style=""height:400px;""></stim_listB>",is seducing,,,,,,
null,"<div style=""font-size:60px;"">+</div>",,html-keyboard-response,176,437264,0.0-15.0-0.12,71750,List1B,white,woman,,,,null,,,,,,,,,
null,"<img src=""stim_listB/greet3.gif""style=""height:400px;""></stim_listB>",,html-keyboard-response,177,439269,0.0-15.0-1.12,71750,List1B,white,woman,,,,null,,,,,,,,,
null,is greeting,,html-keyboard-response,178,441275,0.0-15.0-2.12,71750,List1B,white,woman,,,,null,,,,,,,,,
2540.3,,,survey-text,179,443821,0.0-15.0-3.12,71750,List1B,white,woman,,,,,"{""Q0"":""ruth is greeting dave""}","<img src=""stim_listB/greet3.gif""style=""height:400px;""></stim_listB>",is greeting,,,,,,
null,"<div style=""font-size:60px;"">+</div>",,html-keyboard-response,180,444323,0.0-15.0-0.13,71750,List1B,white,woman,,,,null,,,,,,,,,
null,"<img src=""stim_listB/seduce2.gif""style=""height:400px;""></stim_listB>",,html-keyboard-response,181,446330,0.0-15.0-1.13,71750,List1B,white,woman,,,,null,,,,,,,,,
null,is being seduced by,,html-keyboard-response,182,448336,0.0-15.0-2.13,71750,List1B,white,woman,,,,null,,,,,,,,,
4594.5,,,survey-text,183,452936,0.0-15.0-3.13,71750,List1B,white,woman,,,,,"{""Q0"":""beth is being seduced by mike""}","<img src=""stim_listB/seduce2.gif""style=""height:400px;""></stim_listB>",is being seduced by,,,,,,
null,"<div style=""font-size:60px;"">+</div>",,html-keyboard-response,184,453439,0.0-15.0-0.14,71750,List1B,white,woman,,,,null,,,,,,,,,
null,"<img src=""stim_listB/seduce6.gif""style=""height:400px;""></stim_listB>",,html-keyboard-response,185,455445,0.0-15.0-1.14,71750,List1B,white,woman,,,,null,,,,,,,,,
null,is being seduced by,,html-keyboard-response,186,457450,0.0-15.0-2.14,71750,List1B,white,woman,,,,null,,,,,,,,,
9155.9,,,survey-text,187,466610,0.0-15.0-3.14,71750,List1B,white,woman,,,,,"{""Q0"":""mike is being seduced by luke""}","<img src=""stim_listB/seduce6.gif""style=""height:400px;""></stim_listB>",is being seduced by,,,,,,
null,"<div style=""font-size:60px;"">+</div>",,html-keyboard-response,188,467114,0.0-15.0-0.15,71750,List1B,white,woman,,,,null,,,,,,,,,
null,"<img src=""stim_listB/challenge1.gif""style=""height:400px;""></stim_listB>",,html-keyboard-response,189,469119,0.0-15.0-1.15,71750,List1B,white,woman,,,,null,,,,,,,,,
null,is challenging,,html-keyboard-response,190,471123,0.0-15.0-2.15,71750,List1B,white,woman,,,,null,,,,,,,,,
6267.8,,,survey-text,191,477394,0.0-15.0-3.15,71750,List1B,white,woman,,,,,"{""Q0"":""beth is challenging mike""}","<img src=""stim_listB/challenge1.gif""style=""height:400px;""></stim_listB>",is challenging,,,,,,
null,"<div style=""font-size:60px;"">+</div>",,html-keyboard-response,192,477897,0.0-15.0-0.16,71750,List1B,white,woman,,,,null,,,,,,,,,
null,"<img src=""stim_listB/kiss7.gif""style=""height:400px;""></stim_listB>",,html-keyboard-response,193,479902,0.0-15.0-1.16,71750,List1B,white,woman,,,,null,,,,,,,,,
null,is kissing,,html-keyboard-response,194,481908,0.0-15.0-2.16,71750,List1B,white,woman,,,,null,,,,,,,,,
2719.6,,,survey-text,195,484633,0.0-15.0-3.16,71750,List1B,white,woman,,,,,"{""Q0"":""ruth is kissing beth""}","<img src=""stim_listB/kiss7.gif""style=""height:400px;""></stim_listB>",is kissing,,,,,,
null,"<div style=""font-size:60px;"">+</div>",,html-keyboard-response,196,485135,0.0-15.0-0.17,71750,List1B,white,woman,,,,null,,,,,,,,,
null,"<img src=""stim_listB/hug5.gif""style=""height:400px;""></stim_listB>",,html-keyboard-response,197,487140,0.0-15.0-1.17,71750,List1B,white,woman,,,,null,,,,,,,,,
null,is hugging,,html-keyboard-response,198,489144,0.0-15.0-2.17,71750,List1B,white,woman,,,,null,,,,,,,,,
7072.8,,,survey-text,199,496220,0.0-15.0-3.17,71750,List1B,white,woman,,,,,"{""Q0"":""luke is hugging fred""}","<img src=""stim_listB/hug5.gif""style=""height:400px;""></stim_listB>",is hugging,,,,,,
null,"<div style=""font-size:60px;"">+</div>",,html-keyboard-response,200,496723,0.0-15.0-0.18,71750,List1B,white,woman,,,,null,,,,,,,,,
null,"<img src=""stim_listB/kiss1.gif""style=""height:400px;""></stim_listB>",,html-keyboard-response,201,498729,0.0-15.0-1.18,71750,List1B,white,woman,,,,null,,,,,,,,,
null,is kissing,,html-keyboard-response,202,500734,0.0-15.0-2.18,71750,List1B,white,woman,,,,null,,,,,,,,,
3787.7,,,survey-text,203,504526,0.0-15.0-3.18,71750,List1B,white,woman,,,,,"{""Q0"":""fred is kissing beth""}","<img src=""stim_listB/kiss1.gif""style=""height:400px;""></stim_listB>",is kissing,,,,,,
null,"<div style=""font-size:60px;"">+</div>",,html-keyboard-response,204,505029,0.0-15.0-0.19,71750,List1B,white,woman,,,,null,,,,,,,,,
null,"<img src=""stim_listB/greet5.gif""style=""height:400px;""></stim_listB>",,html-keyboard-response,205,507037,0.0-15.0-1.19,71750,List1B,white,woman,,,,null,,,,,,,,,
null,is greeting,,html-keyboard-response,206,509043,0.0-15.0-2.19,71750,List1B,white,woman,,,,null,,,,,,,,,
2602.2,,,survey-text,207,511651,0.0-15.0-3.19,71750,List1B,white,woman,,,,,"{""Q0"":""mike is greeting luke""}","<img src=""stim_listB/greet5.gif""style=""height:400px;""></stim_listB>",is greeting,,,,,,
3299.6,"<img src='img/portrait_matrix_list1.jpg' style='width:900px;height:500px;''></img><p>If you have memorised all the portraits and names and are ready to start, press Continue.</p><p><strong>Please note: Your memory of these faces will be tested 4 times during this experiment.</strong></p>",0,html-button-response,208,514954,0.0-16.0-0.0,71750,List1B,white,woman,,,,,,,,,,,,,
2512.4,"<img src=""portrait/WM1.jpg""style=""height:400px;""></img>",6,html-button-response,209,518476,0.0-16.0-1.0,71750,List1B,white,woman,,TRUE,6,,,,,,,,,,
null,CORRECT,,html-keyboard-response,210,519980,0.0-16.0-2.0-0.0,71750,List1B,white,woman,,,,null,,,,,,,,,
2573.2,"<img src=""portrait/BW2.jpg""style=""height:400px;""></img>",2,html-button-response,211,522558,0.0-16.0-4.0,71750,List1B,white,woman,,TRUE,2,,,,,,,,,,
null,CORRECT,,html-keyboard-response,212,524064,0.0-16.0-5.0-0.0,71750,List1B,white,woman,,,,null,,,,,,,,,
1060.3,"<img src=""portrait/BW1.jpg""style=""height:400px;""></img>",0,html-button-response,213,525127,0.0-16.0-7.0,71750,List1B,white,woman,,TRUE,0,,,,,,,,,,
null,CORRECT,,html-keyboard-response,214,526638,0.0-16.0-8.0-0.0,71750,List1B,white,woman,,,,null,,,,,,,,,
2348.2,"<img src=""portrait/BM1.jpg""style=""height:400px;""></img>",4,html-button-response,215,528990,0.0-16.0-10.0,71750,List1B,white,woman,,TRUE,4,,,,,,,,,,
null,CORRECT,,html-keyboard-response,216,530498,0.0-16.0-11.0-0.0,71750,List1B,white,woman,,,,null,,,,,,,,,
1943.1,"<img src=""portrait/BM2.jpg""style=""height:400px;""></img>",5,html-button-response,217,532445,0.0-16.0-13.0,71750,List1B,white,woman,,TRUE,5,,,,,,,,,,
null,CORRECT,,html-keyboard-response,218,533954,0.0-16.0-14.0-0.0,71750,List1B,white,woman,,,,null,,,,,,,,,
1618,"<img src=""portrait/WW2.jpg""style=""height:400px;""></img>",3,html-button-response,219,535574,0.0-16.0-16.0,71750,List1B,white,woman,,TRUE,3,,,,,,,,,,
null,CORRECT,,html-keyboard-response,220,537081,0.0-16.0-17.0-0.0,71750,List1B,white,woman,,,,null,,,,,,,,,
1409.3,"<img src=""portrait/WW1.jpg""style=""height:400px;""></img>",1,html-button-response,221,538493,0.0-16.0-19.0,71750,List1B,white,woman,,TRUE,1,,,,,,,,,,
null,CORRECT,,html-keyboard-response,222,540001,0.0-16.0-20.0-0.0,71750,List1B,white,woman,,,,null,,,,,,,,,
1545.4,"<img src=""portrait/WM2.jpg""style=""height:400px;""></img>",7,html-button-response,223,541549,0.0-16.0-22.0,71750,List1B,white,woman,,TRUE,7,,,,,,,,,,
null,CORRECT,,html-keyboard-response,224,543057,0.0-16.0-23.0-0.0,71750,List1B,white,woman,,,,null,,,,,,,,,
15171.3,<p>You got 8 out of 8 right first time. Press Continue.</p>,0,html-button-response,225,558231,0.0-16.0-25.0,71750,List1B,white,woman,,,,,,,,,,,,,
null,"<div style=""font-size:60px;"">+</div>",,html-keyboard-response,226,559734,0.0-17.0-0.0,71750,List1B,white,woman,,,,null,,,,,,,,,
null,"<img src=""stim_listB/challenge6.gif""style=""height:400px;""></stim_listB>",,html-keyboard-response,227,561739,0.0-17.0-1.0,71750,List1B,white,woman,,,,null,,,,,,,,,
null,is being challenged by,,html-keyboard-response,228,563744,0.0-17.0-2.0,71750,List1B,white,woman,,,,null,,,,,,,,,
3774.3,,,survey-text,229,567525,0.0-17.0-3.0,71750,List1B,white,woman,,,,,"{""Q0"":""dave is being challenged by fred""}","<img src=""stim_listB/challenge6.gif""style=""height:400px;""></stim_listB>",is being challenged by,,,,,,
null,"<div style=""font-size:60px;"">+</div>",,html-keyboard-response,230,568027,0.0-17.0-0.1,71750,List1B,white,woman,,,,null,,,,,,,,,
null,"<img src=""stim_listB/kiss5.gif""style=""height:400px;""></stim_listB>",,html-keyboard-response,231,570032,0.0-17.0-1.1,71750,List1B,white,woman,,,,null,,,,,,,,,
null,is kissing,,html-keyboard-response,232,572037,0.0-17.0-2.1,71750,List1B,white,woman,,,,null,,,,,,,,,
3413.5,,,survey-text,233,575457,0.0-17.0-3.1,71750,List1B,white,woman,,,,,"{""Q0"":""fred is kissing luke""}","<img src=""stim_listB/kiss5.gif""style=""height:400px;""></stim_listB>",is kissing,,,,,,
null,"<div style=""font-size:60px;"">+</div>",,html-keyboard-response,234,575959,0.0-17.0-0.2,71750,List1B,white,woman,,,,null,,,,,,,,,
null,"<img src=""stim_listB/challenge7.gif""style=""height:400px;""></stim_listB>",,html-keyboard-response,235,577964,0.0-17.0-1.2,71750,List1B,white,woman,,,,null,,,,,,,,,
null,is challenging,,html-keyboard-response,236,579968,0.0-17.0-2.2,71750,List1B,white,woman,,,,null,,,,,,,,,
3737.3,,,survey-text,237,583711,0.0-17.0-3.2,71750,List1B,white,woman,,,,,"{""Q0"":""kate is challenging ruth""}","<img src=""stim_listB/challenge7.gif""style=""height:400px;""></stim_listB>",is challenging,,,,,,
null,"<div style=""font-size:60px;"">+</div>",,html-keyboard-response,238,584213,0.0-17.0-0.3,71750,List1B,white,woman,,,,null,,,,,,,,,
null,"<img src=""stim_listB/copy3.gif""style=""height:400px;""></stim_listB>",,html-keyboard-response,239,586218,0.0-17.0-1.3,71750,List1B,white,woman,,,,null,,,,,,,,,
null,is copying,,html-keyboard-response,240,588224,0.0-17.0-2.3,71750,List1B,white,woman,,,,null,,,,,,,,,
3122.6,,,survey-text,241,591352,0.0-17.0-3.3,71750,List1B,white,woman,,,,,"{""Q0"":""ruth is copying dave""}","<img src=""stim_listB/copy3.gif""style=""height:400px;""></stim_listB>",is copying,,,,,,
null,"<div style=""font-size:60px;"">+</div>",,html-keyboard-response,242,591855,0.0-17.0-0.4,71750,List1B,white,woman,,,,null,,,,,,,,,
null,"<img src=""stim_listB/shout8.gif""style=""height:400px;""></stim_listB>",,html-keyboard-response,243,593861,0.0-17.0-1.4,71750,List1B,white,woman,,,,null,,,,,,,,,
null,is being shouted at by,,html-keyboard-response,244,595866,0.0-17.0-2.4,71750,List1B,white,woman,,,,null,,,,,,,,,
3499,,,survey-text,245,599371,0.0-17.0-3.4,71750,List1B,white,woman,,,,,"{""Q0"":""kate is being shouted at by jane""}","<img src=""stim_listB/shout8.gif""style=""height:400px;""></stim_listB>",is being shouted at by,,,,,,
null,"<div style=""font-size:60px;"">+</div>",,html-keyboard-response,246,599873,0.0-17.0-0.5,71750,List1B,white,woman,,,,null,,,,,,,,,
null,"<img src=""stim_listB/copy5.gif""style=""height:400px;""></stim_listB>",,html-keyboard-response,247,601880,0.0-17.0-1.5,71750,List1B,white,woman,,,,null,,,,,,,,,
null,is copying,,html-keyboard-response,248,603886,0.0-17.0-2.5,71750,List1B,white,woman,,,,null,,,,,,,,,
2472.3,,,survey-text,249,606364,0.0-17.0-3.5,71750,List1B,white,woman,,,,,"{""Q0"":""mike is copying luke""}","<img src=""stim_listB/copy5.gif""style=""height:400px;""></stim_listB>",is copying,,,,,,
null,"<div style=""font-size:60px;"">+</div>",,html-keyboard-response,250,606867,0.0-17.0-0.6,71750,List1B,white,woman,,,,null,,,,,,,,,
null,"<img src=""stim_listB/look7.gif""style=""height:400px;""></stim_listB>",,html-keyboard-response,251,608873,0.0-17.0-1.6,71750,List1B,white,woman,,,,null,,,,,,,,,
null,is looking at,,html-keyboard-response,252,610880,0.0-17.0-2.6,71750,List1B,white,woman,,,,null,,,,,,,,,
2458.1,,,survey-text,253,613342,0.0-17.0-3.6,71750,List1B,white,woman,,,,,"{""Q0"":""beth is looking at ruth""}","<img src=""stim_listB/look7.gif""style=""height:400px;""></stim_listB>",is looking at,,,,,,
null,"<div style=""font-size:60px;"">+</div>",,html-keyboard-response,254,613844,0.0-17.0-0.7,71750,List1B,white,woman,,,,null,,,,,,,,,
null,"<img src=""stim_listB/hug2.gif""style=""height:400px;""></stim_listB>",,html-keyboard-response,255,615849,0.0-17.0-1.7,71750,List1B,white,woman,,,,null,,,,,,,,,
null,is being hugged by,,html-keyboard-response,256,617854,0.0-17.0-2.7,71750,List1B,white,woman,,,,null,,,,,,,,,
3645.6,,,survey-text,257,621506,0.0-17.0-3.7,71750,List1B,white,woman,,,,,"{""Q0"":""kate is being hugged by mike""}","<img src=""stim_listB/hug2.gif""style=""height:400px;""></stim_listB>",is being hugged by,,,,,,
null,"<div style=""font-size:60px;"">+</div>",,html-keyboard-response,258,622009,0.0-17.0-0.8,71750,List1B,white,woman,,,,null,,,,,,,,,
null,"<img src=""stim_listB/greet7.gif""style=""height:400px;""></stim_listB>",,html-keyboard-response,259,624014,0.0-17.0-1.8,71750,List1B,white,woman,,,,null,,,,,,,,,
null,is greeting,,html-keyboard-response,260,626019,0.0-17.0-2.8,71750,List1B,white,woman,,,,null,,,,,,,,,
3199.6,,,survey-text,261,629226,0.0-17.0-3.8,71750,List1B,white,woman,,,,,"{""Q0"":""ruth is greeting kate""}","<img src=""stim_listB/greet7.gif""style=""height:400px;""></stim_listB>",is greeting,,,,,,
null,"<div style=""font-size:60px;"">+</div>",,html-keyboard-response,262,629728,0.0-17.0-0.9,71750,List1B,white,woman,,,,null,,,,,,,,,
null,"<img src=""stim_listB/kiss4.gif""style=""height:400px;""></stim_listB>",,html-keyboard-response,263,631731,0.0-17.0-1.9,71750,List1B,white,woman,,,,null,,,,,,,,,
null,is being kissed by,,html-keyboard-response,264,633736,0.0-17.0-2.9,71750,List1B,white,woman,,,,null,,,,,,,,,
3367.7,,,survey-text,265,637110,0.0-17.0-3.9,71750,List1B,white,woman,,,,,"{""Q0"":""jane is being kissed by dave""}","<img src=""stim_listB/kiss4.gif""style=""height:400px;""></stim_listB>",is being kissed by,,,,,,
null,"<div style=""font-size:60px;"">+</div>",,html-keyboard-response,266,637612,0.0-17.0-0.10,71750,List1B,white,woman,,,,null,,,,,,,,,
null,"<img src=""stim_listB/greet4.gif""style=""height:400px;""></stim_listB>",,html-keyboard-response,267,639619,0.0-17.0-1.10,71750,List1B,white,woman,,,,null,,,,,,,,,
null,is being greeted by,,html-keyboard-response,268,641624,0.0-17.0-2.10,71750,List1B,white,woman,,,,null,,,,,,,,,
5431.8,,,survey-text,269,647062,0.0-17.0-3.10,71750,List1B,white,woman,,,,,"{""Q0"":""jane is being greeted by luke""}","<img src=""stim_listB/greet4.gif""style=""height:400px;""></stim_listB>",is being greeted by,,,,,,
null,"<div style=""font-size:60px;"">+</div>",,html-keyboard-response,270,647564,0.0-17.0-0.11,71750,List1B,white,woman,,,,null,,,,,,,,,
null,"<img src=""stim_listB/oppose6.gif""style=""height:400px;""></stim_listB>",,html-keyboard-response,271,649570,0.0-17.0-1.11,71750,List1B,white,woman,,,,null,,,,,,,,,
null,is being opposed by,,html-keyboard-response,272,651576,0.0-17.0-2.11,71750,List1B,white,woman,,,,null,,,,,,,,,
3404.5,,,survey-text,273,654986,0.0-17.0-3.11,71750,List1B,white,woman,,,,,"{""Q0"":""luke is being opposed by fred""}","<img src=""stim_listB/oppose6.gif""style=""height:400px;""></stim_listB>",is being opposed by,,,,,,
null,"<div style=""font-size:60px;"">+</div>",,html-keyboard-response,274,655490,0.0-17.0-0.12,71750,List1B,white,woman,,,,null,,,,,,,,,
null,"<img src=""stim_listB/challenge2.gif""style=""height:400px;""></stim_listB>",,html-keyboard-response,275,657496,0.0-17.0-1.12,71750,List1B,white,woman,,,,null,,,,,,,,,
null,is being challenged by,,html-keyboard-response,276,659501,0.0-17.0-2.12,71750,List1B,white,woman,,,,null,,,,,,,,,
5340.9,,,survey-text,277,664848,0.0-17.0-3.12,71750,List1B,white,woman,,,,,"{""Q0"":""fred is being challenged by kate""}","<img src=""stim_listB/challenge2.gif""style=""height:400px;""></stim_listB>",is being challenged by,,,,,,
null,"<div style=""font-size:60px;"">+</div>",,html-keyboard-response,278,665351,0.0-17.0-0.13,71750,List1B,white,woman,,,,null,,,,,,,,,
null,"<img src=""stim_listB/look2.gif""style=""height:400px;""></stim_listB>",,html-keyboard-response,279,667356,0.0-17.0-1.13,71750,List1B,white,woman,,,,null,,,,,,,,,
null,is being looked at by,,html-keyboard-response,280,669362,0.0-17.0-2.13,71750,List1B,white,woman,,,,null,,,,,,,,,
3404.1,,,survey-text,281,672773,0.0-17.0-3.13,71750,List1B,white,woman,,,,,"{""Q0"":""kate is being looked at by mike""}","<img src=""stim_listB/look2.gif""style=""height:400px;""></stim_listB>",is being looked at by,,,,,,
null,"<div style=""font-size:60px;"">+</div>",,html-keyboard-response,282,673275,0.0-17.0-0.14,71750,List1B,white,woman,,,,null,,,,,,,,,
null,"<img src=""stim_listB/seduce3.gif""style=""height:400px;""></stim_listB>",,html-keyboard-response,283,675282,0.0-17.0-1.14,71750,List1B,white,woman,,,,null,,,,,,,,,
null,is seducing,,html-keyboard-response,284,677287,0.0-17.0-2.14,71750,List1B,white,woman,,,,null,,,,,,,,,
3347.3,,,survey-text,285,680639,0.0-17.0-3.14,71750,List1B,white,woman,,,,,"{""Q0"":""luke is seducing jane""}","<img src=""stim_listB/seduce3.gif""style=""height:400px;""></stim_listB>",is seducing,,,,,,
null,"<div style=""font-size:60px;"">+</div>",,html-keyboard-response,286,681143,0.0-17.0-0.15,71750,List1B,white,woman,,,,null,,,,,,,,,
null,"<img src=""stim_listB/shout6.gif""style=""height:400px;""></stim_listB>",,html-keyboard-response,287,683150,0.0-17.0-1.15,71750,List1B,white,woman,,,,null,,,,,,,,,
null,is being shouted at by,,html-keyboard-response,288,685153,0.0-17.0-2.15,71750,List1B,white,woman,,,,null,,,,,,,,,
6843.4,,,survey-text,289,692003,0.0-17.0-3.15,71750,List1B,white,woman,,,,,"{""Q0"":""dave is being shouted at by mike""}","<img src=""stim_listB/shout6.gif""style=""height:400px;""></stim_listB>",is being shouted at by,,,,,,
null,"<div style=""font-size:60px;"">+</div>",,html-keyboard-response,290,692506,0.0-17.0-0.16,71750,List1B,white,woman,,,,null,,,,,,,,,
null,"<img src=""stim_listB/touch4.gif""style=""height:400px;""></stim_listB>",,html-keyboard-response,291,694512,0.0-17.0-1.16,71750,List1B,white,woman,,,,null,,,,,,,,,
null,is being touched by,,html-keyboard-response,292,696518,0.0-17.0-2.16,71750,List1B,white,woman,,,,null,,,,,,,,,
3168.2,,,survey-text,293,699693,0.0-17.0-3.16,71750,List1B,white,woman,,,,,"{""Q0"":""ruth is being touched by luke""}","<img src=""stim_listB/touch4.gif""style=""height:400px;""></stim_listB>",is being touched by,,,,,,
null,"<div style=""font-size:60px;"">+</div>",,html-keyboard-response,294,700195,0.0-17.0-0.17,71750,List1B,white,woman,,,,null,,,,,,,,,
null,"<img src=""stim_listB/oppose2.gif""style=""height:400px;""></stim_listB>",,html-keyboard-response,295,702203,0.0-17.0-1.17,71750,List1B,white,woman,,,,null,,,,,,,,,
null,is being opposed by,,html-keyboard-response,296,704208,0.0-17.0-2.17,71750,List1B,white,woman,,,,null,,,,,,,,,
4714.5,,,survey-text,297,708929,0.0-17.0-3.17,71750,List1B,white,woman,,,,,"{""Q0"":""kate is being opposed by fred""}","<img src=""stim_listB/oppose2.gif""style=""height:400px;""></stim_listB>",is being opposed by,,,,,,
null,"<div style=""font-size:60px;"">+</div>",,html-keyboard-response,298,709432,0.0-17.0-0.18,71750,List1B,white,woman,,,,null,,,,,,,,,
null,"<img src=""stim_listB/look3.gif""style=""height:400px;""></stim_listB>",,html-keyboard-response,299,711440,0.0-17.0-1.18,71750,List1B,white,woman,,,,null,,,,,,,,,
null,is looking at,,html-keyboard-response,300,713446,0.0-17.0-2.18,71750,List1B,white,woman,,,,null,,,,,,,,,
3643.6,,,survey-text,301,717095,0.0-17.0-3.18,71750,List1B,white,woman,,,,,"{""Q0"":""ruth is looking at luke""}","<img src=""stim_listB/look3.gif""style=""height:400px;""></stim_listB>",is looking at,,,,,,
null,"<div style=""font-size:60px;"">+</div>",,html-keyboard-response,302,717599,0.0-17.0-0.19,71750,List1B,white,woman,,,,null,,,,,,,,,
null,"<img src=""stim_listB/shout1.gif""style=""height:400px;""></stim_listB>",,html-keyboard-response,303,719604,0.0-17.0-1.19,71750,List1B,white,woman,,,,null,,,,,,,,,
null,is shouting at,,html-keyboard-response,304,721606,0.0-17.0-2.19,71750,List1B,white,woman,,,,null,,,,,,,,,
4597.7,,,survey-text,305,726208,0.0-17.0-3.19,71750,List1B,white,woman,,,,,"{""Q0"":""beth is shouting at fred""}","<img src=""stim_listB/shout1.gif""style=""height:400px;""></stim_listB>",is shouting at,,,,,,
2610.1,"<img src='img/portrait_matrix_list1.jpg' style='width:900px;height:500px;''></img><p>If you have memorised all the portraits and names and are ready to start, press Continue.</p><p><strong>Please note: Your memory of these faces will be tested 4 times during this experiment.</strong></p>",0,html-button-response,306,728820,0.0-18.0-0.0,71750,List1B,white,woman,,,,,,,,,,,,,
1422.7,"<img src=""portrait/BW1.jpg""style=""height:400px;""></img>",0,html-button-response,307,731248,0.0-18.0-1.0,71750,List1B,white,woman,,TRUE,0,,,,,,,,,,
null,CORRECT,,html-keyboard-response,308,732756,0.0-18.0-2.0-0.0,71750,List1B,white,woman,,,,null,,,,,,,,,
1431.3,"<img src=""portrait/WM1.jpg""style=""height:400px;""></img>",6,html-button-response,309,734190,0.0-18.0-4.0,71750,List1B,white,woman,,TRUE,6,,,,,,,,,,
null,CORRECT,,html-keyboard-response,310,735700,0.0-18.0-5.0-0.0,71750,List1B,white,woman,,,,null,,,,,,,,,
1560.8,"<img src=""portrait/BM1.jpg""style=""height:400px;""></img>",4,html-button-response,311,737263,0.0-18.0-7.0,71750,List1B,white,woman,,TRUE,4,,,,,,,,,,
null,CORRECT,,html-keyboard-response,312,738767,0.0-18.0-8.0-0.0,71750,List1B,white,woman,,,,null,,,,,,,,,
2268.8,"<img src=""portrait/BW2.jpg""style=""height:400px;""></img>",2,html-button-response,313,741038,0.0-18.0-10.0,71750,List1B,white,woman,,TRUE,2,,,,,,,,,,
null,CORRECT,,html-keyboard-response,314,742548,0.0-18.0-11.0-0.0,71750,List1B,white,woman,,,,null,,,,,,,,,
2602.5,"<img src=""portrait/WW2.jpg""style=""height:400px;""></img>",3,html-button-response,315,745153,0.0-18.0-13.0,71750,List1B,white,woman,,TRUE,3,,,,,,,,,,
null,CORRECT,,html-keyboard-response,316,746660,0.0-18.0-14.0-0.0,71750,List1B,white,woman,,,,null,,,,,,,,,
1392.9,"<img src=""portrait/WM2.jpg""style=""height:400px;""></img>",7,html-button-response,317,748056,0.0-18.0-16.0,71750,List1B,white,woman,,TRUE,7,,,,,,,,,,
null,CORRECT,,html-keyboard-response,318,749566,0.0-18.0-17.0-0.0,71750,List1B,white,woman,,,,null,,,,,,,,,
1632.1,"<img src=""portrait/WW1.jpg""style=""height:400px;""></img>",1,html-button-response,319,751202,0.0-18.0-19.0,71750,List1B,white,woman,,TRUE,1,,,,,,,,,,
null,CORRECT,,html-keyboard-response,320,752713,0.0-18.0-20.0-0.0,71750,List1B,white,woman,,,,null,,,,,,,,,
1754.2,"<img src=""portrait/BM2.jpg""style=""height:400px;""></img>",5,html-button-response,321,754470,0.0-18.0-22.0,71750,List1B,white,woman,,TRUE,5,,,,,,,,,,
null,CORRECT,,html-keyboard-response,322,755975,0.0-18.0-23.0-0.0,71750,List1B,white,woman,,,,null,,,,,,,,,
766.5,<p>You got 8 out of 8 right first time. Press Continue.</p>,0,html-button-response,323,756745,0.0-18.0-25.0,71750,List1B,white,woman,,,,,,,,,,,,,
null,"<div style=""font-size:60px;"">+</div>",,html-keyboard-response,324,758252,0.0-19.0-0.0,71750,List1B,white,woman,,,,null,,,,,,,,,
null,"<img src=""stim_listB/look6.gif""style=""height:400px;""></stim_listB>",,html-keyboard-response,325,760259,0.0-19.0-1.0,71750,List1B,white,woman,,,,null,,,,,,,,,
null,is being looked at by,,html-keyboard-response,326,762264,0.0-19.0-2.0,71750,List1B,white,woman,,,,null,,,,,,,,,
3397.2,,,survey-text,327,765667,0.0-19.0-3.0,71750,List1B,white,woman,,,,,"{""Q0"":""mike is being looked at by dave""}","<img src=""stim_listB/look6.gif""style=""height:400px;""></stim_listB>",is being looked at by,,,,,,
null,"<div style=""font-size:60px;"">+</div>",,html-keyboard-response,328,766169,0.0-19.0-0.1,71750,List1B,white,woman,,,,null,,,,,,,,,
null,"<img src=""stim_listB/hug7.gif""style=""height:400px;""></stim_listB>",,html-keyboard-response,329,768173,0.0-19.0-1.1,71750,List1B,white,woman,,,,null,,,,,,,,,
null,is hugging,,html-keyboard-response,330,770179,0.0-19.0-2.1,71750,List1B,white,woman,,,,null,,,,,,,,,
3490.4,,,survey-text,331,773674,0.0-19.0-3.1,71750,List1B,white,woman,,,,,"{""Q0"":""ruth is hugging beth""}","<img src=""stim_listB/hug7.gif""style=""height:400px;""></stim_listB>",is hugging,,,,,,
null,"<div style=""font-size:60px;"">+</div>",,html-keyboard-response,332,774177,0.0-19.0-0.2,71750,List1B,white,woman,,,,null,,,,,,,,,
null,"<img src=""stim_listB/copy8.gif""style=""height:400px;""></stim_listB>",,html-keyboard-response,333,776185,0.0-19.0-1.2,71750,List1B,white,woman,,,,null,,,,,,,,,
null,is being copied by,,html-keyboard-response,334,778189,0.0-19.0-2.2,71750,List1B,white,woman,,,,null,,,,,,,,,
5066.9,,,survey-text,335,783261,0.0-19.0-3.2,71750,List1B,white,woman,,,,,"{""Q0"":""jane is being copied by beth""}","<img src=""stim_listB/copy8.gif""style=""height:400px;""></stim_listB>",is being copied by,,,,,,
null,"<div style=""font-size:60px;"">+</div>",,html-keyboard-response,336,783763,0.0-19.0-0.3,71750,List1B,white,woman,,,,null,,,,,,,,,
null,"<img src=""stim_listB/greet8.gif""style=""height:400px;""></stim_listB>",,html-keyboard-response,337,785768,0.0-19.0-1.3,71750,List1B,white,woman,,,,null,,,,,,,,,
null,is being greeted by,,html-keyboard-response,338,787773,0.0-19.0-2.3,71750,List1B,white,woman,,,,null,,,,,,,,,
4175.5,,,survey-text,339,791955,0.0-19.0-3.3,71750,List1B,white,woman,,,,,"{""Q0"":""jane is being greeted by beth""}","<img src=""stim_listB/greet8.gif""style=""height:400px;""></stim_listB>",is being greeted by,,,,,,
null,"<div style=""font-size:60px;"">+</div>",,html-keyboard-response,340,792458,0.0-19.0-0.4,71750,List1B,white,woman,,,,null,,,,,,,,,
null,"<img src=""stim_listB/kiss3.gif""style=""height:400px;""></stim_listB>",,html-keyboard-response,341,794466,0.0-19.0-1.4,71750,List1B,white,woman,,,,null,,,,,,,,,
null,is kissing,,html-keyboard-response,342,796471,0.0-19.0-2.4,71750,List1B,white,woman,,,,null,,,,,,,,,
2114.9,,,survey-text,343,798593,0.0-19.0-3.4,71750,List1B,white,woman,,,,,"{""Q0"":""ruth is kissing luke""}","<img src=""stim_listB/kiss3.gif""style=""height:400px;""></stim_listB>",is kissing,,,,,,
null,"<div style=""font-size:60px;"">+</div>",,html-keyboard-response,344,799095,0.0-19.0-0.5,71750,List1B,white,woman,,,,null,,,,,,,,,
null,"<img src=""stim_listB/touch7.gif""style=""height:400px;""></stim_listB>",,html-keyboard-response,345,801097,0.0-19.0-1.5,71750,List1B,white,woman,,,,null,,,,,,,,,
null,is touching,,html-keyboard-response,346,803100,0.0-19.0-2.5,71750,List1B,white,woman,,,,null,,,,,,,,,
4046.6,,,survey-text,347,807153,0.0-19.0-3.5,71750,List1B,white,woman,,,,,"{""Q0"":""kate is touching jane""}","<img src=""stim_listB/touch7.gif""style=""height:400px;""></stim_listB>",is touching,,,,,,
null,"<div style=""font-size:60px;"">+</div>",,html-keyboard-response,348,807657,0.0-19.0-0.6,71750,List1B,white,woman,,,,null,,,,,,,,,
null,"<img src=""stim_listB/touch1.gif""style=""height:400px;""></stim_listB>",,html-keyboard-response,349,809660,0.0-19.0-1.6,71750,List1B,white,woman,,,,null,,,,,,,,,
null,is touching,,html-keyboard-response,350,811665,0.0-19.0-2.6,71750,List1B,white,woman,,,,null,,,,,,,,,
7081.8,,,survey-text,351,818752,0.0-19.0-3.6,71750,List1B,white,woman,,,,,"{""Q0"":""kate is touching mike""}","<img src=""stim_listB/touch1.gif""style=""height:400px;""></stim_listB>",is touching,,,,,,
null,"<div style=""font-size:60px;"">+</div>",,html-keyboard-response,352,819255,0.0-19.0-0.7,71750,List1B,white,woman,,,,null,,,,,,,,,
null,"<img src=""stim_listB/shout2.gif""style=""height:400px;""></stim_listB>",,html-keyboard-response,353,821260,0.0-19.0-1.7,71750,List1B,white,woman,,,,null,,,,,,,,,
null,is being shouted at by,,html-keyboard-response,354,823265,0.0-19.0-2.7,71750,List1B,white,woman,,,,null,,,,,,,,,
3339.5,,,survey-text,355,826611,0.0-19.0-3.7,71750,List1B,white,woman,,,,,"{""Q0"":""mike is being shouted at by kate""}","<img src=""stim_listB/shout2.gif""style=""height:400px;""></stim_listB>",is being shouted at by,,,,,,
null,"<div style=""font-size:60px;"">+</div>",,html-keyboard-response,356,827114,0.0-19.0-0.8,71750,List1B,white,woman,,,,null,,,,,,,,,
null,"<img src=""stim_listB/oppose4.gif""style=""height:400px;""></stim_listB>",,html-keyboard-response,357,829120,0.0-19.0-1.8,71750,List1B,white,woman,,,,null,,,,,,,,,
null,is being opposed by,,html-keyboard-response,358,831126,0.0-19.0-2.8,71750,List1B,white,woman,,,,null,,,,,,,,,
7142.9,,,survey-text,359,838275,0.0-19.0-3.8,71750,List1B,white,woman,,,,,"{""Q0"":""ruth is being opposed by luke""}","<img src=""stim_listB/oppose4.gif""style=""height:400px;""></stim_listB>",is being opposed by,,,,,,
null,"<div style=""font-size:60px;"">+</div>",,html-keyboard-response,360,838777,0.0-19.0-0.9,71750,List1B,white,woman,,,,null,,,,,,,,,
null,"<img src=""stim_listB/oppose8.gif""style=""height:400px;""></stim_listB>",,html-keyboard-response,361,840782,0.0-19.0-1.9,71750,List1B,white,woman,,,,null,,,,,,,,,
null,is being opposed by,,html-keyboard-response,362,842784,0.0-19.0-2.9,71750,List1B,white,woman,,,,null,,,,,,,,,
5644.1,,,survey-text,363,848434,0.0-19.0-3.9,71750,List1B,white,woman,,,,,"{""Q0"":""ruth is being opposed by beth""}","<img src=""stim_listB/oppose8.gif""style=""height:400px;""></stim_listB>",is being opposed by,,,,,,
null,"<div style=""font-size:60px;"">+</div>",,html-keyboard-response,364,848937,0.0-19.0-0.10,71750,List1B,white,woman,,,,null,,,,,,,,,
null,"<img src=""stim_listB/challenge5.gif""style=""height:400px;""></stim_listB>",,html-keyboard-response,365,850943,0.0-19.0-1.10,71750,List1B,white,woman,,,,null,,,,,,,,,
null,is challenging,,html-keyboard-response,366,852949,0.0-19.0-2.10,71750,List1B,white,woman,,,,null,,,,,,,,,
2722.4,,,survey-text,367,855677,0.0-19.0-3.10,71750,List1B,white,woman,,,,,"{""Q0"":""luke is challenging mike""}","<img src=""stim_listB/challenge5.gif""style=""height:400px;""></stim_listB>",is challenging,,,,,,
null,"<div style=""font-size:60px;"">+</div>",,html-keyboard-response,368,856181,0.0-19.0-0.11,71750,List1B,white,woman,,,,null,,,,,,,,,
null,"<img src=""stim_listB/hug1.gif""style=""height:400px;""></stim_listB>",,html-keyboard-response,369,858186,0.0-19.0-1.11,71750,List1B,white,woman,,,,null,,,,,,,,,
null,is hugging,,html-keyboard-response,370,860191,0.0-19.0-2.11,71750,List1B,white,woman,,,,null,,,,,,,,,
2235.4,,,survey-text,371,862431,0.0-19.0-3.11,71750,List1B,white,woman,,,,,"{""Q0"":""beth is hugging fred""}","<img src=""stim_listB/hug1.gif""style=""height:400px;""></stim_listB>",is hugging,,,,,,
null,"<div style=""font-size:60px;"">+</div>",,html-keyboard-response,372,862933,0.0-19.0-0.12,71750,List1B,white,woman,,,,null,,,,,,,,,
null,"<img src=""stim_listB/oppose1.gif""style=""height:400px;""></stim_listB>",,html-keyboard-response,373,864937,0.0-19.0-1.12,71750,List1B,white,woman,,,,null,,,,,,,,,
null,is opposing,,html-keyboard-response,374,866943,0.0-19.0-2.12,71750,List1B,white,woman,,,,null,,,,,,,,,
2343.5,,,survey-text,375,869292,0.0-19.0-3.12,71750,List1B,white,woman,,,,,"{""Q0"":""mike is opposing kate""}","<img src=""stim_listB/oppose1.gif""style=""height:400px;""></stim_listB>",is opposing,,,,,,
null,"<div style=""font-size:60px;"">+</div>",,html-keyboard-response,376,869796,0.0-19.0-0.13,71750,List1B,white,woman,,,,null,,,,,,,,,
null,"<img src=""stim_listB/shout4.gif""style=""height:400px;""></stim_listB>",,html-keyboard-response,377,871801,0.0-19.0-1.13,71750,List1B,white,woman,,,,null,,,,,,,,,
null,is being shouted at by,,html-keyboard-response,378,873808,0.0-19.0-2.13,71750,List1B,white,woman,,,,null,,,,,,,,,
5448.1,,,survey-text,379,879261,0.0-19.0-3.13,71750,List1B,white,woman,,,,,"{""Q0"":""jane is being shouted at by dave""}","<img src=""stim_listB/shout4.gif""style=""height:400px;""></stim_listB>",is being shouted at by,,,,,,
null,"<div style=""font-size:60px;"">+</div>",,html-keyboard-response,380,879764,0.0-19.0-0.14,71750,List1B,white,woman,,,,null,,,,,,,,,
null,"<img src=""stim_listB/hug6.gif""style=""height:400px;""></stim_listB>",,html-keyboard-response,381,881769,0.0-19.0-1.14,71750,List1B,white,woman,,,,null,,,,,,,,,
null,is being hugged by,,html-keyboard-response,382,883771,0.0-19.0-2.14,71750,List1B,white,woman,,,,null,,,,,,,,,
3554.7,,,survey-text,383,887331,0.0-19.0-3.14,71750,List1B,white,woman,,,,,"{""Q0"":""dave is being hugged by mike""}","<img src=""stim_listB/hug6.gif""style=""height:400px;""></stim_listB>",is being hugged by,,,,,,
null,"<div style=""font-size:60px;"">+</div>",,html-keyboard-response,384,887833,0.0-19.0-0.15,71750,List1B,white,woman,,,,null,,,,,,,,,
null,"<img src=""stim_listB/copy2.gif""style=""height:400px;""></stim_listB>",,html-keyboard-response,385,889841,0.0-19.0-1.15,71750,List1B,white,woman,,,,null,,,,,,,,,
null,is being copied by,,html-keyboard-response,386,891843,0.0-19.0-2.15,71750,List1B,white,woman,,,,null,,,,,,,,,
3110.6,,,survey-text,387,894960,0.0-19.0-3.15,71750,List1B,white,woman,,,,,"{""Q0"":""dave is being copied by kate""}","<img src=""stim_listB/copy2.gif""style=""height:400px;""></stim_listB>",is being copied by,,,,,,
null,"<div style=""font-size:60px;"">+</div>",,html-keyboard-response,388,895462,0.0-19.0-0.16,71750,List1B,white,woman,,,,null,,,,,,,,,
null,"<img src=""stim_listB/challenge3.gif""style=""height:400px;""></stim_listB>",,html-keyboard-response,389,897470,0.0-19.0-1.16,71750,List1B,white,woman,,,,null,,,,,,,,,
null,is challenging,,html-keyboard-response,390,899475,0.0-19.0-2.16,71750,List1B,white,woman,,,,null,,,,,,,,,
8942.3,,,survey-text,391,908422,0.0-19.0-3.16,71750,List1B,white,woman,,,,,"{""Q0"":""dave is challenging ruth""}","<img src=""stim_listB/challenge3.gif""style=""height:400px;""></stim_listB>",is challenging,,,,,,
null,"<div style=""font-size:60px;"">+</div>",,html-keyboard-response,392,908925,0.0-19.0-0.17,71750,List1B,white,woman,,,,null,,,,,,,,,
null,"<img src=""stim_listB/greet2.gif""style=""height:400px;""></stim_listB>",,html-keyboard-response,393,910931,0.0-19.0-1.17,71750,List1B,white,woman,,,,null,,,,,,,,,
null,is being greeted by,,html-keyboard-response,394,912932,0.0-19.0-2.17,71750,List1B,white,woman,,,,null,,,,,,,,,
6454.2,,,survey-text,395,919391,0.0-19.0-3.17,71750,List1B,white,woman,,,,,"{""Q0"":""60fccc9498832f0817c802c9""}","<img src=""stim_listB/greet2.gif""style=""height:400px;""></stim_listB>",is being greeted by,,,,,,
null,"<div style=""font-size:60px;"">+</div>",,html-keyboard-response,396,919895,0.0-19.0-0.18,71750,List1B,white,woman,,,,null,,,,,,,,,
null,"<img src=""stim_listB/copy6.gif""style=""height:400px;""></stim_listB>",,html-keyboard-response,397,921901,0.0-19.0-1.18,71750,List1B,white,woman,,,,null,,,,,,,,,
null,is being copied by,,html-keyboard-response,398,923907,0.0-19.0-2.18,71750,List1B,white,woman,,,,null,,,,,,,,,
79679.1,,,survey-text,399,1003590,0.0-19.0-3.18,71750,List1B,white,woman,,,,,"{""Q0"":""asdf""}","<img src=""stim_listB/copy6.gif""style=""height:400px;""></stim_listB>",is being copied by,,,,,,
null,"<div style=""font-size:60px;"">+</div>",,html-keyboard-response,400,1004092,0.0-19.0-0.19,71750,List1B,white,woman,,,,null,,,,,,,,,
null,"<img src=""stim_listB/touch8.gif""style=""height:400px;""></stim_listB>",,html-keyboard-response,401,1006094,0.0-19.0-1.19,71750,List1B,white,woman,,,,null,,,,,,,,,
null,is being touched by,,html-keyboard-response,402,1008096,0.0-19.0-2.19,71750,List1B,white,woman,,,,null,,,,,,,,,
4257.6,,,survey-text,403,1012357,0.0-19.0-3.19,71750,List1B,white,woman,,,,,"{""Q0"":""ruth is being touched by beth""}","<img src=""stim_listB/touch8.gif""style=""height:400px;""></stim_listB>",is being touched by,,,,,,
2759.6,<p>Thank you for completing that task.</p><p>The final part of this session is a questionnaire that will take about 4 minutes.</p><p>Press Continue.</p>,0,html-button-response,404,1015118,0.0-20.0,71750,List1B,white,woman,,,,,,,,,,,,,
12507.8,,,survey-text,405,1028640,0.0-21.0,71750,List1B,white,woman,,,,,"{""Q0"":""21"",""Q1"":""english"",""Q2"":""english"",""Q3"":""united states"",""Q4"":""american"",""Q5"":""white"",""Q6"":""female""}",,,demographics,,,,,
2206.1,<p>Have you lived in the USA for the last 5 years or more?</p>,0,html-button-response,406,1030850,0.0-22.0,71750,List1B,white,woman,,,,,,,,fiveyears,,,,,
1162,<p>Move the slider to show the extent to which you agree with the following statements.</p>,0,html-button-response,407,1033019,0.0-23.0,71750,List1B,white,woman,,,,,,,,,,,,,
2651.7,,,html-slider-response,408,1036678,0.0-24.0-0.0-0.0,71750,List1B,white,woman,,,,,,,,survey_gender,100,,,I feel a bond with my gender.,bond
2163.7,,,html-slider-response,409,1038846,0.0-24.0-0.0-0.1,71750,List1B,white,woman,,,,,,,,survey_gender,100,,,I feel solidarity with my gender.,solidarity
2305.1,,,html-slider-response,410,1041154,0.0-24.0-0.0-0.2,71750,List1B,white,woman,,,,,,,,survey_gender,96,,,I feel solidarity with my friends.,filler
3288.6,,,html-slider-response,411,1044446,0.0-24.0-0.0-0.3,71750,List1B,white,woman,,,,,,,,survey_gender,100,,,Family is not more important to me than friendship.,filler
4618.5,,,html-slider-response,412,1049067,0.0-24.0-0.0-0.4,71750,List1B,white,woman,,,,,,,,survey_gender,83,,,I am similar to the average person of my gender.,similar
2565.1,,,html-slider-response,413,1051635,0.0-24.0-0.0-0.5,71750,List1B,white,woman,,,,,,,,survey_gender,78,,,People of my gender have a lot in common with each other.,common
3444.9,,,html-slider-response,414,1055083,0.0-24.0-0.0-0.6,71750,List1B,white,woman,,,,,,,,survey_gender,100,,,I consider myself a highly empathetic person.,filler
4847.1,,,html-slider-response,415,1059933,0.0-24.0-0.0-0.7,71750,List1B,white,woman,,,,,,,,survey_gender,16,,,It is not always easy for people to know what I am thinking.,filler
2783.4,,,html-slider-response,416,1062720,0.0-24.0-0.0-0.8,71750,List1B,white,woman,,,,,,,,survey_gender,19,,,Most of the friends in my life are very similar to me.,filler
2979.6,,,html-slider-response,417,1065703,0.0-24.0-0.0-0.9,71750,List1B,white,woman,,,,,,,,survey_gender,100,,,I would say I am an animal person.,filler
3062.4,,,html-slider-response,418,1068768,0.0-24.0-0.0-0.10,71750,List1B,white,woman,,,,,,,,survey_gender,15,,,People of my gender are very similar to each other.,verysimilar
2164.6,,,html-slider-response,419,1070936,0.0-24.0-0.0-0.11,71750,List1B,white,woman,,,,,,,,survey_gender,100,,,Being around my friends gives me a good feeling.,filler
2060.4,,,html-slider-response,420,1072999,0.0-24.0-0.0-0.12,71750,List1B,white,woman,,,,,,,,survey_gender,100,,,I feel committed to my gender.,committed
3036.3,,,html-slider-response,421,1076038,0.0-24.0-0.0-0.13,71750,List1B,white,woman,,,,,,,,survey_gender,82,,,I have a lot in common with the average person of my gender.,average
3494.1,,,html-slider-response,422,1079534,0.0-24.0-0.0-0.14,71750,List1B,white,woman,,,,,,,,survey_gender,100,,,I am glad to have the friends that I have.,filler
2338.9,,,html-slider-response,423,1081876,0.0-24.0-0.0-0.15,71750,List1B,white,woman,,,,,,,,survey_gender,100,,,I feel a bond with my friends.,filler
3135.4,,,html-slider-response,424,1085014,0.0-24.0-0.0-0.16,71750,List1B,white,woman,,,,,,,,survey_gender,95,,,I think that my gender has a lot to be proud of.,proud
2367.9,,,html-slider-response,425,1087385,0.0-24.0-0.0-0.17,71750,List1B,white,woman,,,,,,,,survey_gender,74,,,I often think about my actions.,filler
3853.5,,,html-slider-response,426,1091241,0.0-24.0-0.0-0.18,71750,List1B,white,woman,,,,,,,,survey_gender,13,,,I often think about the fact that I am my gender.,often
3330.9,,,html-slider-response,427,1094575,0.0-24.0-0.0-0.19,71750,List1B,white,woman,,,,,,,,survey_gender,87,,,The fact that I am my gender is an important part of my identity.,identity
2294.7,,,html-slider-response,428,1096873,0.0-24.0-0.0-0.20,71750,List1B,white,woman,,,,,,,,survey_gender,6,,,Routine is not important to me.,filler
4976.9,,,html-slider-response,429,1101853,0.0-24.0-0.0-0.21,71750,List1B,white,woman,,,,,,,,survey_gender,25,,,I have a lot in common with my friends.,filler
2449.9,,,html-slider-response,430,1104307,0.0-24.0-0.0-0.22,71750,List1B,white,woman,,,,,,,,survey_gender,92,,,I am glad to be my gender.,glad
3257.5,,,html-slider-response,431,1107567,0.0-24.0-0.0-0.23,71750,List1B,white,woman,,,,,,,,survey_gender,68,,,My friends have a lot in common with each other.,filler
2620.7,,,html-slider-response,432,1110191,0.0-24.0-0.0-0.24,71750,List1B,white,woman,,,,,,,,survey_gender,100,,,It is pleasant to be my gender.,pleasant
2059,,,html-slider-response,433,1112252,0.0-24.0-0.0-0.25,71750,List1B,white,woman,,,,,,,,survey_gender,100,,,Being my gender gives me a good feeling.,feeling
2353.7,,,html-slider-response,434,1114608,0.0-24.0-0.0-0.26,71750,List1B,white,woman,,,,,,,,survey_gender,100,,,My friends understand me.,filler
3730.8,,,html-slider-response,435,1118342,0.0-24.0-0.0-0.27,71750,List1B,white,woman,,,,,,,,survey_gender,78,,,Being my gender is an important part of how I see myself.,important
3045.2,,,html-slider-response,436,1121390,0.0-24.0-1.0-0.0,71750,List1B,white,woman,,,,,,,,survey_race,25,,,Getting older does not worry me.,filler
2930.7,,,html-slider-response,437,1124324,0.0-24.0-1.0-0.1,71750,List1B,white,woman,,,,,,,,survey_race,77,,,I have a lot in common with the average person of my race.,average
3461.3,,,html-slider-response,438,1127788,0.0-24.0-1.0-0.2,71750,List1B,white,woman,,,,,,,,survey_race,52,,,I feel solidarity with my race.,solidarity
3565.8,,,html-slider-response,439,1131357,0.0-24.0-1.0-0.3,71750,List1B,white,woman,,,,,,,,survey_race,100,,,I enjoy being in large groups.,filler
1978.2,,,html-slider-response,440,1133339,0.0-24.0-1.0-0.4,71750,List1B,white,woman,,,,,,,,survey_race,55,,,I am glad to be my age.,filler
4625.7,,,html-slider-response,441,1137968,0.0-24.0-1.0-0.5,71750,List1B,white,woman,,,,,,,,survey_race,28,,,I often think about the fact that I am my race.,often
3118.2,,,html-slider-response,442,1141089,0.0-24.0-1.0-0.6,71750,List1B,white,woman,,,,,,,,survey_race,73,,,My age is not an important part of who I am.,filler
2808.5,,,html-slider-response,443,1143902,0.0-24.0-1.0-0.7,71750,List1B,white,woman,,,,,,,,survey_race,24,,,The fact that I am my race is an important part of my identity.,identity
2775.6,,,html-slider-response,444,1146680,0.0-24.0-1.0-0.8,71750,List1B,white,woman,,,,,,,,survey_race,78,,,I feel a bond with people the same age as me.,filler
2907.3,,,html-slider-response,445,1149590,0.0-24.0-1.0-0.9,71750,List1B,white,woman,,,,,,,,survey_race,62,,,People of my race have a lot in common with each other.,common
2368.2,,,html-slider-response,446,1151961,0.0-24.0-1.0-0.10,71750,List1B,white,woman,,,,,,,,survey_race,0,,,I consider myself an introvert.,filler
3404.7,,,html-slider-response,447,1155369,0.0-24.0-1.0-0.11,71750,List1B,white,woman,,,,,,,,survey_race,13,,,I feel committed to my race.,committed
2417,,,html-slider-response,448,1157789,0.0-24.0-1.0-0.12,71750,List1B,white,woman,,,,,,,,survey_race,69,,,Being my age gives me a good feeling.,filler
2613.9,,,html-slider-response,449,1160405,0.0-24.0-1.0-0.13,71750,List1B,white,woman,,,,,,,,survey_race,62,,,I am similar to the average person of my race.,similar
2923.2,,,html-slider-response,450,1163331,0.0-24.0-1.0-0.14,71750,List1B,white,woman,,,,,,,,survey_race,100,,,"The older I get, the wiser I feel.",filler
2937.4,,,html-slider-response,451,1166271,0.0-24.0-1.0-0.15,71750,List1B,white,woman,,,,,,,,survey_race,54,,,People of my race are very similar to each other.,verysimilar
2509.9,,,html-slider-response,452,1168784,0.0-24.0-1.0-0.16,71750,List1B,white,woman,,,,,,,,survey_race,32,,,I am glad to be my race.,glad
3770.4,,,html-slider-response,453,1172558,0.0-24.0-1.0-0.17,71750,List1B,white,woman,,,,,,,,survey_race,4,,,I think that my race has a lot to be proud of.,proud
3046.3,,,html-slider-response,454,1175607,0.0-24.0-1.0-0.18,71750,List1B,white,woman,,,,,,,,survey_race,100,,,I consider myself an extrovert.,filler
3418.9,,,html-slider-response,455,1179028,0.0-24.0-1.0-0.19,71750,List1B,white,woman,,,,,,,,survey_race,66,,,I have a lot in common with people of a similar age to me.,filler
2836.5,,,html-slider-response,456,1181867,0.0-24.0-1.0-0.20,71750,List1B,white,woman,,,,,,,,survey_race,17,,,Being my race gives me a good feeling.,feeling
4104.3,,,html-slider-response,457,1185974,0.0-24.0-1.0-0.21,71750,List1B,white,woman,,,,,,,,survey_race,48,,,It is pleasant to be my race.,pleasant
2449.8,,,html-slider-response,458,1188427,0.0-24.0-1.0-0.22,71750,List1B,white,woman,,,,,,,,survey_race,38,,,I often think about the fact that I am my age.,filler
2948.2,,,html-slider-response,459,1191378,0.0-24.0-1.0-0.23,71750,List1B,white,woman,,,,,,,,survey_race,29,,,Being my race is an important part of how I see myself.,important
3020.1,,,html-slider-response,460,1194401,0.0-24.0-1.0-0.24,71750,List1B,white,woman,,,,,,,,survey_race,53,,,I am glad to be the age I am.,filler
3551.6,,,html-slider-response,461,1197955,0.0-24.0-1.0-0.25,71750,List1B,white,woman,,,,,,,,survey_race,61,,,I feel solidarity with people the same age as me.,filler
2645.7,,,html-slider-response,462,1200604,0.0-24.0-1.0-0.26,71750,List1B,white,woman,,,,,,,,survey_race,15,,,I feel a bond with my race.,bond
3200.4,,,html-slider-response,463,1203808,0.0-24.0-1.0-0.27,71750,List1B,white,woman,,,,,,,,survey_race,70,,,People my age have a lot in common with each other.,filler
2276,,,survey-text,464,1206090,0.0-25.0,71750,List1B,white,woman,,,,,"{""Q0"":""ccc""}",,,worker_id,,,,,
8059,,,external-html,465,1214391,0.0-26.0,71750,List1B,white,woman,debrief.html,,,,,,,,,,,,
