"rt","stimulus","button_pressed","trial_type","trial_index","time_elapsed","internal_node_id","subject","list","ppt_race","ppt_gender","url","first_guess","correct","key_press","responses","image_type","phrase_type","test_part","response","stimulus1","stimulus2","question_type","survey_item"
"4025","Welcome to the experiment. Press Continue to begin.","0","html-button-response","0","4030","0.0-0.0","7177","List1A","white","man","","","","","","","","","","","","",""
"183213","","","external-html","1","188484","0.0-1.0","7177","List1A","white","man","consent.html","","","","","","","","","","","",""
"49414.200000047684","<p>On the next page, you will see portraits of 8 people and their names.</p><p>Your first task is to take a few minutes to memorise the names of these people.</p><p>You will have to recall their names during the rest of the experiment, so it is</p><p>essential that you try to memorise these people and their names as best as you can.</p><br><p><strong>You will then be tested on your memory of these names and portraits.</strong></p><br><p>The experiment will start after you have completed this memory test.</p><br><p>Ready?</p>","0","html-button-response","2","237900","0.0-2.0","7177","List1A","white","man","","","","","","","","","","","","",""
"271124.10000002384","<img src='img/portrait_matrix_list1.jpg' style='width:900px;height:500px;''></img><p>If you have memorised all the portraits and names and are ready to start, press Continue.</p><p><strong>Please note: Your memory of these faces will be tested 4 times during this experiment.</strong></p>","0","html-button-response","3","510030","0.0-3.0-0.0","7177","List1A","white","man","","","","","","","","","","","","",""
"7273.699999988079","<img src=""portrait/WM1.jpg""style=""height:400px;""></img>","6","html-button-response","4","518309","0.0-3.0-1.0","7177","List1A","white","man","","true","6","","","","","","","","","",""
"null","CORRECT","","html-keyboard-response","5","519834","0.0-3.0-2.0-0.0","7177","List1A","white","man","","","","null","","","","","","","","",""
"4887.5","<img src=""portrait/BM2.jpg""style=""height:400px;""></img>","5","html-button-response","6","524725","0.0-3.0-4.0","7177","List1A","white","man","","true","5","","","","","","","","","",""
"null","CORRECT","","html-keyboard-response","7","526265","0.0-3.0-5.0-0.0","7177","List1A","white","man","","","","null","","","","","","","","",""
"11050.200000047684","<img src=""portrait/WW2.jpg""style=""height:400px;""></img>","3","html-button-response","8","537317","0.0-3.0-7.0","7177","List1A","white","man","","true","3","","","","","","","","","",""
"null","CORRECT","","html-keyboard-response","9","538850","0.0-3.0-8.0-0.0","7177","List1A","white","man","","","","null","","","","","","","","",""
"14455.800000011921","<img src=""portrait/BW2.jpg""style=""height:400px;""></img>","2","html-button-response","10","553308","0.0-3.0-10.0","7177","List1A","white","man","","true","2","","","","","","","","","",""
"null","CORRECT","","html-keyboard-response","11","554827","0.0-3.0-11.0-0.0","7177","List1A","white","man","","","","null","","","","","","","","",""
"13752.800000011921","<img src=""portrait/BW1.jpg""style=""height:400px;""></img>","0","html-button-response","12","568582","0.0-3.0-13.0","7177","List1A","white","man","","true","0","","","","","","","","","",""
"null","CORRECT","","html-keyboard-response","13","570103","0.0-3.0-14.0-0.0","7177","List1A","white","man","","","","null","","","","","","","","",""
"21302.599999964237","<img src=""portrait/WW1.jpg""style=""height:400px;""></img>","1","html-button-response","14","591408","0.0-3.0-16.0","7177","List1A","white","man","","true","1","","","","","","","","","",""
"null","CORRECT","","html-keyboard-response","15","592924","0.0-3.0-17.0-0.0","7177","List1A","white","man","","","","null","","","","","","","","",""
"5063.599999964237","<img src=""portrait/WM2.jpg""style=""height:400px;""></img>","7","html-button-response","16","597991","0.0-3.0-19.0","7177","List1A","white","man","","true","7","","","","","","","","","",""
"null","CORRECT","","html-keyboard-response","17","599514","0.0-3.0-20.0-0.0","7177","List1A","white","man","","","","null","","","","","","","","",""
"4986.5","<img src=""portrait/BM1.jpg""style=""height:400px;""></img>","4","html-button-response","18","604503","0.0-3.0-22.0","7177","List1A","white","man","","true","4","","","","","","","","","",""
"null","CORRECT","","html-keyboard-response","19","606019","0.0-3.0-23.0-0.0","7177","List1A","white","man","","","","null","","","","","","","","",""
"3793.699999988079","<p>You got 8 out of 8 right first time. Press Continue.</p>","0","html-button-response","20","609816","0.0-3.0-25.0","7177","List1A","white","man","","","","","","","","","","","","",""
"123629.20000004768","<p>In this experiment, you will view photographs of the people from the memory game interacting.</p><p>By using the <strong>exact</strong> phrase given <i>after</i> the photograph appears and recalling the correct names of the people in the photographs, form a sentence describing the interaction. You do not need to capitalise names.</p><p>Type your answer in the space provided. Please complete every sentence before moving onto the next trial.</p><p>You will only have a few seconds to memorise each given photograph and phrase before you can respond, so try your best to focus.</p><p>An example is given below. Press 'Continue' when you are ready.</p><img src='img/speaking_example.jpg' style='width:800px;height:460px;''></img>","0","html-button-response","21","734452","0.0-4.0","7177","List1A","white","man","","","","","","","","","","","","",""
"6313.399999976158","<p>Before the experiment starts, you will watch two example trials. Press 'Continue'.</p>","0","html-button-response","22","741768","0.0-5.0","7177","List1A","white","man","","","","","","","","","","","","",""
"null","<img src='img/play_eg.gif' style='height:400px;''></img>","","html-keyboard-response","23","744776","0.0-6.0","7177","List1A","white","man","","","","null","","","","","","","","",""
"null","<p>is playing with</p>","","html-keyboard-response","24","746791","0.0-7.0","7177","List1A","white","man","","","","null","","","","","","","","",""
"19097.799999952316","<p><b>Answer:</b> kate is playing with beth</p>","0","html-button-response","25","765890","0.0-8.0","7177","List1A","white","man","","","","","","","","","","","","",""
"null","<img src='img/dance_eg.gif' style='height:400px;''></img>","","html-keyboard-response","26","768903","0.0-9.0","7177","List1A","white","man","","","","null","","","","","","","","",""
"null","<p>is being entertained by</p>","","html-keyboard-response","27","770908","0.0-10.0","7177","List1A","white","man","","","","null","","","","","","","","",""
"6828.599999964237","<p><b>Answer:</b> luke is being entertained by dave</p>","0","html-button-response","28","777738","0.0-11.0","7177","List1A","white","man","","","","","","","","","","","","",""
"20405","<p>Ready to start the experiment?</p><br><p><strong>Remember to describe the picture using a full sentence,</strong></p><p><strong>that combines the names of the people with the <i>exact</i> phrase given.</strong></p><p><strong>To receive full payment you must do this correctly.</strong></p><p><strong> You do not need to capitalise names or use punctuation.</strong></p><br><p>Press 'Continue' to begin.</p>","0","html-button-response","29","799150","0.0-12.0","7177","List1A","white","man","","","","","","","","","","","","",""
"null","<div style=""font-size:60px;"">+</div>","","html-keyboard-response","30","800657","0.0-13.0-0.0","7177","List1A","white","man","","","","null","","","","","","","","",""
"null","<img src=""stim_listA/look6.gif""style=""height:400px;""></stim_listA>","","html-keyboard-response","31","802666","0.0-13.0-1.0","7177","List1A","white","man","","","","null","","","","","","","","",""
"null","is being looked at by","","html-keyboard-response","32","804677","0.0-13.0-2.0","7177","List1A","white","man","","","","null","","","","","","","","",""
"39670","","","survey-text","33","844353","0.0-13.0-3.0","7177","List1A","white","man","","","","","{""Q0"":""Mike is being looked at by dave""}","<img src=""stim_listA/look6.gif""style=""height:400px;""></stim_listA>","is being looked at by","","","","","",""
"null","<div style=""font-size:60px;"">+</div>","","html-keyboard-response","34","844866","0.0-13.0-0.1","7177","List1A","white","man","","","","null","","","","","","","","",""
"null","<img src=""stim_listA/greet6.gif""style=""height:400px;""></stim_listA>","","html-keyboard-response","35","846870","0.0-13.0-1.1","7177","List1A","white","man","","","","null","","","","","","","","",""
"null","is being greeted by","","html-keyboard-response","36","848883","0.0-13.0-2.1","7177","List1A","white","man","","","","null","","","","","","","","",""
"26797.700000047684","","","survey-text","37","875684","0.0-13.0-3.1","7177","List1A","white","man","","","","","{""Q0"":""Fred is greeted by dave""}","<img src=""stim_listA/greet6.gif""style=""height:400px;""></stim_listA>","is being greeted by","","","","","",""
"null","<div style=""font-size:60px;"">+</div>","","html-keyboard-response","38","876202","0.0-13.0-0.2","7177","List1A","white","man","","","","null","","","","","","","","",""
"null","<img src=""stim_listA/shout6.gif""style=""height:400px;""></stim_listA>","","html-keyboard-response","39","878213","0.0-13.0-1.2","7177","List1A","white","man","","","","null","","","","","","","","",""
"null","is being shouted at by","","html-keyboard-response","40","880229","0.0-13.0-2.2","7177","List1A","white","man","","","","null","","","","","","","","",""
"22873.100000023842","","","survey-text","41","903106","0.0-13.0-3.2","7177","List1A","white","man","","","","","{""Q0"":""mike is shouted by dave""}","<img src=""stim_listA/shout6.gif""style=""height:400px;""></stim_listA>","is being shouted at by","","","","","",""
"null","<div style=""font-size:60px;"">+</div>","","html-keyboard-response","42","903611","0.0-13.0-0.3","7177","List1A","white","man","","","","null","","","","","","","","",""
"null","<img src=""stim_listA/oppose6.gif""style=""height:400px;""></stim_listA>","","html-keyboard-response","43","905618","0.0-13.0-1.3","7177","List1A","white","man","","","","null","","","","","","","","",""
"null","is being opposed by","","html-keyboard-response","44","907635","0.0-13.0-2.3","7177","List1A","white","man","","","","null","","","","","","","","",""
"19447.399999976158","","","survey-text","45","927085","0.0-13.0-3.3","7177","List1A","white","man","","","","","{""Q0"":""fred dont know luke""}","<img src=""stim_listA/oppose6.gif""style=""height:400px;""></stim_listA>","is being opposed by","","","","","",""
"null","<div style=""font-size:60px;"">+</div>","","html-keyboard-response","46","927602","0.0-13.0-0.4","7177","List1A","white","man","","","","null","","","","","","","","",""
"null","<img src=""stim_listA/touch3.gif""style=""height:400px;""></stim_listA>","","html-keyboard-response","47","929623","0.0-13.0-1.4","7177","List1A","white","man","","","","null","","","","","","","","",""
"null","is touching","","html-keyboard-response","48","931629","0.0-13.0-2.4","7177","List1A","white","man","","","","null","","","","","","","","",""
"53573.5","","","survey-text","49","985206","0.0-13.0-3.4","7177","List1A","white","man","","","","","{""Q0"":""jane is something by fred""}","<img src=""stim_listA/touch3.gif""style=""height:400px;""></stim_listA>","is touching","","","","","",""
"null","<div style=""font-size:60px;"">+</div>","","html-keyboard-response","50","985726","0.0-13.0-0.5","7177","List1A","white","man","","","","null","","","","","","","","",""
"null","<img src=""stim_listA/look5.gif""style=""height:400px;""></stim_listA>","","html-keyboard-response","51","987736","0.0-13.0-1.5","7177","List1A","white","man","","","","null","","","","","","","","",""
"null","is looking at","","html-keyboard-response","52","989747","0.0-13.0-2.5","7177","List1A","white","man","","","","null","","","","","","","","",""
"18127","","","survey-text","53","1007878","0.0-13.0-3.5","7177","List1A","white","man","","","","","{""Q0"":""fred is looking at luke""}","<img src=""stim_listA/look5.gif""style=""height:400px;""></stim_listA>","is looking at","","","","","",""
"null","<div style=""font-size:60px;"">+</div>","","html-keyboard-response","54","1008380","0.0-13.0-0.6","7177","List1A","white","man","","","","null","","","","","","","","",""
"null","<img src=""stim_listA/oppose7.gif""style=""height:400px;""></stim_listA>","","html-keyboard-response","55","1010395","0.0-13.0-1.6","7177","List1A","white","man","","","","null","","","","","","","","",""
"null","is opposing","","html-keyboard-response","56","1012398","0.0-13.0-2.6","7177","List1A","white","man","","","","null","","","","","","","","",""
"24556.100000023842","","","survey-text","57","1036957","0.0-13.0-3.6","7177","List1A","white","man","","","","","{""Q0"":""kate is opposing ruth""}","<img src=""stim_listA/oppose7.gif""style=""height:400px;""></stim_listA>","is opposing","","","","","",""
"null","<div style=""font-size:60px;"">+</div>","","html-keyboard-response","58","1037472","0.0-13.0-0.7","7177","List1A","white","man","","","","null","","","","","","","","",""
"null","<img src=""stim_listA/hug6.gif""style=""height:400px;""></stim_listA>","","html-keyboard-response","59","1039476","0.0-13.0-1.7","7177","List1A","white","man","","","","null","","","","","","","","",""
"null","is being hugged by","","html-keyboard-response","60","1041479","0.0-13.0-2.7","7177","List1A","white","man","","","","null","","","","","","","","",""
"27685","","","survey-text","61","1069168","0.0-13.0-3.7","7177","List1A","white","man","","","","","{""Q0"":""mike is being hugged by dave""}","<img src=""stim_listA/hug6.gif""style=""height:400px;""></stim_listA>","is being hugged by","","","","","",""
"null","<div style=""font-size:60px;"">+</div>","","html-keyboard-response","62","1069680","0.0-13.0-0.8","7177","List1A","white","man","","","","null","","","","","","","","",""
"null","<img src=""stim_listA/copy6.gif""style=""height:400px;""></stim_listA>","","html-keyboard-response","63","1071687","0.0-13.0-1.8","7177","List1A","white","man","","","","null","","","","","","","","",""
"null","is being copied by","","html-keyboard-response","64","1073695","0.0-13.0-2.8","7177","List1A","white","man","","","","null","","","","","","","","",""
"24220","","","survey-text","65","1097919","0.0-13.0-3.8","7177","List1A","white","man","","","","","{""Q0"":""dave is being copied by fred""}","<img src=""stim_listA/copy6.gif""style=""height:400px;""></stim_listA>","is being copied by","","","","","",""
"null","<div style=""font-size:60px;"">+</div>","","html-keyboard-response","66","1098424","0.0-13.0-0.9","7177","List1A","white","man","","","","null","","","","","","","","",""
"null","<img src=""stim_listA/look8.gif""style=""height:400px;""></stim_listA>","","html-keyboard-response","67","1100431","0.0-13.0-1.9","7177","List1A","white","man","","","","null","","","","","","","","",""
"null","is being looked at by","","html-keyboard-response","68","1102444","0.0-13.0-2.9","7177","List1A","white","man","","","","null","","","","","","","","",""
"19760.80000001192","","","survey-text","69","1122209","0.0-13.0-3.9","7177","List1A","white","man","","","","","{""Q0"":""kate is looked at by jane""}","<img src=""stim_listA/look8.gif""style=""height:400px;""></stim_listA>","is being looked at by","","","","","",""
"null","<div style=""font-size:60px;"">+</div>","","html-keyboard-response","70","1122722","0.0-13.0-0.10","7177","List1A","white","man","","","","null","","","","","","","","",""
"null","<img src=""stim_listA/greet3.gif""style=""height:400px;""></stim_listA>","","html-keyboard-response","71","1124734","0.0-13.0-1.10","7177","List1A","white","man","","","","null","","","","","","","","",""
"null","is greeting","","html-keyboard-response","72","1126738","0.0-13.0-2.10","7177","List1A","white","man","","","","null","","","","","","","","",""
"26137.5","","","survey-text","73","1152879","0.0-13.0-3.10","7177","List1A","white","man","","","","","{""Q0"":""dave is greeting ruth""}","<img src=""stim_listA/greet3.gif""style=""height:400px;""></stim_listA>","is greeting","","","","","",""
"null","<div style=""font-size:60px;"">+</div>","","html-keyboard-response","74","1153396","0.0-13.0-0.11","7177","List1A","white","man","","","","null","","","","","","","","",""
"null","<img src=""stim_listA/greet7.gif""style=""height:400px;""></stim_listA>","","html-keyboard-response","75","1155412","0.0-13.0-1.11","7177","List1A","white","man","","","","null","","","","","","","","",""
"null","is greeting","","html-keyboard-response","76","1157419","0.0-13.0-2.11","7177","List1A","white","man","","","","null","","","","","","","","",""
"31675.900000035763","","","survey-text","77","1189100","0.0-13.0-3.11","7177","List1A","white","man","","","","","{""Q0"":""ruth is something kate""}","<img src=""stim_listA/greet7.gif""style=""height:400px;""></stim_listA>","is greeting","","","","","",""
"null","<div style=""font-size:60px;"">+</div>","","html-keyboard-response","78","1189603","0.0-13.0-0.12","7177","List1A","white","man","","","","null","","","","","","","","",""
"null","<img src=""stim_listA/challenge4.gif""style=""height:400px;""></stim_listA>","","html-keyboard-response","79","1191615","0.0-13.0-1.12","7177","List1A","white","man","","","","null","","","","","","","","",""
"null","is being challenged by","","html-keyboard-response","80","1193632","0.0-13.0-2.12","7177","List1A","white","man","","","","null","","","","","","","","",""
"22994.900000035763","","","survey-text","81","1216630","0.0-13.0-3.12","7177","List1A","white","man","","","","","{""Q0"":""luke is challenged by jane""}","<img src=""stim_listA/challenge4.gif""style=""height:400px;""></stim_listA>","is being challenged by","","","","","",""
"null","<div style=""font-size:60px;"">+</div>","","html-keyboard-response","82","1217150","0.0-13.0-0.13","7177","List1A","white","man","","","","null","","","","","","","","",""
"null","<img src=""stim_listA/look3.gif""style=""height:400px;""></stim_listA>","","html-keyboard-response","83","1219167","0.0-13.0-1.13","7177","List1A","white","man","","","","null","","","","","","","","",""
"null","is looking at","","html-keyboard-response","84","1221169","0.0-13.0-2.13","7177","List1A","white","man","","","","null","","","","","","","","",""
"17998","","","survey-text","85","1239171","0.0-13.0-3.13","7177","List1A","white","man","","","","","{""Q0"":""luke is looking at ruth""}","<img src=""stim_listA/look3.gif""style=""height:400px;""></stim_listA>","is looking at","","","","","",""
"null","<div style=""font-size:60px;"">+</div>","","html-keyboard-response","86","1239682","0.0-13.0-0.14","7177","List1A","white","man","","","","null","","","","","","","","",""
"null","<img src=""stim_listA/look4.gif""style=""height:400px;""></stim_listA>","","html-keyboard-response","87","1241687","0.0-13.0-1.14","7177","List1A","white","man","","","","null","","","","","","","","",""
"null","is being looked at by","","html-keyboard-response","88","1243702","0.0-13.0-2.14","7177","List1A","white","man","","","","null","","","","","","","","",""
"25515.5","","","survey-text","89","1269221","0.0-13.0-3.14","7177","List1A","white","man","","","","","{""Q0"":""dave is being looked at by jane""}","<img src=""stim_listA/look4.gif""style=""height:400px;""></stim_listA>","is being looked at by","","","","","",""
"null","<div style=""font-size:60px;"">+</div>","","html-keyboard-response","90","1269725","0.0-13.0-0.15","7177","List1A","white","man","","","","null","","","","","","","","",""
"null","<img src=""stim_listA/seduce1.gif""style=""height:400px;""></stim_listA>","","html-keyboard-response","91","1271737","0.0-13.0-1.15","7177","List1A","white","man","","","","null","","","","","","","","",""
"null","is seducing","","html-keyboard-response","92","1273741","0.0-13.0-2.15","7177","List1A","white","man","","","","null","","","","","","","","",""
"26586.899999976158","","","survey-text","93","1300332","0.0-13.0-3.15","7177","List1A","white","man","","","","","{""Q0"":""kate is seducing fred""}","<img src=""stim_listA/seduce1.gif""style=""height:400px;""></stim_listA>","is seducing","","","","","",""
"null","<div style=""font-size:60px;"">+</div>","","html-keyboard-response","94","1300838","0.0-13.0-0.16","7177","List1A","white","man","","","","null","","","","","","","","",""
"null","<img src=""stim_listA/hug4.gif""style=""height:400px;""></stim_listA>","","html-keyboard-response","95","1302842","0.0-13.0-1.16","7177","List1A","white","man","","","","null","","","","","","","","",""
"null","is being hugged by","","html-keyboard-response","96","1304851","0.0-13.0-2.16","7177","List1A","white","man","","","","null","","","","","","","","",""
"14286.699999988079","","","survey-text","97","1319142","0.0-13.0-3.16","7177","List1A","white","man","","","","","{""Q0"":""dave is hugged by jane""}","<img src=""stim_listA/hug4.gif""style=""height:400px;""></stim_listA>","is being hugged by","","","","","",""
"null","<div style=""font-size:60px;"">+</div>","","html-keyboard-response","98","1319647","0.0-13.0-0.17","7177","List1A","white","man","","","","null","","","","","","","","",""
"null","<img src=""stim_listA/kiss7.gif""style=""height:400px;""></stim_listA>","","html-keyboard-response","99","1321654","0.0-13.0-1.17","7177","List1A","white","man","","","","null","","","","","","","","",""
"null","is kissing","","html-keyboard-response","100","1323659","0.0-13.0-2.17","7177","List1A","white","man","","","","null","","","","","","","","",""
"33480","","","survey-text","101","1357143","0.0-13.0-3.17","7177","List1A","white","man","","","","","{""Q0"":""beth is kissing ruth""}","<img src=""stim_listA/kiss7.gif""style=""height:400px;""></stim_listA>","is kissing","","","","","",""
"null","<div style=""font-size:60px;"">+</div>","","html-keyboard-response","102","1357660","0.0-13.0-0.18","7177","List1A","white","man","","","","null","","","","","","","","",""
"null","<img src=""stim_listA/copy1.gif""style=""height:400px;""></stim_listA>","","html-keyboard-response","103","1359675","0.0-13.0-1.18","7177","List1A","white","man","","","","null","","","","","","","","",""
"null","is copying","","html-keyboard-response","104","1361682","0.0-13.0-2.18","7177","List1A","white","man","","","","null","","","","","","","","",""
"25056.400000035763","","","survey-text","105","1386742","0.0-13.0-3.18","7177","List1A","white","man","","","","","{""Q0"":""beth is copying mike""}","<img src=""stim_listA/copy1.gif""style=""height:400px;""></stim_listA>","is copying","","","","","",""
"null","<div style=""font-size:60px;"">+</div>","","html-keyboard-response","106","1387255","0.0-13.0-0.19","7177","List1A","white","man","","","","null","","","","","","","","",""
"null","<img src=""stim_listA/challenge8.gif""style=""height:400px;""></stim_listA>","","html-keyboard-response","107","1389270","0.0-13.0-1.19","7177","List1A","white","man","","","","null","","","","","","","","",""
"null","is being challenged by","","html-keyboard-response","108","1391286","0.0-13.0-2.19","7177","List1A","white","man","","","","null","","","","","","","","",""
"16393.899999976158","","","survey-text","109","1407683","0.0-13.0-3.19","7177","List1A","white","man","","","","","{""Q0"":""beth is challenged by jane""}","<img src=""stim_listA/challenge8.gif""style=""height:400px;""></stim_listA>","is being challenged by","","","","","",""
"155616.30000001192","<img src='img/portrait_matrix_list1.jpg' style='width:900px;height:500px;''></img><p>If you have memorised all the portraits and names and are ready to start, press Continue.</p><p><strong>Please note: Your memory of these faces will be tested 4 times during this experiment.</strong></p>","0","html-button-response","110","1563303","0.0-14.0-0.0","7177","List1A","white","man","","","","","","","","","","","","",""
"6373.300000011921","<img src=""portrait/WM2.jpg""style=""height:400px;""></img>","7","html-button-response","111","1570704","0.0-14.0-1.0","7177","List1A","white","man","","true","7","","","","","","","","","",""
"null","CORRECT","","html-keyboard-response","112","1572223","0.0-14.0-2.0-0.0","7177","List1A","white","man","","","","null","","","","","","","","",""
"5597.899999976158","<img src=""portrait/WW2.jpg""style=""height:400px;""></img>","3","html-button-response","113","1577824","0.0-14.0-4.0","7177","List1A","white","man","","true","3","","","","","","","","","",""
"null","CORRECT","","html-keyboard-response","114","1579343","0.0-14.0-5.0-0.0","7177","List1A","white","man","","","","null","","","","","","","","",""
"6665.800000011921","<img src=""portrait/BW1.jpg""style=""height:400px;""></img>","0","html-button-response","115","1586012","0.0-14.0-7.0","7177","List1A","white","man","","true","0","","","","","","","","","",""
"null","CORRECT","","html-keyboard-response","116","1587537","0.0-14.0-8.0-0.0","7177","List1A","white","man","","","","null","","","","","","","","",""
"4979.100000023842","<img src=""portrait/BM1.jpg""style=""height:400px;""></img>","4","html-button-response","117","1592518","0.0-14.0-10.0","7177","List1A","white","man","","true","4","","","","","","","","","",""
"null","CORRECT","","html-keyboard-response","118","1594029","0.0-14.0-11.0-0.0","7177","List1A","white","man","","","","null","","","","","","","","",""
"4105.5","<img src=""portrait/WM1.jpg""style=""height:400px;""></img>","6","html-button-response","119","1598139","0.0-14.0-13.0","7177","List1A","white","man","","true","6","","","","","","","","","",""
"null","CORRECT","","html-keyboard-response","120","1599657","0.0-14.0-14.0-0.0","7177","List1A","white","man","","","","null","","","","","","","","",""
"3580.399999976158","<img src=""portrait/BM2.jpg""style=""height:400px;""></img>","5","html-button-response","121","1603240","0.0-14.0-16.0","7177","List1A","white","man","","true","5","","","","","","","","","",""
"null","CORRECT","","html-keyboard-response","122","1604770","0.0-14.0-17.0-0.0","7177","List1A","white","man","","","","null","","","","","","","","",""
"7413.099999964237","<img src=""portrait/BW2.jpg""style=""height:400px;""></img>","2","html-button-response","123","1612186","0.0-14.0-19.0","7177","List1A","white","man","","true","2","","","","","","","","","",""
"null","CORRECT","","html-keyboard-response","124","1613700","0.0-14.0-20.0-0.0","7177","List1A","white","man","","","","null","","","","","","","","",""
"3894.300000011921","<img src=""portrait/WW1.jpg""style=""height:400px;""></img>","1","html-button-response","125","1617598","0.0-14.0-22.0","7177","List1A","white","man","","true","1","","","","","","","","","",""
"null","CORRECT","","html-keyboard-response","126","1619119","0.0-14.0-23.0-0.0","7177","List1A","white","man","","","","null","","","","","","","","",""
"7831.800000011921","<p>You got 8 out of 8 right first time. Press Continue.</p>","0","html-button-response","127","1626954","0.0-14.0-25.0","7177","List1A","white","man","","","","","","","","","","","","",""
"null","<div style=""font-size:60px;"">+</div>","","html-keyboard-response","128","1628479","0.0-15.0-0.0","7177","List1A","white","man","","","","null","","","","","","","","",""
"null","<img src=""stim_listA/kiss6.gif""style=""height:400px;""></stim_listA>","","html-keyboard-response","129","1630501","0.0-15.0-1.0","7177","List1A","white","man","","","","null","","","","","","","","",""
"null","is being kissed by","","html-keyboard-response","130","1632511","0.0-15.0-2.0","7177","List1A","white","man","","","","null","","","","","","","","",""
"15504","","","survey-text","131","1648019","0.0-15.0-3.0","7177","List1A","white","man","","","","","{""Q0"":""dave is being kissed by mike""}","<img src=""stim_listA/kiss6.gif""style=""height:400px;""></stim_listA>","is being kissed by","","","","","",""
"null","<div style=""font-size:60px;"">+</div>","","html-keyboard-response","132","1648536","0.0-15.0-0.1","7177","List1A","white","man","","","","null","","","","","","","","",""
"null","<img src=""stim_listA/shout2.gif""style=""height:400px;""></stim_listA>","","html-keyboard-response","133","1650546","0.0-15.0-1.1","7177","List1A","white","man","","","","null","","","","","","","","",""
"null","is being shouted at by","","html-keyboard-response","134","1652553","0.0-15.0-2.1","7177","List1A","white","man","","","","null","","","","","","","","",""
"20662.600000023842","","","survey-text","135","1673219","0.0-15.0-3.1","7177","List1A","white","man","","","","","{""Q0"":""mike is being shouted by kate""}","<img src=""stim_listA/shout2.gif""style=""height:400px;""></stim_listA>","is being shouted at by","","","","","",""
"null","<div style=""font-size:60px;"">+</div>","","html-keyboard-response","136","1673730","0.0-15.0-0.2","7177","List1A","white","man","","","","null","","","","","","","","",""
"null","<img src=""stim_listA/copy2.gif""style=""height:400px;""></stim_listA>","","html-keyboard-response","137","1675736","0.0-15.0-1.2","7177","List1A","white","man","","","","null","","","","","","","","",""
"null","is being copied by","","html-keyboard-response","138","1677755","0.0-15.0-2.2","7177","List1A","white","man","","","","null","","","","","","","","",""
"16100.400000035763","","","survey-text","139","1693860","0.0-15.0-3.2","7177","List1A","white","man","","","","","{""Q0"":""fred is being copied by kate""}","<img src=""stim_listA/copy2.gif""style=""height:400px;""></stim_listA>","is being copied by","","","","","",""
"null","<div style=""font-size:60px;"">+</div>","","html-keyboard-response","140","1694365","0.0-15.0-0.3","7177","List1A","white","man","","","","null","","","","","","","","",""
"null","<img src=""stim_listA/look7.gif""style=""height:400px;""></stim_listA>","","html-keyboard-response","141","1696384","0.0-15.0-1.3","7177","List1A","white","man","","","","null","","","","","","","","",""
"null","is looking at","","html-keyboard-response","142","1698392","0.0-15.0-2.3","7177","List1A","white","man","","","","null","","","","","","","","",""
"21813.5","","","survey-text","143","1720209","0.0-15.0-3.3","7177","List1A","white","man","","","","","{""Q0"":""beth is looking at ruth""}","<img src=""stim_listA/look7.gif""style=""height:400px;""></stim_listA>","is looking at","","","","","",""
"null","<div style=""font-size:60px;"">+</div>","","html-keyboard-response","144","1720715","0.0-15.0-0.4","7177","List1A","white","man","","","","null","","","","","","","","",""
"null","<img src=""stim_listA/oppose2.gif""style=""height:400px;""></stim_listA>","","html-keyboard-response","145","1722719","0.0-15.0-1.4","7177","List1A","white","man","","","","null","","","","","","","","",""
"null","is being opposed by","","html-keyboard-response","146","1724733","0.0-15.0-2.4","7177","List1A","white","man","","","","null","","","","","","","","",""
"14603.800000011921","","","survey-text","147","1739341","0.0-15.0-3.4","7177","List1A","white","man","","","","","{""Q0"":""fred is opposed by beth""}","<img src=""stim_listA/oppose2.gif""style=""height:400px;""></stim_listA>","is being opposed by","","","","","",""
"null","<div style=""font-size:60px;"">+</div>","","html-keyboard-response","148","1739854","0.0-15.0-0.5","7177","List1A","white","man","","","","null","","","","","","","","",""
"null","<img src=""stim_listA/shout7.gif""style=""height:400px;""></stim_listA>","","html-keyboard-response","149","1741860","0.0-15.0-1.5","7177","List1A","white","man","","","","null","","","","","","","","",""
"null","is shouting at","","html-keyboard-response","150","1743866","0.0-15.0-2.5","7177","List1A","white","man","","","","null","","","","","","","","",""
"21320.299999952316","","","survey-text","151","1765190","0.0-15.0-3.5","7177","List1A","white","man","","","","","{""Q0"":""beth is shouting at ruth""}","<img src=""stim_listA/shout7.gif""style=""height:400px;""></stim_listA>","is shouting at","","","","","",""
"null","<div style=""font-size:60px;"">+</div>","","html-keyboard-response","152","1765699","0.0-15.0-0.6","7177","List1A","white","man","","","","null","","","","","","","","",""
"null","<img src=""stim_listA/touch4.gif""style=""height:400px;""></stim_listA>","","html-keyboard-response","153","1767710","0.0-15.0-1.6","7177","List1A","white","man","","","","null","","","","","","","","",""
"null","is being touched by","","html-keyboard-response","154","1769715","0.0-15.0-2.6","7177","List1A","white","man","","","","null","","","","","","","","",""
"25621.799999952316","","","survey-text","155","1795341","0.0-15.0-3.6","7177","List1A","white","man","","","","","{""Q0"":""luke is being touched by ruth""}","<img src=""stim_listA/touch4.gif""style=""height:400px;""></stim_listA>","is being touched by","","","","","",""
"null","<div style=""font-size:60px;"">+</div>","","html-keyboard-response","156","1795850","0.0-15.0-0.7","7177","List1A","white","man","","","","null","","","","","","","","",""
"null","<img src=""stim_listA/shout5.gif""style=""height:400px;""></stim_listA>","","html-keyboard-response","157","1797856","0.0-15.0-1.7","7177","List1A","white","man","","","","null","","","","","","","","",""
"null","is shouting at","","html-keyboard-response","158","1799868","0.0-15.0-2.7","7177","List1A","white","man","","","","null","","","","","","","","",""
"13618.699999988079","","","survey-text","159","1813491","0.0-15.0-3.7","7177","List1A","white","man","","","","","{""Q0"":""fred is shouting at luke""}","<img src=""stim_listA/shout5.gif""style=""height:400px;""></stim_listA>","is shouting at","","","","","",""
"null","<div style=""font-size:60px;"">+</div>","","html-keyboard-response","160","1814011","0.0-15.0-0.8","7177","List1A","white","man","","","","null","","","","","","","","",""
"null","<img src=""stim_listA/kiss3.gif""style=""height:400px;""></stim_listA>","","html-keyboard-response","161","1816022","0.0-15.0-1.8","7177","List1A","white","man","","","","null","","","","","","","","",""
"null","is kissing","","html-keyboard-response","162","1818032","0.0-15.0-2.8","7177","List1A","white","man","","","","null","","","","","","","","",""
"16056","","","survey-text","163","1834091","0.0-15.0-3.8","7177","List1A","white","man","","","","","{""Q0"":""luke is kissing ruth""}","<img src=""stim_listA/kiss3.gif""style=""height:400px;""></stim_listA>","is kissing","","","","","",""
"null","<div style=""font-size:60px;"">+</div>","","html-keyboard-response","164","1834593","0.0-15.0-0.9","7177","List1A","white","man","","","","null","","","","","","","","",""
"null","<img src=""stim_listA/hug2.gif""style=""height:400px;""></stim_listA>","","html-keyboard-response","165","1836598","0.0-15.0-1.9","7177","List1A","white","man","","","","null","","","","","","","","",""
"null","is being hugged by","","html-keyboard-response","166","1838617","0.0-15.0-2.9","7177","List1A","white","man","","","","null","","","","","","","","",""
"13580.900000035763","","","survey-text","167","1852201","0.0-15.0-3.9","7177","List1A","white","man","","","","","{""Q0"":""mike is hugged by kate""}","<img src=""stim_listA/hug2.gif""style=""height:400px;""></stim_listA>","is being hugged by","","","","","",""
"null","<div style=""font-size:60px;"">+</div>","","html-keyboard-response","168","1852714","0.0-15.0-0.10","7177","List1A","white","man","","","","null","","","","","","","","",""
"null","<img src=""stim_listA/copy3.gif""style=""height:400px;""></stim_listA>","","html-keyboard-response","169","1854718","0.0-15.0-1.10","7177","List1A","white","man","","","","null","","","","","","","","",""
"null","is copying","","html-keyboard-response","170","1856731","0.0-15.0-2.10","7177","List1A","white","man","","","","null","","","","","","","","",""
"16706.5","","","survey-text","171","1873442","0.0-15.0-3.10","7177","List1A","white","man","","","","","{""Q0"":""dave is copying ruth""}","<img src=""stim_listA/copy3.gif""style=""height:400px;""></stim_listA>","is copying","","","","","",""
"null","<div style=""font-size:60px;"">+</div>","","html-keyboard-response","172","1873949","0.0-15.0-0.11","7177","List1A","white","man","","","","null","","","","","","","","",""
"null","<img src=""stim_listA/shout1.gif""style=""height:400px;""></stim_listA>","","html-keyboard-response","173","1875956","0.0-15.0-1.11","7177","List1A","white","man","","","","null","","","","","","","","",""
"null","is shouting at","","html-keyboard-response","174","1877960","0.0-15.0-2.11","7177","List1A","white","man","","","","null","","","","","","","","",""
"15488","","","survey-text","175","1893452","0.0-15.0-3.11","7177","List1A","white","man","","","","","{""Q0"":""beth is shouting at fred""}","<img src=""stim_listA/shout1.gif""style=""height:400px;""></stim_listA>","is shouting at","","","","","",""
"null","<div style=""font-size:60px;"">+</div>","","html-keyboard-response","176","1893955","0.0-15.0-0.12","7177","List1A","white","man","","","","null","","","","","","","","",""
"null","<img src=""stim_listA/touch2.gif""style=""height:400px;""></stim_listA>","","html-keyboard-response","177","1895959","0.0-15.0-1.12","7177","List1A","white","man","","","","null","","","","","","","","",""
"null","is being touched by","","html-keyboard-response","178","1897969","0.0-15.0-2.12","7177","List1A","white","man","","","","null","","","","","","","","",""
"16039.800000011921","","","survey-text","179","1914013","0.0-15.0-3.12","7177","List1A","white","man","","","","","{""Q0"":""fred is being touched by beth""}","<img src=""stim_listA/touch2.gif""style=""height:400px;""></stim_listA>","is being touched by","","","","","",""
"null","<div style=""font-size:60px;"">+</div>","","html-keyboard-response","180","1914526","0.0-15.0-0.13","7177","List1A","white","man","","","","null","","","","","","","","",""
"null","<img src=""stim_listA/hug7.gif""style=""height:400px;""></stim_listA>","","html-keyboard-response","181","1916537","0.0-15.0-1.13","7177","List1A","white","man","","","","null","","","","","","","","",""
"null","is hugging","","html-keyboard-response","182","1918544","0.0-15.0-2.13","7177","List1A","white","man","","","","null","","","","","","","","",""
"13355","","","survey-text","183","1931903","0.0-15.0-3.13","7177","List1A","white","man","","","","","{""Q0"":""ruth is hugging beth""}","<img src=""stim_listA/hug7.gif""style=""height:400px;""></stim_listA>","is hugging","","","","","",""
"null","<div style=""font-size:60px;"">+</div>","","html-keyboard-response","184","1932411","0.0-15.0-0.14","7177","List1A","white","man","","","","null","","","","","","","","",""
"null","<img src=""stim_listA/kiss4.gif""style=""height:400px;""></stim_listA>","","html-keyboard-response","185","1934417","0.0-15.0-1.14","7177","List1A","white","man","","","","null","","","","","","","","",""
"null","is being kissed by","","html-keyboard-response","186","1936428","0.0-15.0-2.14","7177","List1A","white","man","","","","null","","","","","","","","",""
"13250.699999988079","","","survey-text","187","1949683","0.0-15.0-3.14","7177","List1A","white","man","","","","","{""Q0"":""dave is kissed by jane""}","<img src=""stim_listA/kiss4.gif""style=""height:400px;""></stim_listA>","is being kissed by","","","","","",""
"null","<div style=""font-size:60px;"">+</div>","","html-keyboard-response","188","1950196","0.0-15.0-0.15","7177","List1A","white","man","","","","null","","","","","","","","",""
"null","<img src=""stim_listA/challenge5.gif""style=""height:400px;""></stim_listA>","","html-keyboard-response","189","1952204","0.0-15.0-1.15","7177","List1A","white","man","","","","null","","","","","","","","",""
"null","is challenging","","html-keyboard-response","190","1954212","0.0-15.0-2.15","7177","List1A","white","man","","","","null","","","","","","","","",""
"14427.5","","","survey-text","191","1968643","0.0-15.0-3.15","7177","List1A","white","man","","","","","{""Q0"":""mike is challenging luke""}","<img src=""stim_listA/challenge5.gif""style=""height:400px;""></stim_listA>","is challenging","","","","","",""
"null","<div style=""font-size:60px;"">+</div>","","html-keyboard-response","192","1969157","0.0-15.0-0.16","7177","List1A","white","man","","","","null","","","","","","","","",""
"null","<img src=""stim_listA/touch5.gif""style=""height:400px;""></stim_listA>","","html-keyboard-response","193","1971162","0.0-15.0-1.16","7177","List1A","white","man","","","","null","","","","","","","","",""
"null","is touching","","html-keyboard-response","194","1973173","0.0-15.0-2.16","7177","List1A","white","man","","","","null","","","","","","","","",""
"12157","","","survey-text","195","1985334","0.0-15.0-3.16","7177","List1A","white","man","","","","","{""Q0"":""dave is touching mike""}","<img src=""stim_listA/touch5.gif""style=""height:400px;""></stim_listA>","is touching","","","","","",""
"null","<div style=""font-size:60px;"">+</div>","","html-keyboard-response","196","1985848","0.0-15.0-0.17","7177","List1A","white","man","","","","null","","","","","","","","",""
"null","<img src=""stim_listA/challenge1.gif""style=""height:400px;""></stim_listA>","","html-keyboard-response","197","1987860","0.0-15.0-1.17","7177","List1A","white","man","","","","null","","","","","","","","",""
"null","is challenging","","html-keyboard-response","198","1989876","0.0-15.0-2.17","7177","List1A","white","man","","","","null","","","","","","","","",""
"13173.699999988079","","","survey-text","199","2003054","0.0-15.0-3.17","7177","List1A","white","man","","","","","{""Q0"":""beth is challenging mike""}","<img src=""stim_listA/challenge1.gif""style=""height:400px;""></stim_listA>","is challenging","","","","","",""
"null","<div style=""font-size:60px;"">+</div>","","html-keyboard-response","200","2003572","0.0-15.0-0.18","7177","List1A","white","man","","","","null","","","","","","","","",""
"null","<img src=""stim_listA/hug3.gif""style=""height:400px;""></stim_listA>","","html-keyboard-response","201","2005590","0.0-15.0-1.18","7177","List1A","white","man","","","","null","","","","","","","","",""
"null","is hugging","","html-keyboard-response","202","2007593","0.0-15.0-2.18","7177","List1A","white","man","","","","null","","","","","","","","",""
"11007.700000047684","","","survey-text","203","2018604","0.0-15.0-3.18","7177","List1A","white","man","","","","","{""Q0"":""luke is hugging ruth""}","<img src=""stim_listA/hug3.gif""style=""height:400px;""></stim_listA>","is hugging","","","","","",""
"null","<div style=""font-size:60px;"">+</div>","","html-keyboard-response","204","2019108","0.0-15.0-0.19","7177","List1A","white","man","","","","null","","","","","","","","",""
"null","<img src=""stim_listA/greet5.gif""style=""height:400px;""></stim_listA>","","html-keyboard-response","205","2021125","0.0-15.0-1.19","7177","List1A","white","man","","","","null","","","","","","","","",""
"null","is greeting","","html-keyboard-response","206","2023138","0.0-15.0-2.19","7177","List1A","white","man","","","","null","","","","","","","","",""
"8913.5","","","survey-text","207","2032055","0.0-15.0-3.19","7177","List1A","white","man","","","","","{""Q0"":""luke is greeting mike""}","<img src=""stim_listA/greet5.gif""style=""height:400px;""></stim_listA>","is greeting","","","","","",""
"32670.899999976158","<img src='img/portrait_matrix_list1.jpg' style='width:900px;height:500px;''></img><p>If you have memorised all the portraits and names and are ready to start, press Continue.</p><p><strong>Please note: Your memory of these faces will be tested 4 times during this experiment.</strong></p>","0","html-button-response","208","2064728","0.0-16.0-0.0","7177","List1A","white","man","","","","","","","","","","","","",""
"2964.600000023842","<img src=""portrait/WW1.jpg""style=""height:400px;""></img>","1","html-button-response","209","2068699","0.0-16.0-1.0","7177","List1A","white","man","","true","1","","","","","","","","","",""
"null","CORRECT","","html-keyboard-response","210","2070231","0.0-16.0-2.0-0.0","7177","List1A","white","man","","","","null","","","","","","","","",""
"5805.699999988079","<img src=""portrait/BW1.jpg""style=""height:400px;""></img>","0","html-button-response","211","2076040","0.0-16.0-4.0","7177","List1A","white","man","","true","0","","","","","","","","","",""
"null","CORRECT","","html-keyboard-response","212","2077561","0.0-16.0-5.0-0.0","7177","List1A","white","man","","","","null","","","","","","","","",""
"5572.299999952316","<img src=""portrait/BW2.jpg""style=""height:400px;""></img>","2","html-button-response","213","2083137","0.0-16.0-7.0","7177","List1A","white","man","","true","2","","","","","","","","","",""
"null","CORRECT","","html-keyboard-response","214","2084661","0.0-16.0-8.0-0.0","7177","List1A","white","man","","","","null","","","","","","","","",""
"4938.100000023842","<img src=""portrait/WM2.jpg""style=""height:400px;""></img>","7","html-button-response","215","2089603","0.0-16.0-10.0","7177","List1A","white","man","","true","7","","","","","","","","","",""
"null","CORRECT","","html-keyboard-response","216","2091128","0.0-16.0-11.0-0.0","7177","List1A","white","man","","","","null","","","","","","","","",""
"6953.100000023842","<img src=""portrait/WW2.jpg""style=""height:400px;""></img>","3","html-button-response","217","2098085","0.0-16.0-13.0","7177","List1A","white","man","","true","3","","","","","","","","","",""
"null","CORRECT","","html-keyboard-response","218","2099595","0.0-16.0-14.0-0.0","7177","List1A","white","man","","","","null","","","","","","","","",""
"4383.800000011921","<img src=""portrait/WM1.jpg""style=""height:400px;""></img>","6","html-button-response","219","2103983","0.0-16.0-16.0","7177","List1A","white","man","","true","6","","","","","","","","","",""
"null","CORRECT","","html-keyboard-response","220","2105506","0.0-16.0-17.0-0.0","7177","List1A","white","man","","","","null","","","","","","","","",""
"2617.399999976158","<img src=""portrait/BM2.jpg""style=""height:400px;""></img>","5","html-button-response","221","2108127","0.0-16.0-19.0","7177","List1A","white","man","","true","5","","","","","","","","","",""
"null","CORRECT","","html-keyboard-response","222","2109643","0.0-16.0-20.0-0.0","7177","List1A","white","man","","","","null","","","","","","","","",""
"2455.100000023842","<img src=""portrait/BM1.jpg""style=""height:400px;""></img>","4","html-button-response","223","2112102","0.0-16.0-22.0","7177","List1A","white","man","","true","4","","","","","","","","","",""
"null","CORRECT","","html-keyboard-response","224","2113620","0.0-16.0-23.0-0.0","7177","List1A","white","man","","","","null","","","","","","","","",""
"17027.5","<p>You got 8 out of 8 right first time. Press Continue.</p>","0","html-button-response","225","2130650","0.0-16.0-25.0","7177","List1A","white","man","","","","","","","","","","","","",""
"null","<div style=""font-size:60px;"">+</div>","","html-keyboard-response","226","2132177","0.0-17.0-0.0","7177","List1A","white","man","","","","null","","","","","","","","",""
"null","<img src=""stim_listA/seduce2.gif""style=""height:400px;""></stim_listA>","","html-keyboard-response","227","2134193","0.0-17.0-1.0","7177","List1A","white","man","","","","null","","","","","","","","",""
"null","is being seduced by","","html-keyboard-response","228","2136210","0.0-17.0-2.0","7177","List1A","white","man","","","","null","","","","","","","","",""
"19312.69999998808","","","survey-text","229","2155528","0.0-17.0-3.0","7177","List1A","white","man","","","","","{""Q0"":""beth is being seduced by mike""}","<img src=""stim_listA/seduce2.gif""style=""height:400px;""></stim_listA>","is being seduced by","","","","","",""
"null","<div style=""font-size:60px;"">+</div>","","html-keyboard-response","230","2156037","0.0-17.0-0.1","7177","List1A","white","man","","","","null","","","","","","","","",""
"null","<img src=""stim_listA/greet2.gif""style=""height:400px;""></stim_listA>","","html-keyboard-response","231","2158051","0.0-17.0-1.1","7177","List1A","white","man","","","","null","","","","","","","","",""
"null","is being greeted by","","html-keyboard-response","232","2160060","0.0-17.0-2.1","7177","List1A","white","man","","","","null","","","","","","","","",""
"13003.699999988079","","","survey-text","233","2173067","0.0-17.0-3.1","7177","List1A","white","man","","","","","{""Q0"":""fred is greeted by kate""}","<img src=""stim_listA/greet2.gif""style=""height:400px;""></stim_listA>","is being greeted by","","","","","",""
"null","<div style=""font-size:60px;"">+</div>","","html-keyboard-response","234","2173585","0.0-17.0-0.2","7177","List1A","white","man","","","","null","","","","","","","","",""
"null","<img src=""stim_listA/touch1.gif""style=""height:400px;""></stim_listA>","","html-keyboard-response","235","2175597","0.0-17.0-1.2","7177","List1A","white","man","","","","null","","","","","","","","",""
"null","is touching","","html-keyboard-response","236","2177613","0.0-17.0-2.2","7177","List1A","white","man","","","","null","","","","","","","","",""
"12481.300000011921","","","survey-text","237","2190097","0.0-17.0-3.2","7177","List1A","white","man","","","","","{""Q0"":""kate is touching mike""}","<img src=""stim_listA/touch1.gif""style=""height:400px;""></stim_listA>","is touching","","","","","",""
"null","<div style=""font-size:60px;"">+</div>","","html-keyboard-response","238","2190603","0.0-17.0-0.3","7177","List1A","white","man","","","","null","","","","","","","","",""
"null","<img src=""stim_listA/seduce4.gif""style=""height:400px;""></stim_listA>","","html-keyboard-response","239","2192623","0.0-17.0-1.3","7177","List1A","white","man","","","","null","","","","","","","","",""
"null","is being seduced by","","html-keyboard-response","240","2194639","0.0-17.0-2.3","7177","List1A","white","man","","","","null","","","","","","","","",""
"17534.30000001192","","","survey-text","241","2212178","0.0-17.0-3.3","7177","List1A","white","man","","","","","{""Q0"":""dave is seduced by ruth""}","<img src=""stim_listA/seduce4.gif""style=""height:400px;""></stim_listA>","is being seduced by","","","","","",""
"null","<div style=""font-size:60px;"">+</div>","","html-keyboard-response","242","2212692","0.0-17.0-0.4","7177","List1A","white","man","","","","null","","","","","","","","",""
"null","<img src=""stim_listA/copy5.gif""style=""height:400px;""></stim_listA>","","html-keyboard-response","243","2214709","0.0-17.0-1.4","7177","List1A","white","man","","","","null","","","","","","","","",""
"null","is copying","","html-keyboard-response","244","2216721","0.0-17.0-2.4","7177","List1A","white","man","","","","null","","","","","","","","",""
"12441.900000035763","","","survey-text","245","2229167","0.0-17.0-3.4","7177","List1A","white","man","","","","","{""Q0"":""luke is copying mike""}","<img src=""stim_listA/copy5.gif""style=""height:400px;""></stim_listA>","is copying","","","","","",""
"null","<div style=""font-size:60px;"">+</div>","","html-keyboard-response","246","2229679","0.0-17.0-0.5","7177","List1A","white","man","","","","null","","","","","","","","",""
"null","<img src=""stim_listA/copy4.gif""style=""height:400px;""></stim_listA>","","html-keyboard-response","247","2231701","0.0-17.0-1.5","7177","List1A","white","man","","","","null","","","","","","","","",""
"null","is being copied by","","html-keyboard-response","248","2233718","0.0-17.0-2.5","7177","List1A","white","man","","","","null","","","","","","","","",""
"14445","","","survey-text","249","2248167","0.0-17.0-3.5","7177","List1A","white","man","","","","","{""Q0"":""luke is copied by jane""}","<img src=""stim_listA/copy4.gif""style=""height:400px;""></stim_listA>","is being copied by","","","","","",""
"null","<div style=""font-size:60px;"">+</div>","","html-keyboard-response","250","2248674","0.0-17.0-0.6","7177","List1A","white","man","","","","null","","","","","","","","",""
"null","<img src=""stim_listA/copy7.gif""style=""height:400px;""></stim_listA>","","html-keyboard-response","251","2250685","0.0-17.0-1.6","7177","List1A","white","man","","","","null","","","","","","","","",""
"null","is copying","","html-keyboard-response","252","2252697","0.0-17.0-2.6","7177","List1A","white","man","","","","null","","","","","","","","",""
"15297.699999988079","","","survey-text","253","2267998","0.0-17.0-3.6","7177","List1A","white","man","","","","","{""Q0"":""ruth is copying kate""}","<img src=""stim_listA/copy7.gif""style=""height:400px;""></stim_listA>","is copying","","","","","",""
"null","<div style=""font-size:60px;"">+</div>","","html-keyboard-response","254","2268512","0.0-17.0-0.7","7177","List1A","white","man","","","","null","","","","","","","","",""
"null","<img src=""stim_listA/seduce6.gif""style=""height:400px;""></stim_listA>","","html-keyboard-response","255","2270529","0.0-17.0-1.7","7177","List1A","white","man","","","","null","","","","","","","","",""
"null","is being seduced by","","html-keyboard-response","256","2272538","0.0-17.0-2.7","7177","List1A","white","man","","","","null","","","","","","","","",""
"13976.399999976158","","","survey-text","257","2286519","0.0-17.0-3.7","7177","List1A","white","man","","","","","{""Q0"":""mike is seduced by luke""}","<img src=""stim_listA/seduce6.gif""style=""height:400px;""></stim_listA>","is being seduced by","","","","","",""
"null","<div style=""font-size:60px;"">+</div>","","html-keyboard-response","258","2287039","0.0-17.0-0.8","7177","List1A","white","man","","","","null","","","","","","","","",""
"null","<img src=""stim_listA/look1.gif""style=""height:400px;""></stim_listA>","","html-keyboard-response","259","2289054","0.0-17.0-1.8","7177","List1A","white","man","","","","null","","","","","","","","",""
"null","is looking at","","html-keyboard-response","260","2291069","0.0-17.0-2.8","7177","List1A","white","man","","","","null","","","","","","","","",""
"16425.600000023842","","","survey-text","261","2307499","0.0-17.0-3.8","7177","List1A","white","man","","","","","{""Q0"":""fred is looking at beth""}","<img src=""stim_listA/look1.gif""style=""height:400px;""></stim_listA>","is looking at","","","","","",""
"null","<div style=""font-size:60px;"">+</div>","","html-keyboard-response","262","2308001","0.0-17.0-0.9","7177","List1A","white","man","","","","null","","","","","","","","",""
"null","<img src=""stim_listA/oppose3.gif""style=""height:400px;""></stim_listA>","","html-keyboard-response","263","2310014","0.0-17.0-1.9","7177","List1A","white","man","","","","null","","","","","","","","",""
"null","is opposing","","html-keyboard-response","264","2312031","0.0-17.0-2.9","7177","List1A","white","man","","","","null","","","","","","","","",""
"17584","","","survey-text","265","2329619","0.0-17.0-3.9","7177","List1A","white","man","","","","","{""Q0"":""dave is opposing jane""}","<img src=""stim_listA/oppose3.gif""style=""height:400px;""></stim_listA>","is opposing","","","","","",""
"null","<div style=""font-size:60px;"">+</div>","","html-keyboard-response","266","2330143","0.0-17.0-0.10","7177","List1A","white","man","","","","null","","","","","","","","",""
"null","<img src=""stim_listA/seduce5.gif""style=""height:400px;""></stim_listA>","","html-keyboard-response","267","2332151","0.0-17.0-1.10","7177","List1A","white","man","","","","null","","","","","","","","",""
"null","is seducing","","html-keyboard-response","268","2334160","0.0-17.0-2.10","7177","List1A","white","man","","","","null","","","","","","","","",""
"15055.199999988079","","","survey-text","269","2349219","0.0-17.0-3.10","7177","List1A","white","man","","","","","{""Q0"":""fred is seducing dave""}","<img src=""stim_listA/seduce5.gif""style=""height:400px;""></stim_listA>","is seducing","","","","","",""
"null","<div style=""font-size:60px;"">+</div>","","html-keyboard-response","270","2349723","0.0-17.0-0.11","7177","List1A","white","man","","","","null","","","","","","","","",""
"null","<img src=""stim_listA/touch8.gif""style=""height:400px;""></stim_listA>","","html-keyboard-response","271","2351739","0.0-17.0-1.11","7177","List1A","white","man","","","","null","","","","","","","","",""
"null","is being touched by","","html-keyboard-response","272","2353745","0.0-17.0-2.11","7177","List1A","white","man","","","","null","","","","","","","","",""
"13040.600000023842","","","survey-text","273","2366789","0.0-17.0-3.11","7177","List1A","white","man","","","","","{""Q0"":""beth is touched by ruth""}","<img src=""stim_listA/touch8.gif""style=""height:400px;""></stim_listA>","is being touched by","","","","","",""
"null","<div style=""font-size:60px;"">+</div>","","html-keyboard-response","274","2367298","0.0-17.0-0.12","7177","List1A","white","man","","","","null","","","","","","","","",""
"null","<img src=""stim_listA/touch7.gif""style=""height:400px;""></stim_listA>","","html-keyboard-response","275","2369311","0.0-17.0-1.12","7177","List1A","white","man","","","","null","","","","","","","","",""
"null","is touching","","html-keyboard-response","276","2371319","0.0-17.0-2.12","7177","List1A","white","man","","","","null","","","","","","","","",""
"13807.199999988079","","","survey-text","277","2385131","0.0-17.0-3.12","7177","List1A","white","man","","","","","{""Q0"":""jane is touching beth""}","<img src=""stim_listA/touch7.gif""style=""height:400px;""></stim_listA>","is touching","","","","","",""
"null","<div style=""font-size:60px;"">+</div>","","html-keyboard-response","278","2385639","0.0-17.0-0.13","7177","List1A","white","man","","","","null","","","","","","","","",""
"null","<img src=""stim_listA/touch6.gif""style=""height:400px;""></stim_listA>","","html-keyboard-response","279","2387652","0.0-17.0-1.13","7177","List1A","white","man","","","","null","","","","","","","","",""
"null","is being touched by","","html-keyboard-response","280","2389668","0.0-17.0-2.13","7177","List1A","white","man","","","","null","","","","","","","","",""
"16778.69999998808","","","survey-text","281","2406450","0.0-17.0-3.13","7177","List1A","white","man","","","","","{""Q0"":""luke is being touched by fred""}","<img src=""stim_listA/touch6.gif""style=""height:400px;""></stim_listA>","is being touched by","","","","","",""
"null","<div style=""font-size:60px;"">+</div>","","html-keyboard-response","282","2406952","0.0-17.0-0.14","7177","List1A","white","man","","","","null","","","","","","","","",""
"null","<img src=""stim_listA/oppose4.gif""style=""height:400px;""></stim_listA>","","html-keyboard-response","283","2408965","0.0-17.0-1.14","7177","List1A","white","man","","","","null","","","","","","","","",""
"null","is being opposed by","","html-keyboard-response","284","2410967","0.0-17.0-2.14","7177","List1A","white","man","","","","null","","","","","","","","",""
"21419.69999998808","","","survey-text","285","2432390","0.0-17.0-3.14","7177","List1A","white","man","","","","","{""Q0"":""luke is being opposed by ruth""}","<img src=""stim_listA/oppose4.gif""style=""height:400px;""></stim_listA>","is being opposed by","","","","","",""
"null","<div style=""font-size:60px;"">+</div>","","html-keyboard-response","286","2432904","0.0-17.0-0.15","7177","List1A","white","man","","","","null","","","","","","","","",""
"null","<img src=""stim_listA/seduce3.gif""style=""height:400px;""></stim_listA>","","html-keyboard-response","287","2434917","0.0-17.0-1.15","7177","List1A","white","man","","","","null","","","","","","","","",""
"null","is seducing","","html-keyboard-response","288","2436923","0.0-17.0-2.15","7177","List1A","white","man","","","","null","","","","","","","","",""
"12474.400000035763","","","survey-text","289","2449402","0.0-17.0-3.15","7177","List1A","white","man","","","","","{""Q0"":""luke is seducing jane""}","<img src=""stim_listA/seduce3.gif""style=""height:400px;""></stim_listA>","is seducing","","","","","",""
"null","<div style=""font-size:60px;"">+</div>","","html-keyboard-response","290","2449905","0.0-17.0-0.16","7177","List1A","white","man","","","","null","","","","","","","","",""
"null","<img src=""stim_listA/challenge3.gif""style=""height:400px;""></stim_listA>","","html-keyboard-response","291","2451911","0.0-17.0-1.16","7177","List1A","white","man","","","","null","","","","","","","","",""
"null","is challenging","","html-keyboard-response","292","2453916","0.0-17.0-2.16","7177","List1A","white","man","","","","null","","","","","","","","",""
"18651.399999976158","","","survey-text","293","2472572","0.0-17.0-3.16","7177","List1A","white","man","","","","","{""Q0"":""ruth is challenging dave""}","<img src=""stim_listA/challenge3.gif""style=""height:400px;""></stim_listA>","is challenging","","","","","",""
"null","<div style=""font-size:60px;"">+</div>","","html-keyboard-response","294","2473093","0.0-17.0-0.17","7177","List1A","white","man","","","","null","","","","","","","","",""
"null","<img src=""stim_listA/oppose8.gif""style=""height:400px;""></stim_listA>","","html-keyboard-response","295","2475103","0.0-17.0-1.17","7177","List1A","white","man","","","","null","","","","","","","","",""
"null","is being opposed by","","html-keyboard-response","296","2477113","0.0-17.0-2.17","7177","List1A","white","man","","","","null","","","","","","","","",""
"13994.699999988079","","","survey-text","297","2491112","0.0-17.0-3.17","7177","List1A","white","man","","","","","{""Q0"":""ruth is opposed by beth""}","<img src=""stim_listA/oppose8.gif""style=""height:400px;""></stim_listA>","is being opposed by","","","","","",""
"null","<div style=""font-size:60px;"">+</div>","","html-keyboard-response","298","2491622","0.0-17.0-0.18","7177","List1A","white","man","","","","null","","","","","","","","",""
"null","<img src=""stim_listA/shout3.gif""style=""height:400px;""></stim_listA>","","html-keyboard-response","299","2493628","0.0-17.0-1.18","7177","List1A","white","man","","","","null","","","","","","","","",""
"null","is shouting at","","html-keyboard-response","300","2495632","0.0-17.0-2.18","7177","List1A","white","man","","","","null","","","","","","","","",""
"15636.599999964237","","","survey-text","301","2511273","0.0-17.0-3.18","7177","List1A","white","man","","","","","{""Q0"":""ruth is shouting at luke""}","<img src=""stim_listA/shout3.gif""style=""height:400px;""></stim_listA>","is shouting at","","","","","",""
"null","<div style=""font-size:60px;"">+</div>","","html-keyboard-response","302","2511778","0.0-17.0-0.19","7177","List1A","white","man","","","","null","","","","","","","","",""
"null","<img src=""stim_listA/kiss5.gif""style=""height:400px;""></stim_listA>","","html-keyboard-response","303","2513790","0.0-17.0-1.19","7177","List1A","white","man","","","","null","","","","","","","","",""
"null","is kissing","","html-keyboard-response","304","2515802","0.0-17.0-2.19","7177","List1A","white","man","","","","null","","","","","","","","",""
"9746.5","","","survey-text","305","2525553","0.0-17.0-3.19","7177","List1A","white","man","","","","","{""Q0"":""luke is kissing fred""}","<img src=""stim_listA/kiss5.gif""style=""height:400px;""></stim_listA>","is kissing","","","","","",""
"32900.10000002384","<img src='img/portrait_matrix_list1.jpg' style='width:900px;height:500px;''></img><p>If you have memorised all the portraits and names and are ready to start, press Continue.</p><p><strong>Please note: Your memory of these faces will be tested 4 times during this experiment.</strong></p>","0","html-button-response","306","2558455","0.0-18.0-0.0","7177","List1A","white","man","","","","","","","","","","","","",""
"7102.199999988079","<img src=""portrait/WW2.jpg""style=""height:400px;""></img>","3","html-button-response","307","2566575","0.0-18.0-1.0","7177","List1A","white","man","","true","3","","","","","","","","","",""
"null","CORRECT","","html-keyboard-response","308","2568091","0.0-18.0-2.0-0.0","7177","List1A","white","man","","","","null","","","","","","","","",""
"3685.300000011921","<img src=""portrait/WW1.jpg""style=""height:400px;""></img>","1","html-button-response","309","2571779","0.0-18.0-4.0","7177","List1A","white","man","","true","1","","","","","","","","","",""
"null","CORRECT","","html-keyboard-response","310","2573290","0.0-18.0-5.0-0.0","7177","List1A","white","man","","","","null","","","","","","","","",""
"4823.699999988079","<img src=""portrait/BW2.jpg""style=""height:400px;""></img>","2","html-button-response","311","2578116","0.0-18.0-7.0","7177","List1A","white","man","","true","2","","","","","","","","","",""
"null","CORRECT","","html-keyboard-response","312","2579622","0.0-18.0-8.0-0.0","7177","List1A","white","man","","","","null","","","","","","","","",""
"4346.699999988079","<img src=""portrait/BW1.jpg""style=""height:400px;""></img>","0","html-button-response","313","2583971","0.0-18.0-10.0","7177","List1A","white","man","","true","0","","","","","","","","","",""
"null","CORRECT","","html-keyboard-response","314","2585485","0.0-18.0-11.0-0.0","7177","List1A","white","man","","","","null","","","","","","","","",""
"4162.400000035763","<img src=""portrait/WM2.jpg""style=""height:400px;""></img>","7","html-button-response","315","2589650","0.0-18.0-13.0","7177","List1A","white","man","","true","7","","","","","","","","","",""
"null","CORRECT","","html-keyboard-response","316","2591175","0.0-18.0-14.0-0.0","7177","List1A","white","man","","","","null","","","","","","","","",""
"2674.5","<img src=""portrait/BM2.jpg""style=""height:400px;""></img>","5","html-button-response","317","2593852","0.0-18.0-16.0","7177","List1A","white","man","","true","5","","","","","","","","","",""
"null","CORRECT","","html-keyboard-response","318","2595365","0.0-18.0-17.0-0.0","7177","List1A","white","man","","","","null","","","","","","","","",""
"2524.400000035763","<img src=""portrait/BM1.jpg""style=""height:400px;""></img>","4","html-button-response","319","2597892","0.0-18.0-19.0","7177","List1A","white","man","","true","4","","","","","","","","","",""
"null","CORRECT","","html-keyboard-response","320","2599418","0.0-18.0-20.0-0.0","7177","List1A","white","man","","","","null","","","","","","","","",""
"2566.600000023842","<img src=""portrait/WM1.jpg""style=""height:400px;""></img>","6","html-button-response","321","2601987","0.0-18.0-22.0","7177","List1A","white","man","","true","6","","","","","","","","","",""
"null","CORRECT","","html-keyboard-response","322","2603506","0.0-18.0-23.0-0.0","7177","List1A","white","man","","","","null","","","","","","","","",""
"12319.699999988079","<p>You got 8 out of 8 right first time. Press Continue.</p>","0","html-button-response","323","2615829","0.0-18.0-25.0","7177","List1A","white","man","","","","","","","","","","","","",""
"null","<div style=""font-size:60px;"">+</div>","","html-keyboard-response","324","2617361","0.0-19.0-0.0","7177","List1A","white","man","","","","null","","","","","","","","",""
"null","<img src=""stim_listA/greet1.gif""style=""height:400px;""></stim_listA>","","html-keyboard-response","325","2619378","0.0-19.0-1.0","7177","List1A","white","man","","","","null","","","","","","","","",""
"null","is greeting","","html-keyboard-response","326","2621394","0.0-19.0-2.0","7177","List1A","white","man","","","","null","","","","","","","","",""
"9846","","","survey-text","327","2631244","0.0-19.0-3.0","7177","List1A","white","man","","","","","{""Q0"":""mike is greeting beth""}","<img src=""stim_listA/greet1.gif""style=""height:400px;""></stim_listA>","is greeting","","","","","",""
"null","<div style=""font-size:60px;"">+</div>","","html-keyboard-response","328","2631758","0.0-19.0-0.1","7177","List1A","white","man","","","","null","","","","","","","","",""
"null","<img src=""stim_listA/kiss8.gif""style=""height:400px;""></stim_listA>","","html-keyboard-response","329","2633763","0.0-19.0-1.1","7177","List1A","white","man","","","","null","","","","","","","","",""
"null","is being kissed by","","html-keyboard-response","330","2635778","0.0-19.0-2.1","7177","List1A","white","man","","","","null","","","","","","","","",""
"28562.399999976158","","","survey-text","331","2664344","0.0-19.0-3.1","7177","List1A","white","man","","","","","{""Q0"":""kate is kissed by jane""}","<img src=""stim_listA/kiss8.gif""style=""height:400px;""></stim_listA>","is being kissed by","","","","","",""
"null","<div style=""font-size:60px;"">+</div>","","html-keyboard-response","332","2664862","0.0-19.0-0.2","7177","List1A","white","man","","","","null","","","","","","","","",""
"null","<img src=""stim_listA/kiss2.gif""style=""height:400px;""></stim_listA>","","html-keyboard-response","333","2666866","0.0-19.0-1.2","7177","List1A","white","man","","","","null","","","","","","","","",""
"null","is being kissed by","","html-keyboard-response","334","2668880","0.0-19.0-2.2","7177","List1A","white","man","","","","null","","","","","","","","",""
"13770.600000023842","","","survey-text","335","2682655","0.0-19.0-3.2","7177","List1A","white","man","","","","","{""Q0"":""mike is kissed by kate""}","<img src=""stim_listA/kiss2.gif""style=""height:400px;""></stim_listA>","is being kissed by","","","","","",""
"null","<div style=""font-size:60px;"">+</div>","","html-keyboard-response","336","2683159","0.0-19.0-0.3","7177","List1A","white","man","","","","null","","","","","","","","",""
"null","<img src=""stim_listA/seduce8.gif""style=""height:400px;""></stim_listA>","","html-keyboard-response","337","2685178","0.0-19.0-1.3","7177","List1A","white","man","","","","null","","","","","","","","",""
"null","is being seduced by","","html-keyboard-response","338","2687191","0.0-19.0-2.3","7177","List1A","white","man","","","","null","","","","","","","","",""
"14649.300000011921","","","survey-text","339","2701845","0.0-19.0-3.3","7177","List1A","white","man","","","","","{""Q0"":""ruth is seduced by kate""}","<img src=""stim_listA/seduce8.gif""style=""height:400px;""></stim_listA>","is being seduced by","","","","","",""
"null","<div style=""font-size:60px;"">+</div>","","html-keyboard-response","340","2702350","0.0-19.0-0.4","7177","List1A","white","man","","","","null","","","","","","","","",""
"null","<img src=""stim_listA/challenge7.gif""style=""height:400px;""></stim_listA>","","html-keyboard-response","341","2704367","0.0-19.0-1.4","7177","List1A","white","man","","","","null","","","","","","","","",""
"null","is challenging","","html-keyboard-response","342","2706372","0.0-19.0-2.4","7177","List1A","white","man","","","","null","","","","","","","","",""
"24889.69999998808","","","survey-text","343","2731265","0.0-19.0-3.4","7177","List1A","white","man","","","","","{""Q0"":""ruth is challenging kate""}","<img src=""stim_listA/challenge7.gif""style=""height:400px;""></stim_listA>","is challenging","","","","","",""
"null","<div style=""font-size:60px;"">+</div>","","html-keyboard-response","344","2731786","0.0-19.0-0.5","7177","List1A","white","man","","","","null","","","","","","","","",""
"null","<img src=""stim_listA/shout8.gif""style=""height:400px;""></stim_listA>","","html-keyboard-response","345","2733798","0.0-19.0-1.5","7177","List1A","white","man","","","","null","","","","","","","","",""
"null","is being shouted at by","","html-keyboard-response","346","2735808","0.0-19.0-2.5","7177","List1A","white","man","","","","null","","","","","","","","",""
"23543.200000047684","","","survey-text","347","2759356","0.0-19.0-3.5","7177","List1A","white","man","","","","","{""Q0"":""kate is being shouted at by jane""}","<img src=""stim_listA/shout8.gif""style=""height:400px;""></stim_listA>","is being shouted at by","","","","","",""
"null","<div style=""font-size:60px;"">+</div>","","html-keyboard-response","348","2759870","0.0-19.0-0.6","7177","List1A","white","man","","","","null","","","","","","","","",""
"null","<img src=""stim_listA/copy8.gif""style=""height:400px;""></stim_listA>","","html-keyboard-response","349","2761889","0.0-19.0-1.6","7177","List1A","white","man","","","","null","","","","","","","","",""
"null","is being copied by","","html-keyboard-response","350","2763891","0.0-19.0-2.6","7177","List1A","white","man","","","","null","","","","","","","","",""
"16212.5","","","survey-text","351","2780106","0.0-19.0-3.6","7177","List1A","white","man","","","","","{""Q0"":""jane is copied by beth""}","<img src=""stim_listA/copy8.gif""style=""height:400px;""></stim_listA>","is being copied by","","","","","",""
"null","<div style=""font-size:60px;"">+</div>","","html-keyboard-response","352","2780616","0.0-19.0-0.7","7177","List1A","white","man","","","","null","","","","","","","","",""
"null","<img src=""stim_listA/shout4.gif""style=""height:400px;""></stim_listA>","","html-keyboard-response","353","2782632","0.0-19.0-1.7","7177","List1A","white","man","","","","null","","","","","","","","",""
"null","is being shouted at by","","html-keyboard-response","354","2784634","0.0-19.0-2.7","7177","List1A","white","man","","","","null","","","","","","","","",""
"15369.399999976158","","","survey-text","355","2800007","0.0-19.0-3.7","7177","List1A","white","man","","","","","{""Q0"":""dave is shouted at by jane""}","<img src=""stim_listA/shout4.gif""style=""height:400px;""></stim_listA>","is being shouted at by","","","","","",""
"null","<div style=""font-size:60px;"">+</div>","","html-keyboard-response","356","2800518","0.0-19.0-0.8","7177","List1A","white","man","","","","null","","","","","","","","",""
"null","<img src=""stim_listA/hug8.gif""style=""height:400px;""></stim_listA>","","html-keyboard-response","357","2802526","0.0-19.0-1.8","7177","List1A","white","man","","","","null","","","","","","","","",""
"null","is being hugged by","","html-keyboard-response","358","2804540","0.0-19.0-2.8","7177","List1A","white","man","","","","null","","","","","","","","",""
"12401.599999964237","","","survey-text","359","2816947","0.0-19.0-3.8","7177","List1A","white","man","","","","","{""Q0"":""jane is hugged by kate""}","<img src=""stim_listA/hug8.gif""style=""height:400px;""></stim_listA>","is being hugged by","","","","","",""
"null","<div style=""font-size:60px;"">+</div>","","html-keyboard-response","360","2817449","0.0-19.0-0.9","7177","List1A","white","man","","","","null","","","","","","","","",""
"null","<img src=""stim_listA/look2.gif""style=""height:400px;""></stim_listA>","","html-keyboard-response","361","2819459","0.0-19.0-1.9","7177","List1A","white","man","","","","null","","","","","","","","",""
"null","is being looked at by","","html-keyboard-response","362","2821462","0.0-19.0-2.9","7177","List1A","white","man","","","","null","","","","","","","","",""
"16230.800000011921","","","survey-text","363","2837696","0.0-19.0-3.9","7177","List1A","white","man","","","","","{""Q0"":""mike is being looked at by kate""}","<img src=""stim_listA/look2.gif""style=""height:400px;""></stim_listA>","is being looked at by","","","","","",""
"null","<div style=""font-size:60px;"">+</div>","","html-keyboard-response","364","2838217","0.0-19.0-0.10","7177","List1A","white","man","","","","null","","","","","","","","",""
"null","<img src=""stim_listA/greet4.gif""style=""height:400px;""></stim_listA>","","html-keyboard-response","365","2840221","0.0-19.0-1.10","7177","List1A","white","man","","","","null","","","","","","","","",""
"null","is being greeted by","","html-keyboard-response","366","2842228","0.0-19.0-2.10","7177","List1A","white","man","","","","null","","","","","","","","",""
"10184.699999988079","","","survey-text","367","2852417","0.0-19.0-3.10","7177","List1A","white","man","","","","","{""Q0"":""luke is something by jane""}","<img src=""stim_listA/greet4.gif""style=""height:400px;""></stim_listA>","is being greeted by","","","","","",""
"null","<div style=""font-size:60px;"">+</div>","","html-keyboard-response","368","2852929","0.0-19.0-0.11","7177","List1A","white","man","","","","null","","","","","","","","",""
"null","<img src=""stim_listA/challenge2.gif""style=""height:400px;""></stim_listA>","","html-keyboard-response","369","2854940","0.0-19.0-1.11","7177","List1A","white","man","","","","null","","","","","","","","",""
"null","is being challenged by","","html-keyboard-response","370","2856954","0.0-19.0-2.11","7177","List1A","white","man","","","","null","","","","","","","","",""
"14379.899999976158","","","survey-text","371","2871338","0.0-19.0-3.11","7177","List1A","white","man","","","","","{""Q0"":""fred is challenged by kate""}","<img src=""stim_listA/challenge2.gif""style=""height:400px;""></stim_listA>","is being challenged by","","","","","",""
"null","<div style=""font-size:60px;"">+</div>","","html-keyboard-response","372","2871858","0.0-19.0-0.12","7177","List1A","white","man","","","","null","","","","","","","","",""
"null","<img src=""stim_listA/hug1.gif""style=""height:400px;""></stim_listA>","","html-keyboard-response","373","2873867","0.0-19.0-1.12","7177","List1A","white","man","","","","null","","","","","","","","",""
"null","is hugging","","html-keyboard-response","374","2875873","0.0-19.0-2.12","7177","List1A","white","man","","","","null","","","","","","","","",""
"13140.100000023842","","","survey-text","375","2889017","0.0-19.0-3.12","7177","List1A","white","man","","","","","{""Q0"":""fred is hugging beth""}","<img src=""stim_listA/hug1.gif""style=""height:400px;""></stim_listA>","is hugging","","","","","",""
"null","<div style=""font-size:60px;"">+</div>","","html-keyboard-response","376","2889534","0.0-19.0-0.13","7177","List1A","white","man","","","","null","","","","","","","","",""
"null","<img src=""stim_listA/kiss1.gif""style=""height:400px;""></stim_listA>","","html-keyboard-response","377","2891546","0.0-19.0-1.13","7177","List1A","white","man","","","","null","","","","","","","","",""
"null","is kissing","","html-keyboard-response","378","2893551","0.0-19.0-2.13","7177","List1A","white","man","","","","null","","","","","","","","",""
"9582.200000047684","","","survey-text","379","2903138","0.0-19.0-3.13","7177","List1A","white","man","","","","","{""Q0"":""beth is kissing fred""}","<img src=""stim_listA/kiss1.gif""style=""height:400px;""></stim_listA>","is kissing","","","","","",""
"null","<div style=""font-size:60px;"">+</div>","","html-keyboard-response","380","2903653","0.0-19.0-0.14","7177","List1A","white","man","","","","null","","","","","","","","",""
"null","<img src=""stim_listA/oppose5.gif""style=""height:400px;""></stim_listA>","","html-keyboard-response","381","2905663","0.0-19.0-1.14","7177","List1A","white","man","","","","null","","","","","","","","",""
"null","is opposing","","html-keyboard-response","382","2907665","0.0-19.0-2.14","7177","List1A","white","man","","","","null","","","","","","","","",""
"12658.399999976158","","","survey-text","383","2920328","0.0-19.0-3.14","7177","List1A","white","man","","","","","{""Q0"":""mike is opposing dave""}","<img src=""stim_listA/oppose5.gif""style=""height:400px;""></stim_listA>","is opposing","","","","","",""
"null","<div style=""font-size:60px;"">+</div>","","html-keyboard-response","384","2920845","0.0-19.0-0.15","7177","List1A","white","man","","","","null","","","","","","","","",""
"null","<img src=""stim_listA/hug5.gif""style=""height:400px;""></stim_listA>","","html-keyboard-response","385","2922852","0.0-19.0-1.15","7177","List1A","white","man","","","","null","","","","","","","","",""
"null","is hugging","","html-keyboard-response","386","2924868","0.0-19.0-2.15","7177","List1A","white","man","","","","null","","","","","","","","",""
"7837.200000047684","","","survey-text","387","2932708","0.0-19.0-3.15","7177","List1A","white","man","","","","","{""Q0"":""luke is hugging fred""}","<img src=""stim_listA/hug5.gif""style=""height:400px;""></stim_listA>","is hugging","","","","","",""
"null","<div style=""font-size:60px;"">+</div>","","html-keyboard-response","388","2933229","0.0-19.0-0.16","7177","List1A","white","man","","","","null","","","","","","","","",""
"null","<img src=""stim_listA/seduce7.gif""style=""height:400px;""></stim_listA>","","html-keyboard-response","389","2935238","0.0-19.0-1.16","7177","List1A","white","man","","","","null","","","","","","","","",""
"null","is seducing","","html-keyboard-response","390","2937254","0.0-19.0-2.16","7177","List1A","white","man","","","","null","","","","","","","","",""
"15166.699999988079","","","survey-text","391","2952428","0.0-19.0-3.16","7177","List1A","white","man","","","","","{""Q0"":""beth is seducing jane""}","<img src=""stim_listA/seduce7.gif""style=""height:400px;""></stim_listA>","is seducing","","","","","",""
"null","<div style=""font-size:60px;"">+</div>","","html-keyboard-response","392","2952932","0.0-19.0-0.17","7177","List1A","white","man","","","","null","","","","","","","","",""
"null","<img src=""stim_listA/oppose1.gif""style=""height:400px;""></stim_listA>","","html-keyboard-response","393","2954945","0.0-19.0-1.17","7177","List1A","white","man","","","","null","","","","","","","","",""
"null","is opposing","","html-keyboard-response","394","2956957","0.0-19.0-2.17","7177","List1A","white","man","","","","null","","","","","","","","",""
"12468","","","survey-text","395","2969429","0.0-19.0-3.17","7177","List1A","white","man","","","","","{""Q0"":""mike is opposing kate""}","<img src=""stim_listA/oppose1.gif""style=""height:400px;""></stim_listA>","is opposing","","","","","",""
"null","<div style=""font-size:60px;"">+</div>","","html-keyboard-response","396","2969941","0.0-19.0-0.18","7177","List1A","white","man","","","","null","","","","","","","","",""
"null","<img src=""stim_listA/greet8.gif""style=""height:400px;""></stim_listA>","","html-keyboard-response","397","2971946","0.0-19.0-1.18","7177","List1A","white","man","","","","null","","","","","","","","",""
"null","is being greeted by","","html-keyboard-response","398","2973948","0.0-19.0-2.18","7177","List1A","white","man","","","","null","","","","","","","","",""
"13536.5","","","survey-text","399","2987490","0.0-19.0-3.18","7177","List1A","white","man","","","","","{""Q0"":""beth is greeted by jane""}","<img src=""stim_listA/greet8.gif""style=""height:400px;""></stim_listA>","is being greeted by","","","","","",""
"null","<div style=""font-size:60px;"">+</div>","","html-keyboard-response","400","2988008","0.0-19.0-0.19","7177","List1A","white","man","","","","null","","","","","","","","",""
"null","<img src=""stim_listA/challenge6.gif""style=""height:400px;""></stim_listA>","","html-keyboard-response","401","2990020","0.0-19.0-1.19","7177","List1A","white","man","","","","null","","","","","","","","",""
"null","is being challenged by","","html-keyboard-response","402","2992036","0.0-19.0-2.19","7177","List1A","white","man","","","","null","","","","","","","","",""
"15319.599999964237","","","survey-text","403","3007360","0.0-19.0-3.19","7177","List1A","white","man","","","","","{""Q0"":""fred is being challenged by dave""}","<img src=""stim_listA/challenge6.gif""style=""height:400px;""></stim_listA>","is being challenged by","","","","","",""
"11259.800000011921","<p>Thank you for completing that task.</p><p>The final part of this session is a questionnaire that will take about 4 minutes.</p><p>Press Continue.</p>","0","html-button-response","404","3018621","0.0-20.0","7177","List1A","white","man","","","","","","","","","","","","",""
"58081.69999998808","","","survey-text","405","3077714","0.0-21.0","7177","List1A","white","man","","","","","{""Q0"":""52"",""Q1"":""english"",""Q2"":""english"",""Q3"":""United States"",""Q4"":""american"",""Q5"":""white"",""Q6"":""male""}","","","demographics","","","","",""
"6914.5","<p>Have you lived in the USA for the last 5 years or more?</p>","0","html-button-response","406","3084635","0.0-22.0","7177","List1A","white","man","","","","","","","","fiveyears","","","","",""
"14233.600000023842","<p>Move the slider to show the extent to which you agree with the following statements.</p>","0","html-button-response","407","3099881","0.0-23.0","7177","List1A","white","man","","","","","","","","","","","","",""
"10999.699999988079","","","html-slider-response","408","3111891","0.0-24.0-0.0-0.0","7177","List1A","white","man","","","","","","","","survey_gender","100","","","Being my gender is an important part of how I see myself.","important"
"8074.100000023842","","","html-slider-response","409","3119969","0.0-24.0-0.0-0.1","7177","List1A","white","man","","","","","","","","survey_gender","100","","","I often think about my actions.","filler"
"8217.099999964237","","","html-slider-response","410","3128191","0.0-24.0-0.0-0.2","7177","List1A","white","man","","","","","","","","survey_gender","85","","","My friends understand me.","filler"
"21436","","","html-slider-response","411","3149631","0.0-24.0-0.0-0.3","7177","List1A","white","man","","","","","","","","survey_gender","58","","","I think that my gender has a lot to be proud of.","proud"
"10999.899999976158","","","html-slider-response","412","3160636","0.0-24.0-0.0-0.4","7177","List1A","white","man","","","","","","","","survey_gender","47","","","I have a lot in common with the average person of my gender.","average"
"7910.800000011921","","","html-slider-response","413","3168552","0.0-24.0-0.0-0.5","7177","List1A","white","man","","","","","","","","survey_gender","100","","","I consider myself a highly empathetic person.","filler"
"8291.400000035763","","","html-slider-response","414","3176850","0.0-24.0-0.0-0.6","7177","List1A","white","man","","","","","","","","survey_gender","30","","","I feel a bond with my gender.","bond"
"10267.399999976158","","","html-slider-response","415","3187123","0.0-24.0-0.0-0.7","7177","List1A","white","man","","","","","","","","survey_gender","37","","","I am similar to the average person of my gender.","similar"
"7190.200000047684","","","html-slider-response","416","3194319","0.0-24.0-0.0-0.8","7177","List1A","white","man","","","","","","","","survey_gender","91","","","I feel solidarity with my friends.","filler"
"14164.699999988079","","","html-slider-response","417","3208488","0.0-24.0-0.0-0.9","7177","List1A","white","man","","","","","","","","survey_gender","61","","","It is not always easy for people to know what I am thinking.","filler"
"12293.699999988079","","","html-slider-response","418","3220787","0.0-24.0-0.0-0.10","7177","List1A","white","man","","","","","","","","survey_gender","55","","","Being my gender gives me a good feeling.","feeling"
"6302.100000023842","","","html-slider-response","419","3227094","0.0-24.0-0.0-0.11","7177","List1A","white","man","","","","","","","","survey_gender","71","","","It is pleasant to be my gender.","pleasant"
"10553.899999976158","","","html-slider-response","420","3237651","0.0-24.0-0.0-0.12","7177","List1A","white","man","","","","","","","","survey_gender","42","","","Most of the friends in my life are very similar to me.","filler"
"7069.599999964237","","","html-slider-response","421","3244725","0.0-24.0-0.0-0.13","7177","List1A","white","man","","","","","","","","survey_gender","35","","","I have a lot in common with my friends.","filler"
"10298","","","html-slider-response","422","3255027","0.0-24.0-0.0-0.14","7177","List1A","white","man","","","","","","","","survey_gender","56","","","The fact that I am my gender is an important part of my identity.","identity"
"14492.699999988079","","","html-slider-response","423","3269525","0.0-24.0-0.0-0.15","7177","List1A","white","man","","","","","","","","survey_gender","27","","","I feel solidarity with my gender.","solidarity"
"7928","","","html-slider-response","424","3277458","0.0-24.0-0.0-0.16","7177","List1A","white","man","","","","","","","","survey_gender","24","","","Routine is not important to me.","filler"
"7418.099999964237","","","html-slider-response","425","3284881","0.0-24.0-0.0-0.17","7177","List1A","white","man","","","","","","","","survey_gender","100","","","I would say I am an animal person.","filler"
"32853","","","html-slider-response","426","3317737","0.0-24.0-0.0-0.18","7177","List1A","white","man","","","","","","","","survey_gender","50","","","Family is not more important to me than friendship.","filler"
"7564.5","","","html-slider-response","427","3325307","0.0-24.0-0.0-0.19","7177","List1A","white","man","","","","","","","","survey_gender","100","","","I am glad to have the friends that I have.","filler"
"11684.599999964237","","","html-slider-response","428","3336996","0.0-24.0-0.0-0.20","7177","List1A","white","man","","","","","","","","survey_gender","62","","","People of my gender have a lot in common with each other.","common"
"7492.900000035763","","","html-slider-response","429","3344494","0.0-24.0-0.0-0.21","7177","List1A","white","man","","","","","","","","survey_gender","83","","","I am glad to be my gender.","glad"
"7022.600000023842","","","html-slider-response","430","3351522","0.0-24.0-0.0-0.22","7177","List1A","white","man","","","","","","","","survey_gender","42","","","My friends have a lot in common with each other.","filler"
"12274.300000011921","","","html-slider-response","431","3363802","0.0-24.0-0.0-0.23","7177","List1A","white","man","","","","","","","","survey_gender","0","","","I often think about the fact that I am my gender.","often"
"9448.399999976158","","","html-slider-response","432","3373255","0.0-24.0-0.0-0.24","7177","List1A","white","man","","","","","","","","survey_gender","100","","","I feel a bond with my friends.","filler"
"12650.300000011921","","","html-slider-response","433","3385910","0.0-24.0-0.0-0.25","7177","List1A","white","man","","","","","","","","survey_gender","0","","","I feel committed to my gender.","committed"
"7918.100000023842","","","html-slider-response","434","3393834","0.0-24.0-0.0-0.26","7177","List1A","white","man","","","","","","","","survey_gender","100","","","Being around my friends gives me a good feeling.","filler"
"7942.899999976158","","","html-slider-response","435","3401780","0.0-24.0-0.0-0.27","7177","List1A","white","man","","","","","","","","survey_gender","61","","","People of my gender are very similar to each other.","verysimilar"
"9649.099999964237","","","html-slider-response","436","3411434","0.0-24.0-1.0-0.0","7177","List1A","white","man","","","","","","","","survey_race","100","","","It is pleasant to be my race.","pleasant"
"8883.300000011921","","","html-slider-response","437","3420322","0.0-24.0-1.0-0.1","7177","List1A","white","man","","","","","","","","survey_race","46","","","Being my age gives me a good feeling.","filler"
"7601.399999976158","","","html-slider-response","438","3427929","0.0-24.0-1.0-0.2","7177","List1A","white","man","","","","","","","","survey_race","60","","","People my age have a lot in common with each other.","filler"
"8860.900000035763","","","html-slider-response","439","3436795","0.0-24.0-1.0-0.3","7177","List1A","white","man","","","","","","","","survey_race","25","","","I consider myself an introvert.","filler"
"11210.900000035763","","","html-slider-response","440","3448011","0.0-24.0-1.0-0.4","7177","List1A","white","man","","","","","","","","survey_race","65","","","People of my race are very similar to each other.","verysimilar"
"12834.400000035763","","","html-slider-response","441","3460849","0.0-24.0-1.0-0.5","7177","List1A","white","man","","","","","","","","survey_race","76","","","I think that my race has a lot to be proud of.","proud"
"6571.5","","","html-slider-response","442","3467426","0.0-24.0-1.0-0.6","7177","List1A","white","man","","","","","","","","survey_race","23","","","I feel a bond with my race.","bond"
"8312.5","","","html-slider-response","443","3475743","0.0-24.0-1.0-0.7","7177","List1A","white","man","","","","","","","","survey_race","0","","","I feel a bond with people the same age as me.","filler"
"14152.800000011921","","","html-slider-response","444","3489901","0.0-24.0-1.0-0.8","7177","List1A","white","man","","","","","","","","survey_race","81","","","Being my race gives me a good feeling.","feeling"
"12276.400000035763","","","html-slider-response","445","3502183","0.0-24.0-1.0-0.9","7177","List1A","white","man","","","","","","","","survey_race","13","","","The fact that I am my race is an important part of my identity.","identity"
"9278.099999964237","","","html-slider-response","446","3511467","0.0-24.0-1.0-0.10","7177","List1A","white","man","","","","","","","","survey_race","0","","","I have a lot in common with people of a similar age to me.","filler"
"7031.200000047684","","","html-slider-response","447","3518504","0.0-24.0-1.0-0.11","7177","List1A","white","man","","","","","","","","survey_race","33","","","I am glad to be the age I am.","filler"
"9989.5","","","html-slider-response","448","3528499","0.0-24.0-1.0-0.12","7177","List1A","white","man","","","","","","","","survey_race","63","","","I consider myself an extrovert.","filler"
"8164.5","","","html-slider-response","449","3536668","0.0-24.0-1.0-0.13","7177","List1A","white","man","","","","","","","","survey_race","1","","","I feel solidarity with my race.","solidarity"
"8211","","","html-slider-response","450","3544883","0.0-24.0-1.0-0.14","7177","List1A","white","man","","","","","","","","survey_race","100","","","My age is not an important part of who I am.","filler"
"7460.699999988079","","","html-slider-response","451","3552347","0.0-24.0-1.0-0.15","7177","List1A","white","man","","","","","","","","survey_race","77","","","The older I get, the wiser I feel.","filler"
"7513.100000023842","","","html-slider-response","452","3559864","0.0-24.0-1.0-0.16","7177","List1A","white","man","","","","","","","","survey_race","0","","","I enjoy being in large groups.","filler"
"9097.200000047684","","","html-slider-response","453","3568966","0.0-24.0-1.0-0.17","7177","List1A","white","man","","","","","","","","survey_race","0","","","Being my race is an important part of how I see myself.","important"
"30393.599999964237","","","html-slider-response","454","3599365","0.0-24.0-1.0-0.18","7177","List1A","white","man","","","","","","","","survey_race","55","","","I often think about the fact that I am my race.","often"
"13229.300000011921","","","html-slider-response","455","3612596","0.0-24.0-1.0-0.19","7177","List1A","white","man","","","","","","","","survey_race","58","","","I have a lot in common with the average person of my race.","average"
"8237","","","html-slider-response","456","3620835","0.0-24.0-1.0-0.20","7177","List1A","white","man","","","","","","","","survey_race","0","","","I feel committed to my race.","committed"
"6870.399999976158","","","html-slider-response","457","3627707","0.0-24.0-1.0-0.21","7177","List1A","white","man","","","","","","","","survey_race","0","","","I feel solidarity with people the same age as me.","filler"
"8686.200000047684","","","html-slider-response","458","3636397","0.0-24.0-1.0-0.22","7177","List1A","white","man","","","","","","","","survey_race","94","","","I am glad to be my race.","glad"
"6315.899999976158","","","html-slider-response","459","3642718","0.0-24.0-1.0-0.23","7177","List1A","white","man","","","","","","","","survey_race","61","","","People of my race have a lot in common with each other.","common"
"10302.100000023842","","","html-slider-response","460","3653025","0.0-24.0-1.0-0.24","7177","List1A","white","man","","","","","","","","survey_race","41","","","I am similar to the average person of my race.","similar"
"6667","","","html-slider-response","461","3659697","0.0-24.0-1.0-0.25","7177","List1A","white","man","","","","","","","","survey_race","38","","","I am glad to be my age.","filler"
"8951.399999976158","","","html-slider-response","462","3668653","0.0-24.0-1.0-0.26","7177","List1A","white","man","","","","","","","","survey_race","27","","","Getting older does not worry me.","filler"
"11769.099999964237","","","html-slider-response","463","3680428","0.0-24.0-1.0-0.27","7177","List1A","white","man","","","","","","","","survey_race","63","","","I often think about the fact that I am my age.","filler"
"14502.399999976158","","","survey-text","464","3694936","0.0-25.0","7177","List1A","white","man","","","","","{""Q0"":""614e0a0750a7d30724a288e5""}","","","worker_id","","","","",""
"57669.40000003576","","","external-html","465","3753044","0.0-26.0","7177","List1A","white","man","debrief.html","","","","","","","","","","","",""
