rt,stimulus,button_pressed,trial_type,trial_index,time_elapsed,internal_node_id,subject,list,ppt_race,ppt_gender,url,first_guess,correct,key_press,responses,image_type,phrase_type,test_part,response,stimulus1,stimulus2,question_type,survey_item
1823.6,Welcome to the experiment. Press Continue to begin.,0,html-button-response,0,1829,0.0-0.0,71839,List1B,black,man,,,,,,,,,,,,,
5549.6,,,external-html,1,8497,0.0-1.0,71839,List1B,black,man,consent.html,,,,,,,,,,,,
1536.1,"<p>On the next page, you will see portraits of 8 people and their names.</p><p>Your first task is to take a few minutes to memorise the names of these people.</p><p>You will have to recall their names during the rest of the experiment, so it is</p><p>essential that you try to memorise these people and their names as best as you can.</p><br><p><strong>You will then be tested on your memory of these names and portraits.</strong></p><br><p>The experiment will start after you have completed this memory test.</p><br><p>Ready?</p>",0,html-button-response,2,10036,0.0-2.0,71839,List1B,black,man,,,,,,,,,,,,,
9076.3,"<img src='img/portrait_matrix_list1.jpg' style='width:900px;height:500px;''></img><p>If you have memorised all the portraits and names and are ready to start, press Continue.</p><p><strong>Please note: Your memory of these faces will be tested 4 times during this experiment.</strong></p>",0,html-button-response,3,20115,0.0-3.0-0.0,71839,List1B,black,man,,,,,,,,,,,,,
5991.4,"<img src=""portrait/BW1.jpg""style=""height:400px;""></img>",2,html-button-response,4,27110,0.0-3.0-1.0,71839,List1B,black,man,,TRUE,0,,,,,,,,,,
3952.2,"<img src=""portrait/BW1.jpg""style=""height:400px;""></img>",0,html-button-response,5,32066,0.0-3.0-3.0-0.0,71839,List1B,black,man,,FALSE,0,,,,,,,,,,
null,CORRECT,,html-keyboard-response,6,33572,0.0-3.0-3.0-1.0-0.0,71839,List1B,black,man,,,,null,,,,,,,,,
4256.3,"<img src=""portrait/BM2.jpg""style=""height:400px;""></img>",5,html-button-response,7,37830,0.0-3.0-4.0,71839,List1B,black,man,,TRUE,5,,,,,,,,,,
null,CORRECT,,html-keyboard-response,8,39333,0.0-3.0-5.0-0.0,71839,List1B,black,man,,,,null,,,,,,,,,
2118.6,"<img src=""portrait/WW1.jpg""style=""height:400px;""></img>",3,html-button-response,9,41454,0.0-3.0-7.0,71839,List1B,black,man,,TRUE,1,,,,,,,,,,
1562.6,"<img src=""portrait/WW1.jpg""style=""height:400px;""></img>",1,html-button-response,10,44021,0.0-3.0-9.0-0.0,71839,List1B,black,man,,FALSE,1,,,,,,,,,,
null,CORRECT,,html-keyboard-response,11,45530,0.0-3.0-9.0-1.0-0.0,71839,List1B,black,man,,,,null,,,,,,,,,
2863,"<img src=""portrait/BM1.jpg""style=""height:400px;""></img>",4,html-button-response,12,48395,0.0-3.0-10.0,71839,List1B,black,man,,TRUE,4,,,,,,,,,,
null,CORRECT,,html-keyboard-response,13,49901,0.0-3.0-11.0-0.0,71839,List1B,black,man,,,,null,,,,,,,,,
4744.6,"<img src=""portrait/BW2.jpg""style=""height:400px;""></img>",3,html-button-response,14,54648,0.0-3.0-13.0,71839,List1B,black,man,,TRUE,2,,,,,,,,,,
1369.9,"<img src=""portrait/BW2.jpg""style=""height:400px;""></img>",2,html-button-response,15,57020,0.0-3.0-15.0-0.0,71839,List1B,black,man,,FALSE,2,,,,,,,,,,
null,CORRECT,,html-keyboard-response,16,58526,0.0-3.0-15.0-1.0-0.0,71839,List1B,black,man,,,,null,,,,,,,,,
2962.7,"<img src=""portrait/WW2.jpg""style=""height:400px;""></img>",3,html-button-response,17,61491,0.0-3.0-16.0,71839,List1B,black,man,,TRUE,3,,,,,,,,,,
null,CORRECT,,html-keyboard-response,18,62997,0.0-3.0-17.0-0.0,71839,List1B,black,man,,,,null,,,,,,,,,
2597.7,"<img src=""portrait/WM1.jpg""style=""height:400px;""></img>",6,html-button-response,19,65598,0.0-3.0-19.0,71839,List1B,black,man,,TRUE,6,,,,,,,,,,
null,CORRECT,,html-keyboard-response,20,67108,0.0-3.0-20.0-0.0,71839,List1B,black,man,,,,null,,,,,,,,,
2800.8,"<img src=""portrait/WM2.jpg""style=""height:400px;""></img>",7,html-button-response,21,69911,0.0-3.0-22.0,71839,List1B,black,man,,TRUE,7,,,,,,,,,,
null,CORRECT,,html-keyboard-response,22,71416,0.0-3.0-23.0-0.0,71839,List1B,black,man,,,,null,,,,,,,,,
1306.5,<p>You got 5 out of 8 right first time. Press Continue.</p>,0,html-button-response,23,72724,0.0-3.0-25.0,71839,List1B,black,man,,,,,,,,,,,,,
1469.6,"As you did not score 100%, the memory game will repeat. Press Continue.",0,html-button-response,24,75196,0.0-3.0-26.0-0.0,71839,List1B,black,man,,,,,,,,,,,,,
4534.4,"<img src='img/portrait_matrix_list1.jpg' style='width:900px;height:500px;''></img><p>If you have memorised all the portraits and names and are ready to start, press Continue.</p><p><strong>Please note: Your memory of these faces will be tested 4 times during this experiment.</strong></p>",0,html-button-response,25,80735,0.0-3.1-0.1,71839,List1B,black,man,,,,,,,,,,,,,
1807.1,"<img src=""portrait/BW1.jpg""style=""height:400px;""></img>",0,html-button-response,26,83546,0.0-3.1-1.1,71839,List1B,black,man,,TRUE,0,,,,,,,,,,
null,CORRECT,,html-keyboard-response,27,85048,0.0-3.1-2.1-0.1,71839,List1B,black,man,,,,null,,,,,,,,,
4883.6,"<img src=""portrait/BM2.jpg""style=""height:400px;""></img>",5,html-button-response,28,89934,0.0-3.1-4.1,71839,List1B,black,man,,TRUE,5,,,,,,,,,,
null,CORRECT,,html-keyboard-response,29,91437,0.0-3.1-5.1-0.1,71839,List1B,black,man,,,,null,,,,,,,,,
4315,"<img src=""portrait/WW1.jpg""style=""height:400px;""></img>",1,html-button-response,30,95753,0.0-3.1-7.1,71839,List1B,black,man,,TRUE,1,,,,,,,,,,
null,CORRECT,,html-keyboard-response,31,97260,0.0-3.1-8.1-0.1,71839,List1B,black,man,,,,null,,,,,,,,,
3521,"<img src=""portrait/BM1.jpg""style=""height:400px;""></img>",4,html-button-response,32,100783,0.0-3.1-10.1,71839,List1B,black,man,,TRUE,4,,,,,,,,,,
null,CORRECT,,html-keyboard-response,33,102285,0.0-3.1-11.1-0.1,71839,List1B,black,man,,,,null,,,,,,,,,
2488.9,"<img src=""portrait/BW2.jpg""style=""height:400px;""></img>",2,html-button-response,34,104776,0.0-3.1-13.1,71839,List1B,black,man,,TRUE,2,,,,,,,,,,
null,CORRECT,,html-keyboard-response,35,106280,0.0-3.1-14.1-0.1,71839,List1B,black,man,,,,null,,,,,,,,,
1385,"<img src=""portrait/WW2.jpg""style=""height:400px;""></img>",3,html-button-response,36,107667,0.0-3.1-16.1,71839,List1B,black,man,,TRUE,3,,,,,,,,,,
null,CORRECT,,html-keyboard-response,37,109169,0.0-3.1-17.1-0.1,71839,List1B,black,man,,,,null,,,,,,,,,
1651.1,"<img src=""portrait/WM1.jpg""style=""height:400px;""></img>",6,html-button-response,38,110822,0.0-3.1-19.1,71839,List1B,black,man,,TRUE,6,,,,,,,,,,
null,CORRECT,,html-keyboard-response,39,112330,0.0-3.1-20.1-0.1,71839,List1B,black,man,,,,null,,,,,,,,,
1203,"<img src=""portrait/WM2.jpg""style=""height:400px;""></img>",7,html-button-response,40,113535,0.0-3.1-22.1,71839,List1B,black,man,,TRUE,7,,,,,,,,,,
null,CORRECT,,html-keyboard-response,41,115038,0.0-3.1-23.1-0.1,71839,List1B,black,man,,,,null,,,,,,,,,
933.5,<p>You got 8 out of 8 right first time. Press Continue.</p>,0,html-button-response,42,115974,0.0-3.1-25.1,71839,List1B,black,man,,,,,,,,,,,,,
12190.4,"<p>In this experiment, you will view photographs of the people from the memory game interacting.</p><p>By using the <strong>exact</strong> phrase given <i>after</i> the photograph appears and recalling the correct names of the people in the photographs, form a sentence describing the interaction. You do not need to capitalise names.</p><p>Type your answer in the space provided. Please complete every sentence before moving onto the next trial.</p><p>You will only have a few seconds to memorise each given photograph and phrase before you can respond, so try your best to focus.</p><p>An example is given below. Press 'Continue' when you are ready.</p><img src='img/speaking_example.jpg' style='width:800px;height:460px;''></img>",0,html-button-response,43,129170,0.0-4.0,71839,List1B,black,man,,,,,,,,,,,,,
1564.8,"<p>Before the experiment starts, you will watch two example trials. Press 'Continue'.</p>",0,html-button-response,44,131736,0.0-5.0,71839,List1B,black,man,,,,,,,,,,,,,
null,<img src='img/play_eg.gif' style='height:400px;''></img>,,html-keyboard-response,45,134744,0.0-6.0,71839,List1B,black,man,,,,null,,,,,,,,,
null,<p>is playing with</p>,,html-keyboard-response,46,136745,0.0-7.0,71839,List1B,black,man,,,,null,,,,,,,,,
1393,<p><b>Answer:</b> kate is playing with beth</p>,0,html-button-response,47,138139,0.0-8.0,71839,List1B,black,man,,,,,,,,,,,,,
null,<img src='img/dance_eg.gif' style='height:400px;''></img>,,html-keyboard-response,48,141149,0.0-9.0,71839,List1B,black,man,,,,null,,,,,,,,,
null,<p>is being entertained by</p>,,html-keyboard-response,49,143155,0.0-10.0,71839,List1B,black,man,,,,null,,,,,,,,,
808.3,<p><b>Answer:</b> luke is being entertained by dave</p>,0,html-button-response,50,143965,0.0-11.0,71839,List1B,black,man,,,,,,,,,,,,,
1175.5,"<p>Ready to start the experiment?</p><br><p><strong>Remember to describe the picture using a full sentence,</strong></p><p><strong>that combines the names of the people with the <i>exact</i> phrase given.</strong></p><p><strong>To receive full payment you must do this correctly.</strong></p><p><strong> You do not need to capitalise names or use punctuation.</strong></p><br><p>Press 'Continue' to begin.</p>",0,html-button-response,51,146144,0.0-12.0,71839,List1B,black,man,,,,,,,,,,,,,
null,"<div style=""font-size:60px;"">+</div>",,html-keyboard-response,52,147650,0.0-13.0-0.0,71839,List1B,black,man,,,,null,,,,,,,,,
null,"<img src=""stim_listB/challenge6.gif""style=""height:400px;""></stim_listB>",,html-keyboard-response,53,149657,0.0-13.0-1.0,71839,List1B,black,man,,,,null,,,,,,,,,
null,is being challenged by,,html-keyboard-response,54,151660,0.0-13.0-2.0,71839,List1B,black,man,,,,null,,,,,,,,,
15148.1,,,survey-text,55,166816,0.0-13.0-3.0,71839,List1B,black,man,,,,,"{""Q0"":""dave is being challenged by fred""}","<img src=""stim_listB/challenge6.gif""style=""height:400px;""></stim_listB>",is being challenged by,,,,,,
null,"<div style=""font-size:60px;"">+</div>",,html-keyboard-response,56,167320,0.0-13.0-0.1,71839,List1B,black,man,,,,null,,,,,,,,,
null,"<img src=""stim_listB/challenge3.gif""style=""height:400px;""></stim_listB>",,html-keyboard-response,57,169325,0.0-13.0-1.1,71839,List1B,black,man,,,,null,,,,,,,,,
null,is challenging,,html-keyboard-response,58,171328,0.0-13.0-2.1,71839,List1B,black,man,,,,null,,,,,,,,,
6622.6,,,survey-text,59,177957,0.0-13.0-3.1,71839,List1B,black,man,,,,,"{""Q0"":""ruth is speaking to dave""}","<img src=""stim_listB/challenge3.gif""style=""height:400px;""></stim_listB>",is challenging,,,,,,
null,"<div style=""font-size:60px;"">+</div>",,html-keyboard-response,60,178460,0.0-13.0-0.2,71839,List1B,black,man,,,,null,,,,,,,,,
null,"<img src=""stim_listB/touch1.gif""style=""height:400px;""></stim_listB>",,html-keyboard-response,61,180465,0.0-13.0-1.2,71839,List1B,black,man,,,,null,,,,,,,,,
null,is touching,,html-keyboard-response,62,182469,0.0-13.0-2.2,71839,List1B,black,man,,,,null,,,,,,,,,
3502.2,,,survey-text,63,185977,0.0-13.0-3.2,71839,List1B,black,man,,,,,"{""Q0"":""mike is touching kate""}","<img src=""stim_listB/touch1.gif""style=""height:400px;""></stim_listB>",is touching,,,,,,
null,"<div style=""font-size:60px;"">+</div>",,html-keyboard-response,64,186479,0.0-13.0-0.3,71839,List1B,black,man,,,,null,,,,,,,,,
null,"<img src=""stim_listB/look3.gif""style=""height:400px;""></stim_listB>",,html-keyboard-response,65,188482,0.0-13.0-1.3,71839,List1B,black,man,,,,null,,,,,,,,,
null,is looking at,,html-keyboard-response,66,190487,0.0-13.0-2.3,71839,List1B,black,man,,,,null,,,,,,,,,
9018.4,,,survey-text,67,199513,0.0-13.0-3.3,71839,List1B,black,man,,,,,"{""Q0"":""luke is looking at ruth""}","<img src=""stim_listB/look3.gif""style=""height:400px;""></stim_listB>",is looking at,,,,,,
null,"<div style=""font-size:60px;"">+</div>",,html-keyboard-response,68,200017,0.0-13.0-0.4,71839,List1B,black,man,,,,null,,,,,,,,,
null,"<img src=""stim_listB/kiss7.gif""style=""height:400px;""></stim_listB>",,html-keyboard-response,69,202021,0.0-13.0-1.4,71839,List1B,black,man,,,,null,,,,,,,,,
null,is kissing,,html-keyboard-response,70,204023,0.0-13.0-2.4,71839,List1B,black,man,,,,null,,,,,,,,,
6515.9,,,survey-text,71,210545,0.0-13.0-3.4,71839,List1B,black,man,,,,,"{""Q0"":""ruth is kissing beth""}","<img src=""stim_listB/kiss7.gif""style=""height:400px;""></stim_listB>",is kissing,,,,,,
null,"<div style=""font-size:60px;"">+</div>",,html-keyboard-response,72,211048,0.0-13.0-0.5,71839,List1B,black,man,,,,null,,,,,,,,,
null,"<img src=""stim_listB/shout6.gif""style=""height:400px;""></stim_listB>",,html-keyboard-response,73,213050,0.0-13.0-1.5,71839,List1B,black,man,,,,null,,,,,,,,,
null,is being shouted at by,,html-keyboard-response,74,215052,0.0-13.0-2.5,71839,List1B,black,man,,,,null,,,,,,,,,
12600.6,,,survey-text,75,227659,0.0-13.0-3.5,71839,List1B,black,man,,,,,"{""Q0"":""dave is being shouted at by mike""}","<img src=""stim_listB/shout6.gif""style=""height:400px;""></stim_listB>",is being shouted at by,,,,,,
null,"<div style=""font-size:60px;"">+</div>",,html-keyboard-response,76,228161,0.0-13.0-0.6,71839,List1B,black,man,,,,null,,,,,,,,,
null,"<img src=""stim_listB/oppose7.gif""style=""height:400px;""></stim_listB>",,html-keyboard-response,77,230163,0.0-13.0-1.6,71839,List1B,black,man,,,,null,,,,,,,,,
null,is opposing,,html-keyboard-response,78,232166,0.0-13.0-2.6,71839,List1B,black,man,,,,null,,,,,,,,,
5572.4,,,survey-text,79,237744,0.0-13.0-3.6,71839,List1B,black,man,,,,,"{""Q0"":""jane is opposing kate""}","<img src=""stim_listB/oppose7.gif""style=""height:400px;""></stim_listB>",is opposing,,,,,,
null,"<div style=""font-size:60px;"">+</div>",,html-keyboard-response,80,238245,0.0-13.0-0.7,71839,List1B,black,man,,,,null,,,,,,,,,
null,"<img src=""stim_listB/greet3.gif""style=""height:400px;""></stim_listB>",,html-keyboard-response,81,240247,0.0-13.0-1.7,71839,List1B,black,man,,,,null,,,,,,,,,
null,is greeting,,html-keyboard-response,82,242250,0.0-13.0-2.7,71839,List1B,black,man,,,,null,,,,,,,,,
4034.7,,,survey-text,83,246291,0.0-13.0-3.7,71839,List1B,black,man,,,,,"{""Q0"":""ruth is greeting dave""}","<img src=""stim_listB/greet3.gif""style=""height:400px;""></stim_listB>",is greeting,,,,,,
null,"<div style=""font-size:60px;"">+</div>",,html-keyboard-response,84,246793,0.0-13.0-0.8,71839,List1B,black,man,,,,null,,,,,,,,,
null,"<img src=""stim_listB/oppose3.gif""style=""height:400px;""></stim_listB>",,html-keyboard-response,85,248795,0.0-13.0-1.8,71839,List1B,black,man,,,,null,,,,,,,,,
null,is opposing,,html-keyboard-response,86,250800,0.0-13.0-2.8,71839,List1B,black,man,,,,null,,,,,,,,,
6433,,,survey-text,87,257239,0.0-13.0-3.8,71839,List1B,black,man,,,,,"{""Q0"":""dave is opposing jane""}","<img src=""stim_listB/oppose3.gif""style=""height:400px;""></stim_listB>",is opposing,,,,,,
null,"<div style=""font-size:60px;"">+</div>",,html-keyboard-response,88,257741,0.0-13.0-0.9,71839,List1B,black,man,,,,null,,,,,,,,,
null,"<img src=""stim_listB/look5.gif""style=""height:400px;""></stim_listB>",,html-keyboard-response,89,259746,0.0-13.0-1.9,71839,List1B,black,man,,,,null,,,,,,,,,
null,is looking at,,html-keyboard-response,90,261749,0.0-13.0-2.9,71839,List1B,black,man,,,,null,,,,,,,,,
5427.8,,,survey-text,91,267181,0.0-13.0-3.9,71839,List1B,black,man,,,,,"{""Q0"":""luke is looking at fred""}","<img src=""stim_listB/look5.gif""style=""height:400px;""></stim_listB>",is looking at,,,,,,
null,"<div style=""font-size:60px;"">+</div>",,html-keyboard-response,92,267683,0.0-13.0-0.10,71839,List1B,black,man,,,,null,,,,,,,,,
null,"<img src=""stim_listB/shout4.gif""style=""height:400px;""></stim_listB>",,html-keyboard-response,93,269690,0.0-13.0-1.10,71839,List1B,black,man,,,,null,,,,,,,,,
null,is being shouted at by,,html-keyboard-response,94,271692,0.0-13.0-2.10,71839,List1B,black,man,,,,null,,,,,,,,,
5790.1,,,survey-text,95,277488,0.0-13.0-3.10,71839,List1B,black,man,,,,,"{""Q0"":""jane is being shouted at by dave""}","<img src=""stim_listB/shout4.gif""style=""height:400px;""></stim_listB>",is being shouted at by,,,,,,
null,"<div style=""font-size:60px;"">+</div>",,html-keyboard-response,96,277992,0.0-13.0-0.11,71839,List1B,black,man,,,,null,,,,,,,,,
null,"<img src=""stim_listB/challenge5.gif""style=""height:400px;""></stim_listB>",,html-keyboard-response,97,279996,0.0-13.0-1.11,71839,List1B,black,man,,,,null,,,,,,,,,
null,is challenging,,html-keyboard-response,98,281998,0.0-13.0-2.11,71839,List1B,black,man,,,,null,,,,,,,,,
4586.9,,,survey-text,99,286590,0.0-13.0-3.11,71839,List1B,black,man,,,,,"{""Q0"":""luke is challenging mike""}","<img src=""stim_listB/challenge5.gif""style=""height:400px;""></stim_listB>",is challenging,,,,,,
null,"<div style=""font-size:60px;"">+</div>",,html-keyboard-response,100,287095,0.0-13.0-0.12,71839,List1B,black,man,,,,null,,,,,,,,,
null,"<img src=""stim_listB/touch8.gif""style=""height:400px;""></stim_listB>",,html-keyboard-response,101,289099,0.0-13.0-1.12,71839,List1B,black,man,,,,null,,,,,,,,,
null,is being touched by,,html-keyboard-response,102,291101,0.0-13.0-2.12,71839,List1B,black,man,,,,null,,,,,,,,,
7566.4,,,survey-text,103,298671,0.0-13.0-3.12,71839,List1B,black,man,,,,,"{""Q0"":""beth is being touched by ruth""}","<img src=""stim_listB/touch8.gif""style=""height:400px;""></stim_listB>",is being touched by,,,,,,
null,"<div style=""font-size:60px;"">+</div>",,html-keyboard-response,104,299172,0.0-13.0-0.13,71839,List1B,black,man,,,,null,,,,,,,,,
null,"<img src=""stim_listB/hug2.gif""style=""height:400px;""></stim_listB>",,html-keyboard-response,105,301178,0.0-13.0-1.13,71839,List1B,black,man,,,,null,,,,,,,,,
null,is being hugged by,,html-keyboard-response,106,303180,0.0-13.0-2.13,71839,List1B,black,man,,,,null,,,,,,,,,
12282.8,,,survey-text,107,315470,0.0-13.0-3.13,71839,List1B,black,man,,,,,"{""Q0"":""kate is being hugged by mike""}","<img src=""stim_listB/hug2.gif""style=""height:400px;""></stim_listB>",is being hugged by,,,,,,
null,"<div style=""font-size:60px;"">+</div>",,html-keyboard-response,108,315972,0.0-13.0-0.14,71839,List1B,black,man,,,,null,,,,,,,,,
null,"<img src=""stim_listB/greet6.gif""style=""height:400px;""></stim_listB>",,html-keyboard-response,109,317978,0.0-13.0-1.14,71839,List1B,black,man,,,,null,,,,,,,,,
null,is being greeted by,,html-keyboard-response,110,319981,0.0-13.0-2.14,71839,List1B,black,man,,,,null,,,,,,,,,
12641.7,,,survey-text,111,332630,0.0-13.0-3.14,71839,List1B,black,man,,,,,"{""Q0"":""dave is being greeted by fred""}","<img src=""stim_listB/greet6.gif""style=""height:400px;""></stim_listB>",is being greeted by,,,,,,
null,"<div style=""font-size:60px;"">+</div>",,html-keyboard-response,112,333133,0.0-13.0-0.15,71839,List1B,black,man,,,,null,,,,,,,,,
null,"<img src=""stim_listB/touch7.gif""style=""height:400px;""></stim_listB>",,html-keyboard-response,113,335138,0.0-13.0-1.15,71839,List1B,black,man,,,,null,,,,,,,,,
null,is touching,,html-keyboard-response,114,337141,0.0-13.0-2.15,71839,List1B,black,man,,,,null,,,,,,,,,
5830.7,,,survey-text,115,342977,0.0-13.0-3.15,71839,List1B,black,man,,,,,"{""Q0"":""kate is touching jane""}","<img src=""stim_listB/touch7.gif""style=""height:400px;""></stim_listB>",is touching,,,,,,
null,"<div style=""font-size:60px;"">+</div>",,html-keyboard-response,116,343480,0.0-13.0-0.16,71839,List1B,black,man,,,,null,,,,,,,,,
null,"<img src=""stim_listB/touch5.gif""style=""height:400px;""></stim_listB>",,html-keyboard-response,117,345486,0.0-13.0-1.16,71839,List1B,black,man,,,,null,,,,,,,,,
null,is touching,,html-keyboard-response,118,347488,0.0-13.0-2.16,71839,List1B,black,man,,,,null,,,,,,,,,
5038.6,,,survey-text,119,352533,0.0-13.0-3.16,71839,List1B,black,man,,,,,"{""Q0"":""mike is touching dave""}","<img src=""stim_listB/touch5.gif""style=""height:400px;""></stim_listB>",is touching,,,,,,
null,"<div style=""font-size:60px;"">+</div>",,html-keyboard-response,120,353036,0.0-13.0-0.17,71839,List1B,black,man,,,,null,,,,,,,,,
null,"<img src=""stim_listB/seduce5.gif""style=""height:400px;""></stim_listB>",,html-keyboard-response,121,355038,0.0-13.0-1.17,71839,List1B,black,man,,,,null,,,,,,,,,
null,is seducing,,html-keyboard-response,122,357040,0.0-13.0-2.17,71839,List1B,black,man,,,,null,,,,,,,,,
5309.4,,,survey-text,123,362355,0.0-13.0-3.17,71839,List1B,black,man,,,,,"{""Q0"":""dave is seducing fred""}","<img src=""stim_listB/seduce5.gif""style=""height:400px;""></stim_listB>",is seducing,,,,,,
null,"<div style=""font-size:60px;"">+</div>",,html-keyboard-response,124,362857,0.0-13.0-0.18,71839,List1B,black,man,,,,null,,,,,,,,,
null,"<img src=""stim_listB/hug1.gif""style=""height:400px;""></stim_listB>",,html-keyboard-response,125,364863,0.0-13.0-1.18,71839,List1B,black,man,,,,null,,,,,,,,,
null,is hugging,,html-keyboard-response,126,366867,0.0-13.0-2.18,71839,List1B,black,man,,,,null,,,,,,,,,
4651,,,survey-text,127,371524,0.0-13.0-3.18,71839,List1B,black,man,,,,,"{""Q0"":""fred is hugging beth""}","<img src=""stim_listB/hug1.gif""style=""height:400px;""></stim_listB>",is hugging,,,,,,
null,"<div style=""font-size:60px;"">+</div>",,html-keyboard-response,128,372027,0.0-13.0-0.19,71839,List1B,black,man,,,,null,,,,,,,,,
null,"<img src=""stim_listB/shout8.gif""style=""height:400px;""></stim_listB>",,html-keyboard-response,129,374033,0.0-13.0-1.19,71839,List1B,black,man,,,,null,,,,,,,,,
null,is being shouted at by,,html-keyboard-response,130,376039,0.0-13.0-2.19,71839,List1B,black,man,,,,null,,,,,,,,,
10012.9,,,survey-text,131,386056,0.0-13.0-3.19,71839,List1B,black,man,,,,,"{""Q0"":""dave is hugging fred""}","<img src=""stim_listB/shout8.gif""style=""height:400px;""></stim_listB>",is being shouted at by,,,,,,
9896.6,"<img src='img/portrait_matrix_list1.jpg' style='width:900px;height:500px;''></img><p>If you have memorised all the portraits and names and are ready to start, press Continue.</p><p><strong>Please note: Your memory of these faces will be tested 4 times during this experiment.</strong></p>",0,html-button-response,132,395955,0.0-14.0-0.0,71839,List1B,black,man,,,,,,,,,,,,,
2313.1,"<img src=""portrait/WW2.jpg""style=""height:400px;""></img>",3,html-button-response,133,399272,0.0-14.0-1.0,71839,List1B,black,man,,TRUE,3,,,,,,,,,,
null,CORRECT,,html-keyboard-response,134,400776,0.0-14.0-2.0-0.0,71839,List1B,black,man,,,,null,,,,,,,,,
2320.2,"<img src=""portrait/WM1.jpg""style=""height:400px;""></img>",6,html-button-response,135,403098,0.0-14.0-4.0,71839,List1B,black,man,,TRUE,6,,,,,,,,,,
null,CORRECT,,html-keyboard-response,136,404603,0.0-14.0-5.0-0.0,71839,List1B,black,man,,,,null,,,,,,,,,
2903.4,"<img src=""portrait/WW1.jpg""style=""height:400px;""></img>",1,html-button-response,137,407508,0.0-14.0-7.0,71839,List1B,black,man,,TRUE,1,,,,,,,,,,
null,CORRECT,,html-keyboard-response,138,409014,0.0-14.0-8.0-0.0,71839,List1B,black,man,,,,null,,,,,,,,,
3067.2,"<img src=""portrait/WM2.jpg""style=""height:400px;""></img>",7,html-button-response,139,412083,0.0-14.0-10.0,71839,List1B,black,man,,TRUE,7,,,,,,,,,,
null,CORRECT,,html-keyboard-response,140,413588,0.0-14.0-11.0-0.0,71839,List1B,black,man,,,,null,,,,,,,,,
2648.4,"<img src=""portrait/BW1.jpg""style=""height:400px;""></img>",0,html-button-response,141,416239,0.0-14.0-13.0,71839,List1B,black,man,,TRUE,0,,,,,,,,,,
null,CORRECT,,html-keyboard-response,142,417744,0.0-14.0-14.0-0.0,71839,List1B,black,man,,,,null,,,,,,,,,
1714.1,"<img src=""portrait/BM1.jpg""style=""height:400px;""></img>",4,html-button-response,143,419460,0.0-14.0-16.0,71839,List1B,black,man,,TRUE,4,,,,,,,,,,
null,CORRECT,,html-keyboard-response,144,420968,0.0-14.0-17.0-0.0,71839,List1B,black,man,,,,null,,,,,,,,,
2578.2,"<img src=""portrait/BM2.jpg""style=""height:400px;""></img>",5,html-button-response,145,423549,0.0-14.0-19.0,71839,List1B,black,man,,TRUE,5,,,,,,,,,,
null,CORRECT,,html-keyboard-response,146,425054,0.0-14.0-20.0-0.0,71839,List1B,black,man,,,,null,,,,,,,,,
2125.4,"<img src=""portrait/BW2.jpg""style=""height:400px;""></img>",2,html-button-response,147,427182,0.0-14.0-22.0,71839,List1B,black,man,,TRUE,2,,,,,,,,,,
null,CORRECT,,html-keyboard-response,148,428688,0.0-14.0-23.0-0.0,71839,List1B,black,man,,,,null,,,,,,,,,
1412.2,<p>You got 8 out of 8 right first time. Press Continue.</p>,0,html-button-response,149,430104,0.0-14.0-25.0,71839,List1B,black,man,,,,,,,,,,,,,
null,"<div style=""font-size:60px;"">+</div>",,html-keyboard-response,150,431614,0.0-15.0-0.0,71839,List1B,black,man,,,,null,,,,,,,,,
null,"<img src=""stim_listB/oppose6.gif""style=""height:400px;""></stim_listB>",,html-keyboard-response,151,433617,0.0-15.0-1.0,71839,List1B,black,man,,,,null,,,,,,,,,
null,is being opposed by,,html-keyboard-response,152,435622,0.0-15.0-2.0,71839,List1B,black,man,,,,null,,,,,,,,,
12696,,,survey-text,153,448322,0.0-15.0-3.0,71839,List1B,black,man,,,,,"{""Q0"":""luke is being opposed by fred""}","<img src=""stim_listB/oppose6.gif""style=""height:400px;""></stim_listB>",is being opposed by,,,,,,
null,"<div style=""font-size:60px;"">+</div>",,html-keyboard-response,154,448825,0.0-15.0-0.1,71839,List1B,black,man,,,,null,,,,,,,,,
null,"<img src=""stim_listB/seduce8.gif""style=""height:400px;""></stim_listB>",,html-keyboard-response,155,450829,0.0-15.0-1.1,71839,List1B,black,man,,,,null,,,,,,,,,
null,is being seduced by,,html-keyboard-response,156,452832,0.0-15.0-2.1,71839,List1B,black,man,,,,null,,,,,,,,,
10060.2,,,survey-text,157,462899,0.0-15.0-3.1,71839,List1B,black,man,,,,,"{""Q0"":""ruth is being seduced by kate""}","<img src=""stim_listB/seduce8.gif""style=""height:400px;""></stim_listB>",is being seduced by,,,,,,
null,"<div style=""font-size:60px;"">+</div>",,html-keyboard-response,158,463401,0.0-15.0-0.2,71839,List1B,black,man,,,,null,,,,,,,,,
null,"<img src=""stim_listB/oppose4.gif""style=""height:400px;""></stim_listB>",,html-keyboard-response,159,465406,0.0-15.0-1.2,71839,List1B,black,man,,,,null,,,,,,,,,
null,is being opposed by,,html-keyboard-response,160,467409,0.0-15.0-2.2,71839,List1B,black,man,,,,null,,,,,,,,,
5815.5,,,survey-text,161,473232,0.0-15.0-3.2,71839,List1B,black,man,,,,,"{""Q0"":""ruth is being opposed by luke""}","<img src=""stim_listB/oppose4.gif""style=""height:400px;""></stim_listB>",is being opposed by,,,,,,
null,"<div style=""font-size:60px;"">+</div>",,html-keyboard-response,162,473733,0.0-15.0-0.3,71839,List1B,black,man,,,,null,,,,,,,,,
null,"<img src=""stim_listB/look2.gif""style=""height:400px;""></stim_listB>",,html-keyboard-response,163,475739,0.0-15.0-1.3,71839,List1B,black,man,,,,null,,,,,,,,,
null,is being looked at by,,html-keyboard-response,164,477742,0.0-15.0-2.3,71839,List1B,black,man,,,,null,,,,,,,,,
8389.4,,,survey-text,165,486137,0.0-15.0-3.3,71839,List1B,black,man,,,,,"{""Q0"":""kate is being looked at by mike""}","<img src=""stim_listB/look2.gif""style=""height:400px;""></stim_listB>",is being looked at by,,,,,,
null,"<div style=""font-size:60px;"">+</div>",,html-keyboard-response,166,486641,0.0-15.0-0.4,71839,List1B,black,man,,,,null,,,,,,,,,
null,"<img src=""stim_listB/copy6.gif""style=""height:400px;""></stim_listB>",,html-keyboard-response,167,488644,0.0-15.0-1.4,71839,List1B,black,man,,,,null,,,,,,,,,
null,is being copied by,,html-keyboard-response,168,490647,0.0-15.0-2.4,71839,List1B,black,man,,,,null,,,,,,,,,
5157.5,,,survey-text,169,495812,0.0-15.0-3.4,71839,List1B,black,man,,,,,"{""Q0"":""dave is being copied by fred""}","<img src=""stim_listB/copy6.gif""style=""height:400px;""></stim_listB>",is being copied by,,,,,,
null,"<div style=""font-size:60px;"">+</div>",,html-keyboard-response,170,496313,0.0-15.0-0.5,71839,List1B,black,man,,,,null,,,,,,,,,
null,"<img src=""stim_listB/hug6.gif""style=""height:400px;""></stim_listB>",,html-keyboard-response,171,498317,0.0-15.0-1.5,71839,List1B,black,man,,,,null,,,,,,,,,
null,is being hugged by,,html-keyboard-response,172,500319,0.0-15.0-2.5,71839,List1B,black,man,,,,null,,,,,,,,,
6159.3,,,survey-text,173,506485,0.0-15.0-3.5,71839,List1B,black,man,,,,,"{""Q0"":""mike is being hugged by dave""}","<img src=""stim_listB/hug6.gif""style=""height:400px;""></stim_listB>",is being hugged by,,,,,,
null,"<div style=""font-size:60px;"">+</div>",,html-keyboard-response,174,506988,0.0-15.0-0.6,71839,List1B,black,man,,,,null,,,,,,,,,
null,"<img src=""stim_listB/copy2.gif""style=""height:400px;""></stim_listB>",,html-keyboard-response,175,508991,0.0-15.0-1.6,71839,List1B,black,man,,,,null,,,,,,,,,
null,is being copied by,,html-keyboard-response,176,510994,0.0-15.0-2.6,71839,List1B,black,man,,,,null,,,,,,,,,
4893.2,,,survey-text,177,515892,0.0-15.0-3.6,71839,List1B,black,man,,,,,"{""Q0"":""kate is being copied by fred""}","<img src=""stim_listB/copy2.gif""style=""height:400px;""></stim_listB>",is being copied by,,,,,,
null,"<div style=""font-size:60px;"">+</div>",,html-keyboard-response,178,516395,0.0-15.0-0.7,71839,List1B,black,man,,,,null,,,,,,,,,
null,"<img src=""stim_listB/copy3.gif""style=""height:400px;""></stim_listB>",,html-keyboard-response,179,518401,0.0-15.0-1.7,71839,List1B,black,man,,,,null,,,,,,,,,
null,is copying,,html-keyboard-response,180,520404,0.0-15.0-2.7,71839,List1B,black,man,,,,null,,,,,,,,,
3222.2,,,survey-text,181,523629,0.0-15.0-3.7,71839,List1B,black,man,,,,,"{""Q0"":""ruth is copying dave""}","<img src=""stim_listB/copy3.gif""style=""height:400px;""></stim_listB>",is copying,,,,,,
null,"<div style=""font-size:60px;"">+</div>",,html-keyboard-response,182,524131,0.0-15.0-0.8,71839,List1B,black,man,,,,null,,,,,,,,,
null,"<img src=""stim_listB/shout1.gif""style=""height:400px;""></stim_listB>",,html-keyboard-response,183,526137,0.0-15.0-1.8,71839,List1B,black,man,,,,null,,,,,,,,,
null,is shouting at,,html-keyboard-response,184,528142,0.0-15.0-2.8,71839,List1B,black,man,,,,null,,,,,,,,,
3371.7,,,survey-text,185,531519,0.0-15.0-3.8,71839,List1B,black,man,,,,,"{""Q0"":""beth is shouting at fred""}","<img src=""stim_listB/shout1.gif""style=""height:400px;""></stim_listB>",is shouting at,,,,,,
null,"<div style=""font-size:60px;"">+</div>",,html-keyboard-response,186,532023,0.0-15.0-0.9,71839,List1B,black,man,,,,null,,,,,,,,,
null,"<img src=""stim_listB/touch2.gif""style=""height:400px;""></stim_listB>",,html-keyboard-response,187,534029,0.0-15.0-1.9,71839,List1B,black,man,,,,null,,,,,,,,,
null,is being touched by,,html-keyboard-response,188,536032,0.0-15.0-2.9,71839,List1B,black,man,,,,null,,,,,,,,,
3829.2,,,survey-text,189,539866,0.0-15.0-3.9,71839,List1B,black,man,,,,,"{""Q0"":""beth is being touched by fred""}","<img src=""stim_listB/touch2.gif""style=""height:400px;""></stim_listB>",is being touched by,,,,,,
null,"<div style=""font-size:60px;"">+</div>",,html-keyboard-response,190,540368,0.0-15.0-0.10,71839,List1B,black,man,,,,null,,,,,,,,,
null,"<img src=""stim_listB/greet7.gif""style=""height:400px;""></stim_listB>",,html-keyboard-response,191,542372,0.0-15.0-1.10,71839,List1B,black,man,,,,null,,,,,,,,,
null,is greeting,,html-keyboard-response,192,544375,0.0-15.0-2.10,71839,List1B,black,man,,,,null,,,,,,,,,
2992.5,,,survey-text,193,547374,0.0-15.0-3.10,71839,List1B,black,man,,,,,"{""Q0"":""ruth is greeting kate""}","<img src=""stim_listB/greet7.gif""style=""height:400px;""></stim_listB>",is greeting,,,,,,
null,"<div style=""font-size:60px;"">+</div>",,html-keyboard-response,194,547878,0.0-15.0-0.11,71839,List1B,black,man,,,,null,,,,,,,,,
null,"<img src=""stim_listB/hug7.gif""style=""height:400px;""></stim_listB>",,html-keyboard-response,195,549883,0.0-15.0-1.11,71839,List1B,black,man,,,,null,,,,,,,,,
null,is hugging,,html-keyboard-response,196,551885,0.0-15.0-2.11,71839,List1B,black,man,,,,null,,,,,,,,,
3829.7,,,survey-text,197,555721,0.0-15.0-3.11,71839,List1B,black,man,,,,,"{""Q0"":""beth is hugging ruth""}","<img src=""stim_listB/hug7.gif""style=""height:400px;""></stim_listB>",is hugging,,,,,,
null,"<div style=""font-size:60px;"">+</div>",,html-keyboard-response,198,556223,0.0-15.0-0.12,71839,List1B,black,man,,,,null,,,,,,,,,
null,"<img src=""stim_listB/look6.gif""style=""height:400px;""></stim_listB>",,html-keyboard-response,199,558226,0.0-15.0-1.12,71839,List1B,black,man,,,,null,,,,,,,,,
null,is being looked at by,,html-keyboard-response,200,560228,0.0-15.0-2.12,71839,List1B,black,man,,,,null,,,,,,,,,
4915.1,,,survey-text,201,565149,0.0-15.0-3.12,71839,List1B,black,man,,,,,"{""Q0"":""mike is being looked at by dave""}","<img src=""stim_listB/look6.gif""style=""height:400px;""></stim_listB>",is being looked at by,,,,,,
null,"<div style=""font-size:60px;"">+</div>",,html-keyboard-response,202,565650,0.0-15.0-0.13,71839,List1B,black,man,,,,null,,,,,,,,,
null,"<img src=""stim_listB/touch6.gif""style=""height:400px;""></stim_listB>",,html-keyboard-response,203,567652,0.0-15.0-1.13,71839,List1B,black,man,,,,null,,,,,,,,,
null,is being touched by,,html-keyboard-response,204,569658,0.0-15.0-2.13,71839,List1B,black,man,,,,null,,,,,,,,,
4603.7,,,survey-text,205,574268,0.0-15.0-3.13,71839,List1B,black,man,,,,,"{""Q0"":""luke is being touched by fred""}","<img src=""stim_listB/touch6.gif""style=""height:400px;""></stim_listB>",is being touched by,,,,,,
null,"<div style=""font-size:60px;"">+</div>",,html-keyboard-response,206,574770,0.0-15.0-0.14,71839,List1B,black,man,,,,null,,,,,,,,,
null,"<img src=""stim_listB/seduce6.gif""style=""height:400px;""></stim_listB>",,html-keyboard-response,207,576776,0.0-15.0-1.14,71839,List1B,black,man,,,,null,,,,,,,,,
null,is being seduced by,,html-keyboard-response,208,578781,0.0-15.0-2.14,71839,List1B,black,man,,,,null,,,,,,,,,
7228.7,,,survey-text,209,586015,0.0-15.0-3.14,71839,List1B,black,man,,,,,"{""Q0"":""luke is being seduced by mike""}","<img src=""stim_listB/seduce6.gif""style=""height:400px;""></stim_listB>",is being seduced by,,,,,,
null,"<div style=""font-size:60px;"">+</div>",,html-keyboard-response,210,586517,0.0-15.0-0.15,71839,List1B,black,man,,,,null,,,,,,,,,
null,"<img src=""stim_listB/kiss3.gif""style=""height:400px;""></stim_listB>",,html-keyboard-response,211,588522,0.0-15.0-1.15,71839,List1B,black,man,,,,null,,,,,,,,,
null,is kissing,,html-keyboard-response,212,590527,0.0-15.0-2.15,71839,List1B,black,man,,,,null,,,,,,,,,
3968.5,,,survey-text,213,594502,0.0-15.0-3.15,71839,List1B,black,man,,,,,"{""Q0"":""luke is kissing ruth""}","<img src=""stim_listB/kiss3.gif""style=""height:400px;""></stim_listB>",is kissing,,,,,,
null,"<div style=""font-size:60px;"">+</div>",,html-keyboard-response,214,595005,0.0-15.0-0.16,71839,List1B,black,man,,,,null,,,,,,,,,
null,"<img src=""stim_listB/hug8.gif""style=""height:400px;""></stim_listB>",,html-keyboard-response,215,597011,0.0-15.0-1.16,71839,List1B,black,man,,,,null,,,,,,,,,
null,is being hugged by,,html-keyboard-response,216,599017,0.0-15.0-2.16,71839,List1B,black,man,,,,null,,,,,,,,,
6497.2,,,survey-text,217,605520,0.0-15.0-3.16,71839,List1B,black,man,,,,,"{""Q0"":""jane is being hugged by kate""}","<img src=""stim_listB/hug8.gif""style=""height:400px;""></stim_listB>",is being hugged by,,,,,,
null,"<div style=""font-size:60px;"">+</div>",,html-keyboard-response,218,606022,0.0-15.0-0.17,71839,List1B,black,man,,,,null,,,,,,,,,
null,"<img src=""stim_listB/oppose1.gif""style=""height:400px;""></stim_listB>",,html-keyboard-response,219,608028,0.0-15.0-1.17,71839,List1B,black,man,,,,null,,,,,,,,,
null,is opposing,,html-keyboard-response,220,610034,0.0-15.0-2.17,71839,List1B,black,man,,,,null,,,,,,,,,
3124.2,,,survey-text,221,613164,0.0-15.0-3.17,71839,List1B,black,man,,,,,"{""Q0"":""kate is opposing mike""}","<img src=""stim_listB/oppose1.gif""style=""height:400px;""></stim_listB>",is opposing,,,,,,
null,"<div style=""font-size:60px;"">+</div>",,html-keyboard-response,222,613667,0.0-15.0-0.18,71839,List1B,black,man,,,,null,,,,,,,,,
null,"<img src=""stim_listB/greet5.gif""style=""height:400px;""></stim_listB>",,html-keyboard-response,223,615673,0.0-15.0-1.18,71839,List1B,black,man,,,,null,,,,,,,,,
null,is greeting,,html-keyboard-response,224,617675,0.0-15.0-2.18,71839,List1B,black,man,,,,null,,,,,,,,,
6379.8,,,survey-text,225,624062,0.0-15.0-3.18,71839,List1B,black,man,,,,,"{""Q0"":""luke is greeting mike""}","<img src=""stim_listB/greet5.gif""style=""height:400px;""></stim_listB>",is greeting,,,,,,
null,"<div style=""font-size:60px;"">+</div>",,html-keyboard-response,226,624564,0.0-15.0-0.19,71839,List1B,black,man,,,,null,,,,,,,,,
null,"<img src=""stim_listB/copy4.gif""style=""height:400px;""></stim_listB>",,html-keyboard-response,227,626569,0.0-15.0-1.19,71839,List1B,black,man,,,,null,,,,,,,,,
null,is being copied by,,html-keyboard-response,228,628572,0.0-15.0-2.19,71839,List1B,black,man,,,,null,,,,,,,,,
5363.5,,,survey-text,229,633941,0.0-15.0-3.19,71839,List1B,black,man,,,,,"{""Q0"":""jane is being copied by luke""}","<img src=""stim_listB/copy4.gif""style=""height:400px;""></stim_listB>",is being copied by,,,,,,
7293.1,"<img src='img/portrait_matrix_list1.jpg' style='width:900px;height:500px;''></img><p>If you have memorised all the portraits and names and are ready to start, press Continue.</p><p><strong>Please note: Your memory of these faces will be tested 4 times during this experiment.</strong></p>",0,html-button-response,230,641237,0.0-16.0-0.0,71839,List1B,black,man,,,,,,,,,,,,,
1924.4,"<img src=""portrait/WM2.jpg""style=""height:400px;""></img>",7,html-button-response,231,644165,0.0-16.0-1.0,71839,List1B,black,man,,TRUE,7,,,,,,,,,,
null,CORRECT,,html-keyboard-response,232,645675,0.0-16.0-2.0-0.0,71839,List1B,black,man,,,,null,,,,,,,,,
1626.5,"<img src=""portrait/BM2.jpg""style=""height:400px;""></img>",5,html-button-response,233,647303,0.0-16.0-4.0,71839,List1B,black,man,,TRUE,5,,,,,,,,,,
null,CORRECT,,html-keyboard-response,234,648809,0.0-16.0-5.0-0.0,71839,List1B,black,man,,,,null,,,,,,,,,
1602,"<img src=""portrait/WM1.jpg""style=""height:400px;""></img>",6,html-button-response,235,650413,0.0-16.0-7.0,71839,List1B,black,man,,TRUE,6,,,,,,,,,,
null,CORRECT,,html-keyboard-response,236,651920,0.0-16.0-8.0-0.0,71839,List1B,black,man,,,,null,,,,,,,,,
1199.9,"<img src=""portrait/BM1.jpg""style=""height:400px;""></img>",4,html-button-response,237,653122,0.0-16.0-10.0,71839,List1B,black,man,,TRUE,4,,,,,,,,,,
null,CORRECT,,html-keyboard-response,238,654625,0.0-16.0-11.0-0.0,71839,List1B,black,man,,,,null,,,,,,,,,
1374,"<img src=""portrait/WW1.jpg""style=""height:400px;""></img>",1,html-button-response,239,656001,0.0-16.0-13.0,71839,List1B,black,man,,TRUE,1,,,,,,,,,,
null,CORRECT,,html-keyboard-response,240,657510,0.0-16.0-14.0-0.0,71839,List1B,black,man,,,,null,,,,,,,,,
1471.2,"<img src=""portrait/BW1.jpg""style=""height:400px;""></img>",0,html-button-response,241,658984,0.0-16.0-16.0,71839,List1B,black,man,,TRUE,0,,,,,,,,,,
null,CORRECT,,html-keyboard-response,242,660489,0.0-16.0-17.0-0.0,71839,List1B,black,man,,,,null,,,,,,,,,
1384.8,"<img src=""portrait/WW2.jpg""style=""height:400px;""></img>",3,html-button-response,243,661876,0.0-16.0-19.0,71839,List1B,black,man,,TRUE,3,,,,,,,,,,
null,CORRECT,,html-keyboard-response,244,663385,0.0-16.0-20.0-0.0,71839,List1B,black,man,,,,null,,,,,,,,,
1341.8,"<img src=""portrait/BW2.jpg""style=""height:400px;""></img>",2,html-button-response,245,664728,0.0-16.0-22.0,71839,List1B,black,man,,TRUE,2,,,,,,,,,,
null,CORRECT,,html-keyboard-response,246,666235,0.0-16.0-23.0-0.0,71839,List1B,black,man,,,,null,,,,,,,,,
1318,<p>You got 8 out of 8 right first time. Press Continue.</p>,0,html-button-response,247,667557,0.0-16.0-25.0,71839,List1B,black,man,,,,,,,,,,,,,
null,"<div style=""font-size:60px;"">+</div>",,html-keyboard-response,248,669063,0.0-17.0-0.0,71839,List1B,black,man,,,,null,,,,,,,,,
null,"<img src=""stim_listB/kiss4.gif""style=""height:400px;""></stim_listB>",,html-keyboard-response,249,671068,0.0-17.0-1.0,71839,List1B,black,man,,,,null,,,,,,,,,
null,is being kissed by,,html-keyboard-response,250,673076,0.0-17.0-2.0,71839,List1B,black,man,,,,null,,,,,,,,,
5034.2,,,survey-text,251,678115,0.0-17.0-3.0,71839,List1B,black,man,,,,,"{""Q0"":""jane is being kissed by dave""}","<img src=""stim_listB/kiss4.gif""style=""height:400px;""></stim_listB>",is being kissed by,,,,,,
null,"<div style=""font-size:60px;"">+</div>",,html-keyboard-response,252,678618,0.0-17.0-0.1,71839,List1B,black,man,,,,null,,,,,,,,,
null,"<img src=""stim_listB/challenge2.gif""style=""height:400px;""></stim_listB>",,html-keyboard-response,253,680621,0.0-17.0-1.1,71839,List1B,black,man,,,,null,,,,,,,,,
null,is being challenged by,,html-keyboard-response,254,682623,0.0-17.0-2.1,71839,List1B,black,man,,,,null,,,,,,,,,
5018.1,,,survey-text,255,687647,0.0-17.0-3.1,71839,List1B,black,man,,,,,"{""Q0"":""fred is being challenged by kate""}","<img src=""stim_listB/challenge2.gif""style=""height:400px;""></stim_listB>",is being challenged by,,,,,,
null,"<div style=""font-size:60px;"">+</div>",,html-keyboard-response,256,688150,0.0-17.0-0.2,71839,List1B,black,man,,,,null,,,,,,,,,
null,"<img src=""stim_listB/kiss8.gif""style=""height:400px;""></stim_listB>",,html-keyboard-response,257,690153,0.0-17.0-1.2,71839,List1B,black,man,,,,null,,,,,,,,,
null,is being kissed by,,html-keyboard-response,258,692155,0.0-17.0-2.2,71839,List1B,black,man,,,,null,,,,,,,,,
4170.4,,,survey-text,259,696330,0.0-17.0-3.2,71839,List1B,black,man,,,,,"{""Q0"":""jane is being kissed by kate""}","<img src=""stim_listB/kiss8.gif""style=""height:400px;""></stim_listB>",is being kissed by,,,,,,
null,"<div style=""font-size:60px;"">+</div>",,html-keyboard-response,260,696831,0.0-17.0-0.3,71839,List1B,black,man,,,,null,,,,,,,,,
null,"<img src=""stim_listB/oppose5.gif""style=""height:400px;""></stim_listB>",,html-keyboard-response,261,698837,0.0-17.0-1.3,71839,List1B,black,man,,,,null,,,,,,,,,
null,is opposing,,html-keyboard-response,262,700840,0.0-17.0-2.3,71839,List1B,black,man,,,,null,,,,,,,,,
5021.3,,,survey-text,263,705868,0.0-17.0-3.3,71839,List1B,black,man,,,,,"{""Q0"":""mike is opposing dave""}","<img src=""stim_listB/oppose5.gif""style=""height:400px;""></stim_listB>",is opposing,,,,,,
null,"<div style=""font-size:60px;"">+</div>",,html-keyboard-response,264,706371,0.0-17.0-0.4,71839,List1B,black,man,,,,null,,,,,,,,,
null,"<img src=""stim_listB/shout7.gif""style=""height:400px;""></stim_listB>",,html-keyboard-response,265,708375,0.0-17.0-1.4,71839,List1B,black,man,,,,null,,,,,,,,,
null,is shouting at,,html-keyboard-response,266,710379,0.0-17.0-2.4,71839,List1B,black,man,,,,null,,,,,,,,,
4115.5,,,survey-text,267,714498,0.0-17.0-3.4,71839,List1B,black,man,,,,,"{""Q0"":""beth is shouting at ruth""}","<img src=""stim_listB/shout7.gif""style=""height:400px;""></stim_listB>",is shouting at,,,,,,
null,"<div style=""font-size:60px;"">+</div>",,html-keyboard-response,268,714999,0.0-17.0-0.5,71839,List1B,black,man,,,,null,,,,,,,,,
null,"<img src=""stim_listB/shout2.gif""style=""height:400px;""></stim_listB>",,html-keyboard-response,269,717006,0.0-17.0-1.5,71839,List1B,black,man,,,,null,,,,,,,,,
null,is being shouted at by,,html-keyboard-response,270,719010,0.0-17.0-2.5,71839,List1B,black,man,,,,null,,,,,,,,,
5156.8,,,survey-text,271,724174,0.0-17.0-3.5,71839,List1B,black,man,,,,,"{""Q0"":""jane is being shouted at by mike""}","<img src=""stim_listB/shout2.gif""style=""height:400px;""></stim_listB>",is being shouted at by,,,,,,
null,"<div style=""font-size:60px;"">+</div>",,html-keyboard-response,272,724675,0.0-17.0-0.6,71839,List1B,black,man,,,,null,,,,,,,,,
null,"<img src=""stim_listB/copy1.gif""style=""height:400px;""></stim_listB>",,html-keyboard-response,273,726679,0.0-17.0-1.6,71839,List1B,black,man,,,,null,,,,,,,,,
null,is copying,,html-keyboard-response,274,728682,0.0-17.0-2.6,71839,List1B,black,man,,,,null,,,,,,,,,
6583.5,,,survey-text,275,735271,0.0-17.0-3.6,71839,List1B,black,man,,,,,"{""Q0"":""mike is copying beth""}","<img src=""stim_listB/copy1.gif""style=""height:400px;""></stim_listB>",is copying,,,,,,
null,"<div style=""font-size:60px;"">+</div>",,html-keyboard-response,276,735774,0.0-17.0-0.7,71839,List1B,black,man,,,,null,,,,,,,,,
null,"<img src=""stim_listB/copy8.gif""style=""height:400px;""></stim_listB>",,html-keyboard-response,277,737778,0.0-17.0-1.7,71839,List1B,black,man,,,,null,,,,,,,,,
null,is being copied by,,html-keyboard-response,278,739783,0.0-17.0-2.7,71839,List1B,black,man,,,,null,,,,,,,,,
6043.1,,,survey-text,279,745831,0.0-17.0-3.7,71839,List1B,black,man,,,,,"{""Q0"":""jane is being copied by beth""}","<img src=""stim_listB/copy8.gif""style=""height:400px;""></stim_listB>",is being copied by,,,,,,
null,"<div style=""font-size:60px;"">+</div>",,html-keyboard-response,280,746335,0.0-17.0-0.8,71839,List1B,black,man,,,,null,,,,,,,,,
null,"<img src=""stim_listB/challenge1.gif""style=""height:400px;""></stim_listB>",,html-keyboard-response,281,748339,0.0-17.0-1.8,71839,List1B,black,man,,,,null,,,,,,,,,
null,is challenging,,html-keyboard-response,282,750342,0.0-17.0-2.8,71839,List1B,black,man,,,,null,,,,,,,,,
4700.4,,,survey-text,283,755050,0.0-17.0-3.8,71839,List1B,black,man,,,,,"{""Q0"":""mike is challenging beth""}","<img src=""stim_listB/challenge1.gif""style=""height:400px;""></stim_listB>",is challenging,,,,,,
null,"<div style=""font-size:60px;"">+</div>",,html-keyboard-response,284,755553,0.0-17.0-0.9,71839,List1B,black,man,,,,null,,,,,,,,,
null,"<img src=""stim_listB/seduce4.gif""style=""height:400px;""></stim_listB>",,html-keyboard-response,285,757560,0.0-17.0-1.9,71839,List1B,black,man,,,,null,,,,,,,,,
null,is being seduced by,,html-keyboard-response,286,759565,0.0-17.0-2.9,71839,List1B,black,man,,,,null,,,,,,,,,
4814.4,,,survey-text,287,764383,0.0-17.0-3.9,71839,List1B,black,man,,,,,"{""Q0"":""ruth is being seduced by dave""}","<img src=""stim_listB/seduce4.gif""style=""height:400px;""></stim_listB>",is being seduced by,,,,,,
null,"<div style=""font-size:60px;"">+</div>",,html-keyboard-response,288,764884,0.0-17.0-0.10,71839,List1B,black,man,,,,null,,,,,,,,,
null,"<img src=""stim_listB/seduce3.gif""style=""height:400px;""></stim_listB>",,html-keyboard-response,289,766891,0.0-17.0-1.10,71839,List1B,black,man,,,,null,,,,,,,,,
null,is seducing,,html-keyboard-response,290,768894,0.0-17.0-2.10,71839,List1B,black,man,,,,null,,,,,,,,,
3443.5,,,survey-text,291,772345,0.0-17.0-3.10,71839,List1B,black,man,,,,,"{""Q0"":""luke is seducing jane""}","<img src=""stim_listB/seduce3.gif""style=""height:400px;""></stim_listB>",is seducing,,,,,,
null,"<div style=""font-size:60px;"">+</div>",,html-keyboard-response,292,772847,0.0-17.0-0.11,71839,List1B,black,man,,,,null,,,,,,,,,
null,"<img src=""stim_listB/seduce7.gif""style=""height:400px;""></stim_listB>",,html-keyboard-response,293,774850,0.0-17.0-1.11,71839,List1B,black,man,,,,null,,,,,,,,,
null,is seducing,,html-keyboard-response,294,776853,0.0-17.0-2.11,71839,List1B,black,man,,,,null,,,,,,,,,
6945.2,,,survey-text,295,783804,0.0-17.0-3.11,71839,List1B,black,man,,,,,"{""Q0"":""beth is seducing jane""}","<img src=""stim_listB/seduce7.gif""style=""height:400px;""></stim_listB>",is seducing,,,,,,
null,"<div style=""font-size:60px;"">+</div>",,html-keyboard-response,296,784307,0.0-17.0-0.12,71839,List1B,black,man,,,,null,,,,,,,,,
null,"<img src=""stim_listB/shout3.gif""style=""height:400px;""></stim_listB>",,html-keyboard-response,297,786313,0.0-17.0-1.12,71839,List1B,black,man,,,,null,,,,,,,,,
null,is shouting at,,html-keyboard-response,298,788318,0.0-17.0-2.12,71839,List1B,black,man,,,,null,,,,,,,,,
4322.7,,,survey-text,299,792647,0.0-17.0-3.12,71839,List1B,black,man,,,,,"{""Q0"":""luke is shouting at ruth""}","<img src=""stim_listB/shout3.gif""style=""height:400px;""></stim_listB>",is shouting at,,,,,,
null,"<div style=""font-size:60px;"">+</div>",,html-keyboard-response,300,793149,0.0-17.0-0.13,71839,List1B,black,man,,,,null,,,,,,,,,
null,"<img src=""stim_listB/oppose8.gif""style=""height:400px;""></stim_listB>",,html-keyboard-response,301,795153,0.0-17.0-1.13,71839,List1B,black,man,,,,null,,,,,,,,,
null,is being opposed by,,html-keyboard-response,302,797159,0.0-17.0-2.13,71839,List1B,black,man,,,,null,,,,,,,,,
5215.3,,,survey-text,303,802381,0.0-17.0-3.13,71839,List1B,black,man,,,,,"{""Q0"":""ruth is being opposed by beth""}","<img src=""stim_listB/oppose8.gif""style=""height:400px;""></stim_listB>",is being opposed by,,,,,,
null,"<div style=""font-size:60px;"">+</div>",,html-keyboard-response,304,802883,0.0-17.0-0.14,71839,List1B,black,man,,,,null,,,,,,,,,
null,"<img src=""stim_listB/greet2.gif""style=""height:400px;""></stim_listB>",,html-keyboard-response,305,804891,0.0-17.0-1.14,71839,List1B,black,man,,,,null,,,,,,,,,
null,is being greeted by,,html-keyboard-response,306,806894,0.0-17.0-2.14,71839,List1B,black,man,,,,null,,,,,,,,,
4152.7,,,survey-text,307,811055,0.0-17.0-3.14,71839,List1B,black,man,,,,,"{""Q0"":""kate is being greeted by fred""}","<img src=""stim_listB/greet2.gif""style=""height:400px;""></stim_listB>",is being greeted by,,,,,,
null,"<div style=""font-size:60px;"">+</div>",,html-keyboard-response,308,811558,0.0-17.0-0.15,71839,List1B,black,man,,,,null,,,,,,,,,
null,"<img src=""stim_listB/look7.gif""style=""height:400px;""></stim_listB>",,html-keyboard-response,309,813565,0.0-17.0-1.15,71839,List1B,black,man,,,,null,,,,,,,,,
null,is looking at,,html-keyboard-response,310,815567,0.0-17.0-2.15,71839,List1B,black,man,,,,null,,,,,,,,,
4082.8,,,survey-text,311,819657,0.0-17.0-3.15,71839,List1B,black,man,,,,,"{""Q0"":""beth is looking at ruth""}","<img src=""stim_listB/look7.gif""style=""height:400px;""></stim_listB>",is looking at,,,,,,
null,"<div style=""font-size:60px;"">+</div>",,html-keyboard-response,312,820160,0.0-17.0-0.16,71839,List1B,black,man,,,,null,,,,,,,,,
null,"<img src=""stim_listB/challenge4.gif""style=""height:400px;""></stim_listB>",,html-keyboard-response,313,822166,0.0-17.0-1.16,71839,List1B,black,man,,,,null,,,,,,,,,
null,is being challenged by,,html-keyboard-response,314,824171,0.0-17.0-2.16,71839,List1B,black,man,,,,null,,,,,,,,,
5241.6,,,survey-text,315,829418,0.0-17.0-3.16,71839,List1B,black,man,,,,,"{""Q0"":""jane is being challenged by luke""}","<img src=""stim_listB/challenge4.gif""style=""height:400px;""></stim_listB>",is being challenged by,,,,,,
null,"<div style=""font-size:60px;"">+</div>",,html-keyboard-response,316,829920,0.0-17.0-0.17,71839,List1B,black,man,,,,null,,,,,,,,,
null,"<img src=""stim_listB/kiss6.gif""style=""height:400px;""></stim_listB>",,html-keyboard-response,317,831927,0.0-17.0-1.17,71839,List1B,black,man,,,,null,,,,,,,,,
null,is being kissed by,,html-keyboard-response,318,833934,0.0-17.0-2.17,71839,List1B,black,man,,,,null,,,,,,,,,
5506.6,,,survey-text,319,839454,0.0-17.0-3.17,71839,List1B,black,man,,,,,"{""Q0"":""dave is being kissed by mike""}","<img src=""stim_listB/kiss6.gif""style=""height:400px;""></stim_listB>",is being kissed by,,,,,,
null,"<div style=""font-size:60px;"">+</div>",,html-keyboard-response,320,839958,0.0-17.0-0.18,71839,List1B,black,man,,,,null,,,,,,,,,
null,"<img src=""stim_listB/seduce1.gif""style=""height:400px;""></stim_listB>",,html-keyboard-response,321,841966,0.0-17.0-1.18,71839,List1B,black,man,,,,null,,,,,,,,,
null,is seducing,,html-keyboard-response,322,843971,0.0-17.0-2.18,71839,List1B,black,man,,,,null,,,,,,,,,
6182.4,,,survey-text,323,850163,0.0-17.0-3.18,71839,List1B,black,man,,,,,"{""Q0"":""kate is seducing fred""}","<img src=""stim_listB/seduce1.gif""style=""height:400px;""></stim_listB>",is seducing,,,,,,
null,"<div style=""font-size:60px;"">+</div>",,html-keyboard-response,324,850666,0.0-17.0-0.19,71839,List1B,black,man,,,,null,,,,,,,,,
null,"<img src=""stim_listB/challenge7.gif""style=""height:400px;""></stim_listB>",,html-keyboard-response,325,852674,0.0-17.0-1.19,71839,List1B,black,man,,,,null,,,,,,,,,
null,is challenging,,html-keyboard-response,326,854677,0.0-17.0-2.19,71839,List1B,black,man,,,,null,,,,,,,,,
5559.2,,,survey-text,327,860244,0.0-17.0-3.19,71839,List1B,black,man,,,,,"{""Q0"":""kate is challenging ruth""}","<img src=""stim_listB/challenge7.gif""style=""height:400px;""></stim_listB>",is challenging,,,,,,
1903.4,"<img src='img/portrait_matrix_list1.jpg' style='width:900px;height:500px;''></img><p>If you have memorised all the portraits and names and are ready to start, press Continue.</p><p><strong>Please note: Your memory of these faces will be tested 4 times during this experiment.</strong></p>",0,html-button-response,328,862150,0.0-18.0-0.0,71839,List1B,black,man,,,,,,,,,,,,,
1805.8,"<img src=""portrait/WM1.jpg""style=""height:400px;""></img>",6,html-button-response,329,864964,0.0-18.0-1.0,71839,List1B,black,man,,TRUE,6,,,,,,,,,,
null,CORRECT,,html-keyboard-response,330,866470,0.0-18.0-2.0-0.0,71839,List1B,black,man,,,,null,,,,,,,,,
1679.9,"<img src=""portrait/WW1.jpg""style=""height:400px;""></img>",1,html-button-response,331,868152,0.0-18.0-4.0,71839,List1B,black,man,,TRUE,1,,,,,,,,,,
null,CORRECT,,html-keyboard-response,332,869658,0.0-18.0-5.0-0.0,71839,List1B,black,man,,,,null,,,,,,,,,
3670.6,"<img src=""portrait/BM2.jpg""style=""height:400px;""></img>",5,html-button-response,333,873330,0.0-18.0-7.0,71839,List1B,black,man,,TRUE,5,,,,,,,,,,
null,CORRECT,,html-keyboard-response,334,874836,0.0-18.0-8.0-0.0,71839,List1B,black,man,,,,null,,,,,,,,,
1970.5,"<img src=""portrait/WW2.jpg""style=""height:400px;""></img>",3,html-button-response,335,876809,0.0-18.0-10.0,71839,List1B,black,man,,TRUE,3,,,,,,,,,,
null,CORRECT,,html-keyboard-response,336,878316,0.0-18.0-11.0-0.0,71839,List1B,black,man,,,,null,,,,,,,,,
3220.4,"<img src=""portrait/BW2.jpg""style=""height:400px;""></img>",2,html-button-response,337,881538,0.0-18.0-13.0,71839,List1B,black,man,,TRUE,2,,,,,,,,,,
null,CORRECT,,html-keyboard-response,338,883046,0.0-18.0-14.0-0.0,71839,List1B,black,man,,,,null,,,,,,,,,
1782.6,"<img src=""portrait/BM1.jpg""style=""height:400px;""></img>",4,html-button-response,339,884830,0.0-18.0-16.0,71839,List1B,black,man,,TRUE,4,,,,,,,,,,
null,CORRECT,,html-keyboard-response,340,886337,0.0-18.0-17.0-0.0,71839,List1B,black,man,,,,null,,,,,,,,,
1836.8,"<img src=""portrait/WM2.jpg""style=""height:400px;""></img>",7,html-button-response,341,888176,0.0-18.0-19.0,71839,List1B,black,man,,TRUE,7,,,,,,,,,,
null,CORRECT,,html-keyboard-response,342,889681,0.0-18.0-20.0-0.0,71839,List1B,black,man,,,,null,,,,,,,,,
7865.9,"<img src=""portrait/BW1.jpg""style=""height:400px;""></img>",0,html-button-response,343,897549,0.0-18.0-22.0,71839,List1B,black,man,,TRUE,0,,,,,,,,,,
null,CORRECT,,html-keyboard-response,344,899057,0.0-18.0-23.0-0.0,71839,List1B,black,man,,,,null,,,,,,,,,
1264.6,<p>You got 8 out of 8 right first time. Press Continue.</p>,0,html-button-response,345,900325,0.0-18.0-25.0,71839,List1B,black,man,,,,,,,,,,,,,
null,"<div style=""font-size:60px;"">+</div>",,html-keyboard-response,346,901832,0.0-19.0-0.0,71839,List1B,black,man,,,,null,,,,,,,,,
null,"<img src=""stim_listB/hug3.gif""style=""height:400px;""></stim_listB>",,html-keyboard-response,347,903836,0.0-19.0-1.0,71839,List1B,black,man,,,,null,,,,,,,,,
null,is hugging,,html-keyboard-response,348,905838,0.0-19.0-2.0,71839,List1B,black,man,,,,null,,,,,,,,,
6248.8,,,survey-text,349,912095,0.0-19.0-3.0,71839,List1B,black,man,,,,,"{""Q0"":""luke is hugging ruth""}","<img src=""stim_listB/hug3.gif""style=""height:400px;""></stim_listB>",is hugging,,,,,,
null,"<div style=""font-size:60px;"">+</div>",,html-keyboard-response,350,912596,0.0-19.0-0.1,71839,List1B,black,man,,,,null,,,,,,,,,
null,"<img src=""stim_listB/copy5.gif""style=""height:400px;""></stim_listB>",,html-keyboard-response,351,914603,0.0-19.0-1.1,71839,List1B,black,man,,,,null,,,,,,,,,
null,is copying,,html-keyboard-response,352,916606,0.0-19.0-2.1,71839,List1B,black,man,,,,null,,,,,,,,,
3722.3,,,survey-text,353,920334,0.0-19.0-3.1,71839,List1B,black,man,,,,,"{""Q0"":""mike is copying luke""}","<img src=""stim_listB/copy5.gif""style=""height:400px;""></stim_listB>",is copying,,,,,,
null,"<div style=""font-size:60px;"">+</div>",,html-keyboard-response,354,920838,0.0-19.0-0.2,71839,List1B,black,man,,,,null,,,,,,,,,
null,"<img src=""stim_listB/challenge8.gif""style=""height:400px;""></stim_listB>",,html-keyboard-response,355,922841,0.0-19.0-1.2,71839,List1B,black,man,,,,null,,,,,,,,,
null,is being challenged by,,html-keyboard-response,356,924846,0.0-19.0-2.2,71839,List1B,black,man,,,,null,,,,,,,,,
4868.9,,,survey-text,357,929721,0.0-19.0-3.2,71839,List1B,black,man,,,,,"{""Q0"":""jane is being challenged by beth""}","<img src=""stim_listB/challenge8.gif""style=""height:400px;""></stim_listB>",is being challenged by,,,,,,
null,"<div style=""font-size:60px;"">+</div>",,html-keyboard-response,358,930224,0.0-19.0-0.3,71839,List1B,black,man,,,,null,,,,,,,,,
null,"<img src=""stim_listB/greet8.gif""style=""height:400px;""></stim_listB>",,html-keyboard-response,359,932228,0.0-19.0-1.3,71839,List1B,black,man,,,,null,,,,,,,,,
null,is being greeted by,,html-keyboard-response,360,934230,0.0-19.0-2.3,71839,List1B,black,man,,,,null,,,,,,,,,
4505.7,,,survey-text,361,938742,0.0-19.0-3.3,71839,List1B,black,man,,,,,"{""Q0"":""jane is being greeted by beth""}","<img src=""stim_listB/greet8.gif""style=""height:400px;""></stim_listB>",is being greeted by,,,,,,
null,"<div style=""font-size:60px;"">+</div>",,html-keyboard-response,362,939244,0.0-19.0-0.4,71839,List1B,black,man,,,,null,,,,,,,,,
null,"<img src=""stim_listB/kiss5.gif""style=""height:400px;""></stim_listB>",,html-keyboard-response,363,941247,0.0-19.0-1.4,71839,List1B,black,man,,,,null,,,,,,,,,
null,is kissing,,html-keyboard-response,364,943252,0.0-19.0-2.4,71839,List1B,black,man,,,,null,,,,,,,,,
3745.3,,,survey-text,365,947001,0.0-19.0-3.4,71839,List1B,black,man,,,,,"{""Q0"":""luke is kissing fred""}","<img src=""stim_listB/kiss5.gif""style=""height:400px;""></stim_listB>",is kissing,,,,,,
null,"<div style=""font-size:60px;"">+</div>",,html-keyboard-response,366,947503,0.0-19.0-0.5,71839,List1B,black,man,,,,null,,,,,,,,,
null,"<img src=""stim_listB/touch3.gif""style=""height:400px;""></stim_listB>",,html-keyboard-response,367,949510,0.0-19.0-1.5,71839,List1B,black,man,,,,null,,,,,,,,,
null,is touching,,html-keyboard-response,368,951512,0.0-19.0-2.5,71839,List1B,black,man,,,,null,,,,,,,,,
4113,,,survey-text,369,955631,0.0-19.0-3.5,71839,List1B,black,man,,,,,"{""Q0"":""jane is touching dave""}","<img src=""stim_listB/touch3.gif""style=""height:400px;""></stim_listB>",is touching,,,,,,
null,"<div style=""font-size:60px;"">+</div>",,html-keyboard-response,370,956134,0.0-19.0-0.6,71839,List1B,black,man,,,,null,,,,,,,,,
null,"<img src=""stim_listB/oppose2.gif""style=""height:400px;""></stim_listB>",,html-keyboard-response,371,958137,0.0-19.0-1.6,71839,List1B,black,man,,,,null,,,,,,,,,
null,is being opposed by,,html-keyboard-response,372,960142,0.0-19.0-2.6,71839,List1B,black,man,,,,null,,,,,,,,,
5059.3,,,survey-text,373,965210,0.0-19.0-3.6,71839,List1B,black,man,,,,,"{""Q0"":""beth is being opposed by fred""}","<img src=""stim_listB/oppose2.gif""style=""height:400px;""></stim_listB>",is being opposed by,,,,,,
null,"<div style=""font-size:60px;"">+</div>",,html-keyboard-response,374,965712,0.0-19.0-0.7,71839,List1B,black,man,,,,null,,,,,,,,,
null,"<img src=""stim_listB/kiss1.gif""style=""height:400px;""></stim_listB>",,html-keyboard-response,375,967716,0.0-19.0-1.7,71839,List1B,black,man,,,,null,,,,,,,,,
null,is kissing,,html-keyboard-response,376,969722,0.0-19.0-2.7,71839,List1B,black,man,,,,null,,,,,,,,,
2936.9,,,survey-text,377,972665,0.0-19.0-3.7,71839,List1B,black,man,,,,,"{""Q0"":""beth is kissing fred""}","<img src=""stim_listB/kiss1.gif""style=""height:400px;""></stim_listB>",is kissing,,,,,,
null,"<div style=""font-size:60px;"">+</div>",,html-keyboard-response,378,973167,0.0-19.0-0.8,71839,List1B,black,man,,,,null,,,,,,,,,
null,"<img src=""stim_listB/greet4.gif""style=""height:400px;""></stim_listB>",,html-keyboard-response,379,975169,0.0-19.0-1.8,71839,List1B,black,man,,,,null,,,,,,,,,
null,is being greeted by,,html-keyboard-response,380,977171,0.0-19.0-2.8,71839,List1B,black,man,,,,null,,,,,,,,,
4592.2,,,survey-text,381,981768,0.0-19.0-3.8,71839,List1B,black,man,,,,,"{""Q0"":""jane is being greeted by luke""}","<img src=""stim_listB/greet4.gif""style=""height:400px;""></stim_listB>",is being greeted by,,,,,,
null,"<div style=""font-size:60px;"">+</div>",,html-keyboard-response,382,982269,0.0-19.0-0.9,71839,List1B,black,man,,,,null,,,,,,,,,
null,"<img src=""stim_listB/shout5.gif""style=""height:400px;""></stim_listB>",,html-keyboard-response,383,984274,0.0-19.0-1.9,71839,List1B,black,man,,,,null,,,,,,,,,
null,is shouting at,,html-keyboard-response,384,986280,0.0-19.0-2.9,71839,List1B,black,man,,,,null,,,,,,,,,
3680.1,,,survey-text,385,989967,0.0-19.0-3.9,71839,List1B,black,man,,,,,"{""Q0"":""luke is shouting at fred""}","<img src=""stim_listB/shout5.gif""style=""height:400px;""></stim_listB>",is shouting at,,,,,,
null,"<div style=""font-size:60px;"">+</div>",,html-keyboard-response,386,990472,0.0-19.0-0.10,71839,List1B,black,man,,,,null,,,,,,,,,
null,"<img src=""stim_listB/greet1.gif""style=""height:400px;""></stim_listB>",,html-keyboard-response,387,992479,0.0-19.0-1.10,71839,List1B,black,man,,,,null,,,,,,,,,
null,is greeting,,html-keyboard-response,388,994483,0.0-19.0-2.10,71839,List1B,black,man,,,,null,,,,,,,,,
3321.1,,,survey-text,389,997809,0.0-19.0-3.10,71839,List1B,black,man,,,,,"{""Q0"":""beth is greeting mike""}","<img src=""stim_listB/greet1.gif""style=""height:400px;""></stim_listB>",is greeting,,,,,,
null,"<div style=""font-size:60px;"">+</div>",,html-keyboard-response,390,998313,0.0-19.0-0.11,71839,List1B,black,man,,,,null,,,,,,,,,
null,"<img src=""stim_listB/kiss2.gif""style=""height:400px;""></stim_listB>",,html-keyboard-response,391,1000316,0.0-19.0-1.11,71839,List1B,black,man,,,,null,,,,,,,,,
null,is being kissed by,,html-keyboard-response,392,1002319,0.0-19.0-2.11,71839,List1B,black,man,,,,null,,,,,,,,,
5195.9,,,survey-text,393,1007520,0.0-19.0-3.11,71839,List1B,black,man,,,,,"{""Q0"":""mike is being kissed by kate""}","<img src=""stim_listB/kiss2.gif""style=""height:400px;""></stim_listB>",is being kissed by,,,,,,
null,"<div style=""font-size:60px;"">+</div>",,html-keyboard-response,394,1008022,0.0-19.0-0.12,71839,List1B,black,man,,,,null,,,,,,,,,
null,"<img src=""stim_listB/look1.gif""style=""height:400px;""></stim_listB>",,html-keyboard-response,395,1010029,0.0-19.0-1.12,71839,List1B,black,man,,,,null,,,,,,,,,
null,is looking at,,html-keyboard-response,396,1012031,0.0-19.0-2.12,71839,List1B,black,man,,,,null,,,,,,,,,
4222.5,,,survey-text,397,1016257,0.0-19.0-3.12,71839,List1B,black,man,,,,,"{""Q0"":""beth is looking at fred""}","<img src=""stim_listB/look1.gif""style=""height:400px;""></stim_listB>",is looking at,,,,,,
null,"<div style=""font-size:60px;"">+</div>",,html-keyboard-response,398,1016759,0.0-19.0-0.13,71839,List1B,black,man,,,,null,,,,,,,,,
null,"<img src=""stim_listB/look8.gif""style=""height:400px;""></stim_listB>",,html-keyboard-response,399,1018766,0.0-19.0-1.13,71839,List1B,black,man,,,,null,,,,,,,,,
null,is being looked at by,,html-keyboard-response,400,1020768,0.0-19.0-2.13,71839,List1B,black,man,,,,null,,,,,,,,,
6324.4,,,survey-text,401,1027100,0.0-19.0-3.13,71839,List1B,black,man,,,,,"{""Q0"":""jane is being looked at by kate""}","<img src=""stim_listB/look8.gif""style=""height:400px;""></stim_listB>",is being looked at by,,,,,,
null,"<div style=""font-size:60px;"">+</div>",,html-keyboard-response,402,1027602,0.0-19.0-0.14,71839,List1B,black,man,,,,null,,,,,,,,,
null,"<img src=""stim_listB/touch4.gif""style=""height:400px;""></stim_listB>",,html-keyboard-response,403,1029610,0.0-19.0-1.14,71839,List1B,black,man,,,,null,,,,,,,,,
null,is being touched by,,html-keyboard-response,404,1031616,0.0-19.0-2.14,71839,List1B,black,man,,,,null,,,,,,,,,
6108.4,,,survey-text,405,1037731,0.0-19.0-3.14,71839,List1B,black,man,,,,,"{""Q0"":""ruth is being touched by luke""}","<img src=""stim_listB/touch4.gif""style=""height:400px;""></stim_listB>",is being touched by,,,,,,
null,"<div style=""font-size:60px;"">+</div>",,html-keyboard-response,406,1038234,0.0-19.0-0.15,71839,List1B,black,man,,,,null,,,,,,,,,
null,"<img src=""stim_listB/look4.gif""style=""height:400px;""></stim_listB>",,html-keyboard-response,407,1040239,0.0-19.0-1.15,71839,List1B,black,man,,,,null,,,,,,,,,
null,is being looked at by,,html-keyboard-response,408,1042242,0.0-19.0-2.15,71839,List1B,black,man,,,,null,,,,,,,,,
4442.1,,,survey-text,409,1046691,0.0-19.0-3.15,71839,List1B,black,man,,,,,"{""Q0"":""jane is being looked at by dave""}","<img src=""stim_listB/look4.gif""style=""height:400px;""></stim_listB>",is being looked at by,,,,,,
null,"<div style=""font-size:60px;"">+</div>",,html-keyboard-response,410,1047193,0.0-19.0-0.16,71839,List1B,black,man,,,,null,,,,,,,,,
null,"<img src=""stim_listB/seduce2.gif""style=""height:400px;""></stim_listB>",,html-keyboard-response,411,1049196,0.0-19.0-1.16,71839,List1B,black,man,,,,null,,,,,,,,,
null,is being seduced by,,html-keyboard-response,412,1051201,0.0-19.0-2.16,71839,List1B,black,man,,,,null,,,,,,,,,
4511.8,,,survey-text,413,1055720,0.0-19.0-3.16,71839,List1B,black,man,,,,,"{""Q0"":""mike is being seduced by beth""}","<img src=""stim_listB/seduce2.gif""style=""height:400px;""></stim_listB>",is being seduced by,,,,,,
null,"<div style=""font-size:60px;"">+</div>",,html-keyboard-response,414,1056222,0.0-19.0-0.17,71839,List1B,black,man,,,,null,,,,,,,,,
null,"<img src=""stim_listB/hug4.gif""style=""height:400px;""></stim_listB>",,html-keyboard-response,415,1058229,0.0-19.0-1.17,71839,List1B,black,man,,,,null,,,,,,,,,
null,is being hugged by,,html-keyboard-response,416,1060234,0.0-19.0-2.17,71839,List1B,black,man,,,,null,,,,,,,,,
4847.2,,,survey-text,417,1065087,0.0-19.0-3.17,71839,List1B,black,man,,,,,"{""Q0"":""dave is being hugged by jane""}","<img src=""stim_listB/hug4.gif""style=""height:400px;""></stim_listB>",is being hugged by,,,,,,
null,"<div style=""font-size:60px;"">+</div>",,html-keyboard-response,418,1065589,0.0-19.0-0.18,71839,List1B,black,man,,,,null,,,,,,,,,
null,"<img src=""stim_listB/copy7.gif""style=""height:400px;""></stim_listB>",,html-keyboard-response,419,1067592,0.0-19.0-1.18,71839,List1B,black,man,,,,null,,,,,,,,,
null,is copying,,html-keyboard-response,420,1069596,0.0-19.0-2.18,71839,List1B,black,man,,,,null,,,,,,,,,
3276.7,,,survey-text,421,1072878,0.0-19.0-3.18,71839,List1B,black,man,,,,,"{""Q0"":""ruth is copying kate""}","<img src=""stim_listB/copy7.gif""style=""height:400px;""></stim_listB>",is copying,,,,,,
null,"<div style=""font-size:60px;"">+</div>",,html-keyboard-response,422,1073381,0.0-19.0-0.19,71839,List1B,black,man,,,,null,,,,,,,,,
null,"<img src=""stim_listB/hug5.gif""style=""height:400px;""></stim_listB>",,html-keyboard-response,423,1075387,0.0-19.0-1.19,71839,List1B,black,man,,,,null,,,,,,,,,
null,is hugging,,html-keyboard-response,424,1077392,0.0-19.0-2.19,71839,List1B,black,man,,,,null,,,,,,,,,
3621.2,,,survey-text,425,1081019,0.0-19.0-3.19,71839,List1B,black,man,,,,,"{""Q0"":""luke is hugging fred""}","<img src=""stim_listB/hug5.gif""style=""height:400px;""></stim_listB>",is hugging,,,,,,
2026.8,<p>Thank you for completing that task.</p><p>The final part of this session is a questionnaire that will take about 4 minutes.</p><p>Press Continue.</p>,0,html-button-response,426,1083047,0.0-20.0,71839,List1B,black,man,,,,,,,,,,,,,
20008.4,,,survey-text,427,1104079,0.0-21.0,71839,List1B,black,man,,,,,"{""Q0"":""26"",""Q1"":""English"",""Q2"":""English"",""Q3"":""United States"",""Q4"":""American"",""Q5"":""Black"",""Q6"":""Male""}",,,demographics,,,,,
1650.5,<p>Have you lived in the USA for the last 5 years or more?</p>,0,html-button-response,428,1105736,0.0-22.0,71839,List1B,black,man,,,,,,,,fiveyears,,,,,
1642.7,<p>Move the slider to show the extent to which you agree with the following statements.</p>,0,html-button-response,429,1108384,0.0-23.0,71839,List1B,black,man,,,,,,,,,,,,,
3077.5,,,html-slider-response,430,1112467,0.0-24.0-0.0-0.0,71839,List1B,black,man,,,,,,,,survey_gender,67,,,I feel solidarity with my friends.,filler
3360.2,,,html-slider-response,431,1115842,0.0-24.0-0.0-0.1,71839,List1B,black,man,,,,,,,,survey_gender,37,,,Routine is not important to me.,filler
2835.6,,,html-slider-response,432,1118704,0.0-24.0-0.0-0.2,71839,List1B,black,man,,,,,,,,survey_gender,69,,,It is pleasant to be my gender.,pleasant
4031.2,,,html-slider-response,433,1122738,0.0-24.0-0.0-0.3,71839,List1B,black,man,,,,,,,,survey_gender,22,,,People of my gender have a lot in common with each other.,common
4400.3,,,html-slider-response,434,1127141,0.0-24.0-0.0-0.4,71839,List1B,black,man,,,,,,,,survey_gender,2,,,People of my gender are very similar to each other.,verysimilar
4167.2,,,html-slider-response,435,1131312,0.0-24.0-0.0-0.5,71839,List1B,black,man,,,,,,,,survey_gender,0,,,I have a lot in common with the average person of my gender.,average
7935.1,,,html-slider-response,436,1139249,0.0-24.0-0.0-0.6,71839,List1B,black,man,,,,,,,,survey_gender,51,,,I have a lot in common with my friends.,filler
3513.7,,,html-slider-response,437,1142767,0.0-24.0-0.0-0.7,71839,List1B,black,man,,,,,,,,survey_gender,0,,,I feel solidarity with my gender.,solidarity
2773.1,,,html-slider-response,438,1145542,0.0-24.0-0.0-0.8,71839,List1B,black,man,,,,,,,,survey_gender,0,,,I am similar to the average person of my gender.,similar
4000.8,,,html-slider-response,439,1149546,0.0-24.0-0.0-0.9,71839,List1B,black,man,,,,,,,,survey_gender,16,,,Family is not more important to me than friendship.,filler
3845.4,,,html-slider-response,440,1153396,0.0-24.0-0.0-0.10,71839,List1B,black,man,,,,,,,,survey_gender,40,,,Being my gender gives me a good feeling.,feeling
3385.8,,,html-slider-response,441,1156785,0.0-24.0-0.0-0.11,71839,List1B,black,man,,,,,,,,survey_gender,65,,,Being around my friends gives me a good feeling.,filler
3745.4,,,html-slider-response,442,1160533,0.0-24.0-0.0-0.12,71839,List1B,black,man,,,,,,,,survey_gender,25,,,I often think about my actions.,filler
3108,,,html-slider-response,443,1163644,0.0-24.0-0.0-0.13,71839,List1B,black,man,,,,,,,,survey_gender,14,,,My friends have a lot in common with each other.,filler
2830.9,,,html-slider-response,444,1166477,0.0-24.0-0.0-0.14,71839,List1B,black,man,,,,,,,,survey_gender,2,,,I consider myself a highly empathetic person.,filler
2738.5,,,html-slider-response,445,1169218,0.0-24.0-0.0-0.15,71839,List1B,black,man,,,,,,,,survey_gender,8,,,I would say I am an animal person.,filler
3367.3,,,html-slider-response,446,1172587,0.0-24.0-0.0-0.16,71839,List1B,black,man,,,,,,,,survey_gender,20,,,I feel committed to my gender.,committed
3550.9,,,html-slider-response,447,1176141,0.0-24.0-0.0-0.17,71839,List1B,black,man,,,,,,,,survey_gender,0,,,Most of the friends in my life are very similar to me.,filler
3460.6,,,html-slider-response,448,1179603,0.0-24.0-0.0-0.18,71839,List1B,black,man,,,,,,,,survey_gender,10,,,The fact that I am my gender is an important part of my identity.,identity
3631.7,,,html-slider-response,449,1183238,0.0-24.0-0.0-0.19,71839,List1B,black,man,,,,,,,,survey_gender,0,,,I feel a bond with my gender.,bond
3864.7,,,html-slider-response,450,1187105,0.0-24.0-0.0-0.20,71839,List1B,black,man,,,,,,,,survey_gender,93,,,It is not always easy for people to know what I am thinking.,filler
3196.2,,,html-slider-response,451,1190304,0.0-24.0-0.0-0.21,71839,List1B,black,man,,,,,,,,survey_gender,81,,,I am glad to have the friends that I have.,filler
3671,,,html-slider-response,452,1193978,0.0-24.0-0.0-0.22,71839,List1B,black,man,,,,,,,,survey_gender,0,,,I think that my gender has a lot to be proud of.,proud
3191.9,,,html-slider-response,453,1197172,0.0-24.0-0.0-0.23,71839,List1B,black,man,,,,,,,,survey_gender,72,,,I feel a bond with my friends.,filler
4898.7,,,html-slider-response,454,1202074,0.0-24.0-0.0-0.24,71839,List1B,black,man,,,,,,,,survey_gender,25,,,I am glad to be my gender.,glad
3861.8,,,html-slider-response,455,1205938,0.0-24.0-0.0-0.25,71839,List1B,black,man,,,,,,,,survey_gender,14,,,I often think about the fact that I am my gender.,often
2955.4,,,html-slider-response,456,1208898,0.0-24.0-0.0-0.26,71839,List1B,black,man,,,,,,,,survey_gender,23,,,My friends understand me.,filler
4328.9,,,html-slider-response,457,1213229,0.0-24.0-0.0-0.27,71839,List1B,black,man,,,,,,,,survey_gender,0,,,Being my gender is an important part of how I see myself.,important
3051.8,,,html-slider-response,458,1216283,0.0-24.0-1.0-0.0,71839,List1B,black,man,,,,,,,,survey_race,0,,,"The older I get, the wiser I feel.",filler
3569.9,,,html-slider-response,459,1219856,0.0-24.0-1.0-0.1,71839,List1B,black,man,,,,,,,,survey_race,82,,,It is pleasant to be my race.,pleasant
3325,,,html-slider-response,460,1223183,0.0-24.0-1.0-0.2,71839,List1B,black,man,,,,,,,,survey_race,32,,,People of my race are very similar to each other.,verysimilar
4138,,,html-slider-response,461,1227324,0.0-24.0-1.0-0.3,71839,List1B,black,man,,,,,,,,survey_race,100,,,I think that my race has a lot to be proud of.,proud
3146.5,,,html-slider-response,462,1230474,0.0-24.0-1.0-0.4,71839,List1B,black,man,,,,,,,,survey_race,65,,,I am similar to the average person of my race.,similar
2682.4,,,html-slider-response,463,1233160,0.0-24.0-1.0-0.5,71839,List1B,black,man,,,,,,,,survey_race,100,,,I am glad to be my race.,glad
3967.4,,,html-slider-response,464,1237129,0.0-24.0-1.0-0.6,71839,List1B,black,man,,,,,,,,survey_race,19,,,I have a lot in common with people of a similar age to me.,filler
2579.4,,,html-slider-response,465,1239711,0.0-24.0-1.0-0.7,71839,List1B,black,man,,,,,,,,survey_race,100,,,The fact that I am my race is an important part of my identity.,identity
2302.1,,,html-slider-response,466,1242015,0.0-24.0-1.0-0.8,71839,List1B,black,man,,,,,,,,survey_race,100,,,I often think about the fact that I am my race.,often
2862.8,,,html-slider-response,467,1244880,0.0-24.0-1.0-0.9,71839,List1B,black,man,,,,,,,,survey_race,100,,,Being my race is an important part of how I see myself.,important
3267.3,,,html-slider-response,468,1248149,0.0-24.0-1.0-0.10,71839,List1B,black,man,,,,,,,,survey_race,11,,,I often think about the fact that I am my age.,filler
2791.8,,,html-slider-response,469,1250943,0.0-24.0-1.0-0.11,71839,List1B,black,man,,,,,,,,survey_race,6,,,Being my age gives me a good feeling.,filler
2340.4,,,html-slider-response,470,1253286,0.0-24.0-1.0-0.12,71839,List1B,black,man,,,,,,,,survey_race,24,,,I am glad to be my age.,filler
2394.6,,,html-slider-response,471,1255682,0.0-24.0-1.0-0.13,71839,List1B,black,man,,,,,,,,survey_race,100,,,I consider myself an introvert.,filler
2454.3,,,html-slider-response,472,1258138,0.0-24.0-1.0-0.14,71839,List1B,black,man,,,,,,,,survey_race,100,,,I feel solidarity with my race.,solidarity
2521.9,,,html-slider-response,473,1260663,0.0-24.0-1.0-0.15,71839,List1B,black,man,,,,,,,,survey_race,0,,,I enjoy being in large groups.,filler
2822.8,,,html-slider-response,474,1263488,0.0-24.0-1.0-0.16,71839,List1B,black,man,,,,,,,,survey_race,0,,,I feel solidarity with people the same age as me.,filler
3143.4,,,html-slider-response,475,1266634,0.0-24.0-1.0-0.17,71839,List1B,black,man,,,,,,,,survey_race,14,,,Getting older does not worry me.,filler
3589.1,,,html-slider-response,476,1270226,0.0-24.0-1.0-0.18,71839,List1B,black,man,,,,,,,,survey_race,0,,,I feel a bond with people the same age as me.,filler
3404.2,,,html-slider-response,477,1273634,0.0-24.0-1.0-0.19,71839,List1B,black,man,,,,,,,,survey_race,71,,,People of my race have a lot in common with each other.,common
3360.5,,,html-slider-response,478,1276996,0.0-24.0-1.0-0.20,71839,List1B,black,man,,,,,,,,survey_race,88,,,I have a lot in common with the average person of my race.,average
3102.2,,,html-slider-response,479,1280101,0.0-24.0-1.0-0.21,71839,List1B,black,man,,,,,,,,survey_race,17,,,People my age have a lot in common with each other.,filler
3685.1,,,html-slider-response,480,1283788,0.0-24.0-1.0-0.22,71839,List1B,black,man,,,,,,,,survey_race,100,,,Being my race gives me a good feeling.,feeling
3583.4,,,html-slider-response,481,1287374,0.0-24.0-1.0-0.23,71839,List1B,black,man,,,,,,,,survey_race,100,,,My age is not an important part of who I am.,filler
2662,,,html-slider-response,482,1290039,0.0-24.0-1.0-0.24,71839,List1B,black,man,,,,,,,,survey_race,100,,,I feel committed to my race.,committed
2466.3,,,html-slider-response,483,1292507,0.0-24.0-1.0-0.25,71839,List1B,black,man,,,,,,,,survey_race,100,,,I feel a bond with my race.,bond
3006.5,,,html-slider-response,484,1295516,0.0-24.0-1.0-0.26,71839,List1B,black,man,,,,,,,,survey_race,30,,,I am glad to be the age I am.,filler
3179,,,html-slider-response,485,1298697,0.0-24.0-1.0-0.27,71839,List1B,black,man,,,,,,,,survey_race,0,,,I consider myself an extrovert.,filler
3485.7,,,survey-text,486,1302189,0.0-25.0,71839,List1B,black,man,,,,,"{""Q0"":""ccc""}",,,worker_id,,,,,
3079.3,,,external-html,487,1305487,0.0-26.0,71839,List1B,black,man,debrief.html,,,,,,,,,,,,
