"rt","stimulus","button_pressed","trial_type","trial_index","time_elapsed","internal_node_id","subject","list","ppt_race","ppt_gender","url","first_guess","correct","key_press","responses","image_type","phrase_type","test_part","response","stimulus1","stimulus2","question_type","survey_item"
"1887.0999999940395","Welcome to the experiment. Press Continue to begin.","0","html-button-response","0","1900","0.0-0.0","71865","List1B","black","man","","","","","","","","","","","","",""
"4128.299999982119","","","external-html","1","7080","0.0-1.0","71865","List1B","black","man","consent.html","","","","","","","","","","","",""
"3980","<p>On the next page, you will see portraits of 8 people and their names.</p><p>Your first task is to take a few minutes to memorise the names of these people.</p><p>You will have to recall their names during the rest of the experiment, so it is</p><p>essential that you try to memorise these people and their names as best as you can.</p><br><p><strong>You will then be tested on your memory of these names and portraits.</strong></p><br><p>The experiment will start after you have completed this memory test.</p><br><p>Ready?</p>","0","html-button-response","2","11068","0.0-2.0","71865","List1B","black","man","","","","","","","","","","","","",""
"2726.199999988079","<img src='img/portrait_matrix_list1.jpg' style='width:900px;height:500px;''></img><p>If you have memorised all the portraits and names and are ready to start, press Continue.</p><p><strong>Please note: Your memory of these faces will be tested 4 times during this experiment.</strong></p>","0","html-button-response","3","14806","0.0-3.0-0.0","71865","List1B","black","man","","","","","","","","","","","","",""
"6798.800000011921","<img src=""portrait/WW1.jpg""style=""height:400px;""></img>","3","html-button-response","4","22619","0.0-3.0-1.0","71865","List1B","black","man","","true","1","","","","","","","","","",""
"3631.5","<img src=""portrait/WW1.jpg""style=""height:400px;""></img>","1","html-button-response","5","27272","0.0-3.0-3.0-0.0","71865","List1B","black","man","","false","1","","","","","","","","","",""
"null","CORRECT","","html-keyboard-response","6","28800","0.0-3.0-3.0-1.0-0.0","71865","List1B","black","man","","","","null","","","","","","","","",""
"3830.5","<img src=""portrait/WM2.jpg""style=""height:400px;""></img>","7","html-button-response","7","32648","0.0-3.0-4.0","71865","List1B","black","man","","true","7","","","","","","","","","",""
"null","CORRECT","","html-keyboard-response","8","34156","0.0-3.0-5.0-0.0","71865","List1B","black","man","","","","null","","","","","","","","",""
"5805","<img src=""portrait/WM1.jpg""style=""height:400px;""></img>","6","html-button-response","9","39969","0.0-3.0-7.0","71865","List1B","black","man","","true","6","","","","","","","","","",""
"null","CORRECT","","html-keyboard-response","10","41477","0.0-3.0-8.0-0.0","71865","List1B","black","man","","","","null","","","","","","","","",""
"3528.300000011921","<img src=""portrait/WW2.jpg""style=""height:400px;""></img>","3","html-button-response","11","45015","0.0-3.0-10.0","71865","List1B","black","man","","true","3","","","","","","","","","",""
"null","CORRECT","","html-keyboard-response","12","46523","0.0-3.0-11.0-0.0","71865","List1B","black","man","","","","null","","","","","","","","",""
"5843.799999982119","<img src=""portrait/BW1.jpg""style=""height:400px;""></img>","0","html-button-response","13","52378","0.0-3.0-13.0","71865","List1B","black","man","","true","0","","","","","","","","","",""
"null","CORRECT","","html-keyboard-response","14","53888","0.0-3.0-14.0-0.0","71865","List1B","black","man","","","","null","","","","","","","","",""
"4161.899999976158","<img src=""portrait/BW2.jpg""style=""height:400px;""></img>","2","html-button-response","15","58064","0.0-3.0-16.0","71865","List1B","black","man","","true","2","","","","","","","","","",""
"null","CORRECT","","html-keyboard-response","16","59573","0.0-3.0-17.0-0.0","71865","List1B","black","man","","","","null","","","","","","","","",""
"3220.0999999940395","<img src=""portrait/BM1.jpg""style=""height:400px;""></img>","4","html-button-response","17","62804","0.0-3.0-19.0","71865","List1B","black","man","","true","4","","","","","","","","","",""
"null","CORRECT","","html-keyboard-response","18","64312","0.0-3.0-20.0-0.0","71865","List1B","black","man","","","","null","","","","","","","","",""
"4170.699999988079","<img src=""portrait/BM2.jpg""style=""height:400px;""></img>","5","html-button-response","19","68495","0.0-3.0-22.0","71865","List1B","black","man","","true","5","","","","","","","","","",""
"null","CORRECT","","html-keyboard-response","20","70004","0.0-3.0-23.0-0.0","71865","List1B","black","man","","","","null","","","","","","","","",""
"2244.7000000178814","<p>You got 7 out of 8 right first time. Press Continue.</p>","0","html-button-response","21","72264","0.0-3.0-25.0","71865","List1B","black","man","","","","","","","","","","","","",""
"5058","As you did not score 100%, the memory game will repeat. Press Continue.","0","html-button-response","22","78333","0.0-3.0-26.0-0.0","71865","List1B","black","man","","","","","","","","","","","","",""
"2988.199999988079","<img src='img/portrait_matrix_list1.jpg' style='width:900px;height:500px;''></img><p>If you have memorised all the portraits and names and are ready to start, press Continue.</p><p><strong>Please note: Your memory of these faces will be tested 4 times during this experiment.</strong></p>","0","html-button-response","23","82343","0.0-3.1-0.1","71865","List1B","black","man","","","","","","","","","","","","",""
"8098.800000011921","<img src=""portrait/WW1.jpg""style=""height:400px;""></img>","1","html-button-response","24","91458","0.0-3.1-1.1","71865","List1B","black","man","","true","1","","","","","","","","","",""
"null","CORRECT","","html-keyboard-response","25","92967","0.0-3.1-2.1-0.1","71865","List1B","black","man","","","","null","","","","","","","","",""
"5096.5999999940395","<img src=""portrait/WM2.jpg""style=""height:400px;""></img>","7","html-button-response","26","98076","0.0-3.1-4.1","71865","List1B","black","man","","true","7","","","","","","","","","",""
"null","CORRECT","","html-keyboard-response","27","99588","0.0-3.1-5.1-0.1","71865","List1B","black","man","","","","null","","","","","","","","",""
"6056.799999982119","<img src=""portrait/WM1.jpg""style=""height:400px;""></img>","6","html-button-response","28","105662","0.0-3.1-7.1","71865","List1B","black","man","","true","6","","","","","","","","","",""
"null","CORRECT","","html-keyboard-response","29","107169","0.0-3.1-8.1-0.1","71865","List1B","black","man","","","","null","","","","","","","","",""
"3311.300000011921","<img src=""portrait/WW2.jpg""style=""height:400px;""></img>","3","html-button-response","30","110491","0.0-3.1-10.1","71865","List1B","black","man","","true","3","","","","","","","","","",""
"null","CORRECT","","html-keyboard-response","31","111999","0.0-3.1-11.1-0.1","71865","List1B","black","man","","","","null","","","","","","","","",""
"3403","<img src=""portrait/BW1.jpg""style=""height:400px;""></img>","0","html-button-response","32","115414","0.0-3.1-13.1","71865","List1B","black","man","","true","0","","","","","","","","","",""
"null","CORRECT","","html-keyboard-response","33","116920","0.0-3.1-14.1-0.1","71865","List1B","black","man","","","","null","","","","","","","","",""
"3129.2999999821186","<img src=""portrait/BW2.jpg""style=""height:400px;""></img>","2","html-button-response","34","120058","0.0-3.1-16.1","71865","List1B","black","man","","true","2","","","","","","","","","",""
"null","CORRECT","","html-keyboard-response","35","121568","0.0-3.1-17.1-0.1","71865","List1B","black","man","","","","null","","","","","","","","",""
"3576","<img src=""portrait/BM1.jpg""style=""height:400px;""></img>","4","html-button-response","36","125159","0.0-3.1-19.1","71865","List1B","black","man","","true","4","","","","","","","","","",""
"null","CORRECT","","html-keyboard-response","37","126670","0.0-3.1-20.1-0.1","71865","List1B","black","man","","","","null","","","","","","","","",""
"3477.800000011921","<img src=""portrait/BM2.jpg""style=""height:400px;""></img>","5","html-button-response","38","130169","0.0-3.1-22.1","71865","List1B","black","man","","true","5","","","","","","","","","",""
"null","CORRECT","","html-keyboard-response","39","131676","0.0-3.1-23.1-0.1","71865","List1B","black","man","","","","null","","","","","","","","",""
"2263.199999988079","<p>You got 8 out of 8 right first time. Press Continue.</p>","0","html-button-response","40","133955","0.0-3.1-25.1","71865","List1B","black","man","","","","","","","","","","","","",""
"4515","<p>In this experiment, you will view photographs of the people from the memory game interacting.</p><p>By using the <strong>exact</strong> phrase given <i>after</i> the photograph appears and recalling the correct names of the people in the photographs, form a sentence describing the interaction. You do not need to capitalise names.</p><p>Type your answer in the space provided. Please complete every sentence before moving onto the next trial.</p><p>You will only have a few seconds to memorise each given photograph and phrase before you can respond, so try your best to focus.</p><p>An example is given below. Press 'Continue' when you are ready.</p><img src='img/speaking_example.jpg' style='width:800px;height:460px;''></img>","0","html-button-response","41","139481","0.0-4.0","71865","List1B","black","man","","","","","","","","","","","","",""
"1603.300000011921","<p>Before the experiment starts, you will watch two example trials. Press 'Continue'.</p>","0","html-button-response","42","142091","0.0-5.0","71865","List1B","black","man","","","","","","","","","","","","",""
"null","<img src='img/play_eg.gif' style='height:400px;''></img>","","html-keyboard-response","43","145101","0.0-6.0","71865","List1B","black","man","","","","null","","","","","","","","",""
"null","<p>is playing with</p>","","html-keyboard-response","44","147107","0.0-7.0","71865","List1B","black","man","","","","null","","","","","","","","",""
"7428.299999982119","<p><b>Answer:</b> kate is playing with beth</p>","0","html-button-response","45","154544","0.0-8.0","71865","List1B","black","man","","","","","","","","","","","","",""
"null","<img src='img/dance_eg.gif' style='height:400px;''></img>","","html-keyboard-response","46","157554","0.0-9.0","71865","List1B","black","man","","","","null","","","","","","","","",""
"null","<p>is being entertained by</p>","","html-keyboard-response","47","159558","0.0-10.0","71865","List1B","black","man","","","","null","","","","","","","","",""
"2776.2999999821186","<p><b>Answer:</b> luke is being entertained by dave</p>","0","html-button-response","48","162342","0.0-11.0","71865","List1B","black","man","","","","","","","","","","","","",""
"11173.200000017881","<p>Ready to start the experiment?</p><br><p><strong>Remember to describe the picture using a full sentence,</strong></p><p><strong>that combines the names of the people with the <i>exact</i> phrase given.</strong></p><p><strong>To receive full payment you must do this correctly.</strong></p><p><strong> You do not need to capitalise names or use punctuation.</strong></p><br><p>Press 'Continue' to begin.</p>","0","html-button-response","49","174525","0.0-12.0","71865","List1B","black","man","","","","","","","","","","","","",""
"null","<div style=""font-size:60px;"">+</div>","","html-keyboard-response","50","176034","0.0-13.0-0.0","71865","List1B","black","man","","","","null","","","","","","","","",""
"null","<img src=""stim_listB/touch7.gif""style=""height:400px;""></stim_listB>","","html-keyboard-response","51","178045","0.0-13.0-1.0","71865","List1B","black","man","","","","null","","","","","","","","",""
"null","is touching","","html-keyboard-response","52","180050","0.0-13.0-2.0","71865","List1B","black","man","","","","null","","","","","","","","",""
"15296.699999988079","","","survey-text","53","195376","0.0-13.0-3.0","71865","List1B","black","man","","","","","{""Q0"":""Jane and Kate are playing""}","<img src=""stim_listB/touch7.gif""style=""height:400px;""></stim_listB>","is touching","","","","","",""
"null","<div style=""font-size:60px;"">+</div>","","html-keyboard-response","54","195885","0.0-13.0-0.1","71865","List1B","black","man","","","","null","","","","","","","","",""
"null","<img src=""stim_listB/look5.gif""style=""height:400px;""></stim_listB>","","html-keyboard-response","55","197897","0.0-13.0-1.1","71865","List1B","black","man","","","","null","","","","","","","","",""
"null","is looking at","","html-keyboard-response","56","199907","0.0-13.0-2.1","71865","List1B","black","man","","","","null","","","","","","","","",""
"11502.59999999404","","","survey-text","57","211436","0.0-13.0-3.1","71865","List1B","black","man","","","","","{""Q0"":""Fred is looking at Dave""}","<img src=""stim_listB/look5.gif""style=""height:400px;""></stim_listB>","is looking at","","","","","",""
"null","<div style=""font-size:60px;"">+</div>","","html-keyboard-response","58","211943","0.0-13.0-0.2","71865","List1B","black","man","","","","null","","","","","","","","",""
"null","<img src=""stim_listB/look2.gif""style=""height:400px;""></stim_listB>","","html-keyboard-response","59","213955","0.0-13.0-1.2","71865","List1B","black","man","","","","null","","","","","","","","",""
"null","is being looked at by","","html-keyboard-response","60","215966","0.0-13.0-2.2","71865","List1B","black","man","","","","null","","","","","","","","",""
"18637.19999998808","","","survey-text","61","234659","0.0-13.0-3.2","71865","List1B","black","man","","","","","{""Q0"":""Mike is watching kate""}","<img src=""stim_listB/look2.gif""style=""height:400px;""></stim_listB>","is being looked at by","","","","","",""
"null","<div style=""font-size:60px;"">+</div>","","html-keyboard-response","62","235165","0.0-13.0-0.3","71865","List1B","black","man","","","","null","","","","","","","","",""
"null","<img src=""stim_listB/oppose6.gif""style=""height:400px;""></stim_listB>","","html-keyboard-response","63","237177","0.0-13.0-1.3","71865","List1B","black","man","","","","null","","","","","","","","",""
"null","is being opposed by","","html-keyboard-response","64","239186","0.0-13.0-2.3","71865","List1B","black","man","","","","null","","","","","","","","",""
"16901.20000001788","","","survey-text","65","256114","0.0-13.0-3.3","71865","List1B","black","man","","","","","{""Q0"":""Fred is been opposed by Dave""}","<img src=""stim_listB/oppose6.gif""style=""height:400px;""></stim_listB>","is being opposed by","","","","","",""
"null","<div style=""font-size:60px;"">+</div>","","html-keyboard-response","66","256622","0.0-13.0-0.4","71865","List1B","black","man","","","","null","","","","","","","","",""
"null","<img src=""stim_listB/shout6.gif""style=""height:400px;""></stim_listB>","","html-keyboard-response","67","258640","0.0-13.0-1.4","71865","List1B","black","man","","","","null","","","","","","","","",""
"null","is being shouted at by","","html-keyboard-response","68","260649","0.0-13.0-2.4","71865","List1B","black","man","","","","null","","","","","","","","",""
"15876.100000023842","","","survey-text","69","276567","0.0-13.0-3.4","71865","List1B","black","man","","","","","{""Q0"":""Dave is been shouted at by Mike""}","<img src=""stim_listB/shout6.gif""style=""height:400px;""></stim_listB>","is being shouted at by","","","","","",""
"null","<div style=""font-size:60px;"">+</div>","","html-keyboard-response","70","277075","0.0-13.0-0.5","71865","List1B","black","man","","","","null","","","","","","","","",""
"null","<img src=""stim_listB/shout2.gif""style=""height:400px;""></stim_listB>","","html-keyboard-response","71","279093","0.0-13.0-1.5","71865","List1B","black","man","","","","null","","","","","","","","",""
"null","is being shouted at by","","html-keyboard-response","72","281101","0.0-13.0-2.5","71865","List1B","black","man","","","","null","","","","","","","","",""
"22302.29999998212","","","survey-text","73","303435","0.0-13.0-3.5","71865","List1B","black","man","","","","","{""Q0"":""Mike is being shouted at by Kate""}","<img src=""stim_listB/shout2.gif""style=""height:400px;""></stim_listB>","is being shouted at by","","","","","",""
"null","<div style=""font-size:60px;"">+</div>","","html-keyboard-response","74","303943","0.0-13.0-0.6","71865","List1B","black","man","","","","null","","","","","","","","",""
"null","<img src=""stim_listB/seduce3.gif""style=""height:400px;""></stim_listB>","","html-keyboard-response","75","305959","0.0-13.0-1.6","71865","List1B","black","man","","","","null","","","","","","","","",""
"null","is seducing","","html-keyboard-response","76","307966","0.0-13.0-2.6","71865","List1B","black","man","","","","null","","","","","","","","",""
"11530.40000000596","","","survey-text","77","319530","0.0-13.0-3.6","71865","List1B","black","man","","","","","{""Q0"":""Jane is seducing Luke""}","<img src=""stim_listB/seduce3.gif""style=""height:400px;""></stim_listB>","is seducing","","","","","",""
"null","<div style=""font-size:60px;"">+</div>","","html-keyboard-response","78","320038","0.0-13.0-0.7","71865","List1B","black","man","","","","null","","","","","","","","",""
"null","<img src=""stim_listB/hug1.gif""style=""height:400px;""></stim_listB>","","html-keyboard-response","79","322045","0.0-13.0-1.7","71865","List1B","black","man","","","","null","","","","","","","","",""
"null","is hugging","","html-keyboard-response","80","324051","0.0-13.0-2.7","71865","List1B","black","man","","","","null","","","","","","","","",""
"10367.59999999404","","","survey-text","81","334463","0.0-13.0-3.7","71865","List1B","black","man","","","","","{""Q0"":""Beth is hugging Fred""}","<img src=""stim_listB/hug1.gif""style=""height:400px;""></stim_listB>","is hugging","","","","","",""
"null","<div style=""font-size:60px;"">+</div>","","html-keyboard-response","82","334971","0.0-13.0-0.8","71865","List1B","black","man","","","","null","","","","","","","","",""
"null","<img src=""stim_listB/oppose7.gif""style=""height:400px;""></stim_listB>","","html-keyboard-response","83","336985","0.0-13.0-1.8","71865","List1B","black","man","","","","null","","","","","","","","",""
"null","is opposing","","html-keyboard-response","84","338993","0.0-13.0-2.8","71865","List1B","black","man","","","","null","","","","","","","","",""
"8587","","","survey-text","85","347614","0.0-13.0-3.8","71865","List1B","black","man","","","","","{""Q0"":""Jane is opposing Kate""}","<img src=""stim_listB/oppose7.gif""style=""height:400px;""></stim_listB>","is opposing","","","","","",""
"null","<div style=""font-size:60px;"">+</div>","","html-keyboard-response","86","348123","0.0-13.0-0.9","71865","List1B","black","man","","","","null","","","","","","","","",""
"null","<img src=""stim_listB/seduce2.gif""style=""height:400px;""></stim_listB>","","html-keyboard-response","87","350140","0.0-13.0-1.9","71865","List1B","black","man","","","","null","","","","","","","","",""
"null","is being seduced by","","html-keyboard-response","88","352148","0.0-13.0-2.9","71865","List1B","black","man","","","","null","","","","","","","","",""
"25778.600000023842","","","survey-text","89","377963","0.0-13.0-3.9","71865","List1B","black","man","","","","","{""Q0"":""Beth is seducing Mike""}","<img src=""stim_listB/seduce2.gif""style=""height:400px;""></stim_listB>","is being seduced by","","","","","",""
"null","<div style=""font-size:60px;"">+</div>","","html-keyboard-response","90","378469","0.0-13.0-0.10","71865","List1B","black","man","","","","null","","","","","","","","",""
"null","<img src=""stim_listB/kiss3.gif""style=""height:400px;""></stim_listB>","","html-keyboard-response","91","380478","0.0-13.0-1.10","71865","List1B","black","man","","","","null","","","","","","","","",""
"null","is kissing","","html-keyboard-response","92","382487","0.0-13.0-2.10","71865","List1B","black","man","","","","null","","","","","","","","",""
"16936.40000000596","","","survey-text","93","399459","0.0-13.0-3.10","71865","List1B","black","man","","","","","{""Q0"":""Luke is kissing Ruth""}","<img src=""stim_listB/kiss3.gif""style=""height:400px;""></stim_listB>","is kissing","","","","","",""
"null","<div style=""font-size:60px;"">+</div>","","html-keyboard-response","94","399966","0.0-13.0-0.11","71865","List1B","black","man","","","","null","","","","","","","","",""
"null","<img src=""stim_listB/oppose1.gif""style=""height:400px;""></stim_listB>","","html-keyboard-response","95","401977","0.0-13.0-1.11","71865","List1B","black","man","","","","null","","","","","","","","",""
"null","is opposing","","html-keyboard-response","96","403986","0.0-13.0-2.11","71865","List1B","black","man","","","","null","","","","","","","","",""
"10631.299999982119","","","survey-text","97","414658","0.0-13.0-3.11","71865","List1B","black","man","","","","","{""Q0"":""Mike is opposing Kate""}","<img src=""stim_listB/oppose1.gif""style=""height:400px;""></stim_listB>","is opposing","","","","","",""
"null","<div style=""font-size:60px;"">+</div>","","html-keyboard-response","98","415166","0.0-13.0-0.12","71865","List1B","black","man","","","","null","","","","","","","","",""
"null","<img src=""stim_listB/touch3.gif""style=""height:400px;""></stim_listB>","","html-keyboard-response","99","417183","0.0-13.0-1.12","71865","List1B","black","man","","","","null","","","","","","","","",""
"null","is touching","","html-keyboard-response","100","419195","0.0-13.0-2.12","71865","List1B","black","man","","","","null","","","","","","","","",""
"11649.59999999404","","","survey-text","101","430891","0.0-13.0-3.12","71865","List1B","black","man","","","","","{""Q0"":""Beth is touching Dave""}","<img src=""stim_listB/touch3.gif""style=""height:400px;""></stim_listB>","is touching","","","","","",""
"null","<div style=""font-size:60px;"">+</div>","","html-keyboard-response","102","431396","0.0-13.0-0.13","71865","List1B","black","man","","","","null","","","","","","","","",""
"null","<img src=""stim_listB/greet6.gif""style=""height:400px;""></stim_listB>","","html-keyboard-response","103","433410","0.0-13.0-1.13","71865","List1B","black","man","","","","null","","","","","","","","",""
"null","is being greeted by","","html-keyboard-response","104","435418","0.0-13.0-2.13","71865","List1B","black","man","","","","null","","","","","","","","",""
"27122.19999998808","","","survey-text","105","462572","0.0-13.0-3.13","71865","List1B","black","man","","","","","{""Q0"":""Dave is shaking Fred""}","<img src=""stim_listB/greet6.gif""style=""height:400px;""></stim_listB>","is being greeted by","","","","","",""
"null","<div style=""font-size:60px;"">+</div>","","html-keyboard-response","106","463077","0.0-13.0-0.14","71865","List1B","black","man","","","","null","","","","","","","","",""
"null","<img src=""stim_listB/copy2.gif""style=""height:400px;""></stim_listB>","","html-keyboard-response","107","465087","0.0-13.0-1.14","71865","List1B","black","man","","","","null","","","","","","","","",""
"null","is being copied by","","html-keyboard-response","108","467094","0.0-13.0-2.14","71865","List1B","black","man","","","","null","","","","","","","","",""
"8792.699999988079","","","survey-text","109","475912","0.0-13.0-3.14","71865","List1B","black","man","","","","","{""Q0"":""Fred is being copied by Kate""}","<img src=""stim_listB/copy2.gif""style=""height:400px;""></stim_listB>","is being copied by","","","","","",""
"null","<div style=""font-size:60px;"">+</div>","","html-keyboard-response","110","476418","0.0-13.0-0.15","71865","List1B","black","man","","","","null","","","","","","","","",""
"null","<img src=""stim_listB/seduce4.gif""style=""height:400px;""></stim_listB>","","html-keyboard-response","111","478424","0.0-13.0-1.15","71865","List1B","black","man","","","","null","","","","","","","","",""
"null","is being seduced by","","html-keyboard-response","112","480428","0.0-13.0-2.15","71865","List1B","black","man","","","","null","","","","","","","","",""
"19889.09999999404","","","survey-text","113","500344","0.0-13.0-3.15","71865","List1B","black","man","","","","","{""Q0"":""Ruth is seducing Dave""}","<img src=""stim_listB/seduce4.gif""style=""height:400px;""></stim_listB>","is being seduced by","","","","","",""
"null","<div style=""font-size:60px;"">+</div>","","html-keyboard-response","114","500852","0.0-13.0-0.16","71865","List1B","black","man","","","","null","","","","","","","","",""
"null","<img src=""stim_listB/shout5.gif""style=""height:400px;""></stim_listB>","","html-keyboard-response","115","502947","0.0-13.0-1.16","71865","List1B","black","man","","","","null","","","","","","","","",""
"null","is shouting at","","html-keyboard-response","116","504955","0.0-13.0-2.16","71865","List1B","black","man","","","","null","","","","","","","","",""
"12575.09999999404","","","survey-text","117","517568","0.0-13.0-3.16","71865","List1B","black","man","","","","","{""Q0"":""Dave is shouting at Luke""}","<img src=""stim_listB/shout5.gif""style=""height:400px;""></stim_listB>","is shouting at","","","","","",""
"null","<div style=""font-size:60px;"">+</div>","","html-keyboard-response","118","518074","0.0-13.0-0.17","71865","List1B","black","man","","","","null","","","","","","","","",""
"null","<img src=""stim_listB/look4.gif""style=""height:400px;""></stim_listB>","","html-keyboard-response","119","520082","0.0-13.0-1.17","71865","List1B","black","man","","","","null","","","","","","","","",""
"null","is being looked at by","","html-keyboard-response","120","522090","0.0-13.0-2.17","71865","List1B","black","man","","","","null","","","","","","","","",""
"17861.59999999404","","","survey-text","121","553328","0.0-13.0-3.17","71865","List1B","black","man","","","","","{""Q0"":""Dave is being looked at by Jane""}","<img src=""stim_listB/look4.gif""style=""height:400px;""></stim_listB>","is being looked at by","","","","","",""
"null","<div style=""font-size:60px;"">+</div>","","html-keyboard-response","122","553837","0.0-13.0-0.18","71865","List1B","black","man","","","","null","","","","","","","","",""
"null","<img src=""stim_listB/look3.gif""style=""height:400px;""></stim_listB>","","html-keyboard-response","123","555847","0.0-13.0-1.18","71865","List1B","black","man","","","","null","","","","","","","","",""
"null","is looking at","","html-keyboard-response","124","557857","0.0-13.0-2.18","71865","List1B","black","man","","","","null","","","","","","","","",""
"70153","","","survey-text","125","628050","0.0-13.0-3.18","71865","List1B","black","man","","","","","{""Q0"":""Ruth is looking at Luke""}","<img src=""stim_listB/look3.gif""style=""height:400px;""></stim_listB>","is looking at","","","","","",""
"null","<div style=""font-size:60px;"">+</div>","","html-keyboard-response","126","628556","0.0-13.0-0.19","71865","List1B","black","man","","","","null","","","","","","","","",""
"null","<img src=""stim_listB/kiss7.gif""style=""height:400px;""></stim_listB>","","html-keyboard-response","127","630564","0.0-13.0-1.19","71865","List1B","black","man","","","","null","","","","","","","","",""
"null","is kissing","","html-keyboard-response","128","632574","0.0-13.0-2.19","71865","List1B","black","man","","","","null","","","","","","","","",""
"30523.59999999404","","","survey-text","129","663150","0.0-13.0-3.19","71865","List1B","black","man","","","","","{""Q0"":""Beth is kissing Ruth""}","<img src=""stim_listB/kiss7.gif""style=""height:400px;""></stim_listB>","is kissing","","","","","",""
"86272.40000000596","<img src='img/portrait_matrix_list1.jpg' style='width:900px;height:500px;''></img><p>If you have memorised all the portraits and names and are ready to start, press Continue.</p><p><strong>Please note: Your memory of these faces will be tested 4 times during this experiment.</strong></p>","0","html-button-response","130","749466","0.0-14.0-0.0","71865","List1B","black","man","","","","","","","","","","","","",""
"6713.5999999940395","<img src=""portrait/BM1.jpg""style=""height:400px;""></img>","4","html-button-response","131","757201","0.0-14.0-1.0","71865","List1B","black","man","","true","4","","","","","","","","","",""
"null","CORRECT","","html-keyboard-response","132","758722","0.0-14.0-2.0-0.0","71865","List1B","black","man","","","","null","","","","","","","","",""
"2929.5999999940395","<img src=""portrait/WW2.jpg""style=""height:400px;""></img>","3","html-button-response","133","761669","0.0-14.0-4.0","71865","List1B","black","man","","true","3","","","","","","","","","",""
"null","CORRECT","","html-keyboard-response","134","763178","0.0-14.0-5.0-0.0","71865","List1B","black","man","","","","null","","","","","","","","",""
"3641.199999988079","<img src=""portrait/BM2.jpg""style=""height:400px;""></img>","5","html-button-response","135","766833","0.0-14.0-7.0","71865","List1B","black","man","","true","5","","","","","","","","","",""
"null","CORRECT","","html-keyboard-response","136","768344","0.0-14.0-8.0-0.0","71865","List1B","black","man","","","","null","","","","","","","","",""
"5244.0999999940395","<img src=""portrait/BW1.jpg""style=""height:400px;""></img>","0","html-button-response","137","773595","0.0-14.0-10.0","71865","List1B","black","man","","true","0","","","","","","","","","",""
"null","CORRECT","","html-keyboard-response","138","775106","0.0-14.0-11.0-0.0","71865","List1B","black","man","","","","null","","","","","","","","",""
"4450.5","<img src=""portrait/BW2.jpg""style=""height:400px;""></img>","2","html-button-response","139","779569","0.0-14.0-13.0","71865","List1B","black","man","","true","2","","","","","","","","","",""
"null","CORRECT","","html-keyboard-response","140","781082","0.0-14.0-14.0-0.0","71865","List1B","black","man","","","","null","","","","","","","","",""
"4620.199999988079","<img src=""portrait/WM1.jpg""style=""height:400px;""></img>","6","html-button-response","141","785715","0.0-14.0-16.0","71865","List1B","black","man","","true","6","","","","","","","","","",""
"null","CORRECT","","html-keyboard-response","142","787226","0.0-14.0-17.0-0.0","71865","List1B","black","man","","","","null","","","","","","","","",""
"3643.600000023842","<img src=""portrait/WM2.jpg""style=""height:400px;""></img>","7","html-button-response","143","790885","0.0-14.0-19.0","71865","List1B","black","man","","true","7","","","","","","","","","",""
"null","CORRECT","","html-keyboard-response","144","792396","0.0-14.0-20.0-0.0","71865","List1B","black","man","","","","null","","","","","","","","",""
"3570.800000011921","<img src=""portrait/WW1.jpg""style=""height:400px;""></img>","1","html-button-response","145","795979","0.0-14.0-22.0","71865","List1B","black","man","","true","1","","","","","","","","","",""
"null","CORRECT","","html-keyboard-response","146","797490","0.0-14.0-23.0-0.0","71865","List1B","black","man","","","","null","","","","","","","","",""
"2003.5999999940395","<p>You got 8 out of 8 right first time. Press Continue.</p>","0","html-button-response","147","799510","0.0-14.0-25.0","71865","List1B","black","man","","","","","","","","","","","","",""
"null","<div style=""font-size:60px;"">+</div>","","html-keyboard-response","148","801032","0.0-15.0-0.0","71865","List1B","black","man","","","","null","","","","","","","","",""
"null","<img src=""stim_listB/challenge4.gif""style=""height:400px;""></stim_listB>","","html-keyboard-response","149","803041","0.0-15.0-1.0","71865","List1B","black","man","","","","null","","","","","","","","",""
"null","is being challenged by","","html-keyboard-response","150","805050","0.0-15.0-2.0","71865","List1B","black","man","","","","null","","","","","","","","",""
"10332","","","survey-text","151","815418","0.0-15.0-3.0","71865","List1B","black","man","","","","","{""Q0"":""Luke and Kate are playing""}","<img src=""stim_listB/challenge4.gif""style=""height:400px;""></stim_listB>","is being challenged by","","","","","",""
"null","<div style=""font-size:60px;"">+</div>","","html-keyboard-response","152","815924","0.0-15.0-0.1","71865","List1B","black","man","","","","null","","","","","","","","",""
"null","<img src=""stim_listB/hug2.gif""style=""height:400px;""></stim_listB>","","html-keyboard-response","153","817935","0.0-15.0-1.1","71865","List1B","black","man","","","","null","","","","","","","","",""
"null","is being hugged by","","html-keyboard-response","154","819945","0.0-15.0-2.1","71865","List1B","black","man","","","","null","","","","","","","","",""
"7840.200000017881","","","survey-text","155","827827","0.0-15.0-3.1","71865","List1B","black","man","","","","","{""Q0"":""Mike and Kate are hugging""}","<img src=""stim_listB/hug2.gif""style=""height:400px;""></stim_listB>","is being hugged by","","","","","",""
"null","<div style=""font-size:60px;"">+</div>","","html-keyboard-response","156","828333","0.0-15.0-0.2","71865","List1B","black","man","","","","null","","","","","","","","",""
"null","<img src=""stim_listB/challenge8.gif""style=""height:400px;""></stim_listB>","","html-keyboard-response","157","830347","0.0-15.0-1.2","71865","List1B","black","man","","","","null","","","","","","","","",""
"null","is being challenged by","","html-keyboard-response","158","832355","0.0-15.0-2.2","71865","List1B","black","man","","","","null","","","","","","","","",""
"10101.800000011921","","","survey-text","159","842490","0.0-15.0-3.2","71865","List1B","black","man","","","","","{""Q0"":""Jane is opposing Beth""}","<img src=""stim_listB/challenge8.gif""style=""height:400px;""></stim_listB>","is being challenged by","","","","","",""
"null","<div style=""font-size:60px;"">+</div>","","html-keyboard-response","160","842998","0.0-15.0-0.3","71865","List1B","black","man","","","","null","","","","","","","","",""
"null","<img src=""stim_listB/kiss5.gif""style=""height:400px;""></stim_listB>","","html-keyboard-response","161","845015","0.0-15.0-1.3","71865","List1B","black","man","","","","null","","","","","","","","",""
"null","is kissing","","html-keyboard-response","162","847026","0.0-15.0-2.3","71865","List1B","black","man","","","","null","","","","","","","","",""
"9486.200000017881","","","survey-text","163","856554","0.0-15.0-3.3","71865","List1B","black","man","","","","","{""Q0"":""Fred is kissing Luke""}","<img src=""stim_listB/kiss5.gif""style=""height:400px;""></stim_listB>","is kissing","","","","","",""
"null","<div style=""font-size:60px;"">+</div>","","html-keyboard-response","164","857061","0.0-15.0-0.4","71865","List1B","black","man","","","","null","","","","","","","","",""
"null","<img src=""stim_listB/greet1.gif""style=""height:400px;""></stim_listB>","","html-keyboard-response","165","859074","0.0-15.0-1.4","71865","List1B","black","man","","","","null","","","","","","","","",""
"null","is greeting","","html-keyboard-response","166","861080","0.0-15.0-2.4","71865","List1B","black","man","","","","null","","","","","","","","",""
"16601.29999998212","","","survey-text","167","877712","0.0-15.0-3.4","71865","List1B","black","man","","","","","{""Q0"":""Mike is greeting Breth""}","<img src=""stim_listB/greet1.gif""style=""height:400px;""></stim_listB>","is greeting","","","","","",""
"null","<div style=""font-size:60px;"">+</div>","","html-keyboard-response","168","878221","0.0-15.0-0.5","71865","List1B","black","man","","","","null","","","","","","","","",""
"null","<img src=""stim_listB/oppose5.gif""style=""height:400px;""></stim_listB>","","html-keyboard-response","169","880237","0.0-15.0-1.5","71865","List1B","black","man","","","","null","","","","","","","","",""
"null","is opposing","","html-keyboard-response","170","882245","0.0-15.0-2.5","71865","List1B","black","man","","","","null","","","","","","","","",""
"10592.09999999404","","","survey-text","171","892872","0.0-15.0-3.5","71865","List1B","black","man","","","","","{""Q0"":""Dave is opposing Mike""}","<img src=""stim_listB/oppose5.gif""style=""height:400px;""></stim_listB>","is opposing","","","","","",""
"null","<div style=""font-size:60px;"">+</div>","","html-keyboard-response","172","893379","0.0-15.0-0.6","71865","List1B","black","man","","","","null","","","","","","","","",""
"null","<img src=""stim_listB/seduce5.gif""style=""height:400px;""></stim_listB>","","html-keyboard-response","173","895393","0.0-15.0-1.6","71865","List1B","black","man","","","","null","","","","","","","","",""
"null","is seducing","","html-keyboard-response","174","897403","0.0-15.0-2.6","71865","List1B","black","man","","","","null","","","","","","","","",""
"8207.59999999404","","","survey-text","175","892196","0.0-15.0-3.6","71865","List1B","black","man","","","","","{""Q0"":""Dave is seducing Fred""}","<img src=""stim_listB/seduce5.gif""style=""height:400px;""></stim_listB>","is seducing","","","","","",""
"null","<div style=""font-size:60px;"">+</div>","","html-keyboard-response","176","892701","0.0-15.0-0.7","71865","List1B","black","man","","","","null","","","","","","","","",""
"null","<img src=""stim_listB/shout1.gif""style=""height:400px;""></stim_listB>","","html-keyboard-response","177","894707","0.0-15.0-1.7","71865","List1B","black","man","","","","null","","","","","","","","",""
"null","is shouting at","","html-keyboard-response","178","896714","0.0-15.0-2.7","71865","List1B","black","man","","","","null","","","","","","","","",""
"10698.100000023842","","","survey-text","179","907435","0.0-15.0-3.7","71865","List1B","black","man","","","","","{""Q0"":""Breth is shouting at Fred""}","<img src=""stim_listB/shout1.gif""style=""height:400px;""></stim_listB>","is shouting at","","","","","",""
"null","<div style=""font-size:60px;"">+</div>","","html-keyboard-response","180","907941","0.0-15.0-0.8","71865","List1B","black","man","","","","null","","","","","","","","",""
"null","<img src=""stim_listB/oppose3.gif""style=""height:400px;""></stim_listB>","","html-keyboard-response","181","909952","0.0-15.0-1.8","71865","List1B","black","man","","","","null","","","","","","","","",""
"null","is opposing","","html-keyboard-response","182","911960","0.0-15.0-2.8","71865","List1B","black","man","","","","null","","","","","","","","",""
"8089.899999976158","","","survey-text","183","920070","0.0-15.0-3.8","71865","List1B","black","man","","","","","{""Q0"":""Dave is opposing Jane""}","<img src=""stim_listB/oppose3.gif""style=""height:400px;""></stim_listB>","is opposing","","","","","",""
"null","<div style=""font-size:60px;"">+</div>","","html-keyboard-response","184","920580","0.0-15.0-0.9","71865","List1B","black","man","","","","null","","","","","","","","",""
"null","<img src=""stim_listB/touch1.gif""style=""height:400px;""></stim_listB>","","html-keyboard-response","185","922597","0.0-15.0-1.9","71865","List1B","black","man","","","","null","","","","","","","","",""
"null","is touching","","html-keyboard-response","186","924607","0.0-15.0-2.9","71865","List1B","black","man","","","","null","","","","","","","","",""
"12135.09999999404","","","survey-text","187","936783","0.0-15.0-3.9","71865","List1B","black","man","","","","","{""Q0"":""Mike is shaking Ruth""}","<img src=""stim_listB/touch1.gif""style=""height:400px;""></stim_listB>","is touching","","","","","",""
"null","<div style=""font-size:60px;"">+</div>","","html-keyboard-response","188","937290","0.0-15.0-0.10","71865","List1B","black","man","","","","null","","","","","","","","",""
"null","<img src=""stim_listB/seduce7.gif""style=""height:400px;""></stim_listB>","","html-keyboard-response","189","939308","0.0-15.0-1.10","71865","List1B","black","man","","","","null","","","","","","","","",""
"null","is seducing","","html-keyboard-response","190","941316","0.0-15.0-2.10","71865","List1B","black","man","","","","null","","","","","","","","",""
"8839.300000011921","","","survey-text","191","950189","0.0-15.0-3.10","71865","List1B","black","man","","","","","{""Q0"":""Jane is seducing Breth""}","<img src=""stim_listB/seduce7.gif""style=""height:400px;""></stim_listB>","is seducing","","","","","",""
"null","<div style=""font-size:60px;"">+</div>","","html-keyboard-response","192","950697","0.0-15.0-0.11","71865","List1B","black","man","","","","null","","","","","","","","",""
"null","<img src=""stim_listB/greet7.gif""style=""height:400px;""></stim_listB>","","html-keyboard-response","193","952715","0.0-15.0-1.11","71865","List1B","black","man","","","","null","","","","","","","","",""
"null","is greeting","","html-keyboard-response","194","954725","0.0-15.0-2.11","71865","List1B","black","man","","","","null","","","","","","","","",""
"12989.199999988079","","","survey-text","195","967748","0.0-15.0-3.11","71865","List1B","black","man","","","","","{""Q0"":""Kate is greeting Ruth""}","<img src=""stim_listB/greet7.gif""style=""height:400px;""></stim_listB>","is greeting","","","","","",""
"null","<div style=""font-size:60px;"">+</div>","","html-keyboard-response","196","968256","0.0-15.0-0.12","71865","List1B","black","man","","","","null","","","","","","","","",""
"null","<img src=""stim_listB/look7.gif""style=""height:400px;""></stim_listB>","","html-keyboard-response","197","970271","0.0-15.0-1.12","71865","List1B","black","man","","","","null","","","","","","","","",""
"null","is looking at","","html-keyboard-response","198","972282","0.0-15.0-2.12","71865","List1B","black","man","","","","null","","","","","","","","",""
"10359.200000017881","","","survey-text","199","982681","0.0-15.0-3.12","71865","List1B","black","man","","","","","{""Q0"":""Breth is looking at Ruth""}","<img src=""stim_listB/look7.gif""style=""height:400px;""></stim_listB>","is looking at","","","","","",""
"null","<div style=""font-size:60px;"">+</div>","","html-keyboard-response","200","983189","0.0-15.0-0.13","71865","List1B","black","man","","","","null","","","","","","","","",""
"null","<img src=""stim_listB/kiss4.gif""style=""height:400px;""></stim_listB>","","html-keyboard-response","201","985207","0.0-15.0-1.13","71865","List1B","black","man","","","","null","","","","","","","","",""
"null","is being kissed by","","html-keyboard-response","202","987214","0.0-15.0-2.13","71865","List1B","black","man","","","","null","","","","","","","","",""
"10217.90000000596","","","survey-text","203","997451","0.0-15.0-3.13","71865","List1B","black","man","","","","","{""Q0"":""Dave is being kissed by Kate""}","<img src=""stim_listB/kiss4.gif""style=""height:400px;""></stim_listB>","is being kissed by","","","","","",""
"null","<div style=""font-size:60px;"">+</div>","","html-keyboard-response","204","997960","0.0-15.0-0.14","71865","List1B","black","man","","","","null","","","","","","","","",""
"null","<img src=""stim_listB/seduce1.gif""style=""height:400px;""></stim_listB>","","html-keyboard-response","205","999973","0.0-15.0-1.14","71865","List1B","black","man","","","","null","","","","","","","","",""
"null","is seducing","","html-keyboard-response","206","1001985","0.0-15.0-2.14","71865","List1B","black","man","","","","null","","","","","","","","",""
"25595.399999976158","","","survey-text","207","1027613","0.0-15.0-3.14","71865","List1B","black","man","","","","","{""Q0"":""Jane is seducing Fred""}","<img src=""stim_listB/seduce1.gif""style=""height:400px;""></stim_listB>","is seducing","","","","","",""
"null","<div style=""font-size:60px;"">+</div>","","html-keyboard-response","208","1028119","0.0-15.0-0.15","71865","List1B","black","man","","","","null","","","","","","","","",""
"null","<img src=""stim_listB/hug3.gif""style=""height:400px;""></stim_listB>","","html-keyboard-response","209","1030127","0.0-15.0-1.15","71865","List1B","black","man","","","","null","","","","","","","","",""
"null","is hugging","","html-keyboard-response","210","1032133","0.0-15.0-2.15","71865","List1B","black","man","","","","null","","","","","","","","",""
"6408.5","","","survey-text","211","1038583","0.0-15.0-3.15","71865","List1B","black","man","","","","","{""Q0"":""Ruth is hugging Luke""}","<img src=""stim_listB/hug3.gif""style=""height:400px;""></stim_listB>","is hugging","","","","","",""
"null","<div style=""font-size:60px;"">+</div>","","html-keyboard-response","212","1039091","0.0-15.0-0.16","71865","List1B","black","man","","","","null","","","","","","","","",""
"null","<img src=""stim_listB/copy3.gif""style=""height:400px;""></stim_listB>","","html-keyboard-response","213","1041105","0.0-15.0-1.16","71865","List1B","black","man","","","","null","","","","","","","","",""
"null","is copying","","html-keyboard-response","214","1043113","0.0-15.0-2.16","71865","List1B","black","man","","","","null","","","","","","","","",""
"10613.699999988079","","","survey-text","215","1053769","0.0-15.0-3.16","71865","List1B","black","man","","","","","{""Q0"":""Dave is copying Ruth""}","<img src=""stim_listB/copy3.gif""style=""height:400px;""></stim_listB>","is copying","","","","","",""
"null","<div style=""font-size:60px;"">+</div>","","html-keyboard-response","216","1054276","0.0-15.0-0.17","71865","List1B","black","man","","","","null","","","","","","","","",""
"null","<img src=""stim_listB/greet5.gif""style=""height:400px;""></stim_listB>","","html-keyboard-response","217","1056290","0.0-15.0-1.17","71865","List1B","black","man","","","","null","","","","","","","","",""
"null","is greeting","","html-keyboard-response","218","1058298","0.0-15.0-2.17","71865","List1B","black","man","","","","null","","","","","","","","",""
"10476.59999999404","","","survey-text","219","1068791","0.0-15.0-3.17","71865","List1B","black","man","","","","","{""Q0"":""Luke is greeting Mike""}","<img src=""stim_listB/greet5.gif""style=""height:400px;""></stim_listB>","is greeting","","","","","",""
"null","<div style=""font-size:60px;"">+</div>","","html-keyboard-response","220","1069298","0.0-15.0-0.18","71865","List1B","black","man","","","","null","","","","","","","","",""
"null","<img src=""stim_listB/seduce6.gif""style=""height:400px;""></stim_listB>","","html-keyboard-response","221","1071311","0.0-15.0-1.18","71865","List1B","black","man","","","","null","","","","","","","","",""
"null","is being seduced by","","html-keyboard-response","222","1073321","0.0-15.0-2.18","71865","List1B","black","man","","","","null","","","","","","","","",""
"12915.600000023842","","","survey-text","223","1086280","0.0-15.0-3.18","71865","List1B","black","man","","","","","{""Q0"":""Mike is being seduced by Luke""}","<img src=""stim_listB/seduce6.gif""style=""height:400px;""></stim_listB>","is being seduced by","","","","","",""
"null","<div style=""font-size:60px;"">+</div>","","html-keyboard-response","224","1086788","0.0-15.0-0.19","71865","List1B","black","man","","","","null","","","","","","","","",""
"null","<img src=""stim_listB/greet3.gif""style=""height:400px;""></stim_listB>","","html-keyboard-response","225","1088804","0.0-15.0-1.19","71865","List1B","black","man","","","","null","","","","","","","","",""
"null","is greeting","","html-keyboard-response","226","1090813","0.0-15.0-2.19","71865","List1B","black","man","","","","null","","","","","","","","",""
"33508.59999999404","","","survey-text","227","1124354","0.0-15.0-3.19","71865","List1B","black","man","","","","","{""Q0"":""Dave is greeting Ruth""}","<img src=""stim_listB/greet3.gif""style=""height:400px;""></stim_listB>","is greeting","","","","","",""
"8315.59999999404","<img src='img/portrait_matrix_list1.jpg' style='width:900px;height:500px;''></img><p>If you have memorised all the portraits and names and are ready to start, press Continue.</p><p><strong>Please note: Your memory of these faces will be tested 4 times during this experiment.</strong></p>","0","html-button-response","228","1132687","0.0-16.0-0.0","71865","List1B","black","man","","","","","","","","","","","","",""
"4448.799999982119","<img src=""portrait/BM1.jpg""style=""height:400px;""></img>","4","html-button-response","229","1138158","0.0-16.0-1.0","71865","List1B","black","man","","true","4","","","","","","","","","",""
"null","CORRECT","","html-keyboard-response","230","1139675","0.0-16.0-2.0-0.0","71865","List1B","black","man","","","","null","","","","","","","","",""
"3663.199999988079","<img src=""portrait/BW1.jpg""style=""height:400px;""></img>","0","html-button-response","231","1143355","0.0-16.0-4.0","71865","List1B","black","man","","true","0","","","","","","","","","",""
"null","CORRECT","","html-keyboard-response","232","1144865","0.0-16.0-5.0-0.0","71865","List1B","black","man","","","","null","","","","","","","","",""
"2055.0999999940395","<img src=""portrait/WW1.jpg""style=""height:400px;""></img>","1","html-button-response","233","1146950","0.0-16.0-7.0","71865","List1B","black","man","","true","1","","","","","","","","","",""
"null","CORRECT","","html-keyboard-response","234","1148460","0.0-16.0-8.0-0.0","71865","List1B","black","man","","","","null","","","","","","","","",""
"3421.0999999940395","<img src=""portrait/BW2.jpg""style=""height:400px;""></img>","2","html-button-response","235","1151891","0.0-16.0-10.0","71865","List1B","black","man","","true","2","","","","","","","","","",""
"null","CORRECT","","html-keyboard-response","236","1153402","0.0-16.0-11.0-0.0","71865","List1B","black","man","","","","null","","","","","","","","",""
"3028","<img src=""portrait/WM1.jpg""style=""height:400px;""></img>","6","html-button-response","237","1156443","0.0-16.0-13.0","71865","List1B","black","man","","true","6","","","","","","","","","",""
"null","CORRECT","","html-keyboard-response","238","1157953","0.0-16.0-14.0-0.0","71865","List1B","black","man","","","","null","","","","","","","","",""
"2885.9000000059605","<img src=""portrait/BM2.jpg""style=""height:400px;""></img>","5","html-button-response","239","1160850","0.0-16.0-16.0","71865","List1B","black","man","","true","5","","","","","","","","","",""
"null","CORRECT","","html-keyboard-response","240","1162359","0.0-16.0-17.0-0.0","71865","List1B","black","man","","","","null","","","","","","","","",""
"2122.2000000178814","<img src=""portrait/WM2.jpg""style=""height:400px;""></img>","7","html-button-response","241","1164490","0.0-16.0-19.0","71865","List1B","black","man","","true","7","","","","","","","","","",""
"null","CORRECT","","html-keyboard-response","242","1166001","0.0-16.0-20.0-0.0","71865","List1B","black","man","","","","null","","","","","","","","",""
"2924.5","<img src=""portrait/WW2.jpg""style=""height:400px;""></img>","3","html-button-response","243","1168942","0.0-16.0-22.0","71865","List1B","black","man","","true","3","","","","","","","","","",""
"null","CORRECT","","html-keyboard-response","244","1170451","0.0-16.0-23.0-0.0","71865","List1B","black","man","","","","null","","","","","","","","",""
"1390.4000000059605","<p>You got 8 out of 8 right first time. Press Continue.</p>","0","html-button-response","245","1171861","0.0-16.0-25.0","71865","List1B","black","man","","","","","","","","","","","","",""
"null","<div style=""font-size:60px;"">+</div>","","html-keyboard-response","246","1173379","0.0-17.0-0.0","71865","List1B","black","man","","","","null","","","","","","","","",""
"null","<img src=""stim_listB/hug5.gif""style=""height:400px;""></stim_listB>","","html-keyboard-response","247","1175389","0.0-17.0-1.0","71865","List1B","black","man","","","","null","","","","","","","","",""
"null","is hugging","","html-keyboard-response","248","1177397","0.0-17.0-2.0","71865","List1B","black","man","","","","null","","","","","","","","",""
"14991.299999982119","","","survey-text","249","1192405","0.0-17.0-3.0","71865","List1B","black","man","","","","","{""Q0"":""Luke is hugging Fred""}","<img src=""stim_listB/hug5.gif""style=""height:400px;""></stim_listB>","is hugging","","","","","",""
"null","<div style=""font-size:60px;"">+</div>","","html-keyboard-response","250","1192911","0.0-17.0-0.1","71865","List1B","black","man","","","","null","","","","","","","","",""
"null","<img src=""stim_listB/touch5.gif""style=""height:400px;""></stim_listB>","","html-keyboard-response","251","1194925","0.0-17.0-1.1","71865","List1B","black","man","","","","null","","","","","","","","",""
"null","is touching","","html-keyboard-response","252","1196936","0.0-17.0-2.1","71865","List1B","black","man","","","","null","","","","","","","","",""
"5859.200000017881","","","survey-text","253","1202838","0.0-17.0-3.1","71865","List1B","black","man","","","","","{""Q0"":""Dave is touching Mike""}","<img src=""stim_listB/touch5.gif""style=""height:400px;""></stim_listB>","is touching","","","","","",""
"null","<div style=""font-size:60px;"">+</div>","","html-keyboard-response","254","1203346","0.0-17.0-0.2","71865","List1B","black","man","","","","null","","","","","","","","",""
"null","<img src=""stim_listB/seduce8.gif""style=""height:400px;""></stim_listB>","","html-keyboard-response","255","1205354","0.0-17.0-1.2","71865","List1B","black","man","","","","null","","","","","","","","",""
"null","is being seduced by","","html-keyboard-response","256","1207361","0.0-17.0-2.2","71865","List1B","black","man","","","","null","","","","","","","","",""
"12070.200000017881","","","survey-text","257","1219466","0.0-17.0-3.2","71865","List1B","black","man","","","","","{""Q0"":""Luke is being seduced by Kate""}","<img src=""stim_listB/seduce8.gif""style=""height:400px;""></stim_listB>","is being seduced by","","","","","",""
"null","<div style=""font-size:60px;"">+</div>","","html-keyboard-response","258","1219974","0.0-17.0-0.3","71865","List1B","black","man","","","","null","","","","","","","","",""
"null","<img src=""stim_listB/challenge5.gif""style=""height:400px;""></stim_listB>","","html-keyboard-response","259","1221993","0.0-17.0-1.3","71865","List1B","black","man","","","","null","","","","","","","","",""
"null","is challenging","","html-keyboard-response","260","1224001","0.0-17.0-2.3","71865","List1B","black","man","","","","null","","","","","","","","",""
"7366.0999999940395","","","survey-text","261","1231406","0.0-17.0-3.3","71865","List1B","black","man","","","","","{""Q0"":""Luke is challenging Mike""}","<img src=""stim_listB/challenge5.gif""style=""height:400px;""></stim_listB>","is challenging","","","","","",""
"null","<div style=""font-size:60px;"">+</div>","","html-keyboard-response","262","1231914","0.0-17.0-0.4","71865","List1B","black","man","","","","null","","","","","","","","",""
"null","<img src=""stim_listB/shout3.gif""style=""height:400px;""></stim_listB>","","html-keyboard-response","263","1233929","0.0-17.0-1.4","71865","List1B","black","man","","","","null","","","","","","","","",""
"null","is shouting at","","html-keyboard-response","264","1235939","0.0-17.0-2.4","71865","List1B","black","man","","","","null","","","","","","","","",""
"7446.299999982119","","","survey-text","265","1243429","0.0-17.0-3.4","71865","List1B","black","man","","","","","{""Q0"":""Luke is shouting at Ruth""}","<img src=""stim_listB/shout3.gif""style=""height:400px;""></stim_listB>","is shouting at","","","","","",""
"null","<div style=""font-size:60px;"">+</div>","","html-keyboard-response","266","1243937","0.0-17.0-0.5","71865","List1B","black","man","","","","null","","","","","","","","",""
"null","<img src=""stim_listB/copy8.gif""style=""height:400px;""></stim_listB>","","html-keyboard-response","267","1245955","0.0-17.0-1.5","71865","List1B","black","man","","","","null","","","","","","","","",""
"null","is being copied by","","html-keyboard-response","268","1247965","0.0-17.0-2.5","71865","List1B","black","man","","","","null","","","","","","","","",""
"10408.699999988079","","","survey-text","269","1258405","0.0-17.0-3.5","71865","List1B","black","man","","","","","{""Q0"":""Kate is being copied by Breth""}","<img src=""stim_listB/copy8.gif""style=""height:400px;""></stim_listB>","is being copied by","","","","","",""
"null","<div style=""font-size:60px;"">+</div>","","html-keyboard-response","270","1258912","0.0-17.0-0.6","71865","List1B","black","man","","","","null","","","","","","","","",""
"null","<img src=""stim_listB/oppose8.gif""style=""height:400px;""></stim_listB>","","html-keyboard-response","271","1260927","0.0-17.0-1.6","71865","List1B","black","man","","","","null","","","","","","","","",""
"null","is being opposed by","","html-keyboard-response","272","1262938","0.0-17.0-2.6","71865","List1B","black","man","","","","null","","","","","","","","",""
"12401.90000000596","","","survey-text","273","1275359","0.0-17.0-3.6","71865","List1B","black","man","","","","","{""Q0"":""Breth is being opposed by Ruth""}","<img src=""stim_listB/oppose8.gif""style=""height:400px;""></stim_listB>","is being opposed by","","","","","",""
"null","<div style=""font-size:60px;"">+</div>","","html-keyboard-response","274","1275865","0.0-17.0-0.7","71865","List1B","black","man","","","","null","","","","","","","","",""
"null","<img src=""stim_listB/copy7.gif""style=""height:400px;""></stim_listB>","","html-keyboard-response","275","1277879","0.0-17.0-1.7","71865","List1B","black","man","","","","null","","","","","","","","",""
"null","is copying","","html-keyboard-response","276","1279889","0.0-17.0-2.7","71865","List1B","black","man","","","","null","","","","","","","","",""
"21512.5","","","survey-text","277","1301440","0.0-17.0-3.7","71865","List1B","black","man","","","","","{""Q0"":""Ruth is copying kate""}","<img src=""stim_listB/copy7.gif""style=""height:400px;""></stim_listB>","is copying","","","","","",""
"null","<div style=""font-size:60px;"">+</div>","","html-keyboard-response","278","1301948","0.0-17.0-0.8","71865","List1B","black","man","","","","null","","","","","","","","",""
"null","<img src=""stim_listB/kiss8.gif""style=""height:400px;""></stim_listB>","","html-keyboard-response","279","1303961","0.0-17.0-1.8","71865","List1B","black","man","","","","null","","","","","","","","",""
"null","is being kissed by","","html-keyboard-response","280","1305969","0.0-17.0-2.8","71865","List1B","black","man","","","","null","","","","","","","","",""
"12054.5","","","survey-text","281","1318063","0.0-17.0-3.8","71865","List1B","black","man","","","","","{""Q0"":""Kate is being jane""}","<img src=""stim_listB/kiss8.gif""style=""height:400px;""></stim_listB>","is being kissed by","","","","","",""
"null","<div style=""font-size:60px;"">+</div>","","html-keyboard-response","282","1318571","0.0-17.0-0.9","71865","List1B","black","man","","","","null","","","","","","","","",""
"null","<img src=""stim_listB/kiss1.gif""style=""height:400px;""></stim_listB>","","html-keyboard-response","283","1320589","0.0-17.0-1.9","71865","List1B","black","man","","","","null","","","","","","","","",""
"null","is kissing","","html-keyboard-response","284","1322597","0.0-17.0-2.9","71865","List1B","black","man","","","","null","","","","","","","","",""
"8559.40000000596","","","survey-text","285","1331172","0.0-17.0-3.9","71865","List1B","black","man","","","","","{""Q0"":""Fred is kissing Breth""}","<img src=""stim_listB/kiss1.gif""style=""height:400px;""></stim_listB>","is kissing","","","","","",""
"null","<div style=""font-size:60px;"">+</div>","","html-keyboard-response","286","1331679","0.0-17.0-0.10","71865","List1B","black","man","","","","null","","","","","","","","",""
"null","<img src=""stim_listB/hug4.gif""style=""height:400px;""></stim_listB>","","html-keyboard-response","287","1333693","0.0-17.0-1.10","71865","List1B","black","man","","","","null","","","","","","","","",""
"null","is being hugged by","","html-keyboard-response","288","1335701","0.0-17.0-2.10","71865","List1B","black","man","","","","null","","","","","","","","",""
"7885.4000000059605","","","survey-text","289","1343629","0.0-17.0-3.10","71865","List1B","black","man","","","","","{""Q0"":""Dave is hugging Jane""}","<img src=""stim_listB/hug4.gif""style=""height:400px;""></stim_listB>","is being hugged by","","","","","",""
"null","<div style=""font-size:60px;"">+</div>","","html-keyboard-response","290","1344136","0.0-17.0-0.11","71865","List1B","black","man","","","","null","","","","","","","","",""
"null","<img src=""stim_listB/touch2.gif""style=""height:400px;""></stim_listB>","","html-keyboard-response","291","1346149","0.0-17.0-1.11","71865","List1B","black","man","","","","null","","","","","","","","",""
"null","is being touched by","","html-keyboard-response","292","1348156","0.0-17.0-2.11","71865","List1B","black","man","","","","null","","","","","","","","",""
"9870.800000011921","","","survey-text","293","1358063","0.0-17.0-3.11","71865","List1B","black","man","","","","","{""Q0"":""Fred is being touched by Breth""}","<img src=""stim_listB/touch2.gif""style=""height:400px;""></stim_listB>","is being touched by","","","","","",""
"null","<div style=""font-size:60px;"">+</div>","","html-keyboard-response","294","1358571","0.0-17.0-0.12","71865","List1B","black","man","","","","null","","","","","","","","",""
"null","<img src=""stim_listB/kiss6.gif""style=""height:400px;""></stim_listB>","","html-keyboard-response","295","1360584","0.0-17.0-1.12","71865","List1B","black","man","","","","null","","","","","","","","",""
"null","is being kissed by","","html-keyboard-response","296","1362591","0.0-17.0-2.12","71865","List1B","black","man","","","","null","","","","","","","","",""
"10734.59999999404","","","survey-text","297","1373343","0.0-17.0-3.12","71865","List1B","black","man","","","","","{""Q0"":""Dave is being kissed by Mike""}","<img src=""stim_listB/kiss6.gif""style=""height:400px;""></stim_listB>","is being kissed by","","","","","",""
"null","<div style=""font-size:60px;"">+</div>","","html-keyboard-response","298","1373848","0.0-17.0-0.13","71865","List1B","black","man","","","","null","","","","","","","","",""
"null","<img src=""stim_listB/look6.gif""style=""height:400px;""></stim_listB>","","html-keyboard-response","299","1375857","0.0-17.0-1.13","71865","List1B","black","man","","","","null","","","","","","","","",""
"null","is being looked at by","","html-keyboard-response","300","1377870","0.0-17.0-2.13","71865","List1B","black","man","","","","null","","","","","","","","",""
"7330","","","survey-text","301","1385238","0.0-17.0-3.13","71865","List1B","black","man","","","","","{""Q0"":""Dave is being looked at by Mike""}","<img src=""stim_listB/look6.gif""style=""height:400px;""></stim_listB>","is being looked at by","","","","","",""
"null","<div style=""font-size:60px;"">+</div>","","html-keyboard-response","302","1385743","0.0-17.0-0.14","71865","List1B","black","man","","","","null","","","","","","","","",""
"null","<img src=""stim_listB/touch8.gif""style=""height:400px;""></stim_listB>","","html-keyboard-response","303","1387753","0.0-17.0-1.14","71865","List1B","black","man","","","","null","","","","","","","","",""
"null","is being touched by","","html-keyboard-response","304","1389764","0.0-17.0-2.14","71865","List1B","black","man","","","","null","","","","","","","","",""
"12403.59999999404","","","survey-text","305","1402202","0.0-17.0-3.14","71865","List1B","black","man","","","","","{""Q0"":""Breth is being touched by Ruth""}","<img src=""stim_listB/touch8.gif""style=""height:400px;""></stim_listB>","is being touched by","","","","","",""
"null","<div style=""font-size:60px;"">+</div>","","html-keyboard-response","306","1402710","0.0-17.0-0.15","71865","List1B","black","man","","","","null","","","","","","","","",""
"null","<img src=""stim_listB/shout7.gif""style=""height:400px;""></stim_listB>","","html-keyboard-response","307","1404727","0.0-17.0-1.15","71865","List1B","black","man","","","","null","","","","","","","","",""
"null","is shouting at","","html-keyboard-response","308","1406737","0.0-17.0-2.15","71865","List1B","black","man","","","","null","","","","","","","","",""
"8222.90000000596","","","survey-text","309","1414994","0.0-17.0-3.15","71865","List1B","black","man","","","","","{""Q0"":""Breth is shouting at Ruth""}","<img src=""stim_listB/shout7.gif""style=""height:400px;""></stim_listB>","is shouting at","","","","","",""
"null","<div style=""font-size:60px;"">+</div>","","html-keyboard-response","310","1415501","0.0-17.0-0.16","71865","List1B","black","man","","","","null","","","","","","","","",""
"null","<img src=""stim_listB/hug8.gif""style=""height:400px;""></stim_listB>","","html-keyboard-response","311","1417511","0.0-17.0-1.16","71865","List1B","black","man","","","","null","","","","","","","","",""
"null","is being hugged by","","html-keyboard-response","312","1419516","0.0-17.0-2.16","71865","List1B","black","man","","","","null","","","","","","","","",""
"6919.5999999940395","","","survey-text","313","1426463","0.0-17.0-3.16","71865","List1B","black","man","","","","","{""Q0"":""Jane is being hugged by Kate""}","<img src=""stim_listB/hug8.gif""style=""height:400px;""></stim_listB>","is being hugged by","","","","","",""
"null","<div style=""font-size:60px;"">+</div>","","html-keyboard-response","314","1426970","0.0-17.0-0.17","71865","List1B","black","man","","","","null","","","","","","","","",""
"null","<img src=""stim_listB/touch6.gif""style=""height:400px;""></stim_listB>","","html-keyboard-response","315","1428986","0.0-17.0-1.17","71865","List1B","black","man","","","","null","","","","","","","","",""
"null","is being touched by","","html-keyboard-response","316","1430993","0.0-17.0-2.17","71865","List1B","black","man","","","","null","","","","","","","","",""
"6971.699999988079","","","survey-text","317","1438004","0.0-17.0-3.17","71865","List1B","black","man","","","","","{""Q0"":""Fred is being touched by Luke""}","<img src=""stim_listB/touch6.gif""style=""height:400px;""></stim_listB>","is being touched by","","","","","",""
"null","<div style=""font-size:60px;"">+</div>","","html-keyboard-response","318","1438509","0.0-17.0-0.18","71865","List1B","black","man","","","","null","","","","","","","","",""
"null","<img src=""stim_listB/kiss2.gif""style=""height:400px;""></stim_listB>","","html-keyboard-response","319","1440518","0.0-17.0-1.18","71865","List1B","black","man","","","","null","","","","","","","","",""
"null","is being kissed by","","html-keyboard-response","320","1442523","0.0-17.0-2.18","71865","List1B","black","man","","","","null","","","","","","","","",""
"21214.90000000596","","","survey-text","321","1463755","0.0-17.0-3.18","71865","List1B","black","man","","","","","{""Q0"":""Mike is being kissed by Kate""}","<img src=""stim_listB/kiss2.gif""style=""height:400px;""></stim_listB>","is being kissed by","","","","","",""
"null","<div style=""font-size:60px;"">+</div>","","html-keyboard-response","322","1464261","0.0-17.0-0.19","71865","List1B","black","man","","","","null","","","","","","","","",""
"null","<img src=""stim_listB/copy4.gif""style=""height:400px;""></stim_listB>","","html-keyboard-response","323","1466271","0.0-17.0-1.19","71865","List1B","black","man","","","","null","","","","","","","","",""
"null","is being copied by","","html-keyboard-response","324","1468283","0.0-17.0-2.19","71865","List1B","black","man","","","","null","","","","","","","","",""
"9387.09999999404","","","survey-text","325","1477702","0.0-17.0-3.19","71865","List1B","black","man","","","","","{""Q0"":""Luke is being copied by Jane""}","<img src=""stim_listB/copy4.gif""style=""height:400px;""></stim_listB>","is being copied by","","","","","",""
"12166.300000011921","<img src='img/portrait_matrix_list1.jpg' style='width:900px;height:500px;''></img><p>If you have memorised all the portraits and names and are ready to start, press Continue.</p><p><strong>Please note: Your memory of these faces will be tested 4 times during this experiment.</strong></p>","0","html-button-response","326","1489876","0.0-18.0-0.0","71865","List1B","black","man","","","","","","","","","","","","",""
"2648.0999999940395","<img src=""portrait/WW2.jpg""style=""height:400px;""></img>","3","html-button-response","327","1493539","0.0-18.0-1.0","71865","List1B","black","man","","true","3","","","","","","","","","",""
"null","CORRECT","","html-keyboard-response","328","1495059","0.0-18.0-2.0-0.0","71865","List1B","black","man","","","","null","","","","","","","","",""
"2745.5999999940395","<img src=""portrait/BM1.jpg""style=""height:400px;""></img>","4","html-button-response","329","1497820","0.0-18.0-4.0","71865","List1B","black","man","","true","4","","","","","","","","","",""
"null","CORRECT","","html-keyboard-response","330","1499331","0.0-18.0-5.0-0.0","71865","List1B","black","man","","","","null","","","","","","","","",""
"3039.300000011921","<img src=""portrait/WM1.jpg""style=""height:400px;""></img>","6","html-button-response","331","1502386","0.0-18.0-7.0","71865","List1B","black","man","","true","6","","","","","","","","","",""
"null","CORRECT","","html-keyboard-response","332","1503897","0.0-18.0-8.0-0.0","71865","List1B","black","man","","","","null","","","","","","","","",""
"2970.199999988079","<img src=""portrait/WM2.jpg""style=""height:400px;""></img>","7","html-button-response","333","1506878","0.0-18.0-10.0","71865","List1B","black","man","","true","7","","","","","","","","","",""
"null","CORRECT","","html-keyboard-response","334","1508388","0.0-18.0-11.0-0.0","71865","List1B","black","man","","","","null","","","","","","","","",""
"3952.800000011921","<img src=""portrait/BW2.jpg""style=""height:400px;""></img>","2","html-button-response","335","1512354","0.0-18.0-13.0","71865","List1B","black","man","","true","2","","","","","","","","","",""
"null","CORRECT","","html-keyboard-response","336","1513864","0.0-18.0-14.0-0.0","71865","List1B","black","man","","","","null","","","","","","","","",""
"3107","<img src=""portrait/BW1.jpg""style=""height:400px;""></img>","0","html-button-response","337","1516992","0.0-18.0-16.0","71865","List1B","black","man","","true","0","","","","","","","","","",""
"null","CORRECT","","html-keyboard-response","338","1518502","0.0-18.0-17.0-0.0","71865","List1B","black","man","","","","null","","","","","","","","",""
"2978.199999988079","<img src=""portrait/BM2.jpg""style=""height:400px;""></img>","5","html-button-response","339","1521495","0.0-18.0-19.0","71865","List1B","black","man","","true","5","","","","","","","","","",""
"null","CORRECT","","html-keyboard-response","340","1523006","0.0-18.0-20.0-0.0","71865","List1B","black","man","","","","null","","","","","","","","",""
"2412.4000000059605","<img src=""portrait/WW1.jpg""style=""height:400px;""></img>","1","html-button-response","341","1525435","0.0-18.0-22.0","71865","List1B","black","man","","true","1","","","","","","","","","",""
"null","CORRECT","","html-keyboard-response","342","1526946","0.0-18.0-23.0-0.0","71865","List1B","black","man","","","","null","","","","","","","","",""
"2437.7000000178814","<p>You got 8 out of 8 right first time. Press Continue.</p>","0","html-button-response","343","1529397","0.0-18.0-25.0","71865","List1B","black","man","","","","","","","","","","","","",""
"null","<div style=""font-size:60px;"">+</div>","","html-keyboard-response","344","1530918","0.0-19.0-0.0","71865","List1B","black","man","","","","null","","","","","","","","",""
"null","<img src=""stim_listB/shout8.gif""style=""height:400px;""></stim_listB>","","html-keyboard-response","345","1532930","0.0-19.0-1.0","71865","List1B","black","man","","","","null","","","","","","","","",""
"null","is being shouted at by","","html-keyboard-response","346","1534941","0.0-19.0-2.0","71865","List1B","black","man","","","","null","","","","","","","","",""
"14030.800000011921","","","survey-text","347","1549018","0.0-19.0-3.0","71865","List1B","black","man","","","","","{""Q0"":""Jane is being shouted at by Kate""}","<img src=""stim_listB/shout8.gif""style=""height:400px;""></stim_listB>","is being shouted at by","","","","","",""
"null","<div style=""font-size:60px;"">+</div>","","html-keyboard-response","348","1549527","0.0-19.0-0.1","71865","List1B","black","man","","","","null","","","","","","","","",""
"null","<img src=""stim_listB/challenge3.gif""style=""height:400px;""></stim_listB>","","html-keyboard-response","349","1551536","0.0-19.0-1.1","71865","List1B","black","man","","","","null","","","","","","","","",""
"null","is challenging","","html-keyboard-response","350","1553546","0.0-19.0-2.1","71865","List1B","black","man","","","","null","","","","","","","","",""
"5646","","","survey-text","351","1559228","0.0-19.0-3.1","71865","List1B","black","man","","","","","{""Q0"":""Dave is challenging Ruth""}","<img src=""stim_listB/challenge3.gif""style=""height:400px;""></stim_listB>","is challenging","","","","","",""
"null","<div style=""font-size:60px;"">+</div>","","html-keyboard-response","352","1559738","0.0-19.0-0.2","71865","List1B","black","man","","","","null","","","","","","","","",""
"null","<img src=""stim_listB/copy1.gif""style=""height:400px;""></stim_listB>","","html-keyboard-response","353","1561757","0.0-19.0-1.2","71865","List1B","black","man","","","","null","","","","","","","","",""
"null","is copying","","html-keyboard-response","354","1563766","0.0-19.0-2.2","71865","List1B","black","man","","","","null","","","","","","","","",""
"5444.700000017881","","","survey-text","355","1569242","0.0-19.0-3.2","71865","List1B","black","man","","","","","{""Q0"":""Mike is copying Beth""}","<img src=""stim_listB/copy1.gif""style=""height:400px;""></stim_listB>","is copying","","","","","",""
"null","<div style=""font-size:60px;"">+</div>","","html-keyboard-response","356","1569749","0.0-19.0-0.3","71865","List1B","black","man","","","","null","","","","","","","","",""
"null","<img src=""stim_listB/copy5.gif""style=""height:400px;""></stim_listB>","","html-keyboard-response","357","1571764","0.0-19.0-1.3","71865","List1B","black","man","","","","null","","","","","","","","",""
"null","is copying","","html-keyboard-response","358","1573775","0.0-19.0-2.3","71865","List1B","black","man","","","","null","","","","","","","","",""
"5742.4000000059605","","","survey-text","359","1579545","0.0-19.0-3.3","71865","List1B","black","man","","","","","{""Q0"":""Mike is copying Luke""}","<img src=""stim_listB/copy5.gif""style=""height:400px;""></stim_listB>","is copying","","","","","",""
"null","<div style=""font-size:60px;"">+</div>","","html-keyboard-response","360","1580052","0.0-19.0-0.4","71865","List1B","black","man","","","","null","","","","","","","","",""
"null","<img src=""stim_listB/greet2.gif""style=""height:400px;""></stim_listB>","","html-keyboard-response","361","1582067","0.0-19.0-1.4","71865","List1B","black","man","","","","null","","","","","","","","",""
"null","is being greeted by","","html-keyboard-response","362","1584077","0.0-19.0-2.4","71865","List1B","black","man","","","","null","","","","","","","","",""
"8727.90000000596","","","survey-text","363","1592848","0.0-19.0-3.4","71865","List1B","black","man","","","","","{""Q0"":""Fred is being greeted by Kate""}","<img src=""stim_listB/greet2.gif""style=""height:400px;""></stim_listB>","is being greeted by","","","","","",""
"null","<div style=""font-size:60px;"">+</div>","","html-keyboard-response","364","1593353","0.0-19.0-0.5","71865","List1B","black","man","","","","null","","","","","","","","",""
"null","<img src=""stim_listB/greet8.gif""style=""height:400px;""></stim_listB>","","html-keyboard-response","365","1595364","0.0-19.0-1.5","71865","List1B","black","man","","","","null","","","","","","","","",""
"null","is being greeted by","","html-keyboard-response","366","1597376","0.0-19.0-2.5","71865","List1B","black","man","","","","null","","","","","","","","",""
"11015.699999988079","","","survey-text","367","1608425","0.0-19.0-3.5","71865","List1B","black","man","","","","","{""Q0"":""Beth is being greeted by Jane""}","<img src=""stim_listB/greet8.gif""style=""height:400px;""></stim_listB>","is being greeted by","","","","","",""
"null","<div style=""font-size:60px;"">+</div>","","html-keyboard-response","368","1608934","0.0-19.0-0.6","71865","List1B","black","man","","","","null","","","","","","","","",""
"null","<img src=""stim_listB/copy6.gif""style=""height:400px;""></stim_listB>","","html-keyboard-response","369","1610953","0.0-19.0-1.6","71865","List1B","black","man","","","","null","","","","","","","","",""
"null","is being copied by","","html-keyboard-response","370","1612964","0.0-19.0-2.6","71865","List1B","black","man","","","","null","","","","","","","","",""
"7358.100000023842","","","survey-text","371","1620364","0.0-19.0-3.6","71865","List1B","black","man","","","","","{""Q0"":""Fred is being copied by Dave""}","<img src=""stim_listB/copy6.gif""style=""height:400px;""></stim_listB>","is being copied by","","","","","",""
"null","<div style=""font-size:60px;"">+</div>","","html-keyboard-response","372","1620871","0.0-19.0-0.7","71865","List1B","black","man","","","","null","","","","","","","","",""
"null","<img src=""stim_listB/look1.gif""style=""height:400px;""></stim_listB>","","html-keyboard-response","373","1622889","0.0-19.0-1.7","71865","List1B","black","man","","","","null","","","","","","","","",""
"null","is looking at","","html-keyboard-response","374","1624897","0.0-19.0-2.7","71865","List1B","black","man","","","","null","","","","","","","","",""
"6171.699999988079","","","survey-text","375","1631098","0.0-19.0-3.7","71865","List1B","black","man","","","","","{""Q0"":""Fred is looking at Beth""}","<img src=""stim_listB/look1.gif""style=""height:400px;""></stim_listB>","is looking at","","","","","",""
"null","<div style=""font-size:60px;"">+</div>","","html-keyboard-response","376","1631606","0.0-19.0-0.8","71865","List1B","black","man","","","","null","","","","","","","","",""
"null","<img src=""stim_listB/oppose4.gif""style=""height:400px;""></stim_listB>","","html-keyboard-response","377","1633617","0.0-19.0-1.8","71865","List1B","black","man","","","","null","","","","","","","","",""
"null","is being opposed by","","html-keyboard-response","378","1635628","0.0-19.0-2.8","71865","List1B","black","man","","","","null","","","","","","","","",""
"9755.199999988079","","","survey-text","379","1645416","0.0-19.0-3.8","71865","List1B","black","man","","","","","{""Q0"":""Luke is being opposed by Ruth""}","<img src=""stim_listB/oppose4.gif""style=""height:400px;""></stim_listB>","is being opposed by","","","","","",""
"null","<div style=""font-size:60px;"">+</div>","","html-keyboard-response","380","1645927","0.0-19.0-0.9","71865","List1B","black","man","","","","null","","","","","","","","",""
"null","<img src=""stim_listB/challenge1.gif""style=""height:400px;""></stim_listB>","","html-keyboard-response","381","1647944","0.0-19.0-1.9","71865","List1B","black","man","","","","null","","","","","","","","",""
"null","is challenging","","html-keyboard-response","382","1649955","0.0-19.0-2.9","71865","List1B","black","man","","","","null","","","","","","","","",""
"6536.700000017881","","","survey-text","383","1656535","0.0-19.0-3.9","71865","List1B","black","man","","","","","{""Q0"":""Mike is challenging Beth""}","<img src=""stim_listB/challenge1.gif""style=""height:400px;""></stim_listB>","is challenging","","","","","",""
"null","<div style=""font-size:60px;"">+</div>","","html-keyboard-response","384","1657043","0.0-19.0-0.10","71865","List1B","black","man","","","","null","","","","","","","","",""
"null","<img src=""stim_listB/look8.gif""style=""height:400px;""></stim_listB>","","html-keyboard-response","385","1659062","0.0-19.0-1.10","71865","List1B","black","man","","","","null","","","","","","","","",""
"null","is being looked at by","","html-keyboard-response","386","1661074","0.0-19.0-2.10","71865","List1B","black","man","","","","null","","","","","","","","",""
"10701.40000000596","","","survey-text","387","1671851","0.0-19.0-3.10","71865","List1B","black","man","","","","","{""Q0"":""Jane is being looked at by Kate""}","<img src=""stim_listB/look8.gif""style=""height:400px;""></stim_listB>","is being looked at by","","","","","",""
"null","<div style=""font-size:60px;"">+</div>","","html-keyboard-response","388","1672360","0.0-19.0-0.11","71865","List1B","black","man","","","","null","","","","","","","","",""
"null","<img src=""stim_listB/challenge2.gif""style=""height:400px;""></stim_listB>","","html-keyboard-response","389","1674373","0.0-19.0-1.11","71865","List1B","black","man","","","","null","","","","","","","","",""
"null","is being challenged by","","html-keyboard-response","390","1676380","0.0-19.0-2.11","71865","List1B","black","man","","","","null","","","","","","","","",""
"9894.399999976158","","","survey-text","391","1686320","0.0-19.0-3.11","71865","List1B","black","man","","","","","{""Q0"":""Fred is being challenged by Kate""}","<img src=""stim_listB/challenge2.gif""style=""height:400px;""></stim_listB>","is being challenged by","","","","","",""
"null","<div style=""font-size:60px;"">+</div>","","html-keyboard-response","392","1686828","0.0-19.0-0.12","71865","List1B","black","man","","","","null","","","","","","","","",""
"null","<img src=""stim_listB/hug6.gif""style=""height:400px;""></stim_listB>","","html-keyboard-response","393","1688848","0.0-19.0-1.12","71865","List1B","black","man","","","","null","","","","","","","","",""
"null","is being hugged by","","html-keyboard-response","394","1690859","0.0-19.0-2.12","71865","List1B","black","man","","","","null","","","","","","","","",""
"13123.5","","","survey-text","395","1704023","0.0-19.0-3.12","71865","List1B","black","man","","","","","{""Q0"":""Dave is being hugged by Mike""}","<img src=""stim_listB/hug6.gif""style=""height:400px;""></stim_listB>","is being hugged by","","","","","",""
"null","<div style=""font-size:60px;"">+</div>","","html-keyboard-response","396","1704530","0.0-19.0-0.13","71865","List1B","black","man","","","","null","","","","","","","","",""
"null","<img src=""stim_listB/greet4.gif""style=""height:400px;""></stim_listB>","","html-keyboard-response","397","1706541","0.0-19.0-1.13","71865","List1B","black","man","","","","null","","","","","","","","",""
"null","is being greeted by","","html-keyboard-response","398","1708550","0.0-19.0-2.13","71865","List1B","black","man","","","","null","","","","","","","","",""
"8852.59999999404","","","survey-text","399","1717438","0.0-19.0-3.13","71865","List1B","black","man","","","","","{""Q0"":""Luke is being greeted by Jane""}","<img src=""stim_listB/greet4.gif""style=""height:400px;""></stim_listB>","is being greeted by","","","","","",""
"null","<div style=""font-size:60px;"">+</div>","","html-keyboard-response","400","1717945","0.0-19.0-0.14","71865","List1B","black","man","","","","null","","","","","","","","",""
"null","<img src=""stim_listB/oppose2.gif""style=""height:400px;""></stim_listB>","","html-keyboard-response","401","1719954","0.0-19.0-1.14","71865","List1B","black","man","","","","null","","","","","","","","",""
"null","is being opposed by","","html-keyboard-response","402","1721965","0.0-19.0-2.14","71865","List1B","black","man","","","","null","","","","","","","","",""
"9348","","","survey-text","403","1731357","0.0-19.0-3.14","71865","List1B","black","man","","","","","{""Q0"":""Beth is being opposed by Fred""}","<img src=""stim_listB/oppose2.gif""style=""height:400px;""></stim_listB>","is being opposed by","","","","","",""
"null","<div style=""font-size:60px;"">+</div>","","html-keyboard-response","404","1731864","0.0-19.0-0.15","71865","List1B","black","man","","","","null","","","","","","","","",""
"null","<img src=""stim_listB/touch4.gif""style=""height:400px;""></stim_listB>","","html-keyboard-response","405","1733874","0.0-19.0-1.15","71865","List1B","black","man","","","","null","","","","","","","","",""
"null","is being touched by","","html-keyboard-response","406","1735882","0.0-19.0-2.15","71865","List1B","black","man","","","","null","","","","","","","","",""
"11634.09999999404","","","survey-text","407","1747547","0.0-19.0-3.15","71865","List1B","black","man","","","","","{""Q0"":""Luke is being touched by Ruth""}","<img src=""stim_listB/touch4.gif""style=""height:400px;""></stim_listB>","is being touched by","","","","","",""
"null","<div style=""font-size:60px;"">+</div>","","html-keyboard-response","408","1748054","0.0-19.0-0.16","71865","List1B","black","man","","","","null","","","","","","","","",""
"null","<img src=""stim_listB/shout4.gif""style=""height:400px;""></stim_listB>","","html-keyboard-response","409","1750071","0.0-19.0-1.16","71865","List1B","black","man","","","","null","","","","","","","","",""
"null","is being shouted at by","","html-keyboard-response","410","1752079","0.0-19.0-2.16","71865","List1B","black","man","","","","null","","","","","","","","",""
"8061.800000011921","","","survey-text","411","1760176","0.0-19.0-3.16","71865","List1B","black","man","","","","","{""Q0"":""Dave is being shouted by Jane""}","<img src=""stim_listB/shout4.gif""style=""height:400px;""></stim_listB>","is being shouted at by","","","","","",""
"null","<div style=""font-size:60px;"">+</div>","","html-keyboard-response","412","1760685","0.0-19.0-0.17","71865","List1B","black","man","","","","null","","","","","","","","",""
"null","<img src=""stim_listB/challenge6.gif""style=""height:400px;""></stim_listB>","","html-keyboard-response","413","1762697","0.0-19.0-1.17","71865","List1B","black","man","","","","null","","","","","","","","",""
"null","is being challenged by","","html-keyboard-response","414","1764702","0.0-19.0-2.17","71865","List1B","black","man","","","","null","","","","","","","","",""
"8606","","","survey-text","415","1773337","0.0-19.0-3.17","71865","List1B","black","man","","","","","{""Q0"":""Dave is being challenged by Fred""}","<img src=""stim_listB/challenge6.gif""style=""height:400px;""></stim_listB>","is being challenged by","","","","","",""
"null","<div style=""font-size:60px;"">+</div>","","html-keyboard-response","416","1773844","0.0-19.0-0.18","71865","List1B","black","man","","","","null","","","","","","","","",""
"null","<img src=""stim_listB/challenge7.gif""style=""height:400px;""></stim_listB>","","html-keyboard-response","417","1775855","0.0-19.0-1.18","71865","List1B","black","man","","","","null","","","","","","","","",""
"null","is challenging","","html-keyboard-response","418","1777867","0.0-19.0-2.18","71865","List1B","black","man","","","","null","","","","","","","","",""
"7226.700000017881","","","survey-text","419","1785125","0.0-19.0-3.18","71865","List1B","black","man","","","","","{""Q0"":""Kate is challenging Ruth""}","<img src=""stim_listB/challenge7.gif""style=""height:400px;""></stim_listB>","is challenging","","","","","",""
"null","<div style=""font-size:60px;"">+</div>","","html-keyboard-response","420","1785630","0.0-19.0-0.19","71865","List1B","black","man","","","","null","","","","","","","","",""
"null","<img src=""stim_listB/hug7.gif""style=""height:400px;""></stim_listB>","","html-keyboard-response","421","1787636","0.0-19.0-1.19","71865","List1B","black","man","","","","null","","","","","","","","",""
"null","is hugging","","html-keyboard-response","422","1789641","0.0-19.0-2.19","71865","List1B","black","man","","","","null","","","","","","","","",""
"6501.199999988079","","","survey-text","423","1796157","0.0-19.0-3.19","71865","List1B","black","man","","","","","{""Q0"":""Beth is hugging Ruth""}","<img src=""stim_listB/hug7.gif""style=""height:400px;""></stim_listB>","is hugging","","","","","",""
"7205.5999999940395","<p>Thank you for completing that task.</p><p>The final part of this session is a questionnaire that will take about 4 minutes.</p><p>Press Continue.</p>","0","html-button-response","424","1803374","0.0-20.0","71865","List1B","black","man","","","","","","","","","","","","",""
"35527.20000001788","","","survey-text","425","1840029","0.0-21.0","71865","List1B","black","man","","","","","{""Q0"":""33"",""Q1"":""English"",""Q2"":""English"",""Q3"":""United States"",""Q4"":""American"",""Q5"":""Black American"",""Q6"":""Male""}","","","demographics","","","","",""
"15365.799999982119","<p>Have you lived in the USA for the last 5 years or more?</p>","0","html-button-response","426","1855408","0.0-22.0","71865","List1B","black","man","","","","","","","","fiveyears","","","","",""
"3680.300000011921","<p>Move the slider to show the extent to which you agree with the following statements.</p>","0","html-button-response","427","1860095","0.0-23.0","71865","List1B","black","man","","","","","","","","","","","","",""
"8789.100000023842","","","html-slider-response","428","1869921","0.0-24.0-0.0-0.0","71865","List1B","black","man","","","","","","","","survey_gender","55","","","Most of the friends in my life are very similar to me.","filler"
"3544.9000000059605","","","html-slider-response","429","1873475","0.0-24.0-0.0-0.1","71865","List1B","black","man","","","","","","","","survey_gender","79","","","Being my gender gives me a good feeling.","feeling"
"3658.5","","","html-slider-response","430","1877144","0.0-24.0-0.0-0.2","71865","List1B","black","man","","","","","","","","survey_gender","86","","","I often think about my actions.","filler"
"2844.2999999821186","","","html-slider-response","431","1879995","0.0-24.0-0.0-0.3","71865","List1B","black","man","","","","","","","","survey_gender","78","","","I have a lot in common with my friends.","filler"
"6334.5","","","html-slider-response","432","1886336","0.0-24.0-0.0-0.4","71865","List1B","black","man","","","","","","","","survey_gender","38","","","Family is not more important to me than friendship.","filler"
"6105.200000017881","","","html-slider-response","433","1892450","0.0-24.0-0.0-0.5","71865","List1B","black","man","","","","","","","","survey_gender","44","","","I have a lot in common with the average person of my gender.","average"
"3746.199999988079","","","html-slider-response","434","1896205","0.0-24.0-0.0-0.6","71865","List1B","black","man","","","","","","","","survey_gender","80","","","I feel solidarity with my gender.","solidarity"
"3675.800000011921","","","html-slider-response","435","1899890","0.0-24.0-0.0-0.7","71865","List1B","black","man","","","","","","","","survey_gender","92","","","I feel a bond with my friends.","filler"
"2681.5999999940395","","","html-slider-response","436","1902578","0.0-24.0-0.0-0.8","71865","List1B","black","man","","","","","","","","survey_gender","82","","","I feel a bond with my gender.","bond"
"7555.299999982119","","","html-slider-response","437","1910143","0.0-24.0-0.0-0.9","71865","List1B","black","man","","","","","","","","survey_gender","90","","","I am glad to be my gender.","glad"
"4587.100000023842","","","html-slider-response","438","1914739","0.0-24.0-0.0-0.10","71865","List1B","black","man","","","","","","","","survey_gender","57","","","I would say I am an animal person.","filler"
"5038.5","","","html-slider-response","439","1919784","0.0-24.0-0.0-0.11","71865","List1B","black","man","","","","","","","","survey_gender","62","","","It is not always easy for people to know what I am thinking.","filler"
"4550.300000011921","","","html-slider-response","440","1924342","0.0-24.0-0.0-0.12","71865","List1B","black","man","","","","","","","","survey_gender","15","","","I often think about the fact that I am my gender.","often"
"3739.2000000178814","","","html-slider-response","441","1928090","0.0-24.0-0.0-0.13","71865","List1B","black","man","","","","","","","","survey_gender","71","","","I feel committed to my gender.","committed"
"3363.4000000059605","","","html-slider-response","442","1931461","0.0-24.0-0.0-0.14","71865","List1B","black","man","","","","","","","","survey_gender","83","","","I feel solidarity with my friends.","filler"
"7442.799999982119","","","html-slider-response","443","1938911","0.0-24.0-0.0-0.15","71865","List1B","black","man","","","","","","","","survey_gender","98","","","I am glad to have the friends that I have.","filler"
"4792.100000023842","","","html-slider-response","444","1943712","0.0-24.0-0.0-0.16","71865","List1B","black","man","","","","","","","","survey_gender","88","","","It is pleasant to be my gender.","pleasant"
"4748.799999982119","","","html-slider-response","445","1948470","0.0-24.0-0.0-0.17","71865","List1B","black","man","","","","","","","","survey_gender","63","","","People of my gender have a lot in common with each other.","common"
"4965","","","html-slider-response","446","1953444","0.0-24.0-0.0-0.18","71865","List1B","black","man","","","","","","","","survey_gender","63","","","The fact that I am my gender is an important part of my identity.","identity"
"3873.199999988079","","","html-slider-response","447","1957325","0.0-24.0-0.0-0.19","71865","List1B","black","man","","","","","","","","survey_gender","56","","","My friends have a lot in common with each other.","filler"
"3499.4000000059605","","","html-slider-response","448","1960833","0.0-24.0-0.0-0.20","71865","List1B","black","man","","","","","","","","survey_gender","69","","","Being my gender is an important part of how I see myself.","important"
"3512.9000000059605","","","html-slider-response","449","1964356","0.0-24.0-0.0-0.21","71865","List1B","black","man","","","","","","","","survey_gender","67","","","My friends understand me.","filler"
"3592","","","html-slider-response","450","1967958","0.0-24.0-0.0-0.22","71865","List1B","black","man","","","","","","","","survey_gender","61","","","I am similar to the average person of my gender.","similar"
"2377.4000000059605","","","html-slider-response","451","1970343","0.0-24.0-0.0-0.23","71865","List1B","black","man","","","","","","","","survey_gender","63","","","I consider myself a highly empathetic person.","filler"
"3129.7999999821186","","","html-slider-response","452","1973479","0.0-24.0-0.0-0.24","71865","List1B","black","man","","","","","","","","survey_gender","35","","","Routine is not important to me.","filler"
"2646.7000000178814","","","html-slider-response","453","1976135","0.0-24.0-0.0-0.25","71865","List1B","black","man","","","","","","","","survey_gender","66","","","I think that my gender has a lot to be proud of.","proud"
"4476.9000000059605","","","html-slider-response","454","1980621","0.0-24.0-0.0-0.26","71865","List1B","black","man","","","","","","","","survey_gender","93","","","Being around my friends gives me a good feeling.","filler"
"8424.899999976158","","","html-slider-response","455","1989053","0.0-24.0-0.0-0.27","71865","List1B","black","man","","","","","","","","survey_gender","81","","","People of my gender are very similar to each other.","verysimilar"
"2911.5999999940395","","","html-slider-response","456","1991971","0.0-24.0-1.0-0.0","71865","List1B","black","man","","","","","","","","survey_race","86","","","I consider myself an extrovert.","filler"
"5120","","","html-slider-response","457","1997100","0.0-24.0-1.0-0.1","71865","List1B","black","man","","","","","","","","survey_race","69","","","My age is not an important part of who I am.","filler"
"2973","","","html-slider-response","458","2000081","0.0-24.0-1.0-0.2","71865","List1B","black","man","","","","","","","","survey_race","63","","","I feel solidarity with people the same age as me.","filler"
"3534.0999999940395","","","html-slider-response","459","2003623","0.0-24.0-1.0-0.3","71865","List1B","black","man","","","","","","","","survey_race","82","","","Being my race gives me a good feeling.","feeling"
"2726.4000000059605","","","html-slider-response","460","2006358","0.0-24.0-1.0-0.4","71865","List1B","black","man","","","","","","","","survey_race","68","","","I feel a bond with people the same age as me.","filler"
"4850.199999988079","","","html-slider-response","461","2011216","0.0-24.0-1.0-0.5","71865","List1B","black","man","","","","","","","","survey_race","82","","","I feel a bond with my race.","bond"
"2504","","","html-slider-response","462","2013729","0.0-24.0-1.0-0.6","71865","List1B","black","man","","","","","","","","survey_race","72","","","It is pleasant to be my race.","pleasant"
"6221.299999982119","","","html-slider-response","463","2019956","0.0-24.0-1.0-0.7","71865","List1B","black","man","","","","","","","","survey_race","74","","","I often think about the fact that I am my age.","filler"
"4483.100000023842","","","html-slider-response","464","2024447","0.0-24.0-1.0-0.8","71865","List1B","black","man","","","","","","","","survey_race","65","","","I feel solidarity with my race.","solidarity"
"2537.100000023842","","","html-slider-response","465","2026994","0.0-24.0-1.0-0.9","71865","List1B","black","man","","","","","","","","survey_race","60","","","People of my race are very similar to each other.","verysimilar"
"2734.2000000178814","","","html-slider-response","466","2029735","0.0-24.0-1.0-0.10","71865","List1B","black","man","","","","","","","","survey_race","62","","","Getting older does not worry me.","filler"
"2374.800000011921","","","html-slider-response","467","2032118","0.0-24.0-1.0-0.11","71865","List1B","black","man","","","","","","","","survey_race","60","","","People of my race have a lot in common with each other.","common"
"2065","","","html-slider-response","468","2034189","0.0-24.0-1.0-0.12","71865","List1B","black","man","","","","","","","","survey_race","58","","","I have a lot in common with the average person of my race.","average"
"2450.199999988079","","","html-slider-response","469","2036647","0.0-24.0-1.0-0.13","71865","List1B","black","man","","","","","","","","survey_race","62","","","I feel committed to my race.","committed"
"2208.800000011921","","","html-slider-response","470","2038862","0.0-24.0-1.0-0.14","71865","List1B","black","man","","","","","","","","survey_race","64","","","I am similar to the average person of my race.","similar"
"2030.800000011921","","","html-slider-response","471","2040900","0.0-24.0-1.0-0.15","71865","List1B","black","man","","","","","","","","survey_race","67","","","I am glad to be my age.","filler"
"2627.7000000178814","","","html-slider-response","472","2043536","0.0-24.0-1.0-0.16","71865","List1B","black","man","","","","","","","","survey_race","68","","","I am glad to be my race.","glad"
"2356.199999988079","","","html-slider-response","473","2060098","0.0-24.0-1.0-0.17","71865","List1B","black","man","","","","","","","","survey_race","66","","","Being my age gives me a good feeling.","filler"
"9553.199999988079","","","html-slider-response","474","2069660","0.0-24.0-1.0-0.18","71865","List1B","black","man","","","","","","","","survey_race","67","","","I think that my race has a lot to be proud of.","proud"
"7885.699999988079","","","html-slider-response","475","2077555","0.0-24.0-1.0-0.19","71865","List1B","black","man","","","","","","","","survey_race","76","","","Being my race is an important part of how I see myself.","important"
"4917.4000000059605","","","html-slider-response","476","2082480","0.0-24.0-1.0-0.20","71865","List1B","black","man","","","","","","","","survey_race","83","","","The fact that I am my race is an important part of my identity.","identity"
"5879.4000000059605","","","html-slider-response","477","2088366","0.0-24.0-1.0-0.21","71865","List1B","black","man","","","","","","","","survey_race","34","","","I consider myself an introvert.","filler"
"6404","","","html-slider-response","478","2094778","0.0-24.0-1.0-0.22","71865","List1B","black","man","","","","","","","","survey_race","55","","","People my age have a lot in common with each other.","filler"
"3274.9000000059605","","","html-slider-response","479","2098064","0.0-24.0-1.0-0.23","71865","List1B","black","man","","","","","","","","survey_race","41","","","The older I get, the wiser I feel.","filler"
