rt,stimulus,button_pressed,trial_type,trial_index,time_elapsed,internal_node_id,subject,list,ppt_race,ppt_gender,url,first_guess,correct,key_press,responses,image_type,phrase_type,test_part,response,stimulus1,stimulus2,question_type,survey_item
2976.7,Welcome to the experiment. Press Continue to begin.,0,html-button-response,0,2979,0.0-0.0,72273,List2B,white,man,,,,,,,,,,,,,
47892.8,,,external-html,1,52030,0.0-1.0,72273,List2B,white,man,consent.html,,,,,,,,,,,,
15416.3,"<p>On the next page, you will see portraits of 8 people and their names.</p><p>Your first task is to take a few minutes to memorise the names of these people.</p><p>You will have to recall their names during the rest of the experiment, so it is</p><p>essential that you try to memorise these people and their names as best as you can.</p><br><p><strong>You will then be tested on your memory of these names and portraits.</strong></p><br><p>The experiment will start after you have completed this memory test.</p><br><p>Ready?</p>",0,html-button-response,2,67447,0.0-2.0,72273,List2B,white,man,,,,,,,,,,,,,
66935.6,"<img src='img/portrait_matrix_list2.jpg' style='width:900px;height:500px;''></img><p>If you have memorised all the portraits and names and are ready to start, press Continue.</p><p><strong>Please note: Your memory of these faces will be tested 4 times during this experiment.</strong></p>",0,html-button-response,3,135392,0.0-3.0-0.0,72273,List2B,white,man,,,,,,,,,,,,,
8020.6,"<img src=""portrait/BW2.jpg""style=""height:400px;""></img>",2,html-button-response,4,144422,0.0-3.0-1.0,72273,List2B,white,man,,TRUE,2,,,,,,,,,,
null,CORRECT,,html-keyboard-response,5,145953,0.0-3.0-2.0-0.0,72273,List2B,white,man,,,,null,,,,,,,,,
8461.9,"<img src=""portrait/BW1.jpg""style=""height:400px;""></img>",0,html-button-response,6,154418,0.0-3.0-4.0,72273,List2B,white,man,,TRUE,0,,,,,,,,,,
null,CORRECT,,html-keyboard-response,7,155925,0.0-3.0-5.0-0.0,72273,List2B,white,man,,,,null,,,,,,,,,
3027.5,"<img src=""portrait/WM1.jpg""style=""height:400px;""></img>",6,html-button-response,8,158954,0.0-3.0-7.0,72273,List2B,white,man,,TRUE,6,,,,,,,,,,
null,CORRECT,,html-keyboard-response,9,160467,0.0-3.0-8.0-0.0,72273,List2B,white,man,,,,null,,,,,,,,,
4329.5,"<img src=""portrait/WW1.jpg""style=""height:400px;""></img>",2,html-button-response,10,164798,0.0-3.0-10.0,72273,List2B,white,man,,TRUE,1,,,,,,,,,,
4980.5,"<img src=""portrait/WW1.jpg""style=""height:400px;""></img>",1,html-button-response,11,170792,0.0-3.0-12.0-0.0,72273,List2B,white,man,,FALSE,1,,,,,,,,,,
null,CORRECT,,html-keyboard-response,12,172306,0.0-3.0-12.0-1.0-0.0,72273,List2B,white,man,,,,null,,,,,,,,,
3372.4,"<img src=""portrait/BM1.jpg""style=""height:400px;""></img>",4,html-button-response,13,175680,0.0-3.0-13.0,72273,List2B,white,man,,TRUE,4,,,,,,,,,,
null,CORRECT,,html-keyboard-response,14,177185,0.0-3.0-14.0-0.0,72273,List2B,white,man,,,,null,,,,,,,,,
3325.7,"<img src=""portrait/WW2.jpg""style=""height:400px;""></img>",2,html-button-response,15,180511,0.0-3.0-16.0,72273,List2B,white,man,,TRUE,3,,,,,,,,,,
1966.2,"<img src=""portrait/WW2.jpg""style=""height:400px;""></img>",3,html-button-response,16,183494,0.0-3.0-18.0-0.0,72273,List2B,white,man,,FALSE,3,,,,,,,,,,
null,CORRECT,,html-keyboard-response,17,185010,0.0-3.0-18.0-1.0-0.0,72273,List2B,white,man,,,,null,,,,,,,,,
4667.5,"<img src=""portrait/WM2.jpg""style=""height:400px;""></img>",7,html-button-response,18,189679,0.0-3.0-19.0,72273,List2B,white,man,,TRUE,7,,,,,,,,,,
null,CORRECT,,html-keyboard-response,19,191195,0.0-3.0-20.0-0.0,72273,List2B,white,man,,,,null,,,,,,,,,
3974.5,"<img src=""portrait/BM2.jpg""style=""height:400px;""></img>",5,html-button-response,20,195172,0.0-3.0-22.0,72273,List2B,white,man,,TRUE,5,,,,,,,,,,
null,CORRECT,,html-keyboard-response,21,196699,0.0-3.0-23.0-0.0,72273,List2B,white,man,,,,null,,,,,,,,,
2871.2,<p>You got 6 out of 8 right first time. Press Continue.</p>,0,html-button-response,22,199572,0.0-3.0-25.0,72273,List2B,white,man,,,,,,,,,,,,,
3226.4,"As you did not score 100%, the memory game will repeat. Press Continue.",0,html-button-response,23,203806,0.0-3.0-26.0-0.0,72273,List2B,white,man,,,,,,,,,,,,,
33623.7,"<img src='img/portrait_matrix_list2.jpg' style='width:900px;height:500px;''></img><p>If you have memorised all the portraits and names and are ready to start, press Continue.</p><p><strong>Please note: Your memory of these faces will be tested 4 times during this experiment.</strong></p>",0,html-button-response,24,238441,0.0-3.1-0.1,72273,List2B,white,man,,,,,,,,,,,,,
11733.2,"<img src=""portrait/BW2.jpg""style=""height:400px;""></img>",3,html-button-response,25,251187,0.0-3.1-1.1,72273,List2B,white,man,,TRUE,2,,,,,,,,,,
2106.2,"<img src=""portrait/BW2.jpg""style=""height:400px;""></img>",2,html-button-response,26,254297,0.0-3.1-3.1-0.1,72273,List2B,white,man,,FALSE,2,,,,,,,,,,
null,CORRECT,,html-keyboard-response,27,255815,0.0-3.1-3.1-1.1-0.1,72273,List2B,white,man,,,,null,,,,,,,,,
1807.4,"<img src=""portrait/BW1.jpg""style=""height:400px;""></img>",0,html-button-response,28,257624,0.0-3.1-4.1,72273,List2B,white,man,,TRUE,0,,,,,,,,,,
null,CORRECT,,html-keyboard-response,29,259146,0.0-3.1-5.1-0.1,72273,List2B,white,man,,,,null,,,,,,,,,
2609.4,"<img src=""portrait/WM1.jpg""style=""height:400px;""></img>",6,html-button-response,30,261758,0.0-3.1-7.1,72273,List2B,white,man,,TRUE,6,,,,,,,,,,
null,CORRECT,,html-keyboard-response,31,263269,0.0-3.1-8.1-0.1,72273,List2B,white,man,,,,null,,,,,,,,,
6999.3,"<img src=""portrait/WW1.jpg""style=""height:400px;""></img>",1,html-button-response,32,270270,0.0-3.1-10.1,72273,List2B,white,man,,TRUE,1,,,,,,,,,,
null,CORRECT,,html-keyboard-response,33,271783,0.0-3.1-11.1-0.1,72273,List2B,white,man,,,,null,,,,,,,,,
3055.3,"<img src=""portrait/BM1.jpg""style=""height:400px;""></img>",4,html-button-response,34,274840,0.0-3.1-13.1,72273,List2B,white,man,,TRUE,4,,,,,,,,,,
null,CORRECT,,html-keyboard-response,35,276369,0.0-3.1-14.1-0.1,72273,List2B,white,man,,,,null,,,,,,,,,
3204.8,"<img src=""portrait/WW2.jpg""style=""height:400px;""></img>",3,html-button-response,36,279576,0.0-3.1-16.1,72273,List2B,white,man,,TRUE,3,,,,,,,,,,
null,CORRECT,,html-keyboard-response,37,281099,0.0-3.1-17.1-0.1,72273,List2B,white,man,,,,null,,,,,,,,,
1930.5,"<img src=""portrait/WM2.jpg""style=""height:400px;""></img>",7,html-button-response,38,283032,0.0-3.1-19.1,72273,List2B,white,man,,TRUE,7,,,,,,,,,,
null,CORRECT,,html-keyboard-response,39,284554,0.0-3.1-20.1-0.1,72273,List2B,white,man,,,,null,,,,,,,,,
1529.4,"<img src=""portrait/BM2.jpg""style=""height:400px;""></img>",5,html-button-response,40,286086,0.0-3.1-22.1,72273,List2B,white,man,,TRUE,5,,,,,,,,,,
null,CORRECT,,html-keyboard-response,41,287612,0.0-3.1-23.1-0.1,72273,List2B,white,man,,,,null,,,,,,,,,
2455.1,<p>You got 7 out of 8 right first time. Press Continue.</p>,0,html-button-response,42,290070,0.0-3.1-25.1,72273,List2B,white,man,,,,,,,,,,,,,
2854.6,"As you did not score 100%, the memory game will repeat. Press Continue.",0,html-button-response,43,293941,0.0-3.1-26.1-0.1,72273,List2B,white,man,,,,,,,,,,,,,
19185.3,"<img src='img/portrait_matrix_list2.jpg' style='width:900px;height:500px;''></img><p>If you have memorised all the portraits and names and are ready to start, press Continue.</p><p><strong>Please note: Your memory of these faces will be tested 4 times during this experiment.</strong></p>",0,html-button-response,44,314133,0.0-3.2-0.2,72273,List2B,white,man,,,,,,,,,,,,,
7507.6,"<img src=""portrait/BW2.jpg""style=""height:400px;""></img>",2,html-button-response,45,322653,0.0-3.2-1.2,72273,List2B,white,man,,TRUE,2,,,,,,,,,,
null,CORRECT,,html-keyboard-response,46,324159,0.0-3.2-2.2-0.2,72273,List2B,white,man,,,,null,,,,,,,,,
12512.8,"<img src=""portrait/BW1.jpg""style=""height:400px;""></img>",0,html-button-response,47,336673,0.0-3.2-4.2,72273,List2B,white,man,,TRUE,0,,,,,,,,,,
null,CORRECT,,html-keyboard-response,48,338198,0.0-3.2-5.2-0.2,72273,List2B,white,man,,,,null,,,,,,,,,
3988.5,"<img src=""portrait/WM1.jpg""style=""height:400px;""></img>",6,html-button-response,49,342187,0.0-3.2-7.2,72273,List2B,white,man,,TRUE,6,,,,,,,,,,
null,CORRECT,,html-keyboard-response,50,343708,0.0-3.2-8.2-0.2,72273,List2B,white,man,,,,null,,,,,,,,,
3938.1,"<img src=""portrait/WW1.jpg""style=""height:400px;""></img>",2,html-button-response,51,347648,0.0-3.2-10.2,72273,List2B,white,man,,TRUE,1,,,,,,,,,,
4233.5,"<img src=""portrait/WW1.jpg""style=""height:400px;""></img>",1,html-button-response,52,352887,0.0-3.2-12.2-0.2,72273,List2B,white,man,,FALSE,1,,,,,,,,,,
null,CORRECT,,html-keyboard-response,53,354411,0.0-3.2-12.2-1.2-0.2,72273,List2B,white,man,,,,null,,,,,,,,,
2111.4,"<img src=""portrait/BM1.jpg""style=""height:400px;""></img>",4,html-button-response,54,356528,0.0-3.2-13.2,72273,List2B,white,man,,TRUE,4,,,,,,,,,,
null,CORRECT,,html-keyboard-response,55,358047,0.0-3.2-14.2-0.2,72273,List2B,white,man,,,,null,,,,,,,,,
1682.8,"<img src=""portrait/WW2.jpg""style=""height:400px;""></img>",2,html-button-response,56,359733,0.0-3.2-16.2,72273,List2B,white,man,,TRUE,3,,,,,,,,,,
1685.1,"<img src=""portrait/WW2.jpg""style=""height:400px;""></img>",3,html-button-response,57,362427,0.0-3.2-18.2-0.2,72273,List2B,white,man,,FALSE,3,,,,,,,,,,
null,CORRECT,,html-keyboard-response,58,363957,0.0-3.2-18.2-1.2-0.2,72273,List2B,white,man,,,,null,,,,,,,,,
3149.2,"<img src=""portrait/WM2.jpg""style=""height:400px;""></img>",7,html-button-response,59,367107,0.0-3.2-19.2,72273,List2B,white,man,,TRUE,7,,,,,,,,,,
null,CORRECT,,html-keyboard-response,60,368615,0.0-3.2-20.2-0.2,72273,List2B,white,man,,,,null,,,,,,,,,
1649.3,"<img src=""portrait/BM2.jpg""style=""height:400px;""></img>",5,html-button-response,61,370266,0.0-3.2-22.2,72273,List2B,white,man,,TRUE,5,,,,,,,,,,
null,CORRECT,,html-keyboard-response,62,371790,0.0-3.2-23.2-0.2,72273,List2B,white,man,,,,null,,,,,,,,,
2122,<p>You got 6 out of 8 right first time. Press Continue.</p>,0,html-button-response,63,373913,0.0-3.2-25.2,72273,List2B,white,man,,,,,,,,,,,,,
1761.6,"As you did not score 100%, the memory game will repeat. Press Continue.",0,html-button-response,64,376679,0.0-3.2-26.2-0.2,72273,List2B,white,man,,,,,,,,,,,,,
26029.6,"<img src='img/portrait_matrix_list2.jpg' style='width:900px;height:500px;''></img><p>If you have memorised all the portraits and names and are ready to start, press Continue.</p><p><strong>Please note: Your memory of these faces will be tested 4 times during this experiment.</strong></p>",0,html-button-response,65,403726,0.0-3.3-0.3,72273,List2B,white,man,,,,,,,,,,,,,
3061.2,"<img src=""portrait/BW2.jpg""style=""height:400px;""></img>",2,html-button-response,66,407798,0.0-3.3-1.3,72273,List2B,white,man,,TRUE,2,,,,,,,,,,
null,CORRECT,,html-keyboard-response,67,409324,0.0-3.3-2.3-0.3,72273,List2B,white,man,,,,null,,,,,,,,,
2221.9,"<img src=""portrait/BW1.jpg""style=""height:400px;""></img>",0,html-button-response,68,411547,0.0-3.3-4.3,72273,List2B,white,man,,TRUE,0,,,,,,,,,,
null,CORRECT,,html-keyboard-response,69,413050,0.0-3.3-5.3-0.3,72273,List2B,white,man,,,,null,,,,,,,,,
1903.8,"<img src=""portrait/WM1.jpg""style=""height:400px;""></img>",6,html-button-response,70,414955,0.0-3.3-7.3,72273,List2B,white,man,,TRUE,6,,,,,,,,,,
null,CORRECT,,html-keyboard-response,71,416478,0.0-3.3-8.3-0.3,72273,List2B,white,man,,,,null,,,,,,,,,
4928.3,"<img src=""portrait/WW1.jpg""style=""height:400px;""></img>",2,html-button-response,72,421407,0.0-3.3-10.3,72273,List2B,white,man,,TRUE,1,,,,,,,,,,
2264.5,"<img src=""portrait/WW1.jpg""style=""height:400px;""></img>",1,html-button-response,73,424677,0.0-3.3-12.3-0.3,72273,List2B,white,man,,FALSE,1,,,,,,,,,,
null,CORRECT,,html-keyboard-response,74,426209,0.0-3.3-12.3-1.3-0.3,72273,List2B,white,man,,,,null,,,,,,,,,
2179.1,"<img src=""portrait/BM1.jpg""style=""height:400px;""></img>",4,html-button-response,75,428390,0.0-3.3-13.3,72273,List2B,white,man,,TRUE,4,,,,,,,,,,
null,CORRECT,,html-keyboard-response,76,429906,0.0-3.3-14.3-0.3,72273,List2B,white,man,,,,null,,,,,,,,,
1639.4,"<img src=""portrait/WW2.jpg""style=""height:400px;""></img>",2,html-button-response,77,431547,0.0-3.3-16.3,72273,List2B,white,man,,TRUE,3,,,,,,,,,,
1323.3,"<img src=""portrait/WW2.jpg""style=""height:400px;""></img>",3,html-button-response,78,433880,0.0-3.3-18.3-0.3,72273,List2B,white,man,,FALSE,3,,,,,,,,,,
null,CORRECT,,html-keyboard-response,79,435398,0.0-3.3-18.3-1.3-0.3,72273,List2B,white,man,,,,null,,,,,,,,,
1711.4,"<img src=""portrait/WM2.jpg""style=""height:400px;""></img>",7,html-button-response,80,437111,0.0-3.3-19.3,72273,List2B,white,man,,TRUE,7,,,,,,,,,,
null,CORRECT,,html-keyboard-response,81,438634,0.0-3.3-20.3-0.3,72273,List2B,white,man,,,,null,,,,,,,,,
2073.8,"<img src=""portrait/BM2.jpg""style=""height:400px;""></img>",5,html-button-response,82,440709,0.0-3.3-22.3,72273,List2B,white,man,,TRUE,5,,,,,,,,,,
null,CORRECT,,html-keyboard-response,83,442229,0.0-3.3-23.3-0.3,72273,List2B,white,man,,,,null,,,,,,,,,
1661.1,<p>You got 6 out of 8 right first time. Press Continue.</p>,0,html-button-response,84,443891,0.0-3.3-25.3,72273,List2B,white,man,,,,,,,,,,,,,
3195.6,"As you did not score 100%, the memory game will repeat. Press Continue.",0,html-button-response,85,448101,0.0-3.3-26.3-0.3,72273,List2B,white,man,,,,,,,,,,,,,
11105.2,"<img src='img/portrait_matrix_list2.jpg' style='width:900px;height:500px;''></img><p>If you have memorised all the portraits and names and are ready to start, press Continue.</p><p><strong>Please note: Your memory of these faces will be tested 4 times during this experiment.</strong></p>",0,html-button-response,86,460209,0.0-3.4-0.4,72273,List2B,white,man,,,,,,,,,,,,,
4695.5,"<img src=""portrait/BW2.jpg""style=""height:400px;""></img>",2,html-button-response,87,465909,0.0-3.4-1.4,72273,List2B,white,man,,TRUE,2,,,,,,,,,,
null,CORRECT,,html-keyboard-response,88,467427,0.0-3.4-2.4-0.4,72273,List2B,white,man,,,,null,,,,,,,,,
2213,"<img src=""portrait/BW1.jpg""style=""height:400px;""></img>",0,html-button-response,89,469644,0.0-3.4-4.4,72273,List2B,white,man,,TRUE,0,,,,,,,,,,
null,CORRECT,,html-keyboard-response,90,471159,0.0-3.4-5.4-0.4,72273,List2B,white,man,,,,null,,,,,,,,,
1601.2,"<img src=""portrait/WM1.jpg""style=""height:400px;""></img>",6,html-button-response,91,472762,0.0-3.4-7.4,72273,List2B,white,man,,TRUE,6,,,,,,,,,,
null,CORRECT,,html-keyboard-response,92,474283,0.0-3.4-8.4-0.4,72273,List2B,white,man,,,,null,,,,,,,,,
3238.9,"<img src=""portrait/WW1.jpg""style=""height:400px;""></img>",3,html-button-response,93,477523,0.0-3.4-10.4,72273,List2B,white,man,,TRUE,1,,,,,,,,,,
2157.9,"<img src=""portrait/WW1.jpg""style=""height:400px;""></img>",1,html-button-response,94,480698,0.0-3.4-12.4-0.4,72273,List2B,white,man,,FALSE,1,,,,,,,,,,
null,CORRECT,,html-keyboard-response,95,482215,0.0-3.4-12.4-1.4-0.4,72273,List2B,white,man,,,,null,,,,,,,,,
1735,"<img src=""portrait/BM1.jpg""style=""height:400px;""></img>",4,html-button-response,96,483951,0.0-3.4-13.4,72273,List2B,white,man,,TRUE,4,,,,,,,,,,
null,CORRECT,,html-keyboard-response,97,485480,0.0-3.4-14.4-0.4,72273,List2B,white,man,,,,null,,,,,,,,,
1548,"<img src=""portrait/WW2.jpg""style=""height:400px;""></img>",2,html-button-response,98,487030,0.0-3.4-16.4,72273,List2B,white,man,,TRUE,3,,,,,,,,,,
2424.4,"<img src=""portrait/WW2.jpg""style=""height:400px;""></img>",3,html-button-response,99,490461,0.0-3.4-18.4-0.4,72273,List2B,white,man,,FALSE,3,,,,,,,,,,
null,CORRECT,,html-keyboard-response,100,491981,0.0-3.4-18.4-1.4-0.4,72273,List2B,white,man,,,,null,,,,,,,,,
1756.6,"<img src=""portrait/WM2.jpg""style=""height:400px;""></img>",7,html-button-response,101,493739,0.0-3.4-19.4,72273,List2B,white,man,,TRUE,7,,,,,,,,,,
null,CORRECT,,html-keyboard-response,102,495264,0.0-3.4-20.4-0.4,72273,List2B,white,man,,,,null,,,,,,,,,
2496.6,"<img src=""portrait/BM2.jpg""style=""height:400px;""></img>",5,html-button-response,103,497763,0.0-3.4-22.4,72273,List2B,white,man,,TRUE,5,,,,,,,,,,
null,CORRECT,,html-keyboard-response,104,499281,0.0-3.4-23.4-0.4,72273,List2B,white,man,,,,null,,,,,,,,,
1164.8,<p>You got 6 out of 8 right first time. Press Continue.</p>,0,html-button-response,105,500447,0.0-3.4-25.4,72273,List2B,white,man,,,,,,,,,,,,,
1742.4,"As you did not score 100%, the memory game will repeat. Press Continue.",0,html-button-response,106,503197,0.0-3.4-26.4-0.4,72273,List2B,white,man,,,,,,,,,,,,,
18301.3,"<img src='img/portrait_matrix_list2.jpg' style='width:900px;height:500px;''></img><p>If you have memorised all the portraits and names and are ready to start, press Continue.</p><p><strong>Please note: Your memory of these faces will be tested 4 times during this experiment.</strong></p>",0,html-button-response,107,522503,0.0-3.5-0.5,72273,List2B,white,man,,,,,,,,,,,,,
10806.4,"<img src=""portrait/BW2.jpg""style=""height:400px;""></img>",2,html-button-response,108,534313,0.0-3.5-1.5,72273,List2B,white,man,,TRUE,2,,,,,,,,,,
null,CORRECT,,html-keyboard-response,109,535841,0.0-3.5-2.5-0.5,72273,List2B,white,man,,,,null,,,,,,,,,
1837,"<img src=""portrait/BW1.jpg""style=""height:400px;""></img>",0,html-button-response,110,537679,0.0-3.5-4.5,72273,List2B,white,man,,TRUE,0,,,,,,,,,,
null,CORRECT,,html-keyboard-response,111,539197,0.0-3.5-5.5-0.5,72273,List2B,white,man,,,,null,,,,,,,,,
1822.9,"<img src=""portrait/WM1.jpg""style=""height:400px;""></img>",6,html-button-response,112,541021,0.0-3.5-7.5,72273,List2B,white,man,,TRUE,6,,,,,,,,,,
null,CORRECT,,html-keyboard-response,113,542529,0.0-3.5-8.5-0.5,72273,List2B,white,man,,,,null,,,,,,,,,
6234.1,"<img src=""portrait/WW1.jpg""style=""height:400px;""></img>",1,html-button-response,114,548765,0.0-3.5-10.5,72273,List2B,white,man,,TRUE,1,,,,,,,,,,
null,CORRECT,,html-keyboard-response,115,550283,0.0-3.5-11.5-0.5,72273,List2B,white,man,,,,null,,,,,,,,,
4178.3,"<img src=""portrait/BM1.jpg""style=""height:400px;""></img>",4,html-button-response,116,554463,0.0-3.5-13.5,72273,List2B,white,man,,TRUE,4,,,,,,,,,,
null,CORRECT,,html-keyboard-response,117,555993,0.0-3.5-14.5-0.5,72273,List2B,white,man,,,,null,,,,,,,,,
2245.3,"<img src=""portrait/WW2.jpg""style=""height:400px;""></img>",3,html-button-response,118,558240,0.0-3.5-16.5,72273,List2B,white,man,,TRUE,3,,,,,,,,,,
null,CORRECT,,html-keyboard-response,119,559757,0.0-3.5-17.5-0.5,72273,List2B,white,man,,,,null,,,,,,,,,
1864.7,"<img src=""portrait/WM2.jpg""style=""height:400px;""></img>",7,html-button-response,120,561623,0.0-3.5-19.5,72273,List2B,white,man,,TRUE,7,,,,,,,,,,
null,CORRECT,,html-keyboard-response,121,563146,0.0-3.5-20.5-0.5,72273,List2B,white,man,,,,null,,,,,,,,,
2193.6,"<img src=""portrait/BM2.jpg""style=""height:400px;""></img>",5,html-button-response,122,565341,0.0-3.5-22.5,72273,List2B,white,man,,TRUE,5,,,,,,,,,,
null,CORRECT,,html-keyboard-response,123,566860,0.0-3.5-23.5-0.5,72273,List2B,white,man,,,,null,,,,,,,,,
1556.7,<p>You got 8 out of 8 right first time. Press Continue.</p>,0,html-button-response,124,568419,0.0-3.5-25.5,72273,List2B,white,man,,,,,,,,,,,,,
38520,"<p>In this experiment, you will view photographs of the people from the memory game interacting.</p><p>By using the <strong>exact</strong> phrase given <i>after</i> the photograph appears and recalling the correct names of the people in the photographs, form a sentence describing the interaction. You do not need to capitalise names.</p><p>Type your answer in the space provided. Please complete every sentence before moving onto the next trial.</p><p>You will only have a few seconds to memorise each given photograph and phrase before you can respond, so try your best to focus.</p><p>An example is given below. Press 'Continue' when you are ready.</p><img src='img/speaking_example.jpg' style='width:800px;height:460px;''></img>",0,html-button-response,125,607953,0.0-4.0,72273,List2B,white,man,,,,,,,,,,,,,
3001.7,"<p>Before the experiment starts, you will watch two example trials. Press 'Continue'.</p>",0,html-button-response,126,611969,0.0-5.0,72273,List2B,white,man,,,,,,,,,,,,,
null,<img src='img/play_eg.gif' style='height:400px;''></img>,,html-keyboard-response,127,614989,0.0-6.0,72273,List2B,white,man,,,,null,,,,,,,,,
null,<p>is playing with</p>,,html-keyboard-response,128,616997,0.0-7.0,72273,List2B,white,man,,,,null,,,,,,,,,
2560.7,<p><b>Answer:</b> jane is playing with ruth</p>,0,html-button-response,129,619559,0.0-8.0,72273,List2B,white,man,,,,,,,,,,,,,
null,<img src='img/dance_eg.gif' style='height:400px;''></img>,,html-keyboard-response,130,622578,0.0-9.0,72273,List2B,white,man,,,,null,,,,,,,,,
null,<p>is being entertained by</p>,,html-keyboard-response,131,624591,0.0-10.0,72273,List2B,white,man,,,,null,,,,,,,,,
4558.5,<p><b>Answer:</b> fred is being entertained by mike</p>,0,html-button-response,132,629151,0.0-11.0,72273,List2B,white,man,,,,,,,,,,,,,
10475.7,"<p>Ready to start the experiment?</p><br><p><strong>Remember to describe the picture using a full sentence,</strong></p><p><strong>that combines the names of the people with the <i>exact</i> phrase given.</strong></p><p><strong>To receive full payment you must do this correctly.</strong></p><p><strong> You do not need to capitalise names or use punctuation.</strong></p><br><p>Press 'Continue' to begin.</p>",0,html-button-response,133,640631,0.0-12.0,72273,List2B,white,man,,,,,,,,,,,,,
null,"<div style=""font-size:60px;"">+</div>",,html-keyboard-response,134,642159,0.0-13.0-0.0,72273,List2B,white,man,,,,null,,,,,,,,,
null,"<img src=""stim_listB/kiss1.gif""style=""height:400px;""></stim_listB>",,html-keyboard-response,135,644160,0.0-13.0-1.0,72273,List2B,white,man,,,,null,,,,,,,,,
null,is kissing,,html-keyboard-response,136,646165,0.0-13.0-2.0,72273,List2B,white,man,,,,null,,,,,,,,,
9700,,,survey-text,137,655870,0.0-13.0-3.0,72273,List2B,white,man,,,,,"{""Q0"":""luke is kissing kate""}","<img src=""stim_listB/kiss1.gif""style=""height:400px;""></stim_listB>",is kissing,,,,,,
null,"<div style=""font-size:60px;"">+</div>",,html-keyboard-response,138,656378,0.0-13.0-0.1,72273,List2B,white,man,,,,null,,,,,,,,,
null,"<img src=""stim_listB/greet1.gif""style=""height:400px;""></stim_listB>",,html-keyboard-response,139,658382,0.0-13.0-1.1,72273,List2B,white,man,,,,null,,,,,,,,,
null,is greeting,,html-keyboard-response,140,660393,0.0-13.0-2.1,72273,List2B,white,man,,,,null,,,,,,,,,
9362.9,,,survey-text,141,669759,0.0-13.0-3.1,72273,List2B,white,man,,,,,"{""Q0"":""kate is greeting dave""}","<img src=""stim_listB/greet1.gif""style=""height:400px;""></stim_listB>",is greeting,,,,,,
null,"<div style=""font-size:60px;"">+</div>",,html-keyboard-response,142,670276,0.0-13.0-0.2,72273,List2B,white,man,,,,null,,,,,,,,,
null,"<img src=""stim_listB/greet5.gif""style=""height:400px;""></stim_listB>",,html-keyboard-response,143,672279,0.0-13.0-1.2,72273,List2B,white,man,,,,null,,,,,,,,,
null,is greeting,,html-keyboard-response,144,674290,0.0-13.0-2.2,72273,List2B,white,man,,,,null,,,,,,,,,
7883.5,,,survey-text,145,682175,0.0-13.0-3.2,72273,List2B,white,man,,,,,"{""Q0"":""fred is greeting dave""}","<img src=""stim_listB/greet5.gif""style=""height:400px;""></stim_listB>",is greeting,,,,,,
null,"<div style=""font-size:60px;"">+</div>",,html-keyboard-response,146,682682,0.0-13.0-0.3,72273,List2B,white,man,,,,null,,,,,,,,,
null,"<img src=""stim_listB/hug3.gif""style=""height:400px;""></stim_listB>",,html-keyboard-response,147,684697,0.0-13.0-1.3,72273,List2B,white,man,,,,null,,,,,,,,,
null,is hugging,,html-keyboard-response,148,686700,0.0-13.0-2.3,72273,List2B,white,man,,,,null,,,,,,,,,
8922.4,,,survey-text,149,695625,0.0-13.0-3.3,72273,List2B,white,man,,,,,"{""Q0"":""fred is hugging beth""}","<img src=""stim_listB/hug3.gif""style=""height:400px;""></stim_listB>",is hugging,,,,,,
null,"<div style=""font-size:60px;"">+</div>",,html-keyboard-response,150,696127,0.0-13.0-0.4,72273,List2B,white,man,,,,null,,,,,,,,,
null,"<img src=""stim_listB/challenge7.gif""style=""height:400px;""></stim_listB>",,html-keyboard-response,151,698130,0.0-13.0-1.4,72273,List2B,white,man,,,,null,,,,,,,,,
null,is challenging,,html-keyboard-response,152,700136,0.0-13.0-2.4,72273,List2B,white,man,,,,null,,,,,,,,,
7940.2,,,survey-text,153,708079,0.0-13.0-3.4,72273,List2B,white,man,,,,,"{""Q0"":""beth is challenging jane""}","<img src=""stim_listB/challenge7.gif""style=""height:400px;""></stim_listB>",is challenging,,,,,,
null,"<div style=""font-size:60px;"">+</div>",,html-keyboard-response,154,708585,0.0-13.0-0.5,72273,List2B,white,man,,,,null,,,,,,,,,
null,"<img src=""stim_listB/kiss2.gif""style=""height:400px;""></stim_listB>",,html-keyboard-response,155,710598,0.0-13.0-1.5,72273,List2B,white,man,,,,null,,,,,,,,,
null,is being kissed by,,html-keyboard-response,156,712605,0.0-13.0-2.5,72273,List2B,white,man,,,,null,,,,,,,,,
11228.4,,,survey-text,157,723835,0.0-13.0-3.5,72273,List2B,white,man,,,,,"{""Q0"":""dave is being kissed by jane""}","<img src=""stim_listB/kiss2.gif""style=""height:400px;""></stim_listB>",is being kissed by,,,,,,
null,"<div style=""font-size:60px;"">+</div>",,html-keyboard-response,158,724344,0.0-13.0-0.6,72273,List2B,white,man,,,,null,,,,,,,,,
null,"<img src=""stim_listB/oppose1.gif""style=""height:400px;""></stim_listB>",,html-keyboard-response,159,726350,0.0-13.0-1.6,72273,List2B,white,man,,,,null,,,,,,,,,
null,is opposing,,html-keyboard-response,160,728363,0.0-13.0-2.6,72273,List2B,white,man,,,,null,,,,,,,,,
6596.6,,,survey-text,161,734962,0.0-13.0-3.6,72273,List2B,white,man,,,,,"{""Q0"":""jane is opposing dave""}","<img src=""stim_listB/oppose1.gif""style=""height:400px;""></stim_listB>",is opposing,,,,,,
null,"<div style=""font-size:60px;"">+</div>",,html-keyboard-response,162,735466,0.0-13.0-0.7,72273,List2B,white,man,,,,null,,,,,,,,,
null,"<img src=""stim_listB/copy8.gif""style=""height:400px;""></stim_listB>",,html-keyboard-response,163,737478,0.0-13.0-1.7,72273,List2B,white,man,,,,null,,,,,,,,,
null,is being copied by,,html-keyboard-response,164,739480,0.0-13.0-2.7,72273,List2B,white,man,,,,null,,,,,,,,,
18176,,,survey-text,165,757660,0.0-13.0-3.7,72273,List2B,white,man,,,,,"{""Q0"":""beth is being challenged by kate""}","<img src=""stim_listB/copy8.gif""style=""height:400px;""></stim_listB>",is being copied by,,,,,,
null,"<div style=""font-size:60px;"">+</div>",,html-keyboard-response,166,758174,0.0-13.0-0.8,72273,List2B,white,man,,,,null,,,,,,,,,
null,"<img src=""stim_listB/greet3.gif""style=""height:400px;""></stim_listB>",,html-keyboard-response,167,760188,0.0-13.0-1.8,72273,List2B,white,man,,,,null,,,,,,,,,
null,is greeting,,html-keyboard-response,168,762202,0.0-13.0-2.8,72273,List2B,white,man,,,,null,,,,,,,,,
6838.5,,,survey-text,169,769044,0.0-13.0-3.8,72273,List2B,white,man,,,,,"{""Q0"":""beth is greeting mike""}","<img src=""stim_listB/greet3.gif""style=""height:400px;""></stim_listB>",is greeting,,,,,,
null,"<div style=""font-size:60px;"">+</div>",,html-keyboard-response,170,769560,0.0-13.0-0.9,72273,List2B,white,man,,,,null,,,,,,,,,
null,"<img src=""stim_listB/hug2.gif""style=""height:400px;""></stim_listB>",,html-keyboard-response,171,771566,0.0-13.0-1.9,72273,List2B,white,man,,,,null,,,,,,,,,
null,is being hugged by,,html-keyboard-response,172,773574,0.0-13.0-2.9,72273,List2B,white,man,,,,null,,,,,,,,,
8395.6,,,survey-text,173,781973,0.0-13.0-3.9,72273,List2B,white,man,,,,,"{""Q0"":""dave is being hugged by kate""}","<img src=""stim_listB/hug2.gif""style=""height:400px;""></stim_listB>",is being hugged by,,,,,,
null,"<div style=""font-size:60px;"">+</div>",,html-keyboard-response,174,782474,0.0-13.0-0.10,72273,List2B,white,man,,,,null,,,,,,,,,
null,"<img src=""stim_listB/touch8.gif""style=""height:400px;""></stim_listB>",,html-keyboard-response,175,784476,0.0-13.0-1.10,72273,List2B,white,man,,,,null,,,,,,,,,
null,is being touched by,,html-keyboard-response,176,786487,0.0-13.0-2.10,72273,List2B,white,man,,,,null,,,,,,,,,
8799.7,,,survey-text,177,795289,0.0-13.0-3.10,72273,List2B,white,man,,,,,"{""Q0"":""beth is being touched by ruth""}","<img src=""stim_listB/touch8.gif""style=""height:400px;""></stim_listB>",is being touched by,,,,,,
null,"<div style=""font-size:60px;"">+</div>",,html-keyboard-response,178,795795,0.0-13.0-0.11,72273,List2B,white,man,,,,null,,,,,,,,,
null,"<img src=""stim_listB/oppose8.gif""style=""height:400px;""></stim_listB>",,html-keyboard-response,179,797804,0.0-13.0-1.11,72273,List2B,white,man,,,,null,,,,,,,,,
null,is being opposed by,,html-keyboard-response,180,799816,0.0-13.0-2.11,72273,List2B,white,man,,,,null,,,,,,,,,
8278,,,survey-text,181,808097,0.0-13.0-3.11,72273,List2B,white,man,,,,,"{""Q0"":""beth is being opposed by kate""}","<img src=""stim_listB/oppose8.gif""style=""height:400px;""></stim_listB>",is being opposed by,,,,,,
null,"<div style=""font-size:60px;"">+</div>",,html-keyboard-response,182,808605,0.0-13.0-0.12,72273,List2B,white,man,,,,null,,,,,,,,,
null,"<img src=""stim_listB/touch3.gif""style=""height:400px;""></stim_listB>",,html-keyboard-response,183,810606,0.0-13.0-1.12,72273,List2B,white,man,,,,null,,,,,,,,,
null,is touching,,html-keyboard-response,184,812613,0.0-13.0-2.12,72273,List2B,white,man,,,,null,,,,,,,,,
8995.5,,,survey-text,185,821611,0.0-13.0-3.12,72273,List2B,white,man,,,,,"{""Q0"":""mike is touching beth""}","<img src=""stim_listB/touch3.gif""style=""height:400px;""></stim_listB>",is touching,,,,,,
null,"<div style=""font-size:60px;"">+</div>",,html-keyboard-response,186,822126,0.0-13.0-0.13,72273,List2B,white,man,,,,null,,,,,,,,,
null,"<img src=""stim_listB/copy5.gif""style=""height:400px;""></stim_listB>",,html-keyboard-response,187,824140,0.0-13.0-1.13,72273,List2B,white,man,,,,null,,,,,,,,,
null,is copying,,html-keyboard-response,188,826150,0.0-13.0-2.13,72273,List2B,white,man,,,,null,,,,,,,,,
7030.6,,,survey-text,189,833183,0.0-13.0-3.13,72273,List2B,white,man,,,,,"{""Q0"":""fred is copying dave""}","<img src=""stim_listB/copy5.gif""style=""height:400px;""></stim_listB>",is copying,,,,,,
null,"<div style=""font-size:60px;"">+</div>",,html-keyboard-response,190,833686,0.0-13.0-0.14,72273,List2B,white,man,,,,null,,,,,,,,,
null,"<img src=""stim_listB/shout8.gif""style=""height:400px;""></stim_listB>",,html-keyboard-response,191,835695,0.0-13.0-1.14,72273,List2B,white,man,,,,null,,,,,,,,,
null,is being shouted at by,,html-keyboard-response,192,837708,0.0-13.0-2.14,72273,List2B,white,man,,,,null,,,,,,,,,
10642.5,,,survey-text,193,848353,0.0-13.0-3.14,72273,List2B,white,man,,,,,"{""Q0"":""kate is being shouted at by ruth""}","<img src=""stim_listB/shout8.gif""style=""height:400px;""></stim_listB>",is being shouted at by,,,,,,
null,"<div style=""font-size:60px;"">+</div>",,html-keyboard-response,194,848861,0.0-13.0-0.15,72273,List2B,white,man,,,,null,,,,,,,,,
null,"<img src=""stim_listB/seduce8.gif""style=""height:400px;""></stim_listB>",,html-keyboard-response,195,850863,0.0-13.0-1.15,72273,List2B,white,man,,,,null,,,,,,,,,
null,is being seduced by,,html-keyboard-response,196,852878,0.0-13.0-2.15,72273,List2B,white,man,,,,null,,,,,,,,,
8400.4,,,survey-text,197,861282,0.0-13.0-3.15,72273,List2B,white,man,,,,,"{""Q0"":""beth is being seduced by kate""}","<img src=""stim_listB/seduce8.gif""style=""height:400px;""></stim_listB>",is being seduced by,,,,,,
null,"<div style=""font-size:60px;"">+</div>",,html-keyboard-response,198,861790,0.0-13.0-0.16,72273,List2B,white,man,,,,null,,,,,,,,,
null,"<img src=""stim_listB/kiss5.gif""style=""height:400px;""></stim_listB>",,html-keyboard-response,199,863792,0.0-13.0-1.16,72273,List2B,white,man,,,,null,,,,,,,,,
null,is kissing,,html-keyboard-response,200,865807,0.0-13.0-2.16,72273,List2B,white,man,,,,null,,,,,,,,,
8565.5,,,survey-text,201,874375,0.0-13.0-3.16,72273,List2B,white,man,,,,,"{""Q0"":""luke is kissing fred""}","<img src=""stim_listB/kiss5.gif""style=""height:400px;""></stim_listB>",is kissing,,,,,,
null,"<div style=""font-size:60px;"">+</div>",,html-keyboard-response,202,874889,0.0-13.0-0.17,72273,List2B,white,man,,,,null,,,,,,,,,
null,"<img src=""stim_listB/shout5.gif""style=""height:400px;""></stim_listB>",,html-keyboard-response,203,876902,0.0-13.0-1.17,72273,List2B,white,man,,,,null,,,,,,,,,
null,is shouting at,,html-keyboard-response,204,878917,0.0-13.0-2.17,72273,List2B,white,man,,,,null,,,,,,,,,
8591.9,,,survey-text,205,887512,0.0-13.0-3.17,72273,List2B,white,man,,,,,"{""Q0"":""luke is shouting at fred ""}","<img src=""stim_listB/shout5.gif""style=""height:400px;""></stim_listB>",is shouting at,,,,,,
null,"<div style=""font-size:60px;"">+</div>",,html-keyboard-response,206,888026,0.0-13.0-0.18,72273,List2B,white,man,,,,null,,,,,,,,,
null,"<img src=""stim_listB/shout1.gif""style=""height:400px;""></stim_listB>",,html-keyboard-response,207,890028,0.0-13.0-1.18,72273,List2B,white,man,,,,null,,,,,,,,,
null,is shouting at,,html-keyboard-response,208,892029,0.0-13.0-2.18,72273,List2B,white,man,,,,null,,,,,,,,,
7815.3,,,survey-text,209,899847,0.0-13.0-3.18,72273,List2B,white,man,,,,,"{""Q0"":""luke is shouting at beth""}","<img src=""stim_listB/shout1.gif""style=""height:400px;""></stim_listB>",is shouting at,,,,,,
null,"<div style=""font-size:60px;"">+</div>",,html-keyboard-response,210,900353,0.0-13.0-0.19,72273,List2B,white,man,,,,null,,,,,,,,,
null,"<img src=""stim_listB/greet7.gif""style=""height:400px;""></stim_listB>",,html-keyboard-response,211,902357,0.0-13.0-1.19,72273,List2B,white,man,,,,null,,,,,,,,,
null,is greeting,,html-keyboard-response,212,904370,0.0-13.0-2.19,72273,List2B,white,man,,,,null,,,,,,,,,
8179.8,,,survey-text,213,912552,0.0-13.0-3.19,72273,List2B,white,man,,,,,"{""Q0"":""beth is  greeting  kate""}","<img src=""stim_listB/greet7.gif""style=""height:400px;""></stim_listB>",is greeting,,,,,,
33672.7,"<img src='img/portrait_matrix_list2.jpg' style='width:900px;height:500px;''></img><p>If you have memorised all the portraits and names and are ready to start, press Continue.</p><p><strong>Please note: Your memory of these faces will be tested 4 times during this experiment.</strong></p>",0,html-button-response,214,946225,0.0-14.0-0.0,72273,List2B,white,man,,,,,,,,,,,,,
2097.4,"<img src=""portrait/WW2.jpg""style=""height:400px;""></img>",3,html-button-response,215,949333,0.0-14.0-1.0,72273,List2B,white,man,,TRUE,3,,,,,,,,,,
null,CORRECT,,html-keyboard-response,216,950862,0.0-14.0-2.0-0.0,72273,List2B,white,man,,,,null,,,,,,,,,
1660.5,"<img src=""portrait/BM2.jpg""style=""height:400px;""></img>",5,html-button-response,217,952523,0.0-14.0-4.0,72273,List2B,white,man,,TRUE,5,,,,,,,,,,
null,CORRECT,,html-keyboard-response,218,954048,0.0-14.0-5.0-0.0,72273,List2B,white,man,,,,null,,,,,,,,,
4888.4,"<img src=""portrait/BW1.jpg""style=""height:400px;""></img>",0,html-button-response,219,958937,0.0-14.0-7.0,72273,List2B,white,man,,TRUE,0,,,,,,,,,,
null,CORRECT,,html-keyboard-response,220,960463,0.0-14.0-8.0-0.0,72273,List2B,white,man,,,,null,,,,,,,,,
2730.6,"<img src=""portrait/WW1.jpg""style=""height:400px;""></img>",2,html-button-response,221,963195,0.0-14.0-10.0,72273,List2B,white,man,,TRUE,1,,,,,,,,,,
2147.5,"<img src=""portrait/WW1.jpg""style=""height:400px;""></img>",1,html-button-response,222,966353,0.0-14.0-12.0-0.0,72273,List2B,white,man,,FALSE,1,,,,,,,,,,
null,CORRECT,,html-keyboard-response,223,967877,0.0-14.0-12.0-1.0-0.0,72273,List2B,white,man,,,,null,,,,,,,,,
1648.2,"<img src=""portrait/WM2.jpg""style=""height:400px;""></img>",7,html-button-response,224,969527,0.0-14.0-13.0,72273,List2B,white,man,,TRUE,7,,,,,,,,,,
null,CORRECT,,html-keyboard-response,225,971053,0.0-14.0-14.0-0.0,72273,List2B,white,man,,,,null,,,,,,,,,
1407.5,"<img src=""portrait/BW2.jpg""style=""height:400px;""></img>",2,html-button-response,226,972462,0.0-14.0-16.0,72273,List2B,white,man,,TRUE,2,,,,,,,,,,
null,CORRECT,,html-keyboard-response,227,973989,0.0-14.0-17.0-0.0,72273,List2B,white,man,,,,null,,,,,,,,,
1589.1,"<img src=""portrait/BM1.jpg""style=""height:400px;""></img>",4,html-button-response,228,975580,0.0-14.0-19.0,72273,List2B,white,man,,TRUE,4,,,,,,,,,,
null,CORRECT,,html-keyboard-response,229,977102,0.0-14.0-20.0-0.0,72273,List2B,white,man,,,,null,,,,,,,,,
2145.8,"<img src=""portrait/WM1.jpg""style=""height:400px;""></img>",6,html-button-response,230,979249,0.0-14.0-22.0,72273,List2B,white,man,,TRUE,6,,,,,,,,,,
null,CORRECT,,html-keyboard-response,231,980764,0.0-14.0-23.0-0.0,72273,List2B,white,man,,,,null,,,,,,,,,
1859.6,<p>You got 7 out of 8 right first time. Press Continue.</p>,0,html-button-response,232,982625,0.0-14.0-25.0,72273,List2B,white,man,,,,,,,,,,,,,
5077.5,"As you did not score 100%, the memory game will repeat. Press Continue.",0,html-button-response,233,988717,0.0-14.0-26.0-0.0,72273,List2B,white,man,,,,,,,,,,,,,
25521.3,"<img src='img/portrait_matrix_list2.jpg' style='width:900px;height:500px;''></img><p>If you have memorised all the portraits and names and are ready to start, press Continue.</p><p><strong>Please note: Your memory of these faces will be tested 4 times during this experiment.</strong></p>",0,html-button-response,234,1015245,0.0-14.1-0.1,72273,List2B,white,man,,,,,,,,,,,,,
3851.7,"<img src=""portrait/WW2.jpg""style=""height:400px;""></img>",3,html-button-response,235,1020102,0.0-14.1-1.1,72273,List2B,white,man,,TRUE,3,,,,,,,,,,
null,CORRECT,,html-keyboard-response,236,1021620,0.0-14.1-2.1-0.1,72273,List2B,white,man,,,,null,,,,,,,,,
1712.5,"<img src=""portrait/BM2.jpg""style=""height:400px;""></img>",5,html-button-response,237,1023334,0.0-14.1-4.1,72273,List2B,white,man,,TRUE,5,,,,,,,,,,
null,CORRECT,,html-keyboard-response,238,1024850,0.0-14.1-5.1-0.1,72273,List2B,white,man,,,,null,,,,,,,,,
1790.5,"<img src=""portrait/BW1.jpg""style=""height:400px;""></img>",0,html-button-response,239,1026643,0.0-14.1-7.1,72273,List2B,white,man,,TRUE,0,,,,,,,,,,
null,CORRECT,,html-keyboard-response,240,1028157,0.0-14.1-8.1-0.1,72273,List2B,white,man,,,,null,,,,,,,,,
4199,"<img src=""portrait/WW1.jpg""style=""height:400px;""></img>",1,html-button-response,241,1032357,0.0-14.1-10.1,72273,List2B,white,man,,TRUE,1,,,,,,,,,,
null,CORRECT,,html-keyboard-response,242,1033875,0.0-14.1-11.1-0.1,72273,List2B,white,man,,,,null,,,,,,,,,
1814.2,"<img src=""portrait/WM2.jpg""style=""height:400px;""></img>",7,html-button-response,243,1035691,0.0-14.1-13.1,72273,List2B,white,man,,TRUE,7,,,,,,,,,,
null,CORRECT,,html-keyboard-response,244,1037218,0.0-14.1-14.1-0.1,72273,List2B,white,man,,,,null,,,,,,,,,
3611.5,"<img src=""portrait/BW2.jpg""style=""height:400px;""></img>",2,html-button-response,245,1040832,0.0-14.1-16.1,72273,List2B,white,man,,TRUE,2,,,,,,,,,,
null,CORRECT,,html-keyboard-response,246,1042358,0.0-14.1-17.1-0.1,72273,List2B,white,man,,,,null,,,,,,,,,
1662.3,"<img src=""portrait/BM1.jpg""style=""height:400px;""></img>",4,html-button-response,247,1044021,0.0-14.1-19.1,72273,List2B,white,man,,TRUE,4,,,,,,,,,,
null,CORRECT,,html-keyboard-response,248,1045540,0.0-14.1-20.1-0.1,72273,List2B,white,man,,,,null,,,,,,,,,
2293.6,"<img src=""portrait/WM1.jpg""style=""height:400px;""></img>",6,html-button-response,249,1047835,0.0-14.1-22.1,72273,List2B,white,man,,TRUE,6,,,,,,,,,,
null,CORRECT,,html-keyboard-response,250,1049353,0.0-14.1-23.1-0.1,72273,List2B,white,man,,,,null,,,,,,,,,
1422.3,<p>You got 8 out of 8 right first time. Press Continue.</p>,0,html-button-response,251,1050777,0.0-14.1-25.1,72273,List2B,white,man,,,,,,,,,,,,,
null,"<div style=""font-size:60px;"">+</div>",,html-keyboard-response,252,1052305,0.0-15.0-0.0,72273,List2B,white,man,,,,null,,,,,,,,,
null,"<img src=""stim_listB/kiss8.gif""style=""height:400px;""></stim_listB>",,html-keyboard-response,253,1054318,0.0-15.0-1.0,72273,List2B,white,man,,,,null,,,,,,,,,
null,is being kissed by,,html-keyboard-response,254,1056328,0.0-15.0-2.0,72273,List2B,white,man,,,,null,,,,,,,,,
11008,,,survey-text,255,1067337,0.0-15.0-3.0,72273,List2B,white,man,,,,,"{""Q0"":""ruth is  being  kissed by kate""}","<img src=""stim_listB/kiss8.gif""style=""height:400px;""></stim_listB>",is being kissed by,,,,,,
null,"<div style=""font-size:60px;"">+</div>",,html-keyboard-response,256,1067848,0.0-15.0-0.1,72273,List2B,white,man,,,,null,,,,,,,,,
null,"<img src=""stim_listB/oppose4.gif""style=""height:400px;""></stim_listB>",,html-keyboard-response,257,1069859,0.0-15.0-1.1,72273,List2B,white,man,,,,null,,,,,,,,,
null,is being opposed by,,html-keyboard-response,258,1071874,0.0-15.0-2.1,72273,List2B,white,man,,,,null,,,,,,,,,
15964,,,survey-text,259,1087841,0.0-15.0-3.1,72273,List2B,white,man,,,,,"{""Q0"":""fred  is  being  oppossed by kate""}","<img src=""stim_listB/oppose4.gif""style=""height:400px;""></stim_listB>",is being opposed by,,,,,,
null,"<div style=""font-size:60px;"">+</div>",,html-keyboard-response,260,1088352,0.0-15.0-0.2,72273,List2B,white,man,,,,null,,,,,,,,,
null,"<img src=""stim_listB/shout6.gif""style=""height:400px;""></stim_listB>",,html-keyboard-response,261,1090362,0.0-15.0-1.2,72273,List2B,white,man,,,,null,,,,,,,,,
null,is being shouted at by,,html-keyboard-response,262,1092368,0.0-15.0-2.2,72273,List2B,white,man,,,,null,,,,,,,,,
10024.3,,,survey-text,263,1102396,0.0-15.0-3.2,72273,List2B,white,man,,,,,"{""Q0"":""mike is being shouted at by dave""}","<img src=""stim_listB/shout6.gif""style=""height:400px;""></stim_listB>",is being shouted at by,,,,,,
null,"<div style=""font-size:60px;"">+</div>",,html-keyboard-response,264,1102901,0.0-15.0-0.3,72273,List2B,white,man,,,,null,,,,,,,,,
null,"<img src=""stim_listB/kiss4.gif""style=""height:400px;""></stim_listB>",,html-keyboard-response,265,1104912,0.0-15.0-1.3,72273,List2B,white,man,,,,null,,,,,,,,,
null,is being kissed by,,html-keyboard-response,266,1106922,0.0-15.0-2.3,72273,List2B,white,man,,,,null,,,,,,,,,
8936.4,,,survey-text,267,1115862,0.0-15.0-3.3,72273,List2B,white,man,,,,,"{""Q0"":""mike is being kissed by kate""}","<img src=""stim_listB/kiss4.gif""style=""height:400px;""></stim_listB>",is being kissed by,,,,,,
null,"<div style=""font-size:60px;"">+</div>",,html-keyboard-response,268,1116371,0.0-15.0-0.4,72273,List2B,white,man,,,,null,,,,,,,,,
null,"<img src=""stim_listB/shout2.gif""style=""height:400px;""></stim_listB>",,html-keyboard-response,269,1118381,0.0-15.0-1.4,72273,List2B,white,man,,,,null,,,,,,,,,
null,is being shouted at by,,html-keyboard-response,270,1120392,0.0-15.0-2.4,72273,List2B,white,man,,,,null,,,,,,,,,
13258.1,,,survey-text,271,1133654,0.0-15.0-3.4,72273,List2B,white,man,,,,,"{""Q0"":""dave is being shouted at by jane""}","<img src=""stim_listB/shout2.gif""style=""height:400px;""></stim_listB>",is being shouted at by,,,,,,
null,"<div style=""font-size:60px;"">+</div>",,html-keyboard-response,272,1134164,0.0-15.0-0.5,72273,List2B,white,man,,,,null,,,,,,,,,
null,"<img src=""stim_listB/look3.gif""style=""height:400px;""></stim_listB>",,html-keyboard-response,273,1136176,0.0-15.0-1.5,72273,List2B,white,man,,,,null,,,,,,,,,
null,is looking at,,html-keyboard-response,274,1138190,0.0-15.0-2.5,72273,List2B,white,man,,,,null,,,,,,,,,
15513.8,,,survey-text,275,1153705,0.0-15.0-3.5,72273,List2B,white,man,,,,,"{""Q0"":""fred is looking at beth""}","<img src=""stim_listB/look3.gif""style=""height:400px;""></stim_listB>",is looking at,,,,,,
null,"<div style=""font-size:60px;"">+</div>",,html-keyboard-response,276,1154208,0.0-15.0-0.6,72273,List2B,white,man,,,,null,,,,,,,,,
null,"<img src=""stim_listB/touch6.gif""style=""height:400px;""></stim_listB>",,html-keyboard-response,277,1156210,0.0-15.0-1.6,72273,List2B,white,man,,,,null,,,,,,,,,
null,is being touched by,,html-keyboard-response,278,1158211,0.0-15.0-2.6,72273,List2B,white,man,,,,null,,,,,,,,,
8713.9,,,survey-text,279,1166928,0.0-15.0-3.6,72273,List2B,white,man,,,,,"{""Q0"":""fred is being touched by luke""}","<img src=""stim_listB/touch6.gif""style=""height:400px;""></stim_listB>",is being touched by,,,,,,
null,"<div style=""font-size:60px;"">+</div>",,html-keyboard-response,280,1167437,0.0-15.0-0.7,72273,List2B,white,man,,,,null,,,,,,,,,
null,"<img src=""stim_listB/touch1.gif""style=""height:400px;""></stim_listB>",,html-keyboard-response,281,1169443,0.0-15.0-1.7,72273,List2B,white,man,,,,null,,,,,,,,,
null,is touching,,html-keyboard-response,282,1171458,0.0-15.0-2.7,72273,List2B,white,man,,,,null,,,,,,,,,
11147,,,survey-text,283,1182607,0.0-15.0-3.7,72273,List2B,white,man,,,,,"{""Q0"":""dave is touching jane""}","<img src=""stim_listB/touch1.gif""style=""height:400px;""></stim_listB>",is touching,,,,,,
null,"<div style=""font-size:60px;"">+</div>",,html-keyboard-response,284,1183123,0.0-15.0-0.8,72273,List2B,white,man,,,,null,,,,,,,,,
null,"<img src=""stim_listB/shout7.gif""style=""height:400px;""></stim_listB>",,html-keyboard-response,285,1185126,0.0-15.0-1.8,72273,List2B,white,man,,,,null,,,,,,,,,
null,is shouting at,,html-keyboard-response,286,1187127,0.0-15.0-2.8,72273,List2B,white,man,,,,null,,,,,,,,,
11554.8,,,survey-text,287,1198685,0.0-15.0-3.8,72273,List2B,white,man,,,,,"{""Q0"":""ruth is being shouted at by beth""}","<img src=""stim_listB/shout7.gif""style=""height:400px;""></stim_listB>",is shouting at,,,,,,
null,"<div style=""font-size:60px;"">+</div>",,html-keyboard-response,288,1199197,0.0-15.0-0.9,72273,List2B,white,man,,,,null,,,,,,,,,
null,"<img src=""stim_listB/look7.gif""style=""height:400px;""></stim_listB>",,html-keyboard-response,289,1201199,0.0-15.0-1.9,72273,List2B,white,man,,,,null,,,,,,,,,
null,is looking at,,html-keyboard-response,290,1203201,0.0-15.0-2.9,72273,List2B,white,man,,,,null,,,,,,,,,
14617.4,,,survey-text,291,1217821,0.0-15.0-3.9,72273,List2B,white,man,,,,,"{""Q0"":""beth is looking at ruth""}","<img src=""stim_listB/look7.gif""style=""height:400px;""></stim_listB>",is looking at,,,,,,
null,"<div style=""font-size:60px;"">+</div>",,html-keyboard-response,292,1218327,0.0-15.0-0.10,72273,List2B,white,man,,,,null,,,,,,,,,
null,"<img src=""stim_listB/oppose7.gif""style=""height:400px;""></stim_listB>",,html-keyboard-response,293,1220329,0.0-15.0-1.10,72273,List2B,white,man,,,,null,,,,,,,,,
null,is opposing,,html-keyboard-response,294,1222332,0.0-15.0-2.10,72273,List2B,white,man,,,,null,,,,,,,,,
12148,,,survey-text,295,1234483,0.0-15.0-3.10,72273,List2B,white,man,,,,,"{""Q0"":""jane is opposing kate""}","<img src=""stim_listB/oppose7.gif""style=""height:400px;""></stim_listB>",is opposing,,,,,,
null,"<div style=""font-size:60px;"">+</div>",,html-keyboard-response,296,1234989,0.0-15.0-0.11,72273,List2B,white,man,,,,null,,,,,,,,,
null,"<img src=""stim_listB/hug7.gif""style=""height:400px;""></stim_listB>",,html-keyboard-response,297,1236997,0.0-15.0-1.11,72273,List2B,white,man,,,,null,,,,,,,,,
null,is hugging,,html-keyboard-response,298,1239004,0.0-15.0-2.11,72273,List2B,white,man,,,,null,,,,,,,,,
10306.3,,,survey-text,299,1249313,0.0-15.0-3.11,72273,List2B,white,man,,,,,"{""Q0"":""ruth is hugging beth""}","<img src=""stim_listB/hug7.gif""style=""height:400px;""></stim_listB>",is hugging,,,,,,
null,"<div style=""font-size:60px;"">+</div>",,html-keyboard-response,300,1249828,0.0-15.0-0.12,72273,List2B,white,man,,,,null,,,,,,,,,
null,"<img src=""stim_listB/shout4.gif""style=""height:400px;""></stim_listB>",,html-keyboard-response,301,1251840,0.0-15.0-1.12,72273,List2B,white,man,,,,null,,,,,,,,,
null,is being shouted at by,,html-keyboard-response,302,1253854,0.0-15.0-2.12,72273,List2B,white,man,,,,null,,,,,,,,,
13094.4,,,survey-text,303,1266951,0.0-15.0-3.12,72273,List2B,white,man,,,,,"{""Q0"":""mike is being shouted at by kate""}","<img src=""stim_listB/shout4.gif""style=""height:400px;""></stim_listB>",is being shouted at by,,,,,,
null,"<div style=""font-size:60px;"">+</div>",,html-keyboard-response,304,1267457,0.0-15.0-0.13,72273,List2B,white,man,,,,null,,,,,,,,,
null,"<img src=""stim_listB/touch2.gif""style=""height:400px;""></stim_listB>",,html-keyboard-response,305,1269459,0.0-15.0-1.13,72273,List2B,white,man,,,,null,,,,,,,,,
null,is being touched by,,html-keyboard-response,306,1271474,0.0-15.0-2.13,72273,List2B,white,man,,,,null,,,,,,,,,
7744.4,,,survey-text,307,1279222,0.0-15.0-3.13,72273,List2B,white,man,,,,,"{""Q0"":""luke is being touched by ruth""}","<img src=""stim_listB/touch2.gif""style=""height:400px;""></stim_listB>",is being touched by,,,,,,
null,"<div style=""font-size:60px;"">+</div>",,html-keyboard-response,308,1279729,0.0-15.0-0.14,72273,List2B,white,man,,,,null,,,,,,,,,
null,"<img src=""stim_listB/seduce5.gif""style=""height:400px;""></stim_listB>",,html-keyboard-response,309,1281731,0.0-15.0-1.14,72273,List2B,white,man,,,,null,,,,,,,,,
null,is seducing,,html-keyboard-response,310,1283738,0.0-15.0-2.14,72273,List2B,white,man,,,,null,,,,,,,,,
5594.8,,,survey-text,311,1289336,0.0-15.0-3.14,72273,List2B,white,man,,,,,"{""Q0"":""luke is seducing mike""}","<img src=""stim_listB/seduce5.gif""style=""height:400px;""></stim_listB>",is seducing,,,,,,
null,"<div style=""font-size:60px;"">+</div>",,html-keyboard-response,312,1289844,0.0-15.0-0.15,72273,List2B,white,man,,,,null,,,,,,,,,
null,"<img src=""stim_listB/kiss7.gif""style=""height:400px;""></stim_listB>",,html-keyboard-response,313,1291856,0.0-15.0-1.15,72273,List2B,white,man,,,,null,,,,,,,,,
null,is kissing,,html-keyboard-response,314,1293871,0.0-15.0-2.15,72273,List2B,white,man,,,,null,,,,,,,,,
10540.3,,,survey-text,315,1304414,0.0-15.0-3.15,72273,List2B,white,man,,,,,"{""Q0"":""ruth is kissing beth""}","<img src=""stim_listB/kiss7.gif""style=""height:400px;""></stim_listB>",is kissing,,,,,,
null,"<div style=""font-size:60px;"">+</div>",,html-keyboard-response,316,1304926,0.0-15.0-0.16,72273,List2B,white,man,,,,null,,,,,,,,,
null,"<img src=""stim_listB/look5.gif""style=""height:400px;""></stim_listB>",,html-keyboard-response,317,1306930,0.0-15.0-1.16,72273,List2B,white,man,,,,null,,,,,,,,,
null,is looking at,,html-keyboard-response,318,1308944,0.0-15.0-2.16,72273,List2B,white,man,,,,null,,,,,,,,,
9173.1,,,survey-text,319,1318120,0.0-15.0-3.16,72273,List2B,white,man,,,,,"{""Q0"":""luke is looking at fred""}","<img src=""stim_listB/look5.gif""style=""height:400px;""></stim_listB>",is looking at,,,,,,
null,"<div style=""font-size:60px;"">+</div>",,html-keyboard-response,320,1318624,0.0-15.0-0.17,72273,List2B,white,man,,,,null,,,,,,,,,
null,"<img src=""stim_listB/oppose6.gif""style=""height:400px;""></stim_listB>",,html-keyboard-response,321,1320639,0.0-15.0-1.17,72273,List2B,white,man,,,,null,,,,,,,,,
null,is being opposed by,,html-keyboard-response,322,1322647,0.0-15.0-2.17,72273,List2B,white,man,,,,null,,,,,,,,,
8796.1,,,survey-text,323,1331446,0.0-15.0-3.17,72273,List2B,white,man,,,,,"{""Q0"":""fred is being opposed by  luke""}","<img src=""stim_listB/oppose6.gif""style=""height:400px;""></stim_listB>",is being opposed by,,,,,,
null,"<div style=""font-size:60px;"">+</div>",,html-keyboard-response,324,1331954,0.0-15.0-0.18,72273,List2B,white,man,,,,null,,,,,,,,,
null,"<img src=""stim_listB/kiss6.gif""style=""height:400px;""></stim_listB>",,html-keyboard-response,325,1333959,0.0-15.0-1.18,72273,List2B,white,man,,,,null,,,,,,,,,
null,is being kissed by,,html-keyboard-response,326,1335962,0.0-15.0-2.18,72273,List2B,white,man,,,,null,,,,,,,,,
6364.4,,,survey-text,327,1342329,0.0-15.0-3.18,72273,List2B,white,man,,,,,"{""Q0"":""mike is being kissed by  dave""}","<img src=""stim_listB/kiss6.gif""style=""height:400px;""></stim_listB>",is being kissed by,,,,,,
null,"<div style=""font-size:60px;"">+</div>",,html-keyboard-response,328,1342844,0.0-15.0-0.19,72273,List2B,white,man,,,,null,,,,,,,,,
null,"<img src=""stim_listB/copy6.gif""style=""height:400px;""></stim_listB>",,html-keyboard-response,329,1344847,0.0-15.0-1.19,72273,List2B,white,man,,,,null,,,,,,,,,
null,is being copied by,,html-keyboard-response,330,1346863,0.0-15.0-2.19,72273,List2B,white,man,,,,null,,,,,,,,,
9663.5,,,survey-text,331,1356529,0.0-15.0-3.19,72273,List2B,white,man,,,,,"{""Q0"":""mike is being copied by luke""}","<img src=""stim_listB/copy6.gif""style=""height:400px;""></stim_listB>",is being copied by,,,,,,
19428.4,"<img src='img/portrait_matrix_list2.jpg' style='width:900px;height:500px;''></img><p>If you have memorised all the portraits and names and are ready to start, press Continue.</p><p><strong>Please note: Your memory of these faces will be tested 4 times during this experiment.</strong></p>",0,html-button-response,332,1375959,0.0-16.0-0.0,72273,List2B,white,man,,,,,,,,,,,,,
1641.7,"<img src=""portrait/BM2.jpg""style=""height:400px;""></img>",5,html-button-response,333,1378611,0.0-16.0-1.0,72273,List2B,white,man,,TRUE,5,,,,,,,,,,
null,CORRECT,,html-keyboard-response,334,1380128,0.0-16.0-2.0-0.0,72273,List2B,white,man,,,,null,,,,,,,,,
3042.8,"<img src=""portrait/WW2.jpg""style=""height:400px;""></img>",3,html-button-response,335,1383173,0.0-16.0-4.0,72273,List2B,white,man,,TRUE,3,,,,,,,,,,
null,CORRECT,,html-keyboard-response,336,1384698,0.0-16.0-5.0-0.0,72273,List2B,white,man,,,,null,,,,,,,,,
4251.2,"<img src=""portrait/BW1.jpg""style=""height:400px;""></img>",0,html-button-response,337,1388951,0.0-16.0-7.0,72273,List2B,white,man,,TRUE,0,,,,,,,,,,
null,CORRECT,,html-keyboard-response,338,1390476,0.0-16.0-8.0-0.0,72273,List2B,white,man,,,,null,,,,,,,,,
2674.8,"<img src=""portrait/WW1.jpg""style=""height:400px;""></img>",1,html-button-response,339,1393153,0.0-16.0-10.0,72273,List2B,white,man,,TRUE,1,,,,,,,,,,
null,CORRECT,,html-keyboard-response,340,1394683,0.0-16.0-11.0-0.0,72273,List2B,white,man,,,,null,,,,,,,,,
2877.2,"<img src=""portrait/WM2.jpg""style=""height:400px;""></img>",7,html-button-response,341,1397562,0.0-16.0-13.0,72273,List2B,white,man,,TRUE,7,,,,,,,,,,
null,CORRECT,,html-keyboard-response,342,1399077,0.0-16.0-14.0-0.0,72273,List2B,white,man,,,,null,,,,,,,,,
3839.3,"<img src=""portrait/BW2.jpg""style=""height:400px;""></img>",2,html-button-response,343,1402918,0.0-16.0-16.0,72273,List2B,white,man,,TRUE,2,,,,,,,,,,
null,CORRECT,,html-keyboard-response,344,1404423,0.0-16.0-17.0-0.0,72273,List2B,white,man,,,,null,,,,,,,,,
2226.9,"<img src=""portrait/WM1.jpg""style=""height:400px;""></img>",6,html-button-response,345,1406652,0.0-16.0-19.0,72273,List2B,white,man,,TRUE,6,,,,,,,,,,
null,CORRECT,,html-keyboard-response,346,1408176,0.0-16.0-20.0-0.0,72273,List2B,white,man,,,,null,,,,,,,,,
1760.1,"<img src=""portrait/BM1.jpg""style=""height:400px;""></img>",4,html-button-response,347,1409938,0.0-16.0-22.0,72273,List2B,white,man,,TRUE,4,,,,,,,,,,
null,CORRECT,,html-keyboard-response,348,1411450,0.0-16.0-23.0-0.0,72273,List2B,white,man,,,,null,,,,,,,,,
1515.2,<p>You got 8 out of 8 right first time. Press Continue.</p>,0,html-button-response,349,1412967,0.0-16.0-25.0,72273,List2B,white,man,,,,,,,,,,,,,
null,"<div style=""font-size:60px;"">+</div>",,html-keyboard-response,350,1414494,0.0-17.0-0.0,72273,List2B,white,man,,,,null,,,,,,,,,
null,"<img src=""stim_listB/challenge5.gif""style=""height:400px;""></stim_listB>",,html-keyboard-response,351,1416512,0.0-17.0-1.0,72273,List2B,white,man,,,,null,,,,,,,,,
null,is challenging,,html-keyboard-response,352,1418521,0.0-17.0-2.0,72273,List2B,white,man,,,,null,,,,,,,,,
8406.2,,,survey-text,353,1426930,0.0-17.0-3.0,72273,List2B,white,man,,,,,"{""Q0"":""dave is challenging fred""}","<img src=""stim_listB/challenge5.gif""style=""height:400px;""></stim_listB>",is challenging,,,,,,
null,"<div style=""font-size:60px;"">+</div>",,html-keyboard-response,354,1427444,0.0-17.0-0.1,72273,List2B,white,man,,,,null,,,,,,,,,
null,"<img src=""stim_listB/shout3.gif""style=""height:400px;""></stim_listB>",,html-keyboard-response,355,1429457,0.0-17.0-1.1,72273,List2B,white,man,,,,null,,,,,,,,,
null,is shouting at,,html-keyboard-response,356,1431469,0.0-17.0-2.1,72273,List2B,white,man,,,,null,,,,,,,,,
11721.6,,,survey-text,357,1443194,0.0-17.0-3.1,72273,List2B,white,man,,,,,"{""Q0"":""fred is shouting at beth""}","<img src=""stim_listB/shout3.gif""style=""height:400px;""></stim_listB>",is shouting at,,,,,,
null,"<div style=""font-size:60px;"">+</div>",,html-keyboard-response,358,1443695,0.0-17.0-0.2,72273,List2B,white,man,,,,null,,,,,,,,,
null,"<img src=""stim_listB/copy2.gif""style=""height:400px;""></stim_listB>",,html-keyboard-response,359,1445708,0.0-17.0-1.2,72273,List2B,white,man,,,,null,,,,,,,,,
null,is being copied by,,html-keyboard-response,360,1447723,0.0-17.0-2.2,72273,List2B,white,man,,,,null,,,,,,,,,
9460.2,,,survey-text,361,1457185,0.0-17.0-3.2,72273,List2B,white,man,,,,,"{""Q0"":""luke is being copied by jane""}","<img src=""stim_listB/copy2.gif""style=""height:400px;""></stim_listB>",is being copied by,,,,,,
null,"<div style=""font-size:60px;"">+</div>",,html-keyboard-response,362,1457692,0.0-17.0-0.3,72273,List2B,white,man,,,,null,,,,,,,,,
null,"<img src=""stim_listB/touch4.gif""style=""height:400px;""></stim_listB>",,html-keyboard-response,363,1459694,0.0-17.0-1.3,72273,List2B,white,man,,,,null,,,,,,,,,
null,is being touched by,,html-keyboard-response,364,1461696,0.0-17.0-2.3,72273,List2B,white,man,,,,null,,,,,,,,,
9568.2,,,survey-text,365,1471267,0.0-17.0-3.3,72273,List2B,white,man,,,,,"{""Q0"":""beth is being touched by fred""}","<img src=""stim_listB/touch4.gif""style=""height:400px;""></stim_listB>",is being touched by,,,,,,
null,"<div style=""font-size:60px;"">+</div>",,html-keyboard-response,366,1471783,0.0-17.0-0.4,72273,List2B,white,man,,,,null,,,,,,,,,
null,"<img src=""stim_listB/seduce1.gif""style=""height:400px;""></stim_listB>",,html-keyboard-response,367,1473795,0.0-17.0-1.4,72273,List2B,white,man,,,,null,,,,,,,,,
null,is seducing,,html-keyboard-response,368,1475809,0.0-17.0-2.4,72273,List2B,white,man,,,,null,,,,,,,,,
6132.3,,,survey-text,369,1481943,0.0-17.0-3.4,72273,List2B,white,man,,,,,"{""Q0"":""luke is seducing  jane""}","<img src=""stim_listB/seduce1.gif""style=""height:400px;""></stim_listB>",is seducing,,,,,,
null,"<div style=""font-size:60px;"">+</div>",,html-keyboard-response,370,1482444,0.0-17.0-0.5,72273,List2B,white,man,,,,null,,,,,,,,,
null,"<img src=""stim_listB/greet4.gif""style=""height:400px;""></stim_listB>",,html-keyboard-response,371,1484445,0.0-17.0-1.5,72273,List2B,white,man,,,,null,,,,,,,,,
null,is being greeted by,,html-keyboard-response,372,1486448,0.0-17.0-2.5,72273,List2B,white,man,,,,null,,,,,,,,,
9760.6,,,survey-text,373,1496211,0.0-17.0-3.5,72273,List2B,white,man,,,,,"{""Q0"":""kate is being greeted by  fred ""}","<img src=""stim_listB/greet4.gif""style=""height:400px;""></stim_listB>",is being greeted by,,,,,,
null,"<div style=""font-size:60px;"">+</div>",,html-keyboard-response,374,1496713,0.0-17.0-0.6,72273,List2B,white,man,,,,null,,,,,,,,,
null,"<img src=""stim_listB/seduce4.gif""style=""height:400px;""></stim_listB>",,html-keyboard-response,375,1498729,0.0-17.0-1.6,72273,List2B,white,man,,,,null,,,,,,,,,
null,is being seduced by,,html-keyboard-response,376,1500739,0.0-17.0-2.6,72273,List2B,white,man,,,,null,,,,,,,,,
9260.8,,,survey-text,377,1510003,0.0-17.0-3.6,72273,List2B,white,man,,,,,"{""Q0"":""beth is being seduced by  mike ""}","<img src=""stim_listB/seduce4.gif""style=""height:400px;""></stim_listB>",is being seduced by,,,,,,
null,"<div style=""font-size:60px;"">+</div>",,html-keyboard-response,378,1510515,0.0-17.0-0.7,72273,List2B,white,man,,,,null,,,,,,,,,
null,"<img src=""stim_listB/copy1.gif""style=""height:400px;""></stim_listB>",,html-keyboard-response,379,1512516,0.0-17.0-1.7,72273,List2B,white,man,,,,null,,,,,,,,,
null,is copying,,html-keyboard-response,380,1514521,0.0-17.0-2.7,72273,List2B,white,man,,,,null,,,,,,,,,
7549.7,,,survey-text,381,1522073,0.0-17.0-3.7,72273,List2B,white,man,,,,,"{""Q0"":""dave is copying ruth""}","<img src=""stim_listB/copy1.gif""style=""height:400px;""></stim_listB>",is copying,,,,,,
null,"<div style=""font-size:60px;"">+</div>",,html-keyboard-response,382,1522578,0.0-17.0-0.8,72273,List2B,white,man,,,,null,,,,,,,,,
null,"<img src=""stim_listB/oppose2.gif""style=""height:400px;""></stim_listB>",,html-keyboard-response,383,1524591,0.0-17.0-1.8,72273,List2B,white,man,,,,null,,,,,,,,,
null,is being opposed by,,html-keyboard-response,384,1526596,0.0-17.0-2.8,72273,List2B,white,man,,,,null,,,,,,,,,
7816.1,,,survey-text,385,1534416,0.0-17.0-3.8,72273,List2B,white,man,,,,,"{""Q0"":""ruth is being opposed by  luke""}","<img src=""stim_listB/oppose2.gif""style=""height:400px;""></stim_listB>",is being opposed by,,,,,,
null,"<div style=""font-size:60px;"">+</div>",,html-keyboard-response,386,1534922,0.0-17.0-0.9,72273,List2B,white,man,,,,null,,,,,,,,,
null,"<img src=""stim_listB/kiss3.gif""style=""height:400px;""></stim_listB>",,html-keyboard-response,387,1536926,0.0-17.0-1.9,72273,List2B,white,man,,,,null,,,,,,,,,
null,is kissing,,html-keyboard-response,388,1538933,0.0-17.0-2.9,72273,List2B,white,man,,,,null,,,,,,,,,
7557.4,,,survey-text,389,1546494,0.0-17.0-3.9,72273,List2B,white,man,,,,,"{""Q0"":""fred is kissing beth""}","<img src=""stim_listB/kiss3.gif""style=""height:400px;""></stim_listB>",is kissing,,,,,,
null,"<div style=""font-size:60px;"">+</div>",,html-keyboard-response,390,1546996,0.0-17.0-0.10,72273,List2B,white,man,,,,null,,,,,,,,,
null,"<img src=""stim_listB/look6.gif""style=""height:400px;""></stim_listB>",,html-keyboard-response,391,1549005,0.0-17.0-1.10,72273,List2B,white,man,,,,null,,,,,,,,,
null,is being looked at by,,html-keyboard-response,392,1551017,0.0-17.0-2.10,72273,List2B,white,man,,,,null,,,,,,,,,
10588.9,,,survey-text,393,1561608,0.0-17.0-3.10,72273,List2B,white,man,,,,,"{""Q0"":""mike is being looked at by dave""}","<img src=""stim_listB/look6.gif""style=""height:400px;""></stim_listB>",is being looked at by,,,,,,
null,"<div style=""font-size:60px;"">+</div>",,html-keyboard-response,394,1562121,0.0-17.0-0.11,72273,List2B,white,man,,,,null,,,,,,,,,
null,"<img src=""stim_listB/look4.gif""style=""height:400px;""></stim_listB>",,html-keyboard-response,395,1564123,0.0-17.0-1.11,72273,List2B,white,man,,,,null,,,,,,,,,
null,is being looked at by,,html-keyboard-response,396,1566127,0.0-17.0-2.11,72273,List2B,white,man,,,,null,,,,,,,,,
17571.8,,,survey-text,397,1583701,0.0-17.0-3.11,72273,List2B,white,man,,,,,"{""Q0"":""mike is being looked at by  kate""}","<img src=""stim_listB/look4.gif""style=""height:400px;""></stim_listB>",is being looked at by,,,,,,
null,"<div style=""font-size:60px;"">+</div>",,html-keyboard-response,398,1584213,0.0-17.0-0.12,72273,List2B,white,man,,,,null,,,,,,,,,
null,"<img src=""stim_listB/copy4.gif""style=""height:400px;""></stim_listB>",,html-keyboard-response,399,1586229,0.0-17.0-1.12,72273,List2B,white,man,,,,null,,,,,,,,,
null,is being copied by,,html-keyboard-response,400,1588235,0.0-17.0-2.12,72273,List2B,white,man,,,,null,,,,,,,,,
9422.8,,,survey-text,401,1597661,0.0-17.0-3.12,72273,List2B,white,man,,,,,"{""Q0"":""kate is being copied by  fred""}","<img src=""stim_listB/copy4.gif""style=""height:400px;""></stim_listB>",is being copied by,,,,,,
null,"<div style=""font-size:60px;"">+</div>",,html-keyboard-response,402,1598172,0.0-17.0-0.13,72273,List2B,white,man,,,,null,,,,,,,,,
null,"<img src=""stim_listB/seduce6.gif""style=""height:400px;""></stim_listB>",,html-keyboard-response,403,1600185,0.0-17.0-1.13,72273,List2B,white,man,,,,null,,,,,,,,,
null,is being seduced by,,html-keyboard-response,404,1602193,0.0-17.0-2.13,72273,List2B,white,man,,,,null,,,,,,,,,
7629.5,,,survey-text,405,1609825,0.0-17.0-3.13,72273,List2B,white,man,,,,,"{""Q0"":""fred is being seduced by  dave""}","<img src=""stim_listB/seduce6.gif""style=""height:400px;""></stim_listB>",is being seduced by,,,,,,
null,"<div style=""font-size:60px;"">+</div>",,html-keyboard-response,406,1610337,0.0-17.0-0.14,72273,List2B,white,man,,,,null,,,,,,,,,
null,"<img src=""stim_listB/look2.gif""style=""height:400px;""></stim_listB>",,html-keyboard-response,407,1612353,0.0-17.0-1.14,72273,List2B,white,man,,,,null,,,,,,,,,
null,is being looked at by,,html-keyboard-response,408,1614362,0.0-17.0-2.14,72273,List2B,white,man,,,,null,,,,,,,,,
8877.6,,,survey-text,409,1623241,0.0-17.0-3.14,72273,List2B,white,man,,,,,"{""Q0"":""dave is being looked at by jane""}","<img src=""stim_listB/look2.gif""style=""height:400px;""></stim_listB>",is being looked at by,,,,,,
null,"<div style=""font-size:60px;"">+</div>",,html-keyboard-response,410,1623745,0.0-17.0-0.15,72273,List2B,white,man,,,,null,,,,,,,,,
null,"<img src=""stim_listB/touch7.gif""style=""height:400px;""></stim_listB>",,html-keyboard-response,411,1625752,0.0-17.0-1.15,72273,List2B,white,man,,,,null,,,,,,,,,
null,is touching,,html-keyboard-response,412,1627765,0.0-17.0-2.15,72273,List2B,white,man,,,,null,,,,,,,,,
7554.9,,,survey-text,413,1635321,0.0-17.0-3.15,72273,List2B,white,man,,,,,"{""Q0"":""jane is touching kate""}","<img src=""stim_listB/touch7.gif""style=""height:400px;""></stim_listB>",is touching,,,,,,
null,"<div style=""font-size:60px;"">+</div>",,html-keyboard-response,414,1635830,0.0-17.0-0.16,72273,List2B,white,man,,,,null,,,,,,,,,
null,"<img src=""stim_listB/hug4.gif""style=""height:400px;""></stim_listB>",,html-keyboard-response,415,1637846,0.0-17.0-1.16,72273,List2B,white,man,,,,null,,,,,,,,,
null,is being hugged by,,html-keyboard-response,416,1639851,0.0-17.0-2.16,72273,List2B,white,man,,,,null,,,,,,,,,
6645.5,,,survey-text,417,1646499,0.0-17.0-3.16,72273,List2B,white,man,,,,,"{""Q0"":""kate is being hugged by mike""}","<img src=""stim_listB/hug4.gif""style=""height:400px;""></stim_listB>",is being hugged by,,,,,,
null,"<div style=""font-size:60px;"">+</div>",,html-keyboard-response,418,1647007,0.0-17.0-0.17,72273,List2B,white,man,,,,null,,,,,,,,,
null,"<img src=""stim_listB/greet8.gif""style=""height:400px;""></stim_listB>",,html-keyboard-response,419,1649017,0.0-17.0-1.17,72273,List2B,white,man,,,,null,,,,,,,,,
null,is being greeted by,,html-keyboard-response,420,1651033,0.0-17.0-2.17,72273,List2B,white,man,,,,null,,,,,,,,,
7837.2,,,survey-text,421,1658873,0.0-17.0-3.17,72273,List2B,white,man,,,,,"{""Q0"":""ruth is being greeted by  kate""}","<img src=""stim_listB/greet8.gif""style=""height:400px;""></stim_listB>",is being greeted by,,,,,,
null,"<div style=""font-size:60px;"">+</div>",,html-keyboard-response,422,1659383,0.0-17.0-0.18,72273,List2B,white,man,,,,null,,,,,,,,,
null,"<img src=""stim_listB/seduce2.gif""style=""height:400px;""></stim_listB>",,html-keyboard-response,423,1661389,0.0-17.0-1.18,72273,List2B,white,man,,,,null,,,,,,,,,
null,is being seduced by,,html-keyboard-response,424,1663392,0.0-17.0-2.18,72273,List2B,white,man,,,,null,,,,,,,,,
11792.4,,,survey-text,425,1675187,0.0-17.0-3.18,72273,List2B,white,man,,,,,"{""Q0"":""ruth is being seduced by  dave""}","<img src=""stim_listB/seduce2.gif""style=""height:400px;""></stim_listB>",is being seduced by,,,,,,
null,"<div style=""font-size:60px;"">+</div>",,html-keyboard-response,426,1675701,0.0-17.0-0.19,72273,List2B,white,man,,,,null,,,,,,,,,
null,"<img src=""stim_listB/challenge3.gif""style=""height:400px;""></stim_listB>",,html-keyboard-response,427,1677714,0.0-17.0-1.19,72273,List2B,white,man,,,,null,,,,,,,,,
null,is challenging,,html-keyboard-response,428,1679719,0.0-17.0-2.19,72273,List2B,white,man,,,,null,,,,,,,,,
6749.7,,,survey-text,429,1686471,0.0-17.0-3.19,72273,List2B,white,man,,,,,"{""Q0"":""mike is challenging beth""}","<img src=""stim_listB/challenge3.gif""style=""height:400px;""></stim_listB>",is challenging,,,,,,
2820.2,"<img src='img/portrait_matrix_list2.jpg' style='width:900px;height:500px;''></img><p>If you have memorised all the portraits and names and are ready to start, press Continue.</p><p><strong>Please note: Your memory of these faces will be tested 4 times during this experiment.</strong></p>",0,html-button-response,430,1689293,0.0-18.0-0.0,72273,List2B,white,man,,,,,,,,,,,,,
3361,"<img src=""portrait/BW2.jpg""style=""height:400px;""></img>",2,html-button-response,431,1693669,0.0-18.0-1.0,72273,List2B,white,man,,TRUE,2,,,,,,,,,,
null,CORRECT,,html-keyboard-response,432,1695190,0.0-18.0-2.0-0.0,72273,List2B,white,man,,,,null,,,,,,,,,
1635.2,"<img src=""portrait/BM2.jpg""style=""height:400px;""></img>",5,html-button-response,433,1696827,0.0-18.0-4.0,72273,List2B,white,man,,TRUE,5,,,,,,,,,,
null,CORRECT,,html-keyboard-response,434,1698354,0.0-18.0-5.0-0.0,72273,List2B,white,man,,,,null,,,,,,,,,
2682.4,"<img src=""portrait/BM1.jpg""style=""height:400px;""></img>",4,html-button-response,435,1701037,0.0-18.0-7.0,72273,List2B,white,man,,TRUE,4,,,,,,,,,,
null,CORRECT,,html-keyboard-response,436,1702561,0.0-18.0-8.0-0.0,72273,List2B,white,man,,,,null,,,,,,,,,
1568.6,"<img src=""portrait/WM1.jpg""style=""height:400px;""></img>",6,html-button-response,437,1704131,0.0-18.0-10.0,72273,List2B,white,man,,TRUE,6,,,,,,,,,,
null,CORRECT,,html-keyboard-response,438,1705647,0.0-18.0-11.0-0.0,72273,List2B,white,man,,,,null,,,,,,,,,
1560.8,"<img src=""portrait/WM2.jpg""style=""height:400px;""></img>",7,html-button-response,439,1707209,0.0-18.0-13.0,72273,List2B,white,man,,TRUE,7,,,,,,,,,,
null,CORRECT,,html-keyboard-response,440,1708732,0.0-18.0-14.0-0.0,72273,List2B,white,man,,,,null,,,,,,,,,
4263.7,"<img src=""portrait/WW2.jpg""style=""height:400px;""></img>",3,html-button-response,441,1712997,0.0-18.0-16.0,72273,List2B,white,man,,TRUE,3,,,,,,,,,,
null,CORRECT,,html-keyboard-response,442,1714525,0.0-18.0-17.0-0.0,72273,List2B,white,man,,,,null,,,,,,,,,
1892.1,"<img src=""portrait/WW1.jpg""style=""height:400px;""></img>",1,html-button-response,443,1716419,0.0-18.0-19.0,72273,List2B,white,man,,TRUE,1,,,,,,,,,,
null,CORRECT,,html-keyboard-response,444,1717940,0.0-18.0-20.0-0.0,72273,List2B,white,man,,,,null,,,,,,,,,
2148.2,"<img src=""portrait/BW1.jpg""style=""height:400px;""></img>",0,html-button-response,445,1720091,0.0-18.0-22.0,72273,List2B,white,man,,TRUE,0,,,,,,,,,,
null,CORRECT,,html-keyboard-response,446,1721608,0.0-18.0-23.0-0.0,72273,List2B,white,man,,,,null,,,,,,,,,
1438.7,<p>You got 8 out of 8 right first time. Press Continue.</p>,0,html-button-response,447,1723049,0.0-18.0-25.0,72273,List2B,white,man,,,,,,,,,,,,,
null,"<div style=""font-size:60px;"">+</div>",,html-keyboard-response,448,1724568,0.0-19.0-0.0,72273,List2B,white,man,,,,null,,,,,,,,,
null,"<img src=""stim_listB/touch5.gif""style=""height:400px;""></stim_listB>",,html-keyboard-response,449,1726571,0.0-19.0-1.0,72273,List2B,white,man,,,,null,,,,,,,,,
null,is touching,,html-keyboard-response,450,1728585,0.0-19.0-2.0,72273,List2B,white,man,,,,null,,,,,,,,,
7374.2,,,survey-text,451,1735961,0.0-19.0-3.0,72273,List2B,white,man,,,,,"{""Q0"":""dave is touching mike""}","<img src=""stim_listB/touch5.gif""style=""height:400px;""></stim_listB>",is touching,,,,,,
null,"<div style=""font-size:60px;"">+</div>",,html-keyboard-response,452,1736471,0.0-19.0-0.1,72273,List2B,white,man,,,,null,,,,,,,,,
null,"<img src=""stim_listB/hug8.gif""style=""height:400px;""></stim_listB>",,html-keyboard-response,453,1738473,0.0-19.0-1.1,72273,List2B,white,man,,,,null,,,,,,,,,
null,is being hugged by,,html-keyboard-response,454,1740483,0.0-19.0-2.1,72273,List2B,white,man,,,,null,,,,,,,,,
10801.2,,,survey-text,455,1751288,0.0-19.0-3.1,72273,List2B,white,man,,,,,"{""Q0"":""kate is being  hugged by  jane""}","<img src=""stim_listB/hug8.gif""style=""height:400px;""></stim_listB>",is being hugged by,,,,,,
null,"<div style=""font-size:60px;"">+</div>",,html-keyboard-response,456,1751801,0.0-19.0-0.2,72273,List2B,white,man,,,,null,,,,,,,,,
null,"<img src=""stim_listB/look8.gif""style=""height:400px;""></stim_listB>",,html-keyboard-response,457,1753813,0.0-19.0-1.2,72273,List2B,white,man,,,,null,,,,,,,,,
null,is being looked at by,,html-keyboard-response,458,1755826,0.0-19.0-2.2,72273,List2B,white,man,,,,null,,,,,,,,,
13299.8,,,survey-text,459,1769129,0.0-19.0-3.2,72273,List2B,white,man,,,,,"{""Q0"":""jane is being looked at by kate""}","<img src=""stim_listB/look8.gif""style=""height:400px;""></stim_listB>",is being looked at by,,,,,,
null,"<div style=""font-size:60px;"">+</div>",,html-keyboard-response,460,1769644,0.0-19.0-0.3,72273,List2B,white,man,,,,null,,,,,,,,,
null,"<img src=""stim_listB/hug6.gif""style=""height:400px;""></stim_listB>",,html-keyboard-response,461,1771654,0.0-19.0-1.3,72273,List2B,white,man,,,,null,,,,,,,,,
null,is being hugged by,,html-keyboard-response,462,1773663,0.0-19.0-2.3,72273,List2B,white,man,,,,null,,,,,,,,,
7595.4,,,survey-text,463,1781261,0.0-19.0-3.3,72273,List2B,white,man,,,,,"{""Q0"":""mike is being hugged by  dave""}","<img src=""stim_listB/hug6.gif""style=""height:400px;""></stim_listB>",is being hugged by,,,,,,
null,"<div style=""font-size:60px;"">+</div>",,html-keyboard-response,464,1781776,0.0-19.0-0.4,72273,List2B,white,man,,,,null,,,,,,,,,
null,"<img src=""stim_listB/copy3.gif""style=""height:400px;""></stim_listB>",,html-keyboard-response,465,1783781,0.0-19.0-1.4,72273,List2B,white,man,,,,null,,,,,,,,,
null,is copying,,html-keyboard-response,466,1785792,0.0-19.0-2.4,72273,List2B,white,man,,,,null,,,,,,,,,
8865.5,,,survey-text,467,1794661,0.0-19.0-3.4,72273,List2B,white,man,,,,,"{""Q0"":""mike is copying beth""}","<img src=""stim_listB/copy3.gif""style=""height:400px;""></stim_listB>",is copying,,,,,,
null,"<div style=""font-size:60px;"">+</div>",,html-keyboard-response,468,1795169,0.0-19.0-0.5,72273,List2B,white,man,,,,null,,,,,,,,,
null,"<img src=""stim_listB/challenge8.gif""style=""height:400px;""></stim_listB>",,html-keyboard-response,469,1797178,0.0-19.0-1.5,72273,List2B,white,man,,,,null,,,,,,,,,
null,is being challenged by,,html-keyboard-response,470,1799189,0.0-19.0-2.5,72273,List2B,white,man,,,,null,,,,,,,,,
8451.8,,,survey-text,471,1807643,0.0-19.0-3.5,72273,List2B,white,man,,,,,"{""Q0"":""kate is being challenged by  ruth""}","<img src=""stim_listB/challenge8.gif""style=""height:400px;""></stim_listB>",is being challenged by,,,,,,
null,"<div style=""font-size:60px;"">+</div>",,html-keyboard-response,472,1808159,0.0-19.0-0.6,72273,List2B,white,man,,,,null,,,,,,,,,
null,"<img src=""stim_listB/oppose5.gif""style=""height:400px;""></stim_listB>",,html-keyboard-response,473,1810162,0.0-19.0-1.6,72273,List2B,white,man,,,,null,,,,,,,,,
null,is opposing,,html-keyboard-response,474,1812176,0.0-19.0-2.6,72273,List2B,white,man,,,,null,,,,,,,,,
6092.2,,,survey-text,475,1818271,0.0-19.0-3.6,72273,List2B,white,man,,,,,"{""Q0"":""dave is opposing  mike""}","<img src=""stim_listB/oppose5.gif""style=""height:400px;""></stim_listB>",is opposing,,,,,,
null,"<div style=""font-size:60px;"">+</div>",,html-keyboard-response,476,1818781,0.0-19.0-0.7,72273,List2B,white,man,,,,null,,,,,,,,,
null,"<img src=""stim_listB/oppose3.gif""style=""height:400px;""></stim_listB>",,html-keyboard-response,477,1820793,0.0-19.0-1.7,72273,List2B,white,man,,,,null,,,,,,,,,
null,is opposing,,html-keyboard-response,478,1822806,0.0-19.0-2.7,72273,List2B,white,man,,,,null,,,,,,,,,
5216,,,survey-text,479,1828025,0.0-19.0-3.7,72273,List2B,white,man,,,,,"{""Q0"":""mike is opposing kate""}","<img src=""stim_listB/oppose3.gif""style=""height:400px;""></stim_listB>",is opposing,,,,,,
null,"<div style=""font-size:60px;"">+</div>",,html-keyboard-response,480,1828526,0.0-19.0-0.8,72273,List2B,white,man,,,,null,,,,,,,,,
null,"<img src=""stim_listB/hug1.gif""style=""height:400px;""></stim_listB>",,html-keyboard-response,481,1830541,0.0-19.0-1.8,72273,List2B,white,man,,,,null,,,,,,,,,
null,is hugging,,html-keyboard-response,482,1832555,0.0-19.0-2.8,72273,List2B,white,man,,,,null,,,,,,,,,
7005.1,,,survey-text,483,1839563,0.0-19.0-3.8,72273,List2B,white,man,,,,,"{""Q0"":""luke is hugging ruth""}","<img src=""stim_listB/hug1.gif""style=""height:400px;""></stim_listB>",is hugging,,,,,,
null,"<div style=""font-size:60px;"">+</div>",,html-keyboard-response,484,1840071,0.0-19.0-0.9,72273,List2B,white,man,,,,null,,,,,,,,,
null,"<img src=""stim_listB/seduce3.gif""style=""height:400px;""></stim_listB>",,html-keyboard-response,485,1842075,0.0-19.0-1.9,72273,List2B,white,man,,,,null,,,,,,,,,
null,is seducing,,html-keyboard-response,486,1844086,0.0-19.0-2.9,72273,List2B,white,man,,,,null,,,,,,,,,
6629.4,,,survey-text,487,1850719,0.0-19.0-3.9,72273,List2B,white,man,,,,,"{""Q0"":""fred is seducing kate""}","<img src=""stim_listB/seduce3.gif""style=""height:400px;""></stim_listB>",is seducing,,,,,,
null,"<div style=""font-size:60px;"">+</div>",,html-keyboard-response,488,1851227,0.0-19.0-0.10,72273,List2B,white,man,,,,null,,,,,,,,,
null,"<img src=""stim_listB/challenge2.gif""style=""height:400px;""></stim_listB>",,html-keyboard-response,489,1853243,0.0-19.0-1.10,72273,List2B,white,man,,,,null,,,,,,,,,
null,is being challenged by,,html-keyboard-response,490,1855252,0.0-19.0-2.10,72273,List2B,white,man,,,,null,,,,,,,,,
7966.4,,,survey-text,491,1863221,0.0-19.0-3.10,72273,List2B,white,man,,,,,"{""Q0"":""jane is being challenged by luke""}","<img src=""stim_listB/challenge2.gif""style=""height:400px;""></stim_listB>",is being challenged by,,,,,,
null,"<div style=""font-size:60px;"">+</div>",,html-keyboard-response,492,1863724,0.0-19.0-0.11,72273,List2B,white,man,,,,null,,,,,,,,,
null,"<img src=""stim_listB/challenge6.gif""style=""height:400px;""></stim_listB>",,html-keyboard-response,493,1865737,0.0-19.0-1.11,72273,List2B,white,man,,,,null,,,,,,,,,
null,is being challenged by,,html-keyboard-response,494,1867740,0.0-19.0-2.11,72273,List2B,white,man,,,,null,,,,,,,,,
8534.1,,,survey-text,495,1876278,0.0-19.0-3.11,72273,List2B,white,man,,,,,"{""Q0"":""mike is being challenged by luke""}","<img src=""stim_listB/challenge6.gif""style=""height:400px;""></stim_listB>",is being challenged by,,,,,,
null,"<div style=""font-size:60px;"">+</div>",,html-keyboard-response,496,1876784,0.0-19.0-0.12,72273,List2B,white,man,,,,null,,,,,,,,,
null,"<img src=""stim_listB/hug5.gif""style=""height:400px;""></stim_listB>",,html-keyboard-response,497,1878793,0.0-19.0-1.12,72273,List2B,white,man,,,,null,,,,,,,,,
null,is hugging,,html-keyboard-response,498,1880801,0.0-19.0-2.12,72273,List2B,white,man,,,,null,,,,,,,,,
6206.6,,,survey-text,499,1887010,0.0-19.0-3.12,72273,List2B,white,man,,,,,"{""Q0"":""luke is hugging fred""}","<img src=""stim_listB/hug5.gif""style=""height:400px;""></stim_listB>",is hugging,,,,,,
null,"<div style=""font-size:60px;"">+</div>",,html-keyboard-response,500,1887512,0.0-19.0-0.13,72273,List2B,white,man,,,,null,,,,,,,,,
null,"<img src=""stim_listB/challenge4.gif""style=""height:400px;""></stim_listB>",,html-keyboard-response,501,1889518,0.0-19.0-1.13,72273,List2B,white,man,,,,null,,,,,,,,,
null,is being challenged by,,html-keyboard-response,502,1891528,0.0-19.0-2.13,72273,List2B,white,man,,,,null,,,,,,,,,
10590.8,,,survey-text,503,1902122,0.0-19.0-3.13,72273,List2B,white,man,,,,,"{""Q0"":""kate is being challenged by fred""}","<img src=""stim_listB/challenge4.gif""style=""height:400px;""></stim_listB>",is being challenged by,,,,,,
null,"<div style=""font-size:60px;"">+</div>",,html-keyboard-response,504,1902624,0.0-19.0-0.14,72273,List2B,white,man,,,,null,,,,,,,,,
null,"<img src=""stim_listB/greet6.gif""style=""height:400px;""></stim_listB>",,html-keyboard-response,505,1904640,0.0-19.0-1.14,72273,List2B,white,man,,,,null,,,,,,,,,
null,is being greeted by,,html-keyboard-response,506,1906643,0.0-19.0-2.14,72273,List2B,white,man,,,,null,,,,,,,,,
7625.4,,,survey-text,507,1914272,0.0-19.0-3.14,72273,List2B,white,man,,,,,"{""Q0"":""mike is being greeted by  luke""}","<img src=""stim_listB/greet6.gif""style=""height:400px;""></stim_listB>",is being greeted by,,,,,,
null,"<div style=""font-size:60px;"">+</div>",,html-keyboard-response,508,1914782,0.0-19.0-0.15,72273,List2B,white,man,,,,null,,,,,,,,,
null,"<img src=""stim_listB/seduce7.gif""style=""height:400px;""></stim_listB>",,html-keyboard-response,509,1916798,0.0-19.0-1.15,72273,List2B,white,man,,,,null,,,,,,,,,
null,is seducing,,html-keyboard-response,510,1918814,0.0-19.0-2.15,72273,List2B,white,man,,,,null,,,,,,,,,
8091,,,survey-text,511,1926908,0.0-19.0-3.15,72273,List2B,white,man,,,,,"{""Q0"":""ruth is seducing  kate""}","<img src=""stim_listB/seduce7.gif""style=""height:400px;""></stim_listB>",is seducing,,,,,,
null,"<div style=""font-size:60px;"">+</div>",,html-keyboard-response,512,1927421,0.0-19.0-0.16,72273,List2B,white,man,,,,null,,,,,,,,,
null,"<img src=""stim_listB/challenge1.gif""style=""height:400px;""></stim_listB>",,html-keyboard-response,513,1929424,0.0-19.0-1.16,72273,List2B,white,man,,,,null,,,,,,,,,
null,is challenging,,html-keyboard-response,514,1931434,0.0-19.0-2.16,72273,List2B,white,man,,,,null,,,,,,,,,
6763.9,,,survey-text,515,1938201,0.0-19.0-3.16,72273,List2B,white,man,,,,,"{""Q0"":""dave is challenging ruth""}","<img src=""stim_listB/challenge1.gif""style=""height:400px;""></stim_listB>",is challenging,,,,,,
null,"<div style=""font-size:60px;"">+</div>",,html-keyboard-response,516,1938708,0.0-19.0-0.17,72273,List2B,white,man,,,,null,,,,,,,,,
null,"<img src=""stim_listB/copy7.gif""style=""height:400px;""></stim_listB>",,html-keyboard-response,517,1940721,0.0-19.0-1.17,72273,List2B,white,man,,,,null,,,,,,,,,
null,is copying,,html-keyboard-response,518,1942735,0.0-19.0-2.17,72273,List2B,white,man,,,,null,,,,,,,,,
7074.8,,,survey-text,519,1949813,0.0-19.0-3.17,72273,List2B,white,man,,,,,"{""Q0"":""beth is copying  jane""}","<img src=""stim_listB/copy7.gif""style=""height:400px;""></stim_listB>",is copying,,,,,,
null,"<div style=""font-size:60px;"">+</div>",,html-keyboard-response,520,1950315,0.0-19.0-0.18,72273,List2B,white,man,,,,null,,,,,,,,,
null,"<img src=""stim_listB/look1.gif""style=""height:400px;""></stim_listB>",,html-keyboard-response,521,1952317,0.0-19.0-1.18,72273,List2B,white,man,,,,null,,,,,,,,,
null,is looking at,,html-keyboard-response,522,1954320,0.0-19.0-2.18,72273,List2B,white,man,,,,null,,,,,,,,,
9127.9,,,survey-text,523,1963451,0.0-19.0-3.18,72273,List2B,white,man,,,,,"{""Q0"":""luke is looking at ruth""}","<img src=""stim_listB/look1.gif""style=""height:400px;""></stim_listB>",is looking at,,,,,,
null,"<div style=""font-size:60px;"">+</div>",,html-keyboard-response,524,1963964,0.0-19.0-0.19,72273,List2B,white,man,,,,null,,,,,,,,,
null,"<img src=""stim_listB/greet2.gif""style=""height:400px;""></stim_listB>",,html-keyboard-response,525,1965977,0.0-19.0-1.19,72273,List2B,white,man,,,,null,,,,,,,,,
null,is being greeted by,,html-keyboard-response,526,1967989,0.0-19.0-2.19,72273,List2B,white,man,,,,null,,,,,,,,,
13006.9,,,survey-text,527,1980999,0.0-19.0-3.19,72273,List2B,white,man,,,,,"{""Q0"":""jane is being greeted by luke""}","<img src=""stim_listB/greet2.gif""style=""height:400px;""></stim_listB>",is being greeted by,,,,,,
3620.8,<p>Thank you for completing that task.</p><p>The final part of this session is a questionnaire that will take about 4 minutes.</p><p>Press Continue.</p>,0,html-button-response,528,1984621,0.0-20.0,72273,List2B,white,man,,,,,,,,,,,,,
43161.1,,,survey-text,529,2028792,0.0-21.0,72273,List2B,white,man,,,,,"{""Q0"":""46"",""Q1"":""english"",""Q2"":""english"",""Q3"":""usa"",""Q4"":""american"",""Q5"":""caucasian"",""Q6"":""male""}",,,demographics,,,,,
2249.8,<p>Have you lived in the USA for the last 5 years or more?</p>,0,html-button-response,530,2031043,0.0-22.0,72273,List2B,white,man,,,,,,,,fiveyears,,,,,
2516.9,<p>Move the slider to show the extent to which you agree with the following statements.</p>,0,html-button-response,531,2034563,0.0-23.0,72273,List2B,white,man,,,,,,,,,,,,,
7050.3,,,html-slider-response,532,2042625,0.0-24.0-0.0-0.0,72273,List2B,white,man,,,,,,,,survey_race,39,,,My age is not an important part of who I am.,filler
5310.2,,,html-slider-response,533,2047937,0.0-24.0-0.0-0.1,72273,List2B,white,man,,,,,,,,survey_race,59,,,"The older I get, the wiser I feel.",filler
5135.7,,,html-slider-response,534,2053074,0.0-24.0-0.0-0.2,72273,List2B,white,man,,,,,,,,survey_race,66,,,Being my race gives me a good feeling.,feeling
3178.3,,,html-slider-response,535,2056253,0.0-24.0-0.0-0.3,72273,List2B,white,man,,,,,,,,survey_race,27,,,Being my age gives me a good feeling.,filler
6297.3,,,html-slider-response,536,2062552,0.0-24.0-0.0-0.4,72273,List2B,white,man,,,,,,,,survey_race,40,,,Being my race is an important part of how I see myself.,important
3329.8,,,html-slider-response,537,2065883,0.0-24.0-0.0-0.5,72273,List2B,white,man,,,,,,,,survey_race,44,,,I feel solidarity with my race.,solidarity
4172.7,,,html-slider-response,538,2070057,0.0-24.0-0.0-0.6,72273,List2B,white,man,,,,,,,,survey_race,26,,,I have a lot in common with people of a similar age to me.,filler
3916.5,,,html-slider-response,539,2073975,0.0-24.0-0.0-0.7,72273,List2B,white,man,,,,,,,,survey_race,32,,,People my age have a lot in common with each other.,filler
4526.5,,,html-slider-response,540,2078503,0.0-24.0-0.0-0.8,72273,List2B,white,man,,,,,,,,survey_race,30,,,People of my race are very similar to each other.,verysimilar
4348.9,,,html-slider-response,541,2082853,0.0-24.0-0.0-0.9,72273,List2B,white,man,,,,,,,,survey_race,25,,,I feel a bond with people the same age as me.,filler
3058.6,,,html-slider-response,542,2085913,0.0-24.0-0.0-0.10,72273,List2B,white,man,,,,,,,,survey_race,8,,,I am glad to be the age I am.,filler
3578.6,,,html-slider-response,543,2089493,0.0-24.0-0.0-0.11,72273,List2B,white,man,,,,,,,,survey_race,91,,,I consider myself an introvert.,filler
3308.8,,,html-slider-response,544,2092803,0.0-24.0-0.0-0.12,72273,List2B,white,man,,,,,,,,survey_race,35,,,I feel a bond with my race.,bond
4077.1,,,html-slider-response,545,2096881,0.0-24.0-0.0-0.13,72273,List2B,white,man,,,,,,,,survey_race,32,,,I often think about the fact that I am my race.,often
3450.8,,,html-slider-response,546,2100333,0.0-24.0-0.0-0.14,72273,List2B,white,man,,,,,,,,survey_race,18,,,I feel solidarity with people the same age as me.,filler
4766.8,,,html-slider-response,547,2105101,0.0-24.0-0.0-0.15,72273,List2B,white,man,,,,,,,,survey_race,14,,,I enjoy being in large groups.,filler
3852.7,,,html-slider-response,548,2108955,0.0-24.0-0.0-0.16,72273,List2B,white,man,,,,,,,,survey_race,20,,,I have a lot in common with the average person of my race.,average
3362.7,,,html-slider-response,549,2112319,0.0-24.0-0.0-0.17,72273,List2B,white,man,,,,,,,,survey_race,7,,,I feel committed to my race.,committed
4013.1,,,html-slider-response,550,2116333,0.0-24.0-0.0-0.18,72273,List2B,white,man,,,,,,,,survey_race,68,,,It is pleasant to be my race.,pleasant
7290.6,,,html-slider-response,551,2123625,0.0-24.0-0.0-0.19,72273,List2B,white,man,,,,,,,,survey_race,32,,,The fact that I am my race is an important part of my identity.,identity
3884.5,,,html-slider-response,552,2127511,0.0-24.0-0.0-0.20,72273,List2B,white,man,,,,,,,,survey_race,38,,,I think that my race has a lot to be proud of.,proud
3500.6,,,html-slider-response,553,2131012,0.0-24.0-0.0-0.21,72273,List2B,white,man,,,,,,,,survey_race,32,,,People of my race have a lot in common with each other.,common
4284.6,,,html-slider-response,554,2135298,0.0-24.0-0.0-0.22,72273,List2B,white,man,,,,,,,,survey_race,2,,,Getting older does not worry me.,filler
5180.8,,,html-slider-response,555,2140480,0.0-24.0-0.0-0.23,72273,List2B,white,man,,,,,,,,survey_race,55,,,I am glad to be my race.,glad
4308.9,,,html-slider-response,556,2144791,0.0-24.0-0.0-0.24,72273,List2B,white,man,,,,,,,,survey_race,8,,,I am glad to be my age.,filler
3734.6,,,html-slider-response,557,2148527,0.0-24.0-0.0-0.25,72273,List2B,white,man,,,,,,,,survey_race,1,,,I consider myself an extrovert.,filler
4938.4,,,html-slider-response,558,2153466,0.0-24.0-0.0-0.26,72273,List2B,white,man,,,,,,,,survey_race,72,,,I often think about the fact that I am my age.,filler
4654.6,,,html-slider-response,559,2158122,0.0-24.0-0.0-0.27,72273,List2B,white,man,,,,,,,,survey_race,33,,,I am similar to the average person of my race.,similar
5222.6,,,html-slider-response,560,2163346,0.0-24.0-1.0-0.0,72273,List2B,white,man,,,,,,,,survey_gender,78,,,It is not always easy for people to know what I am thinking.,filler
6316.8,,,html-slider-response,561,2169664,0.0-24.0-1.0-0.1,72273,List2B,white,man,,,,,,,,survey_gender,79,,,The fact that I am my gender is an important part of my identity.,identity
6002.7,,,html-slider-response,562,2175668,0.0-24.0-1.0-0.2,72273,List2B,white,man,,,,,,,,survey_gender,78,,,Family is not more important to me than friendship.,filler
4798.7,,,html-slider-response,563,2180468,0.0-24.0-1.0-0.3,72273,List2B,white,man,,,,,,,,survey_gender,61,,,I have a lot in common with the average person of my gender.,average
3706.9,,,html-slider-response,564,2184177,0.0-24.0-1.0-0.4,72273,List2B,white,man,,,,,,,,survey_gender,23,,,My friends understand me.,filler
4144.3,,,html-slider-response,565,2188322,0.0-24.0-1.0-0.5,72273,List2B,white,man,,,,,,,,survey_gender,58,,,I think that my gender has a lot to be proud of.,proud
3929,,,html-slider-response,566,2192252,0.0-24.0-1.0-0.6,72273,List2B,white,man,,,,,,,,survey_gender,66,,,Being my gender is an important part of how I see myself.,important
4052.7,,,html-slider-response,567,2196307,0.0-24.0-1.0-0.7,72273,List2B,white,man,,,,,,,,survey_gender,16,,,I feel solidarity with my gender.,solidarity
6713,,,html-slider-response,568,2203021,0.0-24.0-1.0-0.8,72273,List2B,white,man,,,,,,,,survey_gender,16,,,I feel a bond with my gender.,bond
8670.2,,,html-slider-response,569,2211693,0.0-24.0-1.0-0.9,72273,List2B,white,man,,,,,,,,survey_gender,38,,,I am similar to the average person of my gender.,similar
3768.5,,,html-slider-response,570,2215463,0.0-24.0-1.0-0.10,72273,List2B,white,man,,,,,,,,survey_gender,39,,,My friends have a lot in common with each other.,filler
3511.4,,,html-slider-response,571,2218975,0.0-24.0-1.0-0.11,72273,List2B,white,man,,,,,,,,survey_gender,83,,,I often think about my actions.,filler
3708.1,,,html-slider-response,572,2222684,0.0-24.0-1.0-0.12,72273,List2B,white,man,,,,,,,,survey_gender,63,,,People of my gender have a lot in common with each other.,common
3002.9,,,html-slider-response,573,2225688,0.0-24.0-1.0-0.13,72273,List2B,white,man,,,,,,,,survey_gender,88,,,Routine is not important to me.,filler
3075.1,,,html-slider-response,574,2228764,0.0-24.0-1.0-0.14,72273,List2B,white,man,,,,,,,,survey_gender,35,,,I have a lot in common with my friends.,filler
3712.7,,,html-slider-response,575,2232478,0.0-24.0-1.0-0.15,72273,List2B,white,man,,,,,,,,survey_gender,91,,,I am glad to be my gender.,glad
4672.8,,,html-slider-response,576,2237153,0.0-24.0-1.0-0.16,72273,List2B,white,man,,,,,,,,survey_gender,91,,,I am glad to have the friends that I have.,filler
3940.5,,,html-slider-response,577,2241095,0.0-24.0-1.0-0.17,72273,List2B,white,man,,,,,,,,survey_gender,99,,,I would say I am an animal person.,filler
4636.7,,,html-slider-response,578,2245733,0.0-24.0-1.0-0.18,72273,List2B,white,man,,,,,,,,survey_gender,84,,,I often think about the fact that I am my gender.,often
3588.6,,,html-slider-response,579,2249323,0.0-24.0-1.0-0.19,72273,List2B,white,man,,,,,,,,survey_gender,39,,,Most of the friends in my life are very similar to me.,filler
3346.7,,,html-slider-response,580,2252671,0.0-24.0-1.0-0.20,72273,List2B,white,man,,,,,,,,survey_gender,93,,,I feel committed to my gender.,committed
3082.8,,,html-slider-response,581,2255755,0.0-24.0-1.0-0.21,72273,List2B,white,man,,,,,,,,survey_gender,90,,,Being around my friends gives me a good feeling.,filler
3027.5,,,html-slider-response,582,2258783,0.0-24.0-1.0-0.22,72273,List2B,white,man,,,,,,,,survey_gender,75,,,I feel a bond with my friends.,filler
3092.7,,,html-slider-response,583,2261877,0.0-24.0-1.0-0.23,72273,List2B,white,man,,,,,,,,survey_gender,78,,,I feel solidarity with my friends.,filler
4724.6,,,html-slider-response,584,2266603,0.0-24.0-1.0-0.24,72273,List2B,white,man,,,,,,,,survey_gender,96,,,Being my gender gives me a good feeling.,feeling
3514.5,,,html-slider-response,585,2270119,0.0-24.0-1.0-0.25,72273,List2B,white,man,,,,,,,,survey_gender,65,,,People of my gender are very similar to each other.,verysimilar
2866.5,,,html-slider-response,586,2272987,0.0-24.0-1.0-0.26,72273,List2B,white,man,,,,,,,,survey_gender,87,,,It is pleasant to be my gender.,pleasant
3220.1,,,html-slider-response,587,2276208,0.0-24.0-1.0-0.27,72273,List2B,white,man,,,,,,,,survey_gender,93,,,I consider myself a highly empathetic person.,filler
33231.6,,,survey-text,588,2309441,0.0-25.0,72273,List2B,white,man,,,,,"{""Q0"":""ccc""}",,,worker_id,,,,,
33756.2,,,external-html,589,2343551,0.0-26.0,72273,List2B,white,man,debrief.html,,,,,,,,,,,,
