"rt","stimulus","button_pressed","trial_type","trial_index","time_elapsed","internal_node_id","subject","list","ppt_race","ppt_gender","url","first_guess","correct","key_press","responses","image_type","phrase_type","test_part","response","stimulus1","stimulus2","question_type","survey_item"
"5528.799999952316","Welcome to the experiment. Press Continue to begin.","0","html-button-response","0","5531","0.0-0.0","72721","List1B","white","woman","","","","","","","","","","","","",""
"16442.30000001192","","","external-html","1","23186","0.0-1.0","72721","List1B","white","woman","consent.html","","","","","","","","","","","",""
"8396.800000011921","<p>On the next page, you will see portraits of 8 people and their names.</p><p>Your first task is to take a few minutes to memorise the names of these people.</p><p>You will have to recall their names during the rest of the experiment, so it is</p><p>essential that you try to memorise these people and their names as best as you can.</p><br><p><strong>You will then be tested on your memory of these names and portraits.</strong></p><br><p>The experiment will start after you have completed this memory test.</p><br><p>Ready?</p>","0","html-button-response","2","31584","0.0-2.0","72721","List1B","white","woman","","","","","","","","","","","","",""
"88770.60000002384","<img src='img/portrait_matrix_list1.jpg' style='width:900px;height:500px;''></img><p>If you have memorised all the portraits and names and are ready to start, press Continue.</p><p><strong>Please note: Your memory of these faces will be tested 4 times during this experiment.</strong></p>","0","html-button-response","3","121331","0.0-3.0-0.0","72721","List1B","white","woman","","","","","","","","","","","","",""
"6433.700000047684","<img src=""portrait/BW2.jpg""style=""height:400px;""></img>","0","html-button-response","4","128767","0.0-3.0-1.0","72721","List1B","white","woman","","true","2","","","","","","","","","",""
"7444.200000047684","<img src=""portrait/BW2.jpg""style=""height:400px;""></img>","2","html-button-response","5","137215","0.0-3.0-3.0-0.0","72721","List1B","white","woman","","false","2","","","","","","","","","",""
"null","CORRECT","","html-keyboard-response","6","138729","0.0-3.0-3.0-1.0-0.0","72721","List1B","white","woman","","","","null","","","","","","","","",""
"5411.300000011921","<img src=""portrait/BM2.jpg""style=""height:400px;""></img>","5","html-button-response","7","144141","0.0-3.0-4.0","72721","List1B","white","woman","","true","5","","","","","","","","","",""
"null","CORRECT","","html-keyboard-response","8","145644","0.0-3.0-5.0-0.0","72721","List1B","white","woman","","","","null","","","","","","","","",""
"4044.5","<img src=""portrait/WW2.jpg""style=""height:400px;""></img>","3","html-button-response","9","149689","0.0-3.0-7.0","72721","List1B","white","woman","","true","3","","","","","","","","","",""
"null","CORRECT","","html-keyboard-response","10","151192","0.0-3.0-8.0-0.0","72721","List1B","white","woman","","","","null","","","","","","","","",""
"9018.5","<img src=""portrait/WM2.jpg""style=""height:400px;""></img>","7","html-button-response","11","160211","0.0-3.0-10.0","72721","List1B","white","woman","","true","7","","","","","","","","","",""
"null","CORRECT","","html-keyboard-response","12","161712","0.0-3.0-11.0-0.0","72721","List1B","white","woman","","","","null","","","","","","","","",""
"7855.800000011921","<img src=""portrait/BM1.jpg""style=""height:400px;""></img>","4","html-button-response","13","169569","0.0-3.0-13.0","72721","List1B","white","woman","","true","4","","","","","","","","","",""
"null","CORRECT","","html-keyboard-response","14","171072","0.0-3.0-14.0-0.0","72721","List1B","white","woman","","","","null","","","","","","","","",""
"12918.200000047684","<img src=""portrait/WW1.jpg""style=""height:400px;""></img>","1","html-button-response","15","183979","0.0-3.0-16.0","72721","List1B","white","woman","","true","1","","","","","","","","","",""
"null","CORRECT","","html-keyboard-response","16","185481","0.0-3.0-17.0-0.0","72721","List1B","white","woman","","","","null","","","","","","","","",""
"12683.5","<img src=""portrait/WM1.jpg""style=""height:400px;""></img>","6","html-button-response","17","198165","0.0-3.0-19.0","72721","List1B","white","woman","","true","6","","","","","","","","","",""
"null","CORRECT","","html-keyboard-response","18","199667","0.0-3.0-20.0-0.0","72721","List1B","white","woman","","","","null","","","","","","","","",""
"7616","<img src=""portrait/BW1.jpg""style=""height:400px;""></img>","0","html-button-response","19","207283","0.0-3.0-22.0","72721","List1B","white","woman","","true","0","","","","","","","","","",""
"null","CORRECT","","html-keyboard-response","20","208786","0.0-3.0-23.0-0.0","72721","List1B","white","woman","","","","null","","","","","","","","",""
"1690.1000000238419","<p>You got 7 out of 8 right first time. Press Continue.</p>","0","html-button-response","21","210477","0.0-3.0-25.0","72721","List1B","white","woman","","","","","","","","","","","","",""
"2576.5","As you did not score 100%, the memory game will repeat. Press Continue.","0","html-button-response","22","214055","0.0-3.0-26.0-0.0","72721","List1B","white","woman","","","","","","","","","","","","",""
"53577.89999997616","<img src='img/portrait_matrix_list1.jpg' style='width:900px;height:500px;''></img><p>If you have memorised all the portraits and names and are ready to start, press Continue.</p><p><strong>Please note: Your memory of these faces will be tested 4 times during this experiment.</strong></p>","0","html-button-response","23","268633","0.0-3.1-0.1","72721","List1B","white","woman","","","","","","","","","","","","",""
"4738.199999988079","<img src=""portrait/BW2.jpg""style=""height:400px;""></img>","2","html-button-response","24","274373","0.0-3.1-1.1","72721","List1B","white","woman","","true","2","","","","","","","","","",""
"null","CORRECT","","html-keyboard-response","25","275876","0.0-3.1-2.1-0.1","72721","List1B","white","woman","","","","null","","","","","","","","",""
"8693.100000023842","<img src=""portrait/BM2.jpg""style=""height:400px;""></img>","5","html-button-response","26","284569","0.0-3.1-4.1","72721","List1B","white","woman","","true","5","","","","","","","","","",""
"null","CORRECT","","html-keyboard-response","27","286073","0.0-3.1-5.1-0.1","72721","List1B","white","woman","","","","null","","","","","","","","",""
"4566.5","<img src=""portrait/WW2.jpg""style=""height:400px;""></img>","3","html-button-response","28","290640","0.0-3.1-7.1","72721","List1B","white","woman","","true","3","","","","","","","","","",""
"null","CORRECT","","html-keyboard-response","29","292143","0.0-3.1-8.1-0.1","72721","List1B","white","woman","","","","null","","","","","","","","",""
"1947.4000000357628","<img src=""portrait/WM2.jpg""style=""height:400px;""></img>","7","html-button-response","30","294091","0.0-3.1-10.1","72721","List1B","white","woman","","true","7","","","","","","","","","",""
"null","CORRECT","","html-keyboard-response","31","295593","0.0-3.1-11.1-0.1","72721","List1B","white","woman","","","","null","","","","","","","","",""
"1849.0999999642372","<img src=""portrait/BM1.jpg""style=""height:400px;""></img>","4","html-button-response","32","297443","0.0-3.1-13.1","72721","List1B","white","woman","","true","4","","","","","","","","","",""
"null","CORRECT","","html-keyboard-response","33","298945","0.0-3.1-14.1-0.1","72721","List1B","white","woman","","","","null","","","","","","","","",""
"4653.5","<img src=""portrait/WW1.jpg""style=""height:400px;""></img>","1","html-button-response","34","303599","0.0-3.1-16.1","72721","List1B","white","woman","","true","1","","","","","","","","","",""
"null","CORRECT","","html-keyboard-response","35","305103","0.0-3.1-17.1-0.1","72721","List1B","white","woman","","","","null","","","","","","","","",""
"3643.300000011921","<img src=""portrait/WM1.jpg""style=""height:400px;""></img>","6","html-button-response","36","308747","0.0-3.1-19.1","72721","List1B","white","woman","","true","6","","","","","","","","","",""
"null","CORRECT","","html-keyboard-response","37","310250","0.0-3.1-20.1-0.1","72721","List1B","white","woman","","","","null","","","","","","","","",""
"4136.900000035763","<img src=""portrait/BW1.jpg""style=""height:400px;""></img>","0","html-button-response","38","314387","0.0-3.1-22.1","72721","List1B","white","woman","","true","0","","","","","","","","","",""
"null","CORRECT","","html-keyboard-response","39","315890","0.0-3.1-23.1-0.1","72721","List1B","white","woman","","","","null","","","","","","","","",""
"1224.5999999642372","<p>You got 8 out of 8 right first time. Press Continue.</p>","0","html-button-response","40","317115","0.0-3.1-25.1","72721","List1B","white","woman","","","","","","","","","","","","",""
"31660.80000001192","<p>In this experiment, you will view photographs of the people from the memory game interacting.</p><p>By using the <strong>exact</strong> phrase given <i>after</i> the photograph appears and recalling the correct names of the people in the photographs, form a sentence describing the interaction. You do not need to capitalise names.</p><p>Type your answer in the space provided. Please complete every sentence before moving onto the next trial.</p><p>You will only have a few seconds to memorise each given photograph and phrase before you can respond, so try your best to focus.</p><p>An example is given below. Press 'Continue' when you are ready.</p><img src='img/speaking_example.jpg' style='width:800px;height:460px;''></img>","0","html-button-response","41","349774","0.0-4.0","72721","List1B","white","woman","","","","","","","","","","","","",""
"2748.400000035763","<p>Before the experiment starts, you will watch two example trials. Press 'Continue'.</p>","0","html-button-response","42","353524","0.0-5.0","72721","List1B","white","woman","","","","","","","","","","","","",""
"null","<img src='img/play_eg.gif' style='height:400px;''></img>","","html-keyboard-response","43","356525","0.0-6.0","72721","List1B","white","woman","","","","null","","","","","","","","",""
"null","<p>is playing with</p>","","html-keyboard-response","44","358526","0.0-7.0","72721","List1B","white","woman","","","","null","","","","","","","","",""
"11785.300000011921","<p><b>Answer:</b> kate is playing with beth</p>","0","html-button-response","45","370312","0.0-8.0","72721","List1B","white","woman","","","","","","","","","","","","",""
"null","<img src='img/dance_eg.gif' style='height:400px;''></img>","","html-keyboard-response","46","373315","0.0-9.0","72721","List1B","white","woman","","","","null","","","","","","","","",""
"null","<p>is being entertained by</p>","","html-keyboard-response","47","375316","0.0-10.0","72721","List1B","white","woman","","","","null","","","","","","","","",""
"3892.600000023842","<p><b>Answer:</b> luke is being entertained by dave</p>","0","html-button-response","48","379209","0.0-11.0","72721","List1B","white","woman","","","","","","","","","","","","",""
"8520.699999988079","<p>Ready to start the experiment?</p><br><p><strong>Remember to describe the picture using a full sentence,</strong></p><p><strong>that combines the names of the people with the <i>exact</i> phrase given.</strong></p><p><strong>To receive full payment you must do this correctly.</strong></p><p><strong> You do not need to capitalise names or use punctuation.</strong></p><br><p>Press 'Continue' to begin.</p>","0","html-button-response","49","388732","0.0-12.0","72721","List1B","white","woman","","","","","","","","","","","","",""
"null","<div style=""font-size:60px;"">+</div>","","html-keyboard-response","50","390235","0.0-13.0-0.0","72721","List1B","white","woman","","","","null","","","","","","","","",""
"null","<img src=""stim_listB/look8.gif""style=""height:400px;""></stim_listB>","","html-keyboard-response","51","392226","0.0-13.0-1.0","72721","List1B","white","woman","","","","null","","","","","","","","",""
"null","is being looked at by","","html-keyboard-response","52","394227","0.0-13.0-2.0","72721","List1B","white","woman","","","","null","","","","","","","","",""
"13208.299999952316","","","survey-text","53","407437","0.0-13.0-3.0","72721","List1B","white","woman","","","","","{""Q0"":""jane is being looked at by kate""}","<img src=""stim_listB/look8.gif""style=""height:400px;""></stim_listB>","is being looked at by","","","","","",""
"null","<div style=""font-size:60px;"">+</div>","","html-keyboard-response","54","407940","0.0-13.0-0.1","72721","List1B","white","woman","","","","null","","","","","","","","",""
"null","<img src=""stim_listB/greet6.gif""style=""height:400px;""></stim_listB>","","html-keyboard-response","55","409942","0.0-13.0-1.1","72721","List1B","white","woman","","","","null","","","","","","","","",""
"null","is being greeted by","","html-keyboard-response","56","411953","0.0-13.0-2.1","72721","List1B","white","woman","","","","null","","","","","","","","",""
"7631.300000011921","","","survey-text","57","419587","0.0-13.0-3.1","72721","List1B","white","woman","","","","","{""Q0"":""fred is being greeted by dave""}","<img src=""stim_listB/greet6.gif""style=""height:400px;""></stim_listB>","is being greeted by","","","","","",""
"null","<div style=""font-size:60px;"">+</div>","","html-keyboard-response","58","420088","0.0-13.0-0.2","72721","List1B","white","woman","","","","null","","","","","","","","",""
"null","<img src=""stim_listB/kiss7.gif""style=""height:400px;""></stim_listB>","","html-keyboard-response","59","422090","0.0-13.0-1.2","72721","List1B","white","woman","","","","null","","","","","","","","",""
"null","is kissing","","html-keyboard-response","60","424091","0.0-13.0-2.2","72721","List1B","white","woman","","","","null","","","","","","","","",""
"13644.600000023842","","","survey-text","61","437738","0.0-13.0-3.2","72721","List1B","white","woman","","","","","{""Q0"":""beth is kissing jane""}","<img src=""stim_listB/kiss7.gif""style=""height:400px;""></stim_listB>","is kissing","","","","","",""
"null","<div style=""font-size:60px;"">+</div>","","html-keyboard-response","62","438239","0.0-13.0-0.3","72721","List1B","white","woman","","","","null","","","","","","","","",""
"null","<img src=""stim_listB/touch3.gif""style=""height:400px;""></stim_listB>","","html-keyboard-response","63","440240","0.0-13.0-1.3","72721","List1B","white","woman","","","","null","","","","","","","","",""
"null","is touching","","html-keyboard-response","64","442241","0.0-13.0-2.3","72721","List1B","white","woman","","","","null","","","","","","","","",""
"5006.699999988079","","","survey-text","65","447249","0.0-13.0-3.3","72721","List1B","white","woman","","","","","{""Q0"":""dave is touching jane""}","<img src=""stim_listB/touch3.gif""style=""height:400px;""></stim_listB>","is touching","","","","","",""
"null","<div style=""font-size:60px;"">+</div>","","html-keyboard-response","66","447759","0.0-13.0-0.4","72721","List1B","white","woman","","","","null","","","","","","","","",""
"null","<img src=""stim_listB/hug5.gif""style=""height:400px;""></stim_listB>","","html-keyboard-response","67","449760","0.0-13.0-1.4","72721","List1B","white","woman","","","","null","","","","","","","","",""
"null","is hugging","","html-keyboard-response","68","451751","0.0-13.0-2.4","72721","List1B","white","woman","","","","null","","","","","","","","",""
"8082.399999976158","","","survey-text","69","459835","0.0-13.0-3.4","72721","List1B","white","woman","","","","","{""Q0"":""luke is hugging fred""}","<img src=""stim_listB/hug5.gif""style=""height:400px;""></stim_listB>","is hugging","","","","","",""
"null","<div style=""font-size:60px;"">+</div>","","html-keyboard-response","70","460336","0.0-13.0-0.5","72721","List1B","white","woman","","","","null","","","","","","","","",""
"null","<img src=""stim_listB/shout3.gif""style=""height:400px;""></stim_listB>","","html-keyboard-response","71","462337","0.0-13.0-1.5","72721","List1B","white","woman","","","","null","","","","","","","","",""
"null","is shouting at","","html-keyboard-response","72","464337","0.0-13.0-2.5","72721","List1B","white","woman","","","","null","","","","","","","","",""
"5788","","","survey-text","73","470127","0.0-13.0-3.5","72721","List1B","white","woman","","","","","{""Q0"":""luke is shouting at ruth""}","<img src=""stim_listB/shout3.gif""style=""height:400px;""></stim_listB>","is shouting at","","","","","",""
"null","<div style=""font-size:60px;"">+</div>","","html-keyboard-response","74","470629","0.0-13.0-0.6","72721","List1B","white","woman","","","","null","","","","","","","","",""
"null","<img src=""stim_listB/touch5.gif""style=""height:400px;""></stim_listB>","","html-keyboard-response","75","472630","0.0-13.0-1.6","72721","List1B","white","woman","","","","null","","","","","","","","",""
"null","is touching","","html-keyboard-response","76","474631","0.0-13.0-2.6","72721","List1B","white","woman","","","","null","","","","","","","","",""
"6376.5","","","survey-text","77","481009","0.0-13.0-3.6","72721","List1B","white","woman","","","","","{""Q0"":""mike is touching dave""}","<img src=""stim_listB/touch5.gif""style=""height:400px;""></stim_listB>","is touching","","","","","",""
"null","<div style=""font-size:60px;"">+</div>","","html-keyboard-response","78","481509","0.0-13.0-0.7","72721","List1B","white","woman","","","","null","","","","","","","","",""
"null","<img src=""stim_listB/copy7.gif""style=""height:400px;""></stim_listB>","","html-keyboard-response","79","483510","0.0-13.0-1.7","72721","List1B","white","woman","","","","null","","","","","","","","",""
"null","is copying","","html-keyboard-response","80","485511","0.0-13.0-2.7","72721","List1B","white","woman","","","","null","","","","","","","","",""
"30070.399999976158","","","survey-text","81","515572","0.0-13.0-3.7","72721","List1B","white","woman","","","","","{""Q0"":""kate is praying with ruth""}","<img src=""stim_listB/copy7.gif""style=""height:400px;""></stim_listB>","is copying","","","","","",""
"null","<div style=""font-size:60px;"">+</div>","","html-keyboard-response","82","516074","0.0-13.0-0.8","72721","List1B","white","woman","","","","null","","","","","","","","",""
"null","<img src=""stim_listB/hug4.gif""style=""height:400px;""></stim_listB>","","html-keyboard-response","83","518076","0.0-13.0-1.8","72721","List1B","white","woman","","","","null","","","","","","","","",""
"null","is being hugged by","","html-keyboard-response","84","520076","0.0-13.0-2.8","72721","List1B","white","woman","","","","null","","","","","","","","",""
"11337.600000023842","","","survey-text","85","531415","0.0-13.0-3.8","72721","List1B","white","woman","","","","","{""Q0"":""jane is being hugged by dave""}","<img src=""stim_listB/hug4.gif""style=""height:400px;""></stim_listB>","is being hugged by","","","","","",""
"null","<div style=""font-size:60px;"">+</div>","","html-keyboard-response","86","531916","0.0-13.0-0.9","72721","List1B","white","woman","","","","null","","","","","","","","",""
"null","<img src=""stim_listB/look4.gif""style=""height:400px;""></stim_listB>","","html-keyboard-response","87","533917","0.0-13.0-1.9","72721","List1B","white","woman","","","","null","","","","","","","","",""
"null","is being looked at by","","html-keyboard-response","88","535919","0.0-13.0-2.9","72721","List1B","white","woman","","","","null","","","","","","","","",""
"5570.299999952316","","","survey-text","89","541491","0.0-13.0-3.9","72721","List1B","white","woman","","","","","{""Q0"":""jane is being looked at by dave""}","<img src=""stim_listB/look4.gif""style=""height:400px;""></stim_listB>","is being looked at by","","","","","",""
"null","<div style=""font-size:60px;"">+</div>","","html-keyboard-response","90","541992","0.0-13.0-0.10","72721","List1B","white","woman","","","","null","","","","","","","","",""
"null","<img src=""stim_listB/oppose7.gif""style=""height:400px;""></stim_listB>","","html-keyboard-response","91","543994","0.0-13.0-1.10","72721","List1B","white","woman","","","","null","","","","","","","","",""
"null","is opposing","","html-keyboard-response","92","545996","0.0-13.0-2.10","72721","List1B","white","woman","","","","null","","","","","","","","",""
"4448.5","","","survey-text","93","550446","0.0-13.0-3.10","72721","List1B","white","woman","","","","","{""Q0"":""kate is opposing jane""}","<img src=""stim_listB/oppose7.gif""style=""height:400px;""></stim_listB>","is opposing","","","","","",""
"null","<div style=""font-size:60px;"">+</div>","","html-keyboard-response","94","550948","0.0-13.0-0.11","72721","List1B","white","woman","","","","null","","","","","","","","",""
"null","<img src=""stim_listB/seduce1.gif""style=""height:400px;""></stim_listB>","","html-keyboard-response","95","552950","0.0-13.0-1.11","72721","List1B","white","woman","","","","null","","","","","","","","",""
"null","is seducing","","html-keyboard-response","96","554951","0.0-13.0-2.11","72721","List1B","white","woman","","","","null","","","","","","","","",""
"6103.200000047684","","","survey-text","97","561056","0.0-13.0-3.11","72721","List1B","white","woman","","","","","{""Q0"":""fred is seducing kate""}","<img src=""stim_listB/seduce1.gif""style=""height:400px;""></stim_listB>","is seducing","","","","","",""
"null","<div style=""font-size:60px;"">+</div>","","html-keyboard-response","98","561557","0.0-13.0-0.12","72721","List1B","white","woman","","","","null","","","","","","","","",""
"null","<img src=""stim_listB/challenge5.gif""style=""height:400px;""></stim_listB>","","html-keyboard-response","99","563559","0.0-13.0-1.12","72721","List1B","white","woman","","","","null","","","","","","","","",""
"null","is challenging","","html-keyboard-response","100","565560","0.0-13.0-2.12","72721","List1B","white","woman","","","","null","","","","","","","","",""
"9437.099999964237","","","survey-text","101","574988","0.0-13.0-3.12","72721","List1B","white","woman","","","","","{""Q0"":""mike is challenging dave""}","<img src=""stim_listB/challenge5.gif""style=""height:400px;""></stim_listB>","is challenging","","","","","",""
"null","<div style=""font-size:60px;"">+</div>","","html-keyboard-response","102","575488","0.0-13.0-0.13","72721","List1B","white","woman","","","","null","","","","","","","","",""
"null","<img src=""stim_listB/look3.gif""style=""height:400px;""></stim_listB>","","html-keyboard-response","103","577490","0.0-13.0-1.13","72721","List1B","white","woman","","","","null","","","","","","","","",""
"null","is looking at","","html-keyboard-response","104","579491","0.0-13.0-2.13","72721","List1B","white","woman","","","","null","","","","","","","","",""
"4267.399999976158","","","survey-text","105","583760","0.0-13.0-3.13","72721","List1B","white","woman","","","","","{""Q0"":""ruth is looking at luke""}","<img src=""stim_listB/look3.gif""style=""height:400px;""></stim_listB>","is looking at","","","","","",""
"null","<div style=""font-size:60px;"">+</div>","","html-keyboard-response","106","584261","0.0-13.0-0.14","72721","List1B","white","woman","","","","null","","","","","","","","",""
"null","<img src=""stim_listB/shout6.gif""style=""height:400px;""></stim_listB>","","html-keyboard-response","107","586262","0.0-13.0-1.14","72721","List1B","white","woman","","","","null","","","","","","","","",""
"null","is being shouted at by","","html-keyboard-response","108","588263","0.0-13.0-2.14","72721","List1B","white","woman","","","","null","","","","","","","","",""
"8043.399999976158","","","survey-text","109","596308","0.0-13.0-3.14","72721","List1B","white","woman","","","","","{""Q0"":""mike is being shouted at by luke""}","<img src=""stim_listB/shout6.gif""style=""height:400px;""></stim_listB>","is being shouted at by","","","","","",""
"null","<div style=""font-size:60px;"">+</div>","","html-keyboard-response","110","596809","0.0-13.0-0.15","72721","List1B","white","woman","","","","null","","","","","","","","",""
"null","<img src=""stim_listB/greet1.gif""style=""height:400px;""></stim_listB>","","html-keyboard-response","111","598811","0.0-13.0-1.15","72721","List1B","white","woman","","","","null","","","","","","","","",""
"null","is greeting","","html-keyboard-response","112","600813","0.0-13.0-2.15","72721","List1B","white","woman","","","","null","","","","","","","","",""
"6896.700000047684","","","survey-text","113","607711","0.0-13.0-3.15","72721","List1B","white","woman","","","","","{""Q0"":""beth is being greeted by mike""}","<img src=""stim_listB/greet1.gif""style=""height:400px;""></stim_listB>","is greeting","","","","","",""
"null","<div style=""font-size:60px;"">+</div>","","html-keyboard-response","114","608222","0.0-13.0-0.16","72721","List1B","white","woman","","","","null","","","","","","","","",""
"null","<img src=""stim_listB/touch1.gif""style=""height:400px;""></stim_listB>","","html-keyboard-response","115","610224","0.0-13.0-1.16","72721","List1B","white","woman","","","","null","","","","","","","","",""
"null","is touching","","html-keyboard-response","116","612225","0.0-13.0-2.16","72721","List1B","white","woman","","","","null","","","","","","","","",""
"10311.899999976158","","","survey-text","117","622538","0.0-13.0-3.16","72721","List1B","white","woman","","","","","{""Q0"":""mike is touching kate""}","<img src=""stim_listB/touch1.gif""style=""height:400px;""></stim_listB>","is touching","","","","","",""
"null","<div style=""font-size:60px;"">+</div>","","html-keyboard-response","118","623039","0.0-13.0-0.17","72721","List1B","white","woman","","","","null","","","","","","","","",""
"null","<img src=""stim_listB/greet5.gif""style=""height:400px;""></stim_listB>","","html-keyboard-response","119","625043","0.0-13.0-1.17","72721","List1B","white","woman","","","","null","","","","","","","","",""
"null","is greeting","","html-keyboard-response","120","627045","0.0-13.0-2.17","72721","List1B","white","woman","","","","null","","","","","","","","",""
"5757","","","survey-text","121","632792","0.0-13.0-3.17","72721","List1B","white","woman","","","","","{""Q0"":""mike is greeting luke""}","<img src=""stim_listB/greet5.gif""style=""height:400px;""></stim_listB>","is greeting","","","","","",""
"null","<div style=""font-size:60px;"">+</div>","","html-keyboard-response","122","633295","0.0-13.0-0.18","72721","List1B","white","woman","","","","null","","","","","","","","",""
"null","<img src=""stim_listB/copy3.gif""style=""height:400px;""></stim_listB>","","html-keyboard-response","123","635295","0.0-13.0-1.18","72721","List1B","white","woman","","","","null","","","","","","","","",""
"null","is copying","","html-keyboard-response","124","637296","0.0-13.0-2.18","72721","List1B","white","woman","","","","null","","","","","","","","",""
"7395.400000035763","","","survey-text","125","644693","0.0-13.0-3.18","72721","List1B","white","woman","","","","","{""Q0"":""dave is copying jane""}","<img src=""stim_listB/copy3.gif""style=""height:400px;""></stim_listB>","is copying","","","","","",""
"null","<div style=""font-size:60px;"">+</div>","","html-keyboard-response","126","645194","0.0-13.0-0.19","72721","List1B","white","woman","","","","null","","","","","","","","",""
"null","<img src=""stim_listB/shout4.gif""style=""height:400px;""></stim_listB>","","html-keyboard-response","127","647195","0.0-13.0-1.19","72721","List1B","white","woman","","","","null","","","","","","","","",""
"null","is being shouted at by","","html-keyboard-response","128","649197","0.0-13.0-2.19","72721","List1B","white","woman","","","","null","","","","","","","","",""
"5594.100000023842","","","survey-text","129","654792","0.0-13.0-3.19","72721","List1B","white","woman","","","","","{""Q0"":""dave is being shouted at by jane""}","<img src=""stim_listB/shout4.gif""style=""height:400px;""></stim_listB>","is being shouted at by","","","","","",""
"13484.800000011921","<img src='img/portrait_matrix_list1.jpg' style='width:900px;height:500px;''></img><p>If you have memorised all the portraits and names and are ready to start, press Continue.</p><p><strong>Please note: Your memory of these faces will be tested 4 times during this experiment.</strong></p>","0","html-button-response","130","668278","0.0-14.0-0.0","72721","List1B","white","woman","","","","","","","","","","","","",""
"4262.399999976158","<img src=""portrait/BW1.jpg""style=""height:400px;""></img>","0","html-button-response","131","673542","0.0-14.0-1.0","72721","List1B","white","woman","","true","0","","","","","","","","","",""
"null","CORRECT","","html-keyboard-response","132","675044","0.0-14.0-2.0-0.0","72721","List1B","white","woman","","","","null","","","","","","","","",""
"4623","<img src=""portrait/WW2.jpg""style=""height:400px;""></img>","3","html-button-response","133","679668","0.0-14.0-4.0","72721","List1B","white","woman","","true","3","","","","","","","","","",""
"null","CORRECT","","html-keyboard-response","134","681170","0.0-14.0-5.0-0.0","72721","List1B","white","woman","","","","null","","","","","","","","",""
"6371.5","<img src=""portrait/BW2.jpg""style=""height:400px;""></img>","2","html-button-response","135","687542","0.0-14.0-7.0","72721","List1B","white","woman","","true","2","","","","","","","","","",""
"null","CORRECT","","html-keyboard-response","136","689044","0.0-14.0-8.0-0.0","72721","List1B","white","woman","","","","null","","","","","","","","",""
"1449","<img src=""portrait/WM2.jpg""style=""height:400px;""></img>","7","html-button-response","137","690494","0.0-14.0-10.0","72721","List1B","white","woman","","true","7","","","","","","","","","",""
"null","CORRECT","","html-keyboard-response","138","691986","0.0-14.0-11.0-0.0","72721","List1B","white","woman","","","","null","","","","","","","","",""
"2638.900000035763","<img src=""portrait/WW1.jpg""style=""height:400px;""></img>","1","html-button-response","139","694625","0.0-14.0-13.0","72721","List1B","white","woman","","true","1","","","","","","","","","",""
"null","CORRECT","","html-keyboard-response","140","696128","0.0-14.0-14.0-0.0","72721","List1B","white","woman","","","","null","","","","","","","","",""
"1698.0999999642372","<img src=""portrait/BM1.jpg""style=""height:400px;""></img>","4","html-button-response","141","697828","0.0-14.0-16.0","72721","List1B","white","woman","","true","4","","","","","","","","","",""
"null","CORRECT","","html-keyboard-response","142","699331","0.0-14.0-17.0-0.0","72721","List1B","white","woman","","","","null","","","","","","","","",""
"7237.799999952316","<img src=""portrait/WM1.jpg""style=""height:400px;""></img>","6","html-button-response","143","706570","0.0-14.0-19.0","72721","List1B","white","woman","","true","6","","","","","","","","","",""
"null","CORRECT","","html-keyboard-response","144","708072","0.0-14.0-20.0-0.0","72721","List1B","white","woman","","","","null","","","","","","","","",""
"4956.599999964237","<img src=""portrait/BM2.jpg""style=""height:400px;""></img>","5","html-button-response","145","713029","0.0-14.0-22.0","72721","List1B","white","woman","","true","5","","","","","","","","","",""
"null","CORRECT","","html-keyboard-response","146","714533","0.0-14.0-23.0-0.0","72721","List1B","white","woman","","","","null","","","","","","","","",""
"1261.300000011921","<p>You got 8 out of 8 right first time. Press Continue.</p>","0","html-button-response","147","715795","0.0-14.0-25.0","72721","List1B","white","woman","","","","","","","","","","","","",""
"null","<div style=""font-size:60px;"">+</div>","","html-keyboard-response","148","717305","0.0-15.0-0.0","72721","List1B","white","woman","","","","null","","","","","","","","",""
"null","<img src=""stim_listB/copy2.gif""style=""height:400px;""></stim_listB>","","html-keyboard-response","149","719307","0.0-15.0-1.0","72721","List1B","white","woman","","","","null","","","","","","","","",""
"null","is being copied by","","html-keyboard-response","150","721308","0.0-15.0-2.0","72721","List1B","white","woman","","","","null","","","","","","","","",""
"5938.5","","","survey-text","151","727248","0.0-15.0-3.0","72721","List1B","white","woman","","","","","{""Q0"":""fred is being copied by kate""}","<img src=""stim_listB/copy2.gif""style=""height:400px;""></stim_listB>","is being copied by","","","","","",""
"null","<div style=""font-size:60px;"">+</div>","","html-keyboard-response","152","727749","0.0-15.0-0.1","72721","List1B","white","woman","","","","null","","","","","","","","",""
"null","<img src=""stim_listB/seduce8.gif""style=""height:400px;""></stim_listB>","","html-keyboard-response","153","729752","0.0-15.0-1.1","72721","List1B","white","woman","","","","null","","","","","","","","",""
"null","is being seduced by","","html-keyboard-response","154","731754","0.0-15.0-2.1","72721","List1B","white","woman","","","","null","","","","","","","","",""
"5700.400000035763","","","survey-text","155","737456","0.0-15.0-3.1","72721","List1B","white","woman","","","","","{""Q0"":""kate is being seduced by jane""}","<img src=""stim_listB/seduce8.gif""style=""height:400px;""></stim_listB>","is being seduced by","","","","","",""
"null","<div style=""font-size:60px;"">+</div>","","html-keyboard-response","156","737957","0.0-15.0-0.2","72721","List1B","white","woman","","","","null","","","","","","","","",""
"null","<img src=""stim_listB/look2.gif""style=""height:400px;""></stim_listB>","","html-keyboard-response","157","739959","0.0-15.0-1.2","72721","List1B","white","woman","","","","null","","","","","","","","",""
"null","is being looked at by","","html-keyboard-response","158","741960","0.0-15.0-2.2","72721","List1B","white","woman","","","","null","","","","","","","","",""
"4293.900000035763","","","survey-text","159","746255","0.0-15.0-3.2","72721","List1B","white","woman","","","","","{""Q0"":""kate is being looked at by mike""}","<img src=""stim_listB/look2.gif""style=""height:400px;""></stim_listB>","is being looked at by","","","","","",""
"null","<div style=""font-size:60px;"">+</div>","","html-keyboard-response","160","746756","0.0-15.0-0.3","72721","List1B","white","woman","","","","null","","","","","","","","",""
"null","<img src=""stim_listB/copy5.gif""style=""height:400px;""></stim_listB>","","html-keyboard-response","161","748758","0.0-15.0-1.3","72721","List1B","white","woman","","","","null","","","","","","","","",""
"null","is copying","","html-keyboard-response","162","750760","0.0-15.0-2.3","72721","List1B","white","woman","","","","null","","","","","","","","",""
"3682.800000011921","","","survey-text","163","754434","0.0-15.0-3.3","72721","List1B","white","woman","","","","","{""Q0"":""luke is copying mike""}","<img src=""stim_listB/copy5.gif""style=""height:400px;""></stim_listB>","is copying","","","","","",""
"null","<div style=""font-size:60px;"">+</div>","","html-keyboard-response","164","754935","0.0-15.0-0.4","72721","List1B","white","woman","","","","null","","","","","","","","",""
"null","<img src=""stim_listB/kiss5.gif""style=""height:400px;""></stim_listB>","","html-keyboard-response","165","756937","0.0-15.0-1.4","72721","List1B","white","woman","","","","null","","","","","","","","",""
"null","is kissing","","html-keyboard-response","166","758938","0.0-15.0-2.4","72721","List1B","white","woman","","","","null","","","","","","","","",""
"4069.199999988079","","","survey-text","167","763009","0.0-15.0-3.4","72721","List1B","white","woman","","","","","{""Q0"":""fred is kissing luke""}","<img src=""stim_listB/kiss5.gif""style=""height:400px;""></stim_listB>","is kissing","","","","","",""
"null","<div style=""font-size:60px;"">+</div>","","html-keyboard-response","168","763511","0.0-15.0-0.5","72721","List1B","white","woman","","","","null","","","","","","","","",""
"null","<img src=""stim_listB/seduce4.gif""style=""height:400px;""></stim_listB>","","html-keyboard-response","169","765513","0.0-15.0-1.5","72721","List1B","white","woman","","","","null","","","","","","","","",""
"null","is being seduced by","","html-keyboard-response","170","767514","0.0-15.0-2.5","72721","List1B","white","woman","","","","null","","","","","","","","",""
"7068.200000047684","","","survey-text","171","774584","0.0-15.0-3.5","72721","List1B","white","woman","","","","","{""Q0"":""dave is being seduced by ruth""}","<img src=""stim_listB/seduce4.gif""style=""height:400px;""></stim_listB>","is being seduced by","","","","","",""
"null","<div style=""font-size:60px;"">+</div>","","html-keyboard-response","172","775095","0.0-15.0-0.6","72721","List1B","white","woman","","","","null","","","","","","","","",""
"null","<img src=""stim_listB/copy8.gif""style=""height:400px;""></stim_listB>","","html-keyboard-response","173","777096","0.0-15.0-1.6","72721","List1B","white","woman","","","","null","","","","","","","","",""
"null","is being copied by","","html-keyboard-response","174","779097","0.0-15.0-2.6","72721","List1B","white","woman","","","","null","","","","","","","","",""
"6417.100000023842","","","survey-text","175","785515","0.0-15.0-3.6","72721","List1B","white","woman","","","","","{""Q0"":""jane is being copied by beth""}","<img src=""stim_listB/copy8.gif""style=""height:400px;""></stim_listB>","is being copied by","","","","","",""
"null","<div style=""font-size:60px;"">+</div>","","html-keyboard-response","176","786017","0.0-15.0-0.7","72721","List1B","white","woman","","","","null","","","","","","","","",""
"null","<img src=""stim_listB/touch7.gif""style=""height:400px;""></stim_listB>","","html-keyboard-response","177","788018","0.0-15.0-1.7","72721","List1B","white","woman","","","","null","","","","","","","","",""
"null","is touching","","html-keyboard-response","178","790019","0.0-15.0-2.7","72721","List1B","white","woman","","","","null","","","","","","","","",""
"5521.5","","","survey-text","179","795542","0.0-15.0-3.7","72721","List1B","white","woman","","","","","{""Q0"":""jane is touching kate""}","<img src=""stim_listB/touch7.gif""style=""height:400px;""></stim_listB>","is touching","","","","","",""
"null","<div style=""font-size:60px;"">+</div>","","html-keyboard-response","180","796044","0.0-15.0-0.8","72721","List1B","white","woman","","","","null","","","","","","","","",""
"null","<img src=""stim_listB/oppose8.gif""style=""height:400px;""></stim_listB>","","html-keyboard-response","181","798046","0.0-15.0-1.8","72721","List1B","white","woman","","","","null","","","","","","","","",""
"null","is being opposed by","","html-keyboard-response","182","800047","0.0-15.0-2.8","72721","List1B","white","woman","","","","null","","","","","","","","",""
"7437.099999964237","","","survey-text","183","807486","0.0-15.0-3.8","72721","List1B","white","woman","","","","","{""Q0"":""beth is being opposed by ruth""}","<img src=""stim_listB/oppose8.gif""style=""height:400px;""></stim_listB>","is being opposed by","","","","","",""
"null","<div style=""font-size:60px;"">+</div>","","html-keyboard-response","184","807987","0.0-15.0-0.9","72721","List1B","white","woman","","","","null","","","","","","","","",""
"null","<img src=""stim_listB/shout5.gif""style=""height:400px;""></stim_listB>","","html-keyboard-response","185","809988","0.0-15.0-1.9","72721","List1B","white","woman","","","","null","","","","","","","","",""
"null","is shouting at","","html-keyboard-response","186","811980","0.0-15.0-2.9","72721","List1B","white","woman","","","","null","","","","","","","","",""
"3679.699999988079","","","survey-text","187","815661","0.0-15.0-3.9","72721","List1B","white","woman","","","","","{""Q0"":""luke is shouting at fred""}","<img src=""stim_listB/shout5.gif""style=""height:400px;""></stim_listB>","is shouting at","","","","","",""
"null","<div style=""font-size:60px;"">+</div>","","html-keyboard-response","188","816162","0.0-15.0-0.10","72721","List1B","white","woman","","","","null","","","","","","","","",""
"null","<img src=""stim_listB/touch6.gif""style=""height:400px;""></stim_listB>","","html-keyboard-response","189","818164","0.0-15.0-1.10","72721","List1B","white","woman","","","","null","","","","","","","","",""
"null","is being touched by","","html-keyboard-response","190","820166","0.0-15.0-2.10","72721","List1B","white","woman","","","","null","","","","","","","","",""
"3502.5","","","survey-text","191","823670","0.0-15.0-3.10","72721","List1B","white","woman","","","","","{""Q0"":""fred is being touched by luke""}","<img src=""stim_listB/touch6.gif""style=""height:400px;""></stim_listB>","is being touched by","","","","","",""
"null","<div style=""font-size:60px;"">+</div>","","html-keyboard-response","192","824171","0.0-15.0-0.11","72721","List1B","white","woman","","","","null","","","","","","","","",""
"null","<img src=""stim_listB/challenge8.gif""style=""height:400px;""></stim_listB>","","html-keyboard-response","193","826172","0.0-15.0-1.11","72721","List1B","white","woman","","","","null","","","","","","","","",""
"null","is being challenged by","","html-keyboard-response","194","828174","0.0-15.0-2.11","72721","List1B","white","woman","","","","null","","","","","","","","",""
"8738.5","","","survey-text","195","836914","0.0-15.0-3.11","72721","List1B","white","woman","","","","","{""Q0"":""beth is being challenged by jane""}","<img src=""stim_listB/challenge8.gif""style=""height:400px;""></stim_listB>","is being challenged by","","","","","",""
"null","<div style=""font-size:60px;"">+</div>","","html-keyboard-response","196","837415","0.0-15.0-0.12","72721","List1B","white","woman","","","","null","","","","","","","","",""
"null","<img src=""stim_listB/seduce2.gif""style=""height:400px;""></stim_listB>","","html-keyboard-response","197","839417","0.0-15.0-1.12","72721","List1B","white","woman","","","","null","","","","","","","","",""
"null","is being seduced by","","html-keyboard-response","198","841418","0.0-15.0-2.12","72721","List1B","white","woman","","","","null","","","","","","","","",""
"5586.699999988079","","","survey-text","199","847006","0.0-15.0-3.12","72721","List1B","white","woman","","","","","{""Q0"":""beth is being seduced by mike""}","<img src=""stim_listB/seduce2.gif""style=""height:400px;""></stim_listB>","is being seduced by","","","","","",""
"null","<div style=""font-size:60px;"">+</div>","","html-keyboard-response","200","847509","0.0-15.0-0.13","72721","List1B","white","woman","","","","null","","","","","","","","",""
"null","<img src=""stim_listB/look1.gif""style=""height:400px;""></stim_listB>","","html-keyboard-response","201","849510","0.0-15.0-1.13","72721","List1B","white","woman","","","","null","","","","","","","","",""
"null","is looking at","","html-keyboard-response","202","851511","0.0-15.0-2.13","72721","List1B","white","woman","","","","null","","","","","","","","",""
"6462.300000011921","","","survey-text","203","857976","0.0-15.0-3.13","72721","List1B","white","woman","","","","","{""Q0"":""beth is looking at fred""}","<img src=""stim_listB/look1.gif""style=""height:400px;""></stim_listB>","is looking at","","","","","",""
"null","<div style=""font-size:60px;"">+</div>","","html-keyboard-response","204","858476","0.0-15.0-0.14","72721","List1B","white","woman","","","","null","","","","","","","","",""
"null","<img src=""stim_listB/touch2.gif""style=""height:400px;""></stim_listB>","","html-keyboard-response","205","860478","0.0-15.0-1.14","72721","List1B","white","woman","","","","null","","","","","","","","",""
"null","is being touched by","","html-keyboard-response","206","862478","0.0-15.0-2.14","72721","List1B","white","woman","","","","null","","","","","","","","",""
"4067.300000011921","","","survey-text","207","866548","0.0-15.0-3.14","72721","List1B","white","woman","","","","","{""Q0"":""beth is being touched by fred""}","<img src=""stim_listB/touch2.gif""style=""height:400px;""></stim_listB>","is being touched by","","","","","",""
"null","<div style=""font-size:60px;"">+</div>","","html-keyboard-response","208","867049","0.0-15.0-0.15","72721","List1B","white","woman","","","","null","","","","","","","","",""
"null","<img src=""stim_listB/look6.gif""style=""height:400px;""></stim_listB>","","html-keyboard-response","209","869050","0.0-15.0-1.15","72721","List1B","white","woman","","","","null","","","","","","","","",""
"null","is being looked at by","","html-keyboard-response","210","871050","0.0-15.0-2.15","72721","List1B","white","woman","","","","null","","","","","","","","",""
"3592","","","survey-text","211","874633","0.0-15.0-3.15","72721","List1B","white","woman","","","","","{""Q0"":""mike is being looked at by dave""}","<img src=""stim_listB/look6.gif""style=""height:400px;""></stim_listB>","is being looked at by","","","","","",""
"null","<div style=""font-size:60px;"">+</div>","","html-keyboard-response","212","875134","0.0-15.0-0.16","72721","List1B","white","woman","","","","null","","","","","","","","",""
"null","<img src=""stim_listB/copy6.gif""style=""height:400px;""></stim_listB>","","html-keyboard-response","213","877135","0.0-15.0-1.16","72721","List1B","white","woman","","","","null","","","","","","","","",""
"null","is being copied by","","html-keyboard-response","214","879136","0.0-15.0-2.16","72721","List1B","white","woman","","","","null","","","","","","","","",""
"3421.199999988079","","","survey-text","215","882559","0.0-15.0-3.16","72721","List1B","white","woman","","","","","{""Q0"":""fred is being copied by dave""}","<img src=""stim_listB/copy6.gif""style=""height:400px;""></stim_listB>","is being copied by","","","","","",""
"null","<div style=""font-size:60px;"">+</div>","","html-keyboard-response","216","883061","0.0-15.0-0.17","72721","List1B","white","woman","","","","null","","","","","","","","",""
"null","<img src=""stim_listB/kiss4.gif""style=""height:400px;""></stim_listB>","","html-keyboard-response","217","885063","0.0-15.0-1.17","72721","List1B","white","woman","","","","null","","","","","","","","",""
"null","is being kissed by","","html-keyboard-response","218","887064","0.0-15.0-2.17","72721","List1B","white","woman","","","","null","","","","","","","","",""
"5734","","","survey-text","219","892800","0.0-15.0-3.17","72721","List1B","white","woman","","","","","{""Q0"":""dave is being kissed by jane""}","<img src=""stim_listB/kiss4.gif""style=""height:400px;""></stim_listB>","is being kissed by","","","","","",""
"null","<div style=""font-size:60px;"">+</div>","","html-keyboard-response","220","893301","0.0-15.0-0.18","72721","List1B","white","woman","","","","null","","","","","","","","",""
"null","<img src=""stim_listB/shout8.gif""style=""height:400px;""></stim_listB>","","html-keyboard-response","221","895303","0.0-15.0-1.18","72721","List1B","white","woman","","","","null","","","","","","","","",""
"null","is being shouted at by","","html-keyboard-response","222","897304","0.0-15.0-2.18","72721","List1B","white","woman","","","","null","","","","","","","","",""
"7627.099999964237","","","survey-text","223","904933","0.0-15.0-3.18","72721","List1B","white","woman","","","","","{""Q0"":""jane is being shouted at by kate""}","<img src=""stim_listB/shout8.gif""style=""height:400px;""></stim_listB>","is being shouted at by","","","","","",""
"null","<div style=""font-size:60px;"">+</div>","","html-keyboard-response","224","905433","0.0-15.0-0.19","72721","List1B","white","woman","","","","null","","","","","","","","",""
"null","<img src=""stim_listB/kiss8.gif""style=""height:400px;""></stim_listB>","","html-keyboard-response","225","907436","0.0-15.0-1.19","72721","List1B","white","woman","","","","null","","","","","","","","",""
"null","is being kissed by","","html-keyboard-response","226","909438","0.0-15.0-2.19","72721","List1B","white","woman","","","","null","","","","","","","","",""
"3383.600000023842","","","survey-text","227","912823","0.0-15.0-3.19","72721","List1B","white","woman","","","","","{""Q0"":""kate is being kissed by jane""}","<img src=""stim_listB/kiss8.gif""style=""height:400px;""></stim_listB>","is being kissed by","","","","","",""
"8863.399999976158","<img src='img/portrait_matrix_list1.jpg' style='width:900px;height:500px;''></img><p>If you have memorised all the portraits and names and are ready to start, press Continue.</p><p><strong>Please note: Your memory of these faces will be tested 4 times during this experiment.</strong></p>","0","html-button-response","228","921687","0.0-16.0-0.0","72721","List1B","white","woman","","","","","","","","","","","","",""
"4651.5","<img src=""portrait/BW2.jpg""style=""height:400px;""></img>","2","html-button-response","229","927343","0.0-16.0-1.0","72721","List1B","white","woman","","true","2","","","","","","","","","",""
"null","CORRECT","","html-keyboard-response","230","928845","0.0-16.0-2.0-0.0","72721","List1B","white","woman","","","","null","","","","","","","","",""
"2177","<img src=""portrait/WM1.jpg""style=""height:400px;""></img>","6","html-button-response","231","931023","0.0-16.0-4.0","72721","List1B","white","woman","","true","6","","","","","","","","","",""
"null","CORRECT","","html-keyboard-response","232","932515","0.0-16.0-5.0-0.0","72721","List1B","white","woman","","","","null","","","","","","","","",""
"1660.0999999642372","<img src=""portrait/WW2.jpg""style=""height:400px;""></img>","3","html-button-response","233","934176","0.0-16.0-7.0","72721","List1B","white","woman","","true","3","","","","","","","","","",""
"null","CORRECT","","html-keyboard-response","234","935693","0.0-16.0-8.0-0.0","72721","List1B","white","woman","","","","null","","","","","","","","",""
"1332.5999999642372","<img src=""portrait/BM1.jpg""style=""height:400px;""></img>","4","html-button-response","235","937027","0.0-16.0-10.0","72721","List1B","white","woman","","true","4","","","","","","","","","",""
"null","CORRECT","","html-keyboard-response","236","938530","0.0-16.0-11.0-0.0","72721","List1B","white","woman","","","","null","","","","","","","","",""
"3636","<img src=""portrait/BM2.jpg""style=""height:400px;""></img>","7","html-button-response","237","942167","0.0-16.0-13.0","72721","List1B","white","woman","","true","5","","","","","","","","","",""
"1739.8999999761581","<img src=""portrait/BM2.jpg""style=""height:400px;""></img>","5","html-button-response","238","944910","0.0-16.0-15.0-0.0","72721","List1B","white","woman","","false","5","","","","","","","","","",""
"null","CORRECT","","html-keyboard-response","239","946414","0.0-16.0-15.0-1.0-0.0","72721","List1B","white","woman","","","","null","","","","","","","","",""
"2572.699999988079","<img src=""portrait/WW1.jpg""style=""height:400px;""></img>","1","html-button-response","240","948987","0.0-16.0-16.0","72721","List1B","white","woman","","true","1","","","","","","","","","",""
"null","CORRECT","","html-keyboard-response","241","950489","0.0-16.0-17.0-0.0","72721","List1B","white","woman","","","","null","","","","","","","","",""
"2051.599999964237","<img src=""portrait/BW1.jpg""style=""height:400px;""></img>","0","html-button-response","242","952541","0.0-16.0-19.0","72721","List1B","white","woman","","true","0","","","","","","","","","",""
"null","CORRECT","","html-keyboard-response","243","954044","0.0-16.0-20.0-0.0","72721","List1B","white","woman","","","","null","","","","","","","","",""
"1513.6000000238419","<img src=""portrait/WM2.jpg""style=""height:400px;""></img>","7","html-button-response","244","955559","0.0-16.0-22.0","72721","List1B","white","woman","","true","7","","","","","","","","","",""
"null","CORRECT","","html-keyboard-response","245","957061","0.0-16.0-23.0-0.0","72721","List1B","white","woman","","","","null","","","","","","","","",""
"1049.300000011921","<p>You got 7 out of 8 right first time. Press Continue.</p>","0","html-button-response","246","958111","0.0-16.0-25.0","72721","List1B","white","woman","","","","","","","","","","","","",""
"1255.9000000357628","As you did not score 100%, the memory game will repeat. Press Continue.","0","html-button-response","247","960369","0.0-16.0-26.0-0.0","72721","List1B","white","woman","","","","","","","","","","","","",""
"3990","<img src='img/portrait_matrix_list1.jpg' style='width:900px;height:500px;''></img><p>If you have memorised all the portraits and names and are ready to start, press Continue.</p><p><strong>Please note: Your memory of these faces will be tested 4 times during this experiment.</strong></p>","0","html-button-response","248","965361","0.0-16.1-0.1","72721","List1B","white","woman","","","","","","","","","","","","",""
"3764.699999988079","<img src=""portrait/BW2.jpg""style=""height:400px;""></img>","2","html-button-response","249","970127","0.0-16.1-1.1","72721","List1B","white","woman","","true","2","","","","","","","","","",""
"null","CORRECT","","html-keyboard-response","250","971630","0.0-16.1-2.1-0.1","72721","List1B","white","woman","","","","null","","","","","","","","",""
"2714.199999988079","<img src=""portrait/WM1.jpg""style=""height:400px;""></img>","6","html-button-response","251","974345","0.0-16.1-4.1","72721","List1B","white","woman","","true","6","","","","","","","","","",""
"null","CORRECT","","html-keyboard-response","252","975847","0.0-16.1-5.1-0.1","72721","List1B","white","woman","","","","null","","","","","","","","",""
"1209.4000000357628","<img src=""portrait/WW2.jpg""style=""height:400px;""></img>","3","html-button-response","253","977057","0.0-16.1-7.1","72721","List1B","white","woman","","true","3","","","","","","","","","",""
"null","CORRECT","","html-keyboard-response","254","978560","0.0-16.1-8.1-0.1","72721","List1B","white","woman","","","","null","","","","","","","","",""
"1386.199999988079","<img src=""portrait/BM1.jpg""style=""height:400px;""></img>","4","html-button-response","255","979947","0.0-16.1-10.1","72721","List1B","white","woman","","true","4","","","","","","","","","",""
"null","CORRECT","","html-keyboard-response","256","981449","0.0-16.1-11.1-0.1","72721","List1B","white","woman","","","","null","","","","","","","","",""
"1747.0999999642372","<img src=""portrait/BM2.jpg""style=""height:400px;""></img>","5","html-button-response","257","983197","0.0-16.1-13.1","72721","List1B","white","woman","","true","5","","","","","","","","","",""
"null","CORRECT","","html-keyboard-response","258","984699","0.0-16.1-14.1-0.1","72721","List1B","white","woman","","","","null","","","","","","","","",""
"1567.1000000238419","<img src=""portrait/WW1.jpg""style=""height:400px;""></img>","1","html-button-response","259","986267","0.0-16.1-16.1","72721","List1B","white","woman","","true","1","","","","","","","","","",""
"null","CORRECT","","html-keyboard-response","260","987769","0.0-16.1-17.1-0.1","72721","List1B","white","woman","","","","null","","","","","","","","",""
"1277.0999999642372","<img src=""portrait/BW1.jpg""style=""height:400px;""></img>","0","html-button-response","261","989047","0.0-16.1-19.1","72721","List1B","white","woman","","true","0","","","","","","","","","",""
"null","CORRECT","","html-keyboard-response","262","990550","0.0-16.1-20.1-0.1","72721","List1B","white","woman","","","","null","","","","","","","","",""
"3160.699999988079","<img src=""portrait/WM2.jpg""style=""height:400px;""></img>","7","html-button-response","263","993703","0.0-16.1-22.1","72721","List1B","white","woman","","true","7","","","","","","","","","",""
"null","CORRECT","","html-keyboard-response","264","995206","0.0-16.1-23.1-0.1","72721","List1B","white","woman","","","","null","","","","","","","","",""
"950.6999999880791","<p>You got 8 out of 8 right first time. Press Continue.</p>","0","html-button-response","265","996157","0.0-16.1-25.1","72721","List1B","white","woman","","","","","","","","","","","","",""
"null","<div style=""font-size:60px;"">+</div>","","html-keyboard-response","266","997660","0.0-17.0-0.0","72721","List1B","white","woman","","","","null","","","","","","","","",""
"null","<img src=""stim_listB/hug6.gif""style=""height:400px;""></stim_listB>","","html-keyboard-response","267","999662","0.0-17.0-1.0","72721","List1B","white","woman","","","","null","","","","","","","","",""
"null","is being hugged by","","html-keyboard-response","268","1001663","0.0-17.0-2.0","72721","List1B","white","woman","","","","null","","","","","","","","",""
"4679.100000023842","","","survey-text","269","1006344","0.0-17.0-3.0","72721","List1B","white","woman","","","","","{""Q0"":""mike is being hugged by dave""}","<img src=""stim_listB/hug6.gif""style=""height:400px;""></stim_listB>","is being hugged by","","","","","",""
"null","<div style=""font-size:60px;"">+</div>","","html-keyboard-response","270","1006846","0.0-17.0-0.1","72721","List1B","white","woman","","","","null","","","","","","","","",""
"null","<img src=""stim_listB/kiss6.gif""style=""height:400px;""></stim_listB>","","html-keyboard-response","271","1008847","0.0-17.0-1.1","72721","List1B","white","woman","","","","null","","","","","","","","",""
"null","is being kissed by","","html-keyboard-response","272","1010849","0.0-17.0-2.1","72721","List1B","white","woman","","","","null","","","","","","","","",""
"4763.300000011921","","","survey-text","273","1015614","0.0-17.0-3.1","72721","List1B","white","woman","","","","","{""Q0"":""mike is being kissed by dave""}","<img src=""stim_listB/kiss6.gif""style=""height:400px;""></stim_listB>","is being kissed by","","","","","",""
"null","<div style=""font-size:60px;"">+</div>","","html-keyboard-response","274","1016123","0.0-17.0-0.2","72721","List1B","white","woman","","","","null","","","","","","","","",""
"null","<img src=""stim_listB/greet4.gif""style=""height:400px;""></stim_listB>","","html-keyboard-response","275","1018126","0.0-17.0-1.2","72721","List1B","white","woman","","","","null","","","","","","","","",""
"null","is being greeted by","","html-keyboard-response","276","1020127","0.0-17.0-2.2","72721","List1B","white","woman","","","","null","","","","","","","","",""
"3722.5","","","survey-text","277","1023851","0.0-17.0-3.2","72721","List1B","white","woman","","","","","{""Q0"":""luke is being greeted by jane""}","<img src=""stim_listB/greet4.gif""style=""height:400px;""></stim_listB>","is being greeted by","","","","","",""
"null","<div style=""font-size:60px;"">+</div>","","html-keyboard-response","278","1024353","0.0-17.0-0.3","72721","List1B","white","woman","","","","null","","","","","","","","",""
"null","<img src=""stim_listB/seduce3.gif""style=""height:400px;""></stim_listB>","","html-keyboard-response","279","1026354","0.0-17.0-1.3","72721","List1B","white","woman","","","","null","","","","","","","","",""
"null","is seducing","","html-keyboard-response","280","1028355","0.0-17.0-2.3","72721","List1B","white","woman","","","","null","","","","","","","","",""
"2726.699999988079","","","survey-text","281","1031083","0.0-17.0-3.3","72721","List1B","white","woman","","","","","{""Q0"":""jane is seducing luke""}","<img src=""stim_listB/seduce3.gif""style=""height:400px;""></stim_listB>","is seducing","","","","","",""
"null","<div style=""font-size:60px;"">+</div>","","html-keyboard-response","282","1031585","0.0-17.0-0.4","72721","List1B","white","woman","","","","null","","","","","","","","",""
"null","<img src=""stim_listB/challenge3.gif""style=""height:400px;""></stim_listB>","","html-keyboard-response","283","1033587","0.0-17.0-1.4","72721","List1B","white","woman","","","","null","","","","","","","","",""
"null","is challenging","","html-keyboard-response","284","1035588","0.0-17.0-2.4","72721","List1B","white","woman","","","","null","","","","","","","","",""
"4749.099999964237","","","survey-text","285","1040338","0.0-17.0-3.4","72721","List1B","white","woman","","","","","{""Q0"":""ruth is challenging dave""}","<img src=""stim_listB/challenge3.gif""style=""height:400px;""></stim_listB>","is challenging","","","","","",""
"null","<div style=""font-size:60px;"">+</div>","","html-keyboard-response","286","1040841","0.0-17.0-0.5","72721","List1B","white","woman","","","","null","","","","","","","","",""
"null","<img src=""stim_listB/oppose1.gif""style=""height:400px;""></stim_listB>","","html-keyboard-response","287","1042842","0.0-17.0-1.5","72721","List1B","white","woman","","","","null","","","","","","","","",""
"null","is opposing","","html-keyboard-response","288","1044843","0.0-17.0-2.5","72721","List1B","white","woman","","","","null","","","","","","","","",""
"3985.899999976158","","","survey-text","289","1048831","0.0-17.0-3.5","72721","List1B","white","woman","","","","","{""Q0"":""kate is opposing mike""}","<img src=""stim_listB/oppose1.gif""style=""height:400px;""></stim_listB>","is opposing","","","","","",""
"null","<div style=""font-size:60px;"">+</div>","","html-keyboard-response","290","1049331","0.0-17.0-0.6","72721","List1B","white","woman","","","","null","","","","","","","","",""
"null","<img src=""stim_listB/copy1.gif""style=""height:400px;""></stim_listB>","","html-keyboard-response","291","1051333","0.0-17.0-1.6","72721","List1B","white","woman","","","","null","","","","","","","","",""
"null","is copying","","html-keyboard-response","292","1053334","0.0-17.0-2.6","72721","List1B","white","woman","","","","null","","","","","","","","",""
"2510.300000011921","","","survey-text","293","1055838","0.0-17.0-3.6","72721","List1B","white","woman","","","","","{""Q0"":""beth is copying mike""}","<img src=""stim_listB/copy1.gif""style=""height:400px;""></stim_listB>","is copying","","","","","",""
"null","<div style=""font-size:60px;"">+</div>","","html-keyboard-response","294","1056339","0.0-17.0-0.7","72721","List1B","white","woman","","","","null","","","","","","","","",""
"null","<img src=""stim_listB/copy4.gif""style=""height:400px;""></stim_listB>","","html-keyboard-response","295","1058340","0.0-17.0-1.7","72721","List1B","white","woman","","","","null","","","","","","","","",""
"null","is being copied by","","html-keyboard-response","296","1060341","0.0-17.0-2.7","72721","List1B","white","woman","","","","null","","","","","","","","",""
"3928","","","survey-text","297","1064271","0.0-17.0-3.7","72721","List1B","white","woman","","","","","{""Q0"":""luke is being copied by jane""}","<img src=""stim_listB/copy4.gif""style=""height:400px;""></stim_listB>","is being copied by","","","","","",""
"null","<div style=""font-size:60px;"">+</div>","","html-keyboard-response","298","1064773","0.0-17.0-0.8","72721","List1B","white","woman","","","","null","","","","","","","","",""
"null","<img src=""stim_listB/seduce5.gif""style=""height:400px;""></stim_listB>","","html-keyboard-response","299","1066776","0.0-17.0-1.8","72721","List1B","white","woman","","","","null","","","","","","","","",""
"null","is seducing","","html-keyboard-response","300","1068781","0.0-17.0-2.8","72721","List1B","white","woman","","","","null","","","","","","","","",""
"3099.099999964237","","","survey-text","301","1071882","0.0-17.0-3.8","72721","List1B","white","woman","","","","","{""Q0"":""dave is seducing fred""}","<img src=""stim_listB/seduce5.gif""style=""height:400px;""></stim_listB>","is seducing","","","","","",""
"null","<div style=""font-size:60px;"">+</div>","","html-keyboard-response","302","1072383","0.0-17.0-0.9","72721","List1B","white","woman","","","","null","","","","","","","","",""
"null","<img src=""stim_listB/challenge6.gif""style=""height:400px;""></stim_listB>","","html-keyboard-response","303","1074385","0.0-17.0-1.9","72721","List1B","white","woman","","","","null","","","","","","","","",""
"null","is being challenged by","","html-keyboard-response","304","1076386","0.0-17.0-2.9","72721","List1B","white","woman","","","","null","","","","","","","","",""
"10444.600000023842","","","survey-text","305","1086832","0.0-17.0-3.9","72721","List1B","white","woman","","","","","{""Q0"":""fred is being challenged by dave""}","<img src=""stim_listB/challenge6.gif""style=""height:400px;""></stim_listB>","is being challenged by","","","","","",""
"null","<div style=""font-size:60px;"">+</div>","","html-keyboard-response","306","1087334","0.0-17.0-0.10","72721","List1B","white","woman","","","","null","","","","","","","","",""
"null","<img src=""stim_listB/oppose6.gif""style=""height:400px;""></stim_listB>","","html-keyboard-response","307","1089335","0.0-17.0-1.10","72721","List1B","white","woman","","","","null","","","","","","","","",""
"null","is being opposed by","","html-keyboard-response","308","1091336","0.0-17.0-2.10","72721","List1B","white","woman","","","","null","","","","","","","","",""
"3348.800000011921","","","survey-text","309","1094686","0.0-17.0-3.10","72721","List1B","white","woman","","","","","{""Q0"":""fred is being opposed by luke""}","<img src=""stim_listB/oppose6.gif""style=""height:400px;""></stim_listB>","is being opposed by","","","","","",""
"null","<div style=""font-size:60px;"">+</div>","","html-keyboard-response","310","1095188","0.0-17.0-0.11","72721","List1B","white","woman","","","","null","","","","","","","","",""
"null","<img src=""stim_listB/hug7.gif""style=""height:400px;""></stim_listB>","","html-keyboard-response","311","1097189","0.0-17.0-1.11","72721","List1B","white","woman","","","","null","","","","","","","","",""
"null","is hugging","","html-keyboard-response","312","1099190","0.0-17.0-2.11","72721","List1B","white","woman","","","","null","","","","","","","","",""
"3914.5","","","survey-text","313","1103106","0.0-17.0-3.11","72721","List1B","white","woman","","","","","{""Q0"":""beth is hugging ruth""}","<img src=""stim_listB/hug7.gif""style=""height:400px;""></stim_listB>","is hugging","","","","","",""
"null","<div style=""font-size:60px;"">+</div>","","html-keyboard-response","314","1103606","0.0-17.0-0.12","72721","List1B","white","woman","","","","null","","","","","","","","",""
"null","<img src=""stim_listB/oppose5.gif""style=""height:400px;""></stim_listB>","","html-keyboard-response","315","1105608","0.0-17.0-1.12","72721","List1B","white","woman","","","","null","","","","","","","","",""
"null","is opposing","","html-keyboard-response","316","1107624","0.0-17.0-2.12","72721","List1B","white","woman","","","","null","","","","","","","","",""
"2401.800000011921","","","survey-text","317","1110027","0.0-17.0-3.12","72721","List1B","white","woman","","","","","{""Q0"":""dave is opposing mike""}","<img src=""stim_listB/oppose5.gif""style=""height:400px;""></stim_listB>","is opposing","","","","","",""
"null","<div style=""font-size:60px;"">+</div>","","html-keyboard-response","318","1110528","0.0-17.0-0.13","72721","List1B","white","woman","","","","null","","","","","","","","",""
"null","<img src=""stim_listB/greet8.gif""style=""height:400px;""></stim_listB>","","html-keyboard-response","319","1112530","0.0-17.0-1.13","72721","List1B","white","woman","","","","null","","","","","","","","",""
"null","is being greeted by","","html-keyboard-response","320","1114524","0.0-17.0-2.13","72721","List1B","white","woman","","","","null","","","","","","","","",""
"5674.699999988079","","","survey-text","321","1120200","0.0-17.0-3.13","72721","List1B","white","woman","","","","","{""Q0"":""jane is being greeted by beth""}","<img src=""stim_listB/greet8.gif""style=""height:400px;""></stim_listB>","is being greeted by","","","","","",""
"null","<div style=""font-size:60px;"">+</div>","","html-keyboard-response","322","1120702","0.0-17.0-0.14","72721","List1B","white","woman","","","","null","","","","","","","","",""
"null","<img src=""stim_listB/greet3.gif""style=""height:400px;""></stim_listB>","","html-keyboard-response","323","1122704","0.0-17.0-1.14","72721","List1B","white","woman","","","","null","","","","","","","","",""
"null","is greeting","","html-keyboard-response","324","1124705","0.0-17.0-2.14","72721","List1B","white","woman","","","","null","","","","","","","","",""
"5711.5","","","survey-text","325","1130418","0.0-17.0-3.14","72721","List1B","white","woman","","","","","{""Q0"":""ruth is greeting dave""}","<img src=""stim_listB/greet3.gif""style=""height:400px;""></stim_listB>","is greeting","","","","","",""
"null","<div style=""font-size:60px;"">+</div>","","html-keyboard-response","326","1130919","0.0-17.0-0.15","72721","List1B","white","woman","","","","null","","","","","","","","",""
"null","<img src=""stim_listB/oppose4.gif""style=""height:400px;""></stim_listB>","","html-keyboard-response","327","1132920","0.0-17.0-1.15","72721","List1B","white","woman","","","","null","","","","","","","","",""
"null","is being opposed by","","html-keyboard-response","328","1134922","0.0-17.0-2.15","72721","List1B","white","woman","","","","null","","","","","","","","",""
"3573.600000023842","","","survey-text","329","1138497","0.0-17.0-3.15","72721","List1B","white","woman","","","","","{""Q0"":""ruth is being opposed by luke""}","<img src=""stim_listB/oppose4.gif""style=""height:400px;""></stim_listB>","is being opposed by","","","","","",""
"null","<div style=""font-size:60px;"">+</div>","","html-keyboard-response","330","1138997","0.0-17.0-0.16","72721","List1B","white","woman","","","","null","","","","","","","","",""
"null","<img src=""stim_listB/oppose3.gif""style=""height:400px;""></stim_listB>","","html-keyboard-response","331","1140999","0.0-17.0-1.16","72721","List1B","white","woman","","","","null","","","","","","","","",""
"null","is opposing","","html-keyboard-response","332","1143000","0.0-17.0-2.16","72721","List1B","white","woman","","","","null","","","","","","","","",""
"2419.100000023842","","","survey-text","333","1145421","0.0-17.0-3.16","72721","List1B","white","woman","","","","","{""Q0"":""jane is opposing dave""}","<img src=""stim_listB/oppose3.gif""style=""height:400px;""></stim_listB>","is opposing","","","","","",""
"null","<div style=""font-size:60px;"">+</div>","","html-keyboard-response","334","1145923","0.0-17.0-0.17","72721","List1B","white","woman","","","","null","","","","","","","","",""
"null","<img src=""stim_listB/challenge7.gif""style=""height:400px;""></stim_listB>","","html-keyboard-response","335","1147924","0.0-17.0-1.17","72721","List1B","white","woman","","","","null","","","","","","","","",""
"null","is challenging","","html-keyboard-response","336","1149925","0.0-17.0-2.17","72721","List1B","white","woman","","","","null","","","","","","","","",""
"5537.799999952316","","","survey-text","337","1155465","0.0-17.0-3.17","72721","List1B","white","woman","","","","","{""Q0"":""kate is challenging ruth""}","<img src=""stim_listB/challenge7.gif""style=""height:400px;""></stim_listB>","is challenging","","","","","",""
"null","<div style=""font-size:60px;"">+</div>","","html-keyboard-response","338","1155965","0.0-17.0-0.18","72721","List1B","white","woman","","","","null","","","","","","","","",""
"null","<img src=""stim_listB/challenge1.gif""style=""height:400px;""></stim_listB>","","html-keyboard-response","339","1157967","0.0-17.0-1.18","72721","List1B","white","woman","","","","null","","","","","","","","",""
"null","is challenging","","html-keyboard-response","340","1159968","0.0-17.0-2.18","72721","List1B","white","woman","","","","null","","","","","","","","",""
"8557.599999964237","","","survey-text","341","1168527","0.0-17.0-3.18","72721","List1B","white","woman","","","","","{""Q0"":""beth is challenging mike""}","<img src=""stim_listB/challenge1.gif""style=""height:400px;""></stim_listB>","is challenging","","","","","",""
"null","<div style=""font-size:60px;"">+</div>","","html-keyboard-response","342","1169028","0.0-17.0-0.19","72721","List1B","white","woman","","","","null","","","","","","","","",""
"null","<img src=""stim_listB/seduce7.gif""style=""height:400px;""></stim_listB>","","html-keyboard-response","343","1171030","0.0-17.0-1.19","72721","List1B","white","woman","","","","null","","","","","","","","",""
"null","is seducing","","html-keyboard-response","344","1173031","0.0-17.0-2.19","72721","List1B","white","woman","","","","null","","","","","","","","",""
"3234.7999999523163","","","survey-text","345","1176259","0.0-17.0-3.19","72721","List1B","white","woman","","","","","{""Q0"":""jane is seducing beth""}","<img src=""stim_listB/seduce7.gif""style=""height:400px;""></stim_listB>","is seducing","","","","","",""
"7249.299999952316","<img src='img/portrait_matrix_list1.jpg' style='width:900px;height:500px;''></img><p>If you have memorised all the portraits and names and are ready to start, press Continue.</p><p><strong>Please note: Your memory of these faces will be tested 4 times during this experiment.</strong></p>","0","html-button-response","346","1183509","0.0-18.0-0.0","72721","List1B","white","woman","","","","","","","","","","","","",""
"3013.899999976158","<img src=""portrait/BM1.jpg""style=""height:400px;""></img>","4","html-button-response","347","1187525","0.0-18.0-1.0","72721","List1B","white","woman","","true","4","","","","","","","","","",""
"null","CORRECT","","html-keyboard-response","348","1189028","0.0-18.0-2.0-0.0","72721","List1B","white","woman","","","","null","","","","","","","","",""
"1644.699999988079","<img src=""portrait/BW1.jpg""style=""height:400px;""></img>","0","html-button-response","349","1190674","0.0-18.0-4.0","72721","List1B","white","woman","","true","0","","","","","","","","","",""
"null","CORRECT","","html-keyboard-response","350","1192177","0.0-18.0-5.0-0.0","72721","List1B","white","woman","","","","null","","","","","","","","",""
"1861.199999988079","<img src=""portrait/BM2.jpg""style=""height:400px;""></img>","5","html-button-response","351","1194039","0.0-18.0-7.0","72721","List1B","white","woman","","true","5","","","","","","","","","",""
"null","CORRECT","","html-keyboard-response","352","1195540","0.0-18.0-8.0-0.0","72721","List1B","white","woman","","","","null","","","","","","","","",""
"1645.8999999761581","<img src=""portrait/BW2.jpg""style=""height:400px;""></img>","2","html-button-response","353","1197187","0.0-18.0-10.0","72721","List1B","white","woman","","true","2","","","","","","","","","",""
"null","CORRECT","","html-keyboard-response","354","1198690","0.0-18.0-11.0-0.0","72721","List1B","white","woman","","","","null","","","","","","","","",""
"2926.600000023842","<img src=""portrait/WW2.jpg""style=""height:400px;""></img>","3","html-button-response","355","1201617","0.0-18.0-13.0","72721","List1B","white","woman","","true","3","","","","","","","","","",""
"null","CORRECT","","html-keyboard-response","356","1203119","0.0-18.0-14.0-0.0","72721","List1B","white","woman","","","","null","","","","","","","","",""
"2449.300000011921","<img src=""portrait/WW1.jpg""style=""height:400px;""></img>","1","html-button-response","357","1205569","0.0-18.0-16.0","72721","List1B","white","woman","","true","1","","","","","","","","","",""
"null","CORRECT","","html-keyboard-response","358","1207071","0.0-18.0-17.0-0.0","72721","List1B","white","woman","","","","null","","","","","","","","",""
"2513.300000011921","<img src=""portrait/WM1.jpg""style=""height:400px;""></img>","6","html-button-response","359","1209585","0.0-18.0-19.0","72721","List1B","white","woman","","true","6","","","","","","","","","",""
"null","CORRECT","","html-keyboard-response","360","1211087","0.0-18.0-20.0-0.0","72721","List1B","white","woman","","","","null","","","","","","","","",""
"1201.4000000357628","<img src=""portrait/WM2.jpg""style=""height:400px;""></img>","7","html-button-response","361","1212289","0.0-18.0-22.0","72721","List1B","white","woman","","true","7","","","","","","","","","",""
"null","CORRECT","","html-keyboard-response","362","1213792","0.0-18.0-23.0-0.0","72721","List1B","white","woman","","","","null","","","","","","","","",""
"1004.6000000238419","<p>You got 8 out of 8 right first time. Press Continue.</p>","0","html-button-response","363","1214797","0.0-18.0-25.0","72721","List1B","white","woman","","","","","","","","","","","","",""
"null","<div style=""font-size:60px;"">+</div>","","html-keyboard-response","364","1216300","0.0-19.0-0.0","72721","List1B","white","woman","","","","null","","","","","","","","",""
"null","<img src=""stim_listB/oppose2.gif""style=""height:400px;""></stim_listB>","","html-keyboard-response","365","1218302","0.0-19.0-1.0","72721","List1B","white","woman","","","","null","","","","","","","","",""
"null","is being opposed by","","html-keyboard-response","366","1220303","0.0-19.0-2.0","72721","List1B","white","woman","","","","null","","","","","","","","",""
"4905.599999964237","","","survey-text","367","1225211","0.0-19.0-3.0","72721","List1B","white","woman","","","","","{""Q0"":""fred is being opposed by beth""}","<img src=""stim_listB/oppose2.gif""style=""height:400px;""></stim_listB>","is being opposed by","","","","","",""
"null","<div style=""font-size:60px;"">+</div>","","html-keyboard-response","368","1225712","0.0-19.0-0.1","72721","List1B","white","woman","","","","null","","","","","","","","",""
"null","<img src=""stim_listB/shout1.gif""style=""height:400px;""></stim_listB>","","html-keyboard-response","369","1227713","0.0-19.0-1.1","72721","List1B","white","woman","","","","null","","","","","","","","",""
"null","is shouting at","","html-keyboard-response","370","1229714","0.0-19.0-2.1","72721","List1B","white","woman","","","","null","","","","","","","","",""
"2750.400000035763","","","survey-text","371","1232466","0.0-19.0-3.1","72721","List1B","white","woman","","","","","{""Q0"":""beth is shouting at fred""}","<img src=""stim_listB/shout1.gif""style=""height:400px;""></stim_listB>","is shouting at","","","","","",""
"null","<div style=""font-size:60px;"">+</div>","","html-keyboard-response","372","1232967","0.0-19.0-0.2","72721","List1B","white","woman","","","","null","","","","","","","","",""
"null","<img src=""stim_listB/seduce6.gif""style=""height:400px;""></stim_listB>","","html-keyboard-response","373","1234961","0.0-19.0-1.2","72721","List1B","white","woman","","","","null","","","","","","","","",""
"null","is being seduced by","","html-keyboard-response","374","1236962","0.0-19.0-2.2","72721","List1B","white","woman","","","","null","","","","","","","","",""
"4931.899999976158","","","survey-text","375","1241896","0.0-19.0-3.2","72721","List1B","white","woman","","","","","{""Q0"":""luke is being seduced by mike""}","<img src=""stim_listB/seduce6.gif""style=""height:400px;""></stim_listB>","is being seduced by","","","","","",""
"null","<div style=""font-size:60px;"">+</div>","","html-keyboard-response","376","1242396","0.0-19.0-0.3","72721","List1B","white","woman","","","","null","","","","","","","","",""
"null","<img src=""stim_listB/hug3.gif""style=""height:400px;""></stim_listB>","","html-keyboard-response","377","1244398","0.0-19.0-1.3","72721","List1B","white","woman","","","","null","","","","","","","","",""
"null","is hugging","","html-keyboard-response","378","1246399","0.0-19.0-2.3","72721","List1B","white","woman","","","","null","","","","","","","","",""
"3246.099999964237","","","survey-text","379","1249647","0.0-19.0-3.3","72721","List1B","white","woman","","","","","{""Q0"":""luke is hugging ruth""}","<img src=""stim_listB/hug3.gif""style=""height:400px;""></stim_listB>","is hugging","","","","","",""
"null","<div style=""font-size:60px;"">+</div>","","html-keyboard-response","380","1250147","0.0-19.0-0.4","72721","List1B","white","woman","","","","null","","","","","","","","",""
"null","<img src=""stim_listB/kiss3.gif""style=""height:400px;""></stim_listB>","","html-keyboard-response","381","1252148","0.0-19.0-1.4","72721","List1B","white","woman","","","","null","","","","","","","","",""
"null","is kissing","","html-keyboard-response","382","1254149","0.0-19.0-2.4","72721","List1B","white","woman","","","","null","","","","","","","","",""
"2223.7000000476837","","","survey-text","383","1256374","0.0-19.0-3.4","72721","List1B","white","woman","","","","","{""Q0"":""luke is kissing ruth""}","<img src=""stim_listB/kiss3.gif""style=""height:400px;""></stim_listB>","is kissing","","","","","",""
"null","<div style=""font-size:60px;"">+</div>","","html-keyboard-response","384","1256877","0.0-19.0-0.5","72721","List1B","white","woman","","","","null","","","","","","","","",""
"null","<img src=""stim_listB/hug8.gif""style=""height:400px;""></stim_listB>","","html-keyboard-response","385","1258879","0.0-19.0-1.5","72721","List1B","white","woman","","","","null","","","","","","","","",""
"null","is being hugged by","","html-keyboard-response","386","1260880","0.0-19.0-2.5","72721","List1B","white","woman","","","","null","","","","","","","","",""
"3405.699999988079","","","survey-text","387","1264288","0.0-19.0-3.5","72721","List1B","white","woman","","","","","{""Q0"":""jane is being hugged by kate""}","<img src=""stim_listB/hug8.gif""style=""height:400px;""></stim_listB>","is being hugged by","","","","","",""
"null","<div style=""font-size:60px;"">+</div>","","html-keyboard-response","388","1264789","0.0-19.0-0.6","72721","List1B","white","woman","","","","null","","","","","","","","",""
"null","<img src=""stim_listB/kiss2.gif""style=""height:400px;""></stim_listB>","","html-keyboard-response","389","1266790","0.0-19.0-1.6","72721","List1B","white","woman","","","","null","","","","","","","","",""
"null","is being kissed by","","html-keyboard-response","390","1268791","0.0-19.0-2.6","72721","List1B","white","woman","","","","null","","","","","","","","",""
"3360.5","","","survey-text","391","1272153","0.0-19.0-3.6","72721","List1B","white","woman","","","","","{""Q0"":""mike is being kissed by kate""}","<img src=""stim_listB/kiss2.gif""style=""height:400px;""></stim_listB>","is being kissed by","","","","","",""
"null","<div style=""font-size:60px;"">+</div>","","html-keyboard-response","392","1272665","0.0-19.0-0.7","72721","List1B","white","woman","","","","null","","","","","","","","",""
"null","<img src=""stim_listB/look5.gif""style=""height:400px;""></stim_listB>","","html-keyboard-response","393","1274666","0.0-19.0-1.7","72721","List1B","white","woman","","","","null","","","","","","","","",""
"null","is looking at","","html-keyboard-response","394","1276667","0.0-19.0-2.7","72721","List1B","white","woman","","","","null","","","","","","","","",""
"2977.900000035763","","","survey-text","395","1279647","0.0-19.0-3.7","72721","List1B","white","woman","","","","","{""Q0"":""luke is looking at fred""}","<img src=""stim_listB/look5.gif""style=""height:400px;""></stim_listB>","is looking at","","","","","",""
"null","<div style=""font-size:60px;"">+</div>","","html-keyboard-response","396","1280147","0.0-19.0-0.8","72721","List1B","white","woman","","","","null","","","","","","","","",""
"null","<img src=""stim_listB/challenge2.gif""style=""height:400px;""></stim_listB>","","html-keyboard-response","397","1282149","0.0-19.0-1.8","72721","List1B","white","woman","","","","null","","","","","","","","",""
"null","is being challenged by","","html-keyboard-response","398","1284151","0.0-19.0-2.8","72721","List1B","white","woman","","","","null","","","","","","","","",""
"5444.199999988079","","","survey-text","399","1289596","0.0-19.0-3.8","72721","List1B","white","woman","","","","","{""Q0"":""fred is being challenged by kate""}","<img src=""stim_listB/challenge2.gif""style=""height:400px;""></stim_listB>","is being challenged by","","","","","",""
"null","<div style=""font-size:60px;"">+</div>","","html-keyboard-response","400","1290097","0.0-19.0-0.9","72721","List1B","white","woman","","","","null","","","","","","","","",""
"null","<img src=""stim_listB/hug1.gif""style=""height:400px;""></stim_listB>","","html-keyboard-response","401","1292099","0.0-19.0-1.9","72721","List1B","white","woman","","","","null","","","","","","","","",""
"null","is hugging","","html-keyboard-response","402","1294101","0.0-19.0-2.9","72721","List1B","white","woman","","","","null","","","","","","","","",""
"3178","","","survey-text","403","1297273","0.0-19.0-3.9","72721","List1B","white","woman","","","","","{""Q0"":""fred is hugging beth""}","<img src=""stim_listB/hug1.gif""style=""height:400px;""></stim_listB>","is hugging","","","","","",""
"null","<div style=""font-size:60px;"">+</div>","","html-keyboard-response","404","1297773","0.0-19.0-0.10","72721","List1B","white","woman","","","","null","","","","","","","","",""
"null","<img src=""stim_listB/touch8.gif""style=""height:400px;""></stim_listB>","","html-keyboard-response","405","1299775","0.0-19.0-1.10","72721","List1B","white","woman","","","","null","","","","","","","","",""
"null","is being touched by","","html-keyboard-response","406","1301777","0.0-19.0-2.10","72721","List1B","white","woman","","","","null","","","","","","","","",""
"2982.5","","","survey-text","407","1304761","0.0-19.0-3.10","72721","List1B","white","woman","","","","","{""Q0"":""beth is being touched by ruth""}","<img src=""stim_listB/touch8.gif""style=""height:400px;""></stim_listB>","is being touched by","","","","","",""
"null","<div style=""font-size:60px;"">+</div>","","html-keyboard-response","408","1305261","0.0-19.0-0.11","72721","List1B","white","woman","","","","null","","","","","","","","",""
"null","<img src=""stim_listB/challenge4.gif""style=""height:400px;""></stim_listB>","","html-keyboard-response","409","1307262","0.0-19.0-1.11","72721","List1B","white","woman","","","","null","","","","","","","","",""
"null","is being challenged by","","html-keyboard-response","410","1309264","0.0-19.0-2.11","72721","List1B","white","woman","","","","null","","","","","","","","",""
"8857.699999988079","","","survey-text","411","1318123","0.0-19.0-3.11","72721","List1B","white","woman","","","","","{""Q0"":""luke is being challenged by jane""}","<img src=""stim_listB/challenge4.gif""style=""height:400px;""></stim_listB>","is being challenged by","","","","","",""
"null","<div style=""font-size:60px;"">+</div>","","html-keyboard-response","412","1318624","0.0-19.0-0.12","72721","List1B","white","woman","","","","null","","","","","","","","",""
"null","<img src=""stim_listB/shout2.gif""style=""height:400px;""></stim_listB>","","html-keyboard-response","413","1320625","0.0-19.0-1.12","72721","List1B","white","woman","","","","null","","","","","","","","",""
"null","is being shouted at by","","html-keyboard-response","414","1322626","0.0-19.0-2.12","72721","List1B","white","woman","","","","null","","","","","","","","",""
"11355.300000011921","","","survey-text","415","1333983","0.0-19.0-3.12","72721","List1B","white","woman","","","","","{""Q0"":""mike is being shouted at by kate""}","<img src=""stim_listB/shout2.gif""style=""height:400px;""></stim_listB>","is being shouted at by","","","","","",""
"null","<div style=""font-size:60px;"">+</div>","","html-keyboard-response","416","1334484","0.0-19.0-0.13","72721","List1B","white","woman","","","","null","","","","","","","","",""
"null","<img src=""stim_listB/look7.gif""style=""height:400px;""></stim_listB>","","html-keyboard-response","417","1336486","0.0-19.0-1.13","72721","List1B","white","woman","","","","null","","","","","","","","",""
"null","is looking at","","html-keyboard-response","418","1338488","0.0-19.0-2.13","72721","List1B","white","woman","","","","null","","","","","","","","",""
"2484","","","survey-text","419","1340974","0.0-19.0-3.13","72721","List1B","white","woman","","","","","{""Q0"":""ruth is looking at beth""}","<img src=""stim_listB/look7.gif""style=""height:400px;""></stim_listB>","is looking at","","","","","",""
"null","<div style=""font-size:60px;"">+</div>","","html-keyboard-response","420","1341476","0.0-19.0-0.14","72721","List1B","white","woman","","","","null","","","","","","","","",""
"null","<img src=""stim_listB/touch4.gif""style=""height:400px;""></stim_listB>","","html-keyboard-response","421","1343477","0.0-19.0-1.14","72721","List1B","white","woman","","","","null","","","","","","","","",""
"null","is being touched by","","html-keyboard-response","422","1345479","0.0-19.0-2.14","72721","List1B","white","woman","","","","null","","","","","","","","",""
"3916","","","survey-text","423","1349396","0.0-19.0-3.14","72721","List1B","white","woman","","","","","{""Q0"":""luke is being touched by ruth""}","<img src=""stim_listB/touch4.gif""style=""height:400px;""></stim_listB>","is being touched by","","","","","",""
"null","<div style=""font-size:60px;"">+</div>","","html-keyboard-response","424","1349897","0.0-19.0-0.15","72721","List1B","white","woman","","","","null","","","","","","","","",""
"null","<img src=""stim_listB/hug2.gif""style=""height:400px;""></stim_listB>","","html-keyboard-response","425","1351897","0.0-19.0-1.15","72721","List1B","white","woman","","","","null","","","","","","","","",""
"null","is being hugged by","","html-keyboard-response","426","1353899","0.0-19.0-2.15","72721","List1B","white","woman","","","","null","","","","","","","","",""
"3346","","","survey-text","427","1357238","0.0-19.0-3.15","72721","List1B","white","woman","","","","","{""Q0"":""mike is being hugged by kate""}","<img src=""stim_listB/hug2.gif""style=""height:400px;""></stim_listB>","is being hugged by","","","","","",""
"null","<div style=""font-size:60px;"">+</div>","","html-keyboard-response","428","1357740","0.0-19.0-0.16","72721","List1B","white","woman","","","","null","","","","","","","","",""
"null","<img src=""stim_listB/kiss1.gif""style=""height:400px;""></stim_listB>","","html-keyboard-response","429","1359742","0.0-19.0-1.16","72721","List1B","white","woman","","","","null","","","","","","","","",""
"null","is kissing","","html-keyboard-response","430","1361743","0.0-19.0-2.16","72721","List1B","white","woman","","","","null","","","","","","","","",""
"2088.300000011921","","","survey-text","431","1363833","0.0-19.0-3.16","72721","List1B","white","woman","","","","","{""Q0"":""fred is kissing beth""}","<img src=""stim_listB/kiss1.gif""style=""height:400px;""></stim_listB>","is kissing","","","","","",""
"null","<div style=""font-size:60px;"">+</div>","","html-keyboard-response","432","1364349","0.0-19.0-0.17","72721","List1B","white","woman","","","","null","","","","","","","","",""
"null","<img src=""stim_listB/greet2.gif""style=""height:400px;""></stim_listB>","","html-keyboard-response","433","1366351","0.0-19.0-1.17","72721","List1B","white","woman","","","","null","","","","","","","","",""
"null","is being greeted by","","html-keyboard-response","434","1368352","0.0-19.0-2.17","72721","List1B","white","woman","","","","null","","","","","","","","",""
"5088.600000023842","","","survey-text","435","1373443","0.0-19.0-3.17","72721","List1B","white","woman","","","","","{""Q0"":""fred is being greeted by kate""}","<img src=""stim_listB/greet2.gif""style=""height:400px;""></stim_listB>","is being greeted by","","","","","",""
"null","<div style=""font-size:60px;"">+</div>","","html-keyboard-response","436","1373945","0.0-19.0-0.18","72721","List1B","white","woman","","","","null","","","","","","","","",""
"null","<img src=""stim_listB/greet7.gif""style=""height:400px;""></stim_listB>","","html-keyboard-response","437","1375947","0.0-19.0-1.18","72721","List1B","white","woman","","","","null","","","","","","","","",""
"null","is greeting","","html-keyboard-response","438","1377948","0.0-19.0-2.18","72721","List1B","white","woman","","","","null","","","","","","","","",""
"5080.899999976158","","","survey-text","439","1383031","0.0-19.0-3.18","72721","List1B","white","woman","","","","","{""Q0"":""ruth is greeting kate""}","<img src=""stim_listB/greet7.gif""style=""height:400px;""></stim_listB>","is greeting","","","","","",""
"null","<div style=""font-size:60px;"">+</div>","","html-keyboard-response","440","1383531","0.0-19.0-0.19","72721","List1B","white","woman","","","","null","","","","","","","","",""
"null","<img src=""stim_listB/shout7.gif""style=""height:400px;""></stim_listB>","","html-keyboard-response","441","1385534","0.0-19.0-1.19","72721","List1B","white","woman","","","","null","","","","","","","","",""
"null","is shouting at","","html-keyboard-response","442","1387535","0.0-19.0-2.19","72721","List1B","white","woman","","","","null","","","","","","","","",""
"4312.799999952316","","","survey-text","443","1391849","0.0-19.0-3.19","72721","List1B","white","woman","","","","","{""Q0"":""ruth is shouting at beth""}","<img src=""stim_listB/shout7.gif""style=""height:400px;""></stim_listB>","is shouting at","","","","","",""
"15147.100000023842","<p>Thank you for completing that task.</p><p>The final part of this session is a questionnaire that will take about 4 minutes.</p><p>Press Continue.</p>","0","html-button-response","444","1406997","0.0-20.0","72721","List1B","white","woman","","","","","","","","","","","","",""
"27956.5","","","survey-text","445","1435952","0.0-21.0","72721","List1B","white","woman","","","","","{""Q0"":""33"",""Q1"":""English"",""Q2"":""English"",""Q3"":""United States of America"",""Q4"":""American"",""Q5"":""Caucasian "",""Q6"":""Female""}","","","demographics","","","","",""
"1874.4000000357628","<p>Have you lived in the USA for the last 5 years or more?</p>","0","html-button-response","446","1437828","0.0-22.0","72721","List1B","white","woman","","","","","","","","fiveyears","","","","",""
"2161.5","<p>Move the slider to show the extent to which you agree with the following statements.</p>","0","html-button-response","447","1440992","0.0-23.0","72721","List1B","white","woman","","","","","","","","","","","","",""
"5396.199999988079","","","html-slider-response","448","1447390","0.0-24.0-0.0-0.0","72721","List1B","white","woman","","","","","","","","survey_gender","24","","","My friends understand me.","filler"
"9623.100000023842","","","html-slider-response","449","1457014","0.0-24.0-0.0-0.1","72721","List1B","white","woman","","","","","","","","survey_gender","67","","","Family is not more important to me than friendship.","filler"
"5038.899999976158","","","html-slider-response","450","1462054","0.0-24.0-0.0-0.2","72721","List1B","white","woman","","","","","","","","survey_gender","70","","","It is not always easy for people to know what I am thinking.","filler"
"3717","","","html-slider-response","451","1465771","0.0-24.0-0.0-0.3","72721","List1B","white","woman","","","","","","","","survey_gender","54","","","I often think about my actions.","filler"
"2270.900000035763","","","html-slider-response","452","1468044","0.0-24.0-0.0-0.4","72721","List1B","white","woman","","","","","","","","survey_gender","36","","","I have a lot in common with my friends.","filler"
"6827.399999976158","","","html-slider-response","453","1474872","0.0-24.0-0.0-0.5","72721","List1B","white","woman","","","","","","","","survey_gender","70","","","Being around my friends gives me a good feeling.","filler"
"3578","","","html-slider-response","454","1478443","0.0-24.0-0.0-0.6","72721","List1B","white","woman","","","","","","","","survey_gender","35","","","I have a lot in common with the average person of my gender.","average"
"5763.599999964237","","","html-slider-response","455","1484208","0.0-24.0-0.0-0.7","72721","List1B","white","woman","","","","","","","","survey_gender","54","","","Being my gender is an important part of how I see myself.","important"
"5420.599999964237","","","html-slider-response","456","1489630","0.0-24.0-0.0-0.8","72721","List1B","white","woman","","","","","","","","survey_gender","49","","","I am glad to have the friends that I have.","filler"
"5343.100000023842","","","html-slider-response","457","1494974","0.0-24.0-0.0-0.9","72721","List1B","white","woman","","","","","","","","survey_gender","44","","","I am similar to the average person of my gender.","similar"
"5302.699999988079","","","html-slider-response","458","1500278","0.0-24.0-0.0-0.10","72721","List1B","white","woman","","","","","","","","survey_gender","43","","","People of my gender are very similar to each other.","verysimilar"
"2326.899999976158","","","html-slider-response","459","1502606","0.0-24.0-0.0-0.11","72721","List1B","white","woman","","","","","","","","survey_gender","62","","","I feel committed to my gender.","committed"
"3397.399999976158","","","html-slider-response","460","1506004","0.0-24.0-0.0-0.12","72721","List1B","white","woman","","","","","","","","survey_gender","40","","","The fact that I am my gender is an important part of my identity.","identity"
"4023.5","","","html-slider-response","461","1510028","0.0-24.0-0.0-0.13","72721","List1B","white","woman","","","","","","","","survey_gender","42","","","I feel solidarity with my friends.","filler"
"2756.5","","","html-slider-response","462","1512786","0.0-24.0-0.0-0.14","72721","List1B","white","woman","","","","","","","","survey_gender","47","","","Being my gender gives me a good feeling.","feeling"
"7037.299999952316","","","html-slider-response","463","1519824","0.0-24.0-0.0-0.15","72721","List1B","white","woman","","","","","","","","survey_gender","65","","","My friends have a lot in common with each other.","filler"
"3499.399999976158","","","html-slider-response","464","1523324","0.0-24.0-0.0-0.16","72721","List1B","white","woman","","","","","","","","survey_gender","44","","","People of my gender have a lot in common with each other.","common"
"3435","","","html-slider-response","465","1526760","0.0-24.0-0.0-0.17","72721","List1B","white","woman","","","","","","","","survey_gender","56","","","I often think about the fact that I am my gender.","often"
"3350.800000011921","","","html-slider-response","466","1530112","0.0-24.0-0.0-0.18","72721","List1B","white","woman","","","","","","","","survey_gender","45","","","I feel a bond with my gender.","bond"
"3374","","","html-slider-response","467","1533487","0.0-24.0-0.0-0.19","72721","List1B","white","woman","","","","","","","","survey_gender","45","","","Most of the friends in my life are very similar to me.","filler"
"3247.900000035763","","","html-slider-response","468","1536728","0.0-24.0-0.0-0.20","72721","List1B","white","woman","","","","","","","","survey_gender","42","","","It is pleasant to be my gender.","pleasant"
"2577.399999976158","","","html-slider-response","469","1539306","0.0-24.0-0.0-0.21","72721","List1B","white","woman","","","","","","","","survey_gender","62","","","I am glad to be my gender.","glad"
"2266.300000011921","","","html-slider-response","470","1541574","0.0-24.0-0.0-0.22","72721","List1B","white","woman","","","","","","","","survey_gender","58","","","I think that my gender has a lot to be proud of.","proud"
"2317.699999988079","","","html-slider-response","471","1543892","0.0-24.0-0.0-0.23","72721","List1B","white","woman","","","","","","","","survey_gender","36","","","I feel a bond with my friends.","filler"
"3423","","","html-slider-response","472","1547316","0.0-24.0-0.0-0.24","72721","List1B","white","woman","","","","","","","","survey_gender","100","","","I would say I am an animal person.","filler"
"2747.5","","","html-slider-response","473","1550064","0.0-24.0-0.0-0.25","72721","List1B","white","woman","","","","","","","","survey_gender","83","","","I consider myself a highly empathetic person.","filler"
"2695.199999988079","","","html-slider-response","474","1552760","0.0-24.0-0.0-0.26","72721","List1B","white","woman","","","","","","","","survey_gender","0","","","Routine is not important to me.","filler"
"5803.5","","","html-slider-response","475","1558564","0.0-24.0-0.0-0.27","72721","List1B","white","woman","","","","","","","","survey_gender","42","","","I feel solidarity with my gender.","solidarity"
"4318.900000035763","","","html-slider-response","476","1562884","0.0-24.0-1.0-0.0","72721","List1B","white","woman","","","","","","","","survey_race","51","","","I often think about the fact that I am my race.","often"
