"rt","stimulus","button_pressed","trial_type","trial_index","time_elapsed","internal_node_id","subject","list","ppt_race","ppt_gender","url","first_guess","correct","key_press","responses","image_type","phrase_type","test_part","response","stimulus1","stimulus2","question_type","survey_item"
"133570.60000002384","Welcome to the experiment. Press Continue to begin.","0","html-button-response","0","133576","0.0-0.0","72832","List1A","white","man","","","","","","","","","","","","",""
"6010.299999982119","","","external-html","1","143737","0.0-1.0","72832","List1A","white","man","consent.html","","","","","","","","","","","",""
"1778","<p>On the next page, you will see portraits of 8 people and their names.</p><p>Your first task is to take a few minutes to memorise the names of these people.</p><p>You will have to recall their names during the rest of the experiment, so it is</p><p>essential that you try to memorise these people and their names as best as you can.</p><br><p><strong>You will then be tested on your memory of these names and portraits.</strong></p><br><p>The experiment will start after you have completed this memory test.</p><br><p>Ready?</p>","0","html-button-response","2","145519","0.0-2.0","72832","List1A","white","man","","","","","","","","","","","","",""
"32086.600000023842","<img src='img/portrait_matrix_list1.jpg' style='width:900px;height:500px;''></img><p>If you have memorised all the portraits and names and are ready to start, press Continue.</p><p><strong>Please note: Your memory of these faces will be tested 4 times during this experiment.</strong></p>","0","html-button-response","3","178611","0.0-3.0-0.0","72832","List1A","white","man","","","","","","","","","","","","",""
"5795.5999999940395","<img src=""portrait/WM1.jpg""style=""height:400px;""></img>","6","html-button-response","4","185419","0.0-3.0-1.0","72832","List1A","white","man","","true","6","","","","","","","","","",""
"null","CORRECT","","html-keyboard-response","5","186944","0.0-3.0-2.0-0.0","72832","List1A","white","man","","","","null","","","","","","","","",""
"5466.0999999940395","<img src=""portrait/WW2.jpg""style=""height:400px;""></img>","3","html-button-response","6","192416","0.0-3.0-4.0","72832","List1A","white","man","","true","3","","","","","","","","","",""
"null","CORRECT","","html-keyboard-response","7","193940","0.0-3.0-5.0-0.0","72832","List1A","white","man","","","","null","","","","","","","","",""
"6647.300000011921","<img src=""portrait/WW1.jpg""style=""height:400px;""></img>","1","html-button-response","8","200592","0.0-3.0-7.0","72832","List1A","white","man","","true","1","","","","","","","","","",""
"null","CORRECT","","html-keyboard-response","9","202103","0.0-3.0-8.0-0.0","72832","List1A","white","man","","","","null","","","","","","","","",""
"4717.4000000059605","<img src=""portrait/BW1.jpg""style=""height:400px;""></img>","0","html-button-response","10","206824","0.0-3.0-10.0","72832","List1A","white","man","","true","0","","","","","","","","","",""
"null","CORRECT","","html-keyboard-response","11","208341","0.0-3.0-11.0-0.0","72832","List1A","white","man","","","","null","","","","","","","","",""
"4388.799999982119","<img src=""portrait/BM2.jpg""style=""height:400px;""></img>","5","html-button-response","12","212733","0.0-3.0-13.0","72832","List1A","white","man","","true","5","","","","","","","","","",""
"null","CORRECT","","html-keyboard-response","13","214248","0.0-3.0-14.0-0.0","72832","List1A","white","man","","","","null","","","","","","","","",""
"15434.300000011921","<img src=""portrait/BM1.jpg""style=""height:400px;""></img>","4","html-button-response","14","229686","0.0-3.0-16.0","72832","List1A","white","man","","true","4","","","","","","","","","",""
"null","CORRECT","","html-keyboard-response","15","231208","0.0-3.0-17.0-0.0","72832","List1A","white","man","","","","null","","","","","","","","",""
"11631.09999999404","<img src=""portrait/WM2.jpg""style=""height:400px;""></img>","7","html-button-response","16","242843","0.0-3.0-19.0","72832","List1A","white","man","","true","7","","","","","","","","","",""
"null","CORRECT","","html-keyboard-response","17","244361","0.0-3.0-20.0-0.0","72832","List1A","white","man","","","","null","","","","","","","","",""
"6385.799999982119","<img src=""portrait/BW2.jpg""style=""height:400px;""></img>","2","html-button-response","18","250750","0.0-3.0-22.0","72832","List1A","white","man","","true","2","","","","","","","","","",""
"null","CORRECT","","html-keyboard-response","19","252264","0.0-3.0-23.0-0.0","72832","List1A","white","man","","","","null","","","","","","","","",""
"1780.5","<p>You got 8 out of 8 right first time. Press Continue.</p>","0","html-button-response","20","254049","0.0-3.0-25.0","72832","List1A","white","man","","","","","","","","","","","","",""
"2764.300000011921","<p>In this experiment, you will view photographs of the people from the memory game interacting.</p><p>By using the <strong>exact</strong> phrase given <i>after</i> the photograph appears and recalling the correct names of the people in the photographs, form a sentence describing the interaction. You do not need to capitalise names.</p><p>Type your answer in the space provided. Please complete every sentence before moving onto the next trial.</p><p>You will only have a few seconds to memorise each given photograph and phrase before you can respond, so try your best to focus.</p><p>An example is given below. Press 'Continue' when you are ready.</p><img src='img/speaking_example.jpg' style='width:800px;height:460px;''></img>","0","html-button-response","21","257838","0.0-4.0","72832","List1A","white","man","","","","","","","","","","","","",""
"2284","<p>Before the experiment starts, you will watch two example trials. Press 'Continue'.</p>","0","html-button-response","22","261130","0.0-5.0","72832","List1A","white","man","","","","","","","","","","","","",""
"null","<img src='img/play_eg.gif' style='height:400px;''></img>","","html-keyboard-response","23","264154","0.0-6.0","72832","List1A","white","man","","","","null","","","","","","","","",""
"null","<p>is playing with</p>","","html-keyboard-response","24","266171","0.0-7.0","72832","List1A","white","man","","","","null","","","","","","","","",""
"1552.0999999940395","<p><b>Answer:</b> kate is playing with beth</p>","0","html-button-response","25","267725","0.0-8.0","72832","List1A","white","man","","","","","","","","","","","","",""
"null","<img src='img/dance_eg.gif' style='height:400px;''></img>","","html-keyboard-response","26","270740","0.0-9.0","72832","List1A","white","man","","","","null","","","","","","","","",""
"null","<p>is being entertained by</p>","","html-keyboard-response","27","272747","0.0-10.0","72832","List1A","white","man","","","","null","","","","","","","","",""
"1185.199999988079","<p><b>Answer:</b> luke is being entertained by dave</p>","0","html-button-response","28","273935","0.0-11.0","72832","List1A","white","man","","","","","","","","","","","","",""
"378648.1999999881","<p>Ready to start the experiment?</p><br><p><strong>Remember to describe the picture using a full sentence,</strong></p><p><strong>that combines the names of the people with the <i>exact</i> phrase given.</strong></p><p><strong>To receive full payment you must do this correctly.</strong></p><p><strong> You do not need to capitalise names or use punctuation.</strong></p><br><p>Press 'Continue' to begin.</p>","0","html-button-response","29","653587","0.0-12.0","72832","List1A","white","man","","","","","","","","","","","","",""
"null","<div style=""font-size:60px;"">+</div>","","html-keyboard-response","30","655101","0.0-13.0-0.0","72832","List1A","white","man","","","","null","","","","","","","","",""
"null","<img src=""stim_listA/shout6.gif""style=""height:400px;""></stim_listA>","","html-keyboard-response","31","657110","0.0-13.0-1.0","72832","List1A","white","man","","","","null","","","","","","","","",""
"null","is being shouted at by","","html-keyboard-response","32","659123","0.0-13.0-2.0","72832","List1A","white","man","","","","null","","","","","","","","",""
"31743","","","survey-text","33","690875","0.0-13.0-3.0","72832","List1A","white","man","","","","","{""Q0"":""mike is being shouted at by dave""}","<img src=""stim_listA/shout6.gif""style=""height:400px;""></stim_listA>","is being shouted at by","","","","","",""
"null","<div style=""font-size:60px;"">+</div>","","html-keyboard-response","34","691390","0.0-13.0-0.1","72832","List1A","white","man","","","","null","","","","","","","","",""
"null","<img src=""stim_listA/hug3.gif""style=""height:400px;""></stim_listA>","","html-keyboard-response","35","693408","0.0-13.0-1.1","72832","List1A","white","man","","","","null","","","","","","","","",""
"null","is hugging","","html-keyboard-response","36","695410","0.0-13.0-2.1","72832","List1A","white","man","","","","null","","","","","","","","",""
"26457.30000001192","","","survey-text","37","721879","0.0-13.0-3.1","72832","List1A","white","man","","","","","{""Q0"":""ruth is being hugged by luke""}","<img src=""stim_listA/hug3.gif""style=""height:400px;""></stim_listA>","is hugging","","","","","",""
"null","<div style=""font-size:60px;"">+</div>","","html-keyboard-response","38","722382","0.0-13.0-0.2","72832","List1A","white","man","","","","null","","","","","","","","",""
"null","<img src=""stim_listA/hug6.gif""style=""height:400px;""></stim_listA>","","html-keyboard-response","39","724401","0.0-13.0-1.2","72832","List1A","white","man","","","","null","","","","","","","","",""
"null","is being hugged by","","html-keyboard-response","40","726403","0.0-13.0-2.2","72832","List1A","white","man","","","","null","","","","","","","","",""
"7706.5","","","survey-text","41","734115","0.0-13.0-3.2","72832","List1A","white","man","","","","","{""Q0"":""beth""}","<img src=""stim_listA/hug6.gif""style=""height:400px;""></stim_listA>","is being hugged by","","","","","",""
"null","<div style=""font-size:60px;"">+</div>","","html-keyboard-response","42","734624","0.0-13.0-0.3","72832","List1A","white","man","","","","null","","","","","","","","",""
"null","<img src=""stim_listA/hug5.gif""style=""height:400px;""></stim_listA>","","html-keyboard-response","43","736633","0.0-13.0-1.3","72832","List1A","white","man","","","","null","","","","","","","","",""
"null","is hugging","","html-keyboard-response","44","738637","0.0-13.0-2.3","72832","List1A","white","man","","","","null","","","","","","","","",""
"11005.699999988079","","","survey-text","45","749648","0.0-13.0-3.3","72832","List1A","white","man","","","","","{""Q0"":""fred is hugging luke""}","<img src=""stim_listA/hug5.gif""style=""height:400px;""></stim_listA>","is hugging","","","","","",""
"null","<div style=""font-size:60px;"">+</div>","","html-keyboard-response","46","750159","0.0-13.0-0.4","72832","List1A","white","man","","","","null","","","","","","","","",""
"null","<img src=""stim_listA/kiss3.gif""style=""height:400px;""></stim_listA>","","html-keyboard-response","47","752172","0.0-13.0-1.4","72832","List1A","white","man","","","","null","","","","","","","","",""
"null","is kissing","","html-keyboard-response","48","754173","0.0-13.0-2.4","72832","List1A","white","man","","","","null","","","","","","","","",""
"9966.399999976158","","","survey-text","49","764145","0.0-13.0-3.4","72832","List1A","white","man","","","","","{""Q0"":""luke is kissing ruth""}","<img src=""stim_listA/kiss3.gif""style=""height:400px;""></stim_listA>","is kissing","","","","","",""
"null","<div style=""font-size:60px;"">+</div>","","html-keyboard-response","50","764648","0.0-13.0-0.5","72832","List1A","white","man","","","","null","","","","","","","","",""
"null","<img src=""stim_listA/copy4.gif""style=""height:400px;""></stim_listA>","","html-keyboard-response","51","766658","0.0-13.0-1.5","72832","List1A","white","man","","","","null","","","","","","","","",""
"null","is being copied by","","html-keyboard-response","52","768663","0.0-13.0-2.5","72832","List1A","white","man","","","","null","","","","","","","","",""
"110646.90000000596","","","survey-text","53","879321","0.0-13.0-3.5","72832","List1A","white","man","","","","","{""Q0"":""luke is being copied by kate""}","<img src=""stim_listA/copy4.gif""style=""height:400px;""></stim_listA>","is being copied by","","","","","",""
"null","<div style=""font-size:60px;"">+</div>","","html-keyboard-response","54","879832","0.0-13.0-0.6","72832","List1A","white","man","","","","null","","","","","","","","",""
"null","<img src=""stim_listA/challenge6.gif""style=""height:400px;""></stim_listA>","","html-keyboard-response","55","881839","0.0-13.0-1.6","72832","List1A","white","man","","","","null","","","","","","","","",""
"null","is being challenged by","","html-keyboard-response","56","883844","0.0-13.0-2.6","72832","List1A","white","man","","","","null","","","","","","","","",""
"34078","","","survey-text","57","917927","0.0-13.0-3.6","72832","List1A","white","man","","","","","{""Q0"":""fred is being challenged by dave""}","<img src=""stim_listA/challenge6.gif""style=""height:400px;""></stim_listA>","is being challenged by","","","","","",""
"null","<div style=""font-size:60px;"">+</div>","","html-keyboard-response","58","918429","0.0-13.0-0.7","72832","List1A","white","man","","","","null","","","","","","","","",""
"null","<img src=""stim_listA/seduce2.gif""style=""height:400px;""></stim_listA>","","html-keyboard-response","59","920442","0.0-13.0-1.7","72832","List1A","white","man","","","","null","","","","","","","","",""
"null","is being seduced by","","html-keyboard-response","60","922453","0.0-13.0-2.7","72832","List1A","white","man","","","","null","","","","","","","","",""
"35054","","","survey-text","61","957513","0.0-13.0-3.7","72832","List1A","white","man","","","","","{""Q0"":""beth is being seduced by mike""}","<img src=""stim_listA/seduce2.gif""style=""height:400px;""></stim_listA>","is being seduced by","","","","","",""
"null","<div style=""font-size:60px;"">+</div>","","html-keyboard-response","62","958022","0.0-13.0-0.8","72832","List1A","white","man","","","","null","","","","","","","","",""
"null","<img src=""stim_listA/seduce3.gif""style=""height:400px;""></stim_listA>","","html-keyboard-response","63","960036","0.0-13.0-1.8","72832","List1A","white","man","","","","null","","","","","","","","",""
"null","is seducing","","html-keyboard-response","64","962043","0.0-13.0-2.8","72832","List1A","white","man","","","","null","","","","","","","","",""
"91871.20000001788","","","survey-text","65","1053917","0.0-13.0-3.8","72832","List1A","white","man","","","","","{""Q0"":""luke is seducing jane""}","<img src=""stim_listA/seduce3.gif""style=""height:400px;""></stim_listA>","is seducing","","","","","",""
"null","<div style=""font-size:60px;"">+</div>","","html-keyboard-response","66","1054427","0.0-13.0-0.9","72832","List1A","white","man","","","","null","","","","","","","","",""
"null","<img src=""stim_listA/oppose4.gif""style=""height:400px;""></stim_listA>","","html-keyboard-response","67","1056445","0.0-13.0-1.9","72832","List1A","white","man","","","","null","","","","","","","","",""
"null","is being opposed by","","html-keyboard-response","68","1058455","0.0-13.0-2.9","72832","List1A","white","man","","","","null","","","","","","","","",""
"25589.5","","","survey-text","69","1084050","0.0-13.0-3.9","72832","List1A","white","man","","","","","{""Q0"":""ruth is being opposed by luke""}","<img src=""stim_listA/oppose4.gif""style=""height:400px;""></stim_listA>","is being opposed by","","","","","",""
"null","<div style=""font-size:60px;"">+</div>","","html-keyboard-response","70","1084559","0.0-13.0-0.10","72832","List1A","white","man","","","","null","","","","","","","","",""
"null","<img src=""stim_listA/kiss2.gif""style=""height:400px;""></stim_listA>","","html-keyboard-response","71","1086577","0.0-13.0-1.10","72832","List1A","white","man","","","","null","","","","","","","","",""
"null","is being kissed by","","html-keyboard-response","72","1088579","0.0-13.0-2.10","72832","List1A","white","man","","","","null","","","","","","","","",""
"27075","","","survey-text","73","1115662","0.0-13.0-3.10","72832","List1A","white","man","","","","","{""Q0"":""kate is being kissed by mike ""}","<img src=""stim_listA/kiss2.gif""style=""height:400px;""></stim_listA>","is being kissed by","","","","","",""
"null","<div style=""font-size:60px;"">+</div>","","html-keyboard-response","74","1116171","0.0-13.0-0.11","72832","List1A","white","man","","","","null","","","","","","","","",""
"null","<img src=""stim_listA/challenge2.gif""style=""height:400px;""></stim_listA>","","html-keyboard-response","75","1118181","0.0-13.0-1.11","72832","List1A","white","man","","","","null","","","","","","","","",""
"null","is being challenged by","","html-keyboard-response","76","1120197","0.0-13.0-2.11","72832","List1A","white","man","","","","null","","","","","","","","",""
"40247.29999998212","","","survey-text","77","1160451","0.0-13.0-3.11","72832","List1A","white","man","","","","","{""Q0"":""fred is being challenged by kate""}","<img src=""stim_listA/challenge2.gif""style=""height:400px;""></stim_listA>","is being challenged by","","","","","",""
"null","<div style=""font-size:60px;"">+</div>","","html-keyboard-response","78","1160958","0.0-13.0-0.12","72832","List1A","white","man","","","","null","","","","","","","","",""
"null","<img src=""stim_listA/shout1.gif""style=""height:400px;""></stim_listA>","","html-keyboard-response","79","1162965","0.0-13.0-1.12","72832","List1A","white","man","","","","null","","","","","","","","",""
"null","is shouting at","","html-keyboard-response","80","1164977","0.0-13.0-2.12","72832","List1A","white","man","","","","null","","","","","","","","",""
"19590.79999998212","","","survey-text","81","1184574","0.0-13.0-3.12","72832","List1A","white","man","","","","","{""Q0"":""fred is shouting at beth""}","<img src=""stim_listA/shout1.gif""style=""height:400px;""></stim_listA>","is shouting at","","","","","",""
"null","<div style=""font-size:60px;"">+</div>","","html-keyboard-response","82","1185085","0.0-13.0-0.13","72832","List1A","white","man","","","","null","","","","","","","","",""
"null","<img src=""stim_listA/oppose8.gif""style=""height:400px;""></stim_listA>","","html-keyboard-response","83","1187097","0.0-13.0-1.13","72832","List1A","white","man","","","","null","","","","","","","","",""
"null","is being opposed by","","html-keyboard-response","84","1189114","0.0-13.0-2.13","72832","List1A","white","man","","","","null","","","","","","","","",""
"17193","","","survey-text","85","1206312","0.0-13.0-3.13","72832","List1A","white","man","","","","","{""Q0"":""ruth is being opposed by beth""}","<img src=""stim_listA/oppose8.gif""style=""height:400px;""></stim_listA>","is being opposed by","","","","","",""
"null","<div style=""font-size:60px;"">+</div>","","html-keyboard-response","86","1206824","0.0-13.0-0.14","72832","List1A","white","man","","","","null","","","","","","","","",""
"null","<img src=""stim_listA/shout7.gif""style=""height:400px;""></stim_listA>","","html-keyboard-response","87","1208839","0.0-13.0-1.14","72832","List1A","white","man","","","","null","","","","","","","","",""
"null","is shouting at","","html-keyboard-response","88","1210844","0.0-13.0-2.14","72832","List1A","white","man","","","","null","","","","","","","","",""
"11098","","","survey-text","89","1221948","0.0-13.0-3.14","72832","List1A","white","man","","","","","{""Q0"":""ruth is shouting at beth""}","<img src=""stim_listA/shout7.gif""style=""height:400px;""></stim_listA>","is shouting at","","","","","",""
"null","<div style=""font-size:60px;"">+</div>","","html-keyboard-response","90","1222458","0.0-13.0-0.15","72832","List1A","white","man","","","","null","","","","","","","","",""
"null","<img src=""stim_listA/touch4.gif""style=""height:400px;""></stim_listA>","","html-keyboard-response","91","1224477","0.0-13.0-1.15","72832","List1A","white","man","","","","null","","","","","","","","",""
"null","is being touched by","","html-keyboard-response","92","1226495","0.0-13.0-2.15","72832","List1A","white","man","","","","null","","","","","","","","",""
"25899.79999998212","","","survey-text","93","1252401","0.0-13.0-3.15","72832","List1A","white","man","","","","","{""Q0"":""luke is being touched by ruth""}","<img src=""stim_listA/touch4.gif""style=""height:400px;""></stim_listA>","is being touched by","","","","","",""
"null","<div style=""font-size:60px;"">+</div>","","html-keyboard-response","94","1252903","0.0-13.0-0.16","72832","List1A","white","man","","","","null","","","","","","","","",""
"null","<img src=""stim_listA/copy5.gif""style=""height:400px;""></stim_listA>","","html-keyboard-response","95","1254918","0.0-13.0-1.16","72832","List1A","white","man","","","","null","","","","","","","","",""
"null","is copying","","html-keyboard-response","96","1256927","0.0-13.0-2.16","72832","List1A","white","man","","","","null","","","","","","","","",""
"75380.30000001192","","","survey-text","97","1332313","0.0-13.0-3.16","72832","List1A","white","man","","","","","{""Q0"":""mike is copying luke""}","<img src=""stim_listA/copy5.gif""style=""height:400px;""></stim_listA>","is copying","","","","","",""
"null","<div style=""font-size:60px;"">+</div>","","html-keyboard-response","98","1332823","0.0-13.0-0.17","72832","List1A","white","man","","","","null","","","","","","","","",""
"null","<img src=""stim_listA/greet7.gif""style=""height:400px;""></stim_listA>","","html-keyboard-response","99","1334834","0.0-13.0-1.17","72832","List1A","white","man","","","","null","","","","","","","","",""
"null","is greeting","","html-keyboard-response","100","1336849","0.0-13.0-2.17","72832","List1A","white","man","","","","null","","","","","","","","",""
"24122.40000000596","","","survey-text","101","1360975","0.0-13.0-3.17","72832","List1A","white","man","","","","","{""Q0"":""kate is greeting ruth""}","<img src=""stim_listA/greet7.gif""style=""height:400px;""></stim_listA>","is greeting","","","","","",""
"null","<div style=""font-size:60px;"">+</div>","","html-keyboard-response","102","1361492","0.0-13.0-0.18","72832","List1A","white","man","","","","null","","","","","","","","",""
"null","<img src=""stim_listA/oppose7.gif""style=""height:400px;""></stim_listA>","","html-keyboard-response","103","1363508","0.0-13.0-1.18","72832","List1A","white","man","","","","null","","","","","","","","",""
"null","is opposing","","html-keyboard-response","104","1365518","0.0-13.0-2.18","72832","List1A","white","man","","","","null","","","","","","","","",""
"11942.799999982119","","","survey-text","105","1377467","0.0-13.0-3.18","72832","List1A","white","man","","","","","{""Q0"":""kate is opposing jane""}","<img src=""stim_listA/oppose7.gif""style=""height:400px;""></stim_listA>","is opposing","","","","","",""
"null","<div style=""font-size:60px;"">+</div>","","html-keyboard-response","106","1377977","0.0-13.0-0.19","72832","List1A","white","man","","","","null","","","","","","","","",""
"null","<img src=""stim_listA/touch2.gif""style=""height:400px;""></stim_listA>","","html-keyboard-response","107","1379992","0.0-13.0-1.19","72832","List1A","white","man","","","","null","","","","","","","","",""
"null","is being touched by","","html-keyboard-response","108","1381999","0.0-13.0-2.19","72832","List1A","white","man","","","","null","","","","","","","","",""
"34228.20000001788","","","survey-text","109","1416237","0.0-13.0-3.19","72832","List1A","white","man","","","","","{""Q0"":""fred is being touched by beth""}","<img src=""stim_listA/touch2.gif""style=""height:400px;""></stim_listA>","is being touched by","","","","","",""
"4363.800000011921","<img src='img/portrait_matrix_list1.jpg' style='width:900px;height:500px;''></img><p>If you have memorised all the portraits and names and are ready to start, press Continue.</p><p><strong>Please note: Your memory of these faces will be tested 4 times during this experiment.</strong></p>","0","html-button-response","110","1420603","0.0-14.0-0.0","72832","List1A","white","man","","","","","","","","","","","","",""
"11732.59999999404","<img src=""portrait/BM2.jpg""style=""height:400px;""></img>","5","html-button-response","111","1433341","0.0-14.0-1.0","72832","List1A","white","man","","true","5","","","","","","","","","",""
"null","CORRECT","","html-keyboard-response","112","1434868","0.0-14.0-2.0-0.0","72832","List1A","white","man","","","","null","","","","","","","","",""
"4608.699999988079","<img src=""portrait/BW1.jpg""style=""height:400px;""></img>","0","html-button-response","113","1439480","0.0-14.0-4.0","72832","List1A","white","man","","true","0","","","","","","","","","",""
"null","CORRECT","","html-keyboard-response","114","1440998","0.0-14.0-5.0-0.0","72832","List1A","white","man","","","","null","","","","","","","","",""
"3145.0999999940395","<img src=""portrait/WM1.jpg""style=""height:400px;""></img>","6","html-button-response","115","1444146","0.0-14.0-7.0","72832","List1A","white","man","","true","6","","","","","","","","","",""
"null","CORRECT","","html-keyboard-response","116","1445663","0.0-14.0-8.0-0.0","72832","List1A","white","man","","","","null","","","","","","","","",""
"3032.9000000059605","<img src=""portrait/WM2.jpg""style=""height:400px;""></img>","7","html-button-response","117","1448699","0.0-14.0-10.0","72832","List1A","white","man","","true","7","","","","","","","","","",""
"null","CORRECT","","html-keyboard-response","118","1450206","0.0-14.0-11.0-0.0","72832","List1A","white","man","","","","null","","","","","","","","",""
"2665.2999999821186","<img src=""portrait/WW1.jpg""style=""height:400px;""></img>","1","html-button-response","119","1452875","0.0-14.0-13.0","72832","List1A","white","man","","true","1","","","","","","","","","",""
"null","CORRECT","","html-keyboard-response","120","1454398","0.0-14.0-14.0-0.0","72832","List1A","white","man","","","","null","","","","","","","","",""
"3042.699999988079","<img src=""portrait/BM1.jpg""style=""height:400px;""></img>","4","html-button-response","121","1457445","0.0-14.0-16.0","72832","List1A","white","man","","true","4","","","","","","","","","",""
"null","CORRECT","","html-keyboard-response","122","1458963","0.0-14.0-17.0-0.0","72832","List1A","white","man","","","","null","","","","","","","","",""
"3264.800000011921","<img src=""portrait/BW2.jpg""style=""height:400px;""></img>","2","html-button-response","123","1462232","0.0-14.0-19.0","72832","List1A","white","man","","true","2","","","","","","","","","",""
"null","CORRECT","","html-keyboard-response","124","1463738","0.0-14.0-20.0-0.0","72832","List1A","white","man","","","","null","","","","","","","","",""
"1284","<img src=""portrait/WW2.jpg""style=""height:400px;""></img>","3","html-button-response","125","1465025","0.0-14.0-22.0","72832","List1A","white","man","","true","3","","","","","","","","","",""
"null","CORRECT","","html-keyboard-response","126","1466541","0.0-14.0-23.0-0.0","72832","List1A","white","man","","","","null","","","","","","","","",""
"15000.100000023842","<p>You got 8 out of 8 right first time. Press Continue.</p>","0","html-button-response","127","1481545","0.0-14.0-25.0","72832","List1A","white","man","","","","","","","","","","","","",""
"null","<div style=""font-size:60px;"">+</div>","","html-keyboard-response","128","1483072","0.0-15.0-0.0","72832","List1A","white","man","","","","null","","","","","","","","",""
"null","<img src=""stim_listA/kiss8.gif""style=""height:400px;""></stim_listA>","","html-keyboard-response","129","1485086","0.0-15.0-1.0","72832","List1A","white","man","","","","null","","","","","","","","",""
"null","is being kissed by","","html-keyboard-response","130","1487089","0.0-15.0-2.0","72832","List1A","white","man","","","","null","","","","","","","","",""
"26983.09999999404","","","survey-text","131","1514078","0.0-15.0-3.0","72832","List1A","white","man","","","","","{""Q0"":""kate is being kissed by jane""}","<img src=""stim_listA/kiss8.gif""style=""height:400px;""></stim_listA>","is being kissed by","","","","","",""
"null","<div style=""font-size:60px;"">+</div>","","html-keyboard-response","132","1514590","0.0-15.0-0.1","72832","List1A","white","man","","","","null","","","","","","","","",""
"null","<img src=""stim_listA/touch5.gif""style=""height:400px;""></stim_listA>","","html-keyboard-response","133","1516608","0.0-15.0-1.1","72832","List1A","white","man","","","","null","","","","","","","","",""
"null","is touching","","html-keyboard-response","134","1518615","0.0-15.0-2.1","72832","List1A","white","man","","","","null","","","","","","","","",""
"24045.70000001788","","","survey-text","135","1542661","0.0-15.0-3.1","72832","List1A","white","man","","","","","{""Q0"":""mike is touching dave""}","<img src=""stim_listA/touch5.gif""style=""height:400px;""></stim_listA>","is touching","","","","","",""
"null","<div style=""font-size:60px;"">+</div>","","html-keyboard-response","136","1543180","0.0-15.0-0.2","72832","List1A","white","man","","","","null","","","","","","","","",""
"null","<img src=""stim_listA/challenge7.gif""style=""height:400px;""></stim_listA>","","html-keyboard-response","137","1545191","0.0-15.0-1.2","72832","List1A","white","man","","","","null","","","","","","","","",""
"null","is challenging","","html-keyboard-response","138","1547198","0.0-15.0-2.2","72832","List1A","white","man","","","","null","","","","","","","","",""
"18392.29999998212","","","survey-text","139","1565596","0.0-15.0-3.2","72832","List1A","white","man","","","","","{""Q0"":""ruth is challenging kate""}","<img src=""stim_listA/challenge7.gif""style=""height:400px;""></stim_listA>","is challenging","","","","","",""
"null","<div style=""font-size:60px;"">+</div>","","html-keyboard-response","140","1566107","0.0-15.0-0.3","72832","List1A","white","man","","","","null","","","","","","","","",""
"null","<img src=""stim_listA/seduce4.gif""style=""height:400px;""></stim_listA>","","html-keyboard-response","141","1568123","0.0-15.0-1.3","72832","List1A","white","man","","","","null","","","","","","","","",""
"null","is being seduced by","","html-keyboard-response","142","1570132","0.0-15.0-2.3","72832","List1A","white","man","","","","null","","","","","","","","",""
"17553.80000001192","","","survey-text","143","1587694","0.0-15.0-3.3","72832","List1A","white","man","","","","","{""Q0"":""ruth is being seduced by dave""}","<img src=""stim_listA/seduce4.gif""style=""height:400px;""></stim_listA>","is being seduced by","","","","","",""
"null","<div style=""font-size:60px;"">+</div>","","html-keyboard-response","144","1588204","0.0-15.0-0.4","72832","List1A","white","man","","","","null","","","","","","","","",""
"null","<img src=""stim_listA/look3.gif""style=""height:400px;""></stim_listA>","","html-keyboard-response","145","1590217","0.0-15.0-1.4","72832","List1A","white","man","","","","null","","","","","","","","",""
"null","is looking at","","html-keyboard-response","146","1592230","0.0-15.0-2.4","72832","List1A","white","man","","","","null","","","","","","","","",""
"17964","","","survey-text","147","1610199","0.0-15.0-3.4","72832","List1A","white","man","","","","","{""Q0"":""ruth is looking at luke""}","<img src=""stim_listA/look3.gif""style=""height:400px;""></stim_listA>","is looking at","","","","","",""
"null","<div style=""font-size:60px;"">+</div>","","html-keyboard-response","148","1610716","0.0-15.0-0.5","72832","List1A","white","man","","","","null","","","","","","","","",""
"null","<img src=""stim_listA/look5.gif""style=""height:400px;""></stim_listA>","","html-keyboard-response","149","1612730","0.0-15.0-1.5","72832","List1A","white","man","","","","null","","","","","","","","",""
"null","is looking at","","html-keyboard-response","150","1614747","0.0-15.0-2.5","72832","List1A","white","man","","","","null","","","","","","","","",""
"37392.59999999404","","","survey-text","151","1652147","0.0-15.0-3.5","72832","List1A","white","man","","","","","{""Q0"":""luke is looking at fred""}","<img src=""stim_listA/look5.gif""style=""height:400px;""></stim_listA>","is looking at","","","","","",""
"null","<div style=""font-size:60px;"">+</div>","","html-keyboard-response","152","1652657","0.0-15.0-0.6","72832","List1A","white","man","","","","null","","","","","","","","",""
"null","<img src=""stim_listA/hug8.gif""style=""height:400px;""></stim_listA>","","html-keyboard-response","153","1654674","0.0-15.0-1.6","72832","List1A","white","man","","","","null","","","","","","","","",""
"null","is being hugged by","","html-keyboard-response","154","1656677","0.0-15.0-2.6","72832","List1A","white","man","","","","null","","","","","","","","",""
"12918.59999999404","","","survey-text","155","1669601","0.0-15.0-3.6","72832","List1A","white","man","","","","","{""Q0"":""jane is being hugged by kate""}","<img src=""stim_listA/hug8.gif""style=""height:400px;""></stim_listA>","is being hugged by","","","","","",""
"null","<div style=""font-size:60px;"">+</div>","","html-keyboard-response","156","1670107","0.0-15.0-0.7","72832","List1A","white","man","","","","null","","","","","","","","",""
"null","<img src=""stim_listA/touch3.gif""style=""height:400px;""></stim_listA>","","html-keyboard-response","157","1672123","0.0-15.0-1.7","72832","List1A","white","man","","","","null","","","","","","","","",""
"null","is touching","","html-keyboard-response","158","1674126","0.0-15.0-2.7","72832","List1A","white","man","","","","null","","","","","","","","",""
"49342.90000000596","","","survey-text","159","1723475","0.0-15.0-3.7","72832","List1A","white","man","","","","","{""Q0"":""jane is touching dave""}","<img src=""stim_listA/touch3.gif""style=""height:400px;""></stim_listA>","is touching","","","","","",""
"null","<div style=""font-size:60px;"">+</div>","","html-keyboard-response","160","1723979","0.0-15.0-0.8","72832","List1A","white","man","","","","null","","","","","","","","",""
"null","<img src=""stim_listA/shout5.gif""style=""height:400px;""></stim_listA>","","html-keyboard-response","161","1725988","0.0-15.0-1.8","72832","List1A","white","man","","","","null","","","","","","","","",""
"null","is shouting at","","html-keyboard-response","162","1728000","0.0-15.0-2.8","72832","List1A","white","man","","","","null","","","","","","","","",""
"12535.100000023842","","","survey-text","163","1740541","0.0-15.0-3.8","72832","List1A","white","man","","","","","{""Q0"":""luke is shouting at fred""}","<img src=""stim_listA/shout5.gif""style=""height:400px;""></stim_listA>","is shouting at","","","","","",""
"null","<div style=""font-size:60px;"">+</div>","","html-keyboard-response","164","1741056","0.0-15.0-0.9","72832","List1A","white","man","","","","null","","","","","","","","",""
"null","<img src=""stim_listA/greet8.gif""style=""height:400px;""></stim_listA>","","html-keyboard-response","165","1743073","0.0-15.0-1.9","72832","List1A","white","man","","","","null","","","","","","","","",""
"null","is being greeted by","","html-keyboard-response","166","1745086","0.0-15.0-2.9","72832","List1A","white","man","","","","null","","","","","","","","",""
"14591.90000000596","","","survey-text","167","1759683","0.0-15.0-3.9","72832","List1A","white","man","","","","","{""Q0"":""jane is being greeted by beth""}","<img src=""stim_listA/greet8.gif""style=""height:400px;""></stim_listA>","is being greeted by","","","","","",""
"null","<div style=""font-size:60px;"">+</div>","","html-keyboard-response","168","1760186","0.0-15.0-0.10","72832","List1A","white","man","","","","null","","","","","","","","",""
"null","<img src=""stim_listA/seduce5.gif""style=""height:400px;""></stim_listA>","","html-keyboard-response","169","1762197","0.0-15.0-1.10","72832","List1A","white","man","","","","null","","","","","","","","",""
"null","is seducing","","html-keyboard-response","170","1764200","0.0-15.0-2.10","72832","List1A","white","man","","","","null","","","","","","","","",""
"111837.29999998212","","","survey-text","171","1876042","0.0-15.0-3.10","72832","List1A","white","man","","","","","{""Q0"":""fred is seducing dave""}","<img src=""stim_listA/seduce5.gif""style=""height:400px;""></stim_listA>","is seducing","","","","","",""
"null","<div style=""font-size:60px;"">+</div>","","html-keyboard-response","172","1876552","0.0-15.0-0.11","72832","List1A","white","man","","","","null","","","","","","","","",""
"null","<img src=""stim_listA/copy7.gif""style=""height:400px;""></stim_listA>","","html-keyboard-response","173","1878566","0.0-15.0-1.11","72832","List1A","white","man","","","","null","","","","","","","","",""
"null","is copying","","html-keyboard-response","174","1880580","0.0-15.0-2.11","72832","List1A","white","man","","","","null","","","","","","","","",""
"20803.59999999404","","","survey-text","175","1901389","0.0-15.0-3.11","72832","List1A","white","man","","","","","{""Q0"":""kate is copying ruth""}","<img src=""stim_listA/copy7.gif""style=""height:400px;""></stim_listA>","is copying","","","","","",""
"null","<div style=""font-size:60px;"">+</div>","","html-keyboard-response","176","1901902","0.0-15.0-0.12","72832","List1A","white","man","","","","null","","","","","","","","",""
"null","<img src=""stim_listA/challenge8.gif""style=""height:400px;""></stim_listA>","","html-keyboard-response","177","1903914","0.0-15.0-1.12","72832","List1A","white","man","","","","null","","","","","","","","",""
"null","is being challenged by","","html-keyboard-response","178","1905926","0.0-15.0-2.12","72832","List1A","white","man","","","","null","","","","","","","","",""
"37312.5","","","survey-text","179","1943244","0.0-15.0-3.12","72832","List1A","white","man","","","","","{""Q0"":""beth is being challenged by jane""}","<img src=""stim_listA/challenge8.gif""style=""height:400px;""></stim_listA>","is being challenged by","","","","","",""
"null","<div style=""font-size:60px;"">+</div>","","html-keyboard-response","180","1943753","0.0-15.0-0.13","72832","List1A","white","man","","","","null","","","","","","","","",""
"null","<img src=""stim_listA/copy6.gif""style=""height:400px;""></stim_listA>","","html-keyboard-response","181","1945770","0.0-15.0-1.13","72832","List1A","white","man","","","","null","","","","","","","","",""
"null","is being copied by","","html-keyboard-response","182","1947773","0.0-15.0-2.13","72832","List1A","white","man","","","","null","","","","","","","","",""
"17391.19999998808","","","survey-text","183","1965171","0.0-15.0-3.13","72832","List1A","white","man","","","","","{""Q0"":""dave is being copied by fred""}","<img src=""stim_listA/copy6.gif""style=""height:400px;""></stim_listA>","is being copied by","","","","","",""
"null","<div style=""font-size:60px;"">+</div>","","html-keyboard-response","184","1965681","0.0-15.0-0.14","72832","List1A","white","man","","","","null","","","","","","","","",""
"null","<img src=""stim_listA/challenge3.gif""style=""height:400px;""></stim_listA>","","html-keyboard-response","185","1967688","0.0-15.0-1.14","72832","List1A","white","man","","","","null","","","","","","","","",""
"null","is challenging","","html-keyboard-response","186","1969697","0.0-15.0-2.14","72832","List1A","white","man","","","","null","","","","","","","","",""
"13544.90000000596","","","survey-text","187","1983246","0.0-15.0-3.14","72832","List1A","white","man","","","","","{""Q0"":""dave is challenging ruth""}","<img src=""stim_listA/challenge3.gif""style=""height:400px;""></stim_listA>","is challenging","","","","","",""
"null","<div style=""font-size:60px;"">+</div>","","html-keyboard-response","188","1983751","0.0-15.0-0.15","72832","List1A","white","man","","","","null","","","","","","","","",""
"null","<img src=""stim_listA/oppose3.gif""style=""height:400px;""></stim_listA>","","html-keyboard-response","189","1985765","0.0-15.0-1.15","72832","List1A","white","man","","","","null","","","","","","","","",""
"null","is opposing","","html-keyboard-response","190","1987773","0.0-15.0-2.15","72832","List1A","white","man","","","","null","","","","","","","","",""
"23597.70000001788","","","survey-text","191","2011376","0.0-15.0-3.15","72832","List1A","white","man","","","","","{""Q0"":""dave is opposing jane""}","<img src=""stim_listA/oppose3.gif""style=""height:400px;""></stim_listA>","is opposing","","","","","",""
"null","<div style=""font-size:60px;"">+</div>","","html-keyboard-response","192","2011882","0.0-15.0-0.16","72832","List1A","white","man","","","","null","","","","","","","","",""
"null","<img src=""stim_listA/challenge1.gif""style=""height:400px;""></stim_listA>","","html-keyboard-response","193","2013893","0.0-15.0-1.16","72832","List1A","white","man","","","","null","","","","","","","","",""
"null","is challenging","","html-keyboard-response","194","2015910","0.0-15.0-2.16","72832","List1A","white","man","","","","null","","","","","","","","",""
"15736.59999999404","","","survey-text","195","2031653","0.0-15.0-3.16","72832","List1A","white","man","","","","","{""Q0"":""mike is challenging beth""}","<img src=""stim_listA/challenge1.gif""style=""height:400px;""></stim_listA>","is challenging","","","","","",""
"null","<div style=""font-size:60px;"">+</div>","","html-keyboard-response","196","2032170","0.0-15.0-0.17","72832","List1A","white","man","","","","null","","","","","","","","",""
"null","<img src=""stim_listA/shout3.gif""style=""height:400px;""></stim_listA>","","html-keyboard-response","197","2034184","0.0-15.0-1.17","72832","List1A","white","man","","","","null","","","","","","","","",""
"null","is shouting at","","html-keyboard-response","198","2036190","0.0-15.0-2.17","72832","List1A","white","man","","","","null","","","","","","","","",""
"20876.30000001192","","","survey-text","199","2057072","0.0-15.0-3.17","72832","List1A","white","man","","","","","{""Q0"":""ruth is shouting at luke""}","<img src=""stim_listA/shout3.gif""style=""height:400px;""></stim_listA>","is shouting at","","","","","",""
"null","<div style=""font-size:60px;"">+</div>","","html-keyboard-response","200","2057586","0.0-15.0-0.18","72832","List1A","white","man","","","","null","","","","","","","","",""
"null","<img src=""stim_listA/greet6.gif""style=""height:400px;""></stim_listA>","","html-keyboard-response","201","2059593","0.0-15.0-1.18","72832","List1A","white","man","","","","null","","","","","","","","",""
"null","is being greeted by","","html-keyboard-response","202","2061596","0.0-15.0-2.18","72832","List1A","white","man","","","","null","","","","","","","","",""
"39521.80000001192","","","survey-text","203","2101123","0.0-15.0-3.18","72832","List1A","white","man","","","","","{""Q0"":""dave is being greeted by fred""}","<img src=""stim_listA/greet6.gif""style=""height:400px;""></stim_listA>","is being greeted by","","","","","",""
"null","<div style=""font-size:60px;"">+</div>","","html-keyboard-response","204","2101631","0.0-15.0-0.19","72832","List1A","white","man","","","","null","","","","","","","","",""
"null","<img src=""stim_listA/oppose1.gif""style=""height:400px;""></stim_listA>","","html-keyboard-response","205","2103648","0.0-15.0-1.19","72832","List1A","white","man","","","","null","","","","","","","","",""
"null","is opposing","","html-keyboard-response","206","2105650","0.0-15.0-2.19","72832","List1A","white","man","","","","null","","","","","","","","",""
"23778.09999999404","","","survey-text","207","2129434","0.0-15.0-3.19","72832","List1A","white","man","","","","","{""Q0"":""kate is opposing mike""}","<img src=""stim_listA/oppose1.gif""style=""height:400px;""></stim_listA>","is opposing","","","","","",""
"5545.4000000059605","<img src='img/portrait_matrix_list1.jpg' style='width:900px;height:500px;''></img><p>If you have memorised all the portraits and names and are ready to start, press Continue.</p><p><strong>Please note: Your memory of these faces will be tested 4 times during this experiment.</strong></p>","0","html-button-response","208","2134983","0.0-16.0-0.0","72832","List1A","white","man","","","","","","","","","","","","",""
"15540.40000000596","<img src=""portrait/WW1.jpg""style=""height:400px;""></img>","1","html-button-response","209","2151543","0.0-16.0-1.0","72832","List1A","white","man","","true","1","","","","","","","","","",""
"null","CORRECT","","html-keyboard-response","210","2153063","0.0-16.0-2.0-0.0","72832","List1A","white","man","","","","null","","","","","","","","",""
"4815.700000017881","<img src=""portrait/WM1.jpg""style=""height:400px;""></img>","6","html-button-response","211","2157883","0.0-16.0-4.0","72832","List1A","white","man","","true","6","","","","","","","","","",""
"null","CORRECT","","html-keyboard-response","212","2159407","0.0-16.0-5.0-0.0","72832","List1A","white","man","","","","null","","","","","","","","",""
"3680.9000000059605","<img src=""portrait/BM2.jpg""style=""height:400px;""></img>","5","html-button-response","213","2163092","0.0-16.0-7.0","72832","List1A","white","man","","true","5","","","","","","","","","",""
"null","CORRECT","","html-keyboard-response","214","2164610","0.0-16.0-8.0-0.0","72832","List1A","white","man","","","","null","","","","","","","","",""
"3073.4000000059605","<img src=""portrait/WM2.jpg""style=""height:400px;""></img>","7","html-button-response","215","2167688","0.0-16.0-10.0","72832","List1A","white","man","","true","7","","","","","","","","","",""
"null","CORRECT","","html-keyboard-response","216","2169202","0.0-16.0-11.0-0.0","72832","List1A","white","man","","","","null","","","","","","","","",""
"1654.2000000178814","<img src=""portrait/BM1.jpg""style=""height:400px;""></img>","4","html-button-response","217","2170861","0.0-16.0-13.0","72832","List1A","white","man","","true","4","","","","","","","","","",""
"null","CORRECT","","html-keyboard-response","218","2172389","0.0-16.0-14.0-0.0","72832","List1A","white","man","","","","null","","","","","","","","",""
"2293.0999999940395","<img src=""portrait/WW2.jpg""style=""height:400px;""></img>","3","html-button-response","219","2174686","0.0-16.0-16.0","72832","List1A","white","man","","true","3","","","","","","","","","",""
"null","CORRECT","","html-keyboard-response","220","2176195","0.0-16.0-17.0-0.0","72832","List1A","white","man","","","","null","","","","","","","","",""
"2690.5999999940395","<img src=""portrait/BW1.jpg""style=""height:400px;""></img>","0","html-button-response","221","2178889","0.0-16.0-19.0","72832","List1A","white","man","","true","0","","","","","","","","","",""
"null","CORRECT","","html-keyboard-response","222","2180406","0.0-16.0-20.0-0.0","72832","List1A","white","man","","","","null","","","","","","","","",""
"2587.5","<img src=""portrait/BW2.jpg""style=""height:400px;""></img>","2","html-button-response","223","2182998","0.0-16.0-22.0","72832","List1A","white","man","","true","2","","","","","","","","","",""
"null","CORRECT","","html-keyboard-response","224","2184528","0.0-16.0-23.0-0.0","72832","List1A","white","man","","","","null","","","","","","","","",""
"1969.800000011921","<p>You got 8 out of 8 right first time. Press Continue.</p>","0","html-button-response","225","2186501","0.0-16.0-25.0","72832","List1A","white","man","","","","","","","","","","","","",""
"null","<div style=""font-size:60px;"">+</div>","","html-keyboard-response","226","2188020","0.0-17.0-0.0","72832","List1A","white","man","","","","null","","","","","","","","",""
"null","<img src=""stim_listA/seduce6.gif""style=""height:400px;""></stim_listA>","","html-keyboard-response","227","2190033","0.0-17.0-1.0","72832","List1A","white","man","","","","null","","","","","","","","",""
"null","is being seduced by","","html-keyboard-response","228","2192036","0.0-17.0-2.0","72832","List1A","white","man","","","","null","","","","","","","","",""
"11809.300000011921","","","survey-text","229","2203851","0.0-17.0-3.0","72832","List1A","white","man","","","","","{""Q0"":""luke is being seduced by mike""}","<img src=""stim_listA/seduce6.gif""style=""height:400px;""></stim_listA>","is being seduced by","","","","","",""
"null","<div style=""font-size:60px;"">+</div>","","html-keyboard-response","230","2204354","0.0-17.0-0.1","72832","List1A","white","man","","","","null","","","","","","","","",""
"null","<img src=""stim_listA/copy2.gif""style=""height:400px;""></stim_listA>","","html-keyboard-response","231","2206370","0.0-17.0-1.1","72832","List1A","white","man","","","","null","","","","","","","","",""
"null","is being copied by","","html-keyboard-response","232","2208379","0.0-17.0-2.1","72832","List1A","white","man","","","","null","","","","","","","","",""
"15512.300000011921","","","survey-text","233","2223896","0.0-17.0-3.1","72832","List1A","white","man","","","","","{""Q0"":""jane is being copied by fred""}","<img src=""stim_listA/copy2.gif""style=""height:400px;""></stim_listA>","is being copied by","","","","","",""
"null","<div style=""font-size:60px;"">+</div>","","html-keyboard-response","234","2224398","0.0-17.0-0.2","72832","List1A","white","man","","","","null","","","","","","","","",""
"null","<img src=""stim_listA/seduce1.gif""style=""height:400px;""></stim_listA>","","html-keyboard-response","235","2226412","0.0-17.0-1.2","72832","List1A","white","man","","","","null","","","","","","","","",""
"null","is seducing","","html-keyboard-response","236","2228414","0.0-17.0-2.2","72832","List1A","white","man","","","","null","","","","","","","","",""
"144602.30000001192","","","survey-text","237","2373021","0.0-17.0-3.2","72832","List1A","white","man","","","","","{""Q0"":""kate is seducing fred""}","<img src=""stim_listA/seduce1.gif""style=""height:400px;""></stim_listA>","is seducing","","","","","",""
"null","<div style=""font-size:60px;"">+</div>","","html-keyboard-response","238","2373523","0.0-17.0-0.3","72832","List1A","white","man","","","","null","","","","","","","","",""
"null","<img src=""stim_listA/shout2.gif""style=""height:400px;""></stim_listA>","","html-keyboard-response","239","2375534","0.0-17.0-1.3","72832","List1A","white","man","","","","null","","","","","","","","",""
"null","is being shouted at by","","html-keyboard-response","240","2377535","0.0-17.0-2.3","72832","List1A","white","man","","","","null","","","","","","","","",""
"13871.200000017881","","","survey-text","241","2391412","0.0-17.0-3.3","72832","List1A","white","man","","","","","{""Q0"":""kate is being shouted at by mike""}","<img src=""stim_listA/shout2.gif""style=""height:400px;""></stim_listA>","is being shouted at by","","","","","",""
"null","<div style=""font-size:60px;"">+</div>","","html-keyboard-response","242","2391921","0.0-17.0-0.4","72832","List1A","white","man","","","","null","","","","","","","","",""
"null","<img src=""stim_listA/touch8.gif""style=""height:400px;""></stim_listA>","","html-keyboard-response","243","2393935","0.0-17.0-1.4","72832","List1A","white","man","","","","null","","","","","","","","",""
"null","is being touched by","","html-keyboard-response","244","2395940","0.0-17.0-2.4","72832","List1A","white","man","","","","null","","","","","","","","",""
"7890.699999988079","","","survey-text","245","2403835","0.0-17.0-3.4","72832","List1A","white","man","","","","","{""Q0"":""beth is being touched by ruth""}","<img src=""stim_listA/touch8.gif""style=""height:400px;""></stim_listA>","is being touched by","","","","","",""
"null","<div style=""font-size:60px;"">+</div>","","html-keyboard-response","246","2404349","0.0-17.0-0.5","72832","List1A","white","man","","","","null","","","","","","","","",""
"null","<img src=""stim_listA/kiss6.gif""style=""height:400px;""></stim_listA>","","html-keyboard-response","247","2406355","0.0-17.0-1.5","72832","List1A","white","man","","","","null","","","","","","","","",""
"null","is being kissed by","","html-keyboard-response","248","2408357","0.0-17.0-2.5","72832","List1A","white","man","","","","null","","","","","","","","",""
"8599.800000011921","","","survey-text","249","2416963","0.0-17.0-3.5","72832","List1A","white","man","","","","","{""Q0"":""mike is being kissed by dave""}","<img src=""stim_listA/kiss6.gif""style=""height:400px;""></stim_listA>","is being kissed by","","","","","",""
"null","<div style=""font-size:60px;"">+</div>","","html-keyboard-response","250","2417472","0.0-17.0-0.6","72832","List1A","white","man","","","","null","","","","","","","","",""
"null","<img src=""stim_listA/challenge5.gif""style=""height:400px;""></stim_listA>","","html-keyboard-response","251","2419488","0.0-17.0-1.6","72832","List1A","white","man","","","","null","","","","","","","","",""
"null","is challenging","","html-keyboard-response","252","2421491","0.0-17.0-2.6","72832","List1A","white","man","","","","null","","","","","","","","",""
"9512.699999988079","","","survey-text","253","2431009","0.0-17.0-3.6","72832","List1A","white","man","","","","","{""Q0"":""mike is challenging luke""}","<img src=""stim_listA/challenge5.gif""style=""height:400px;""></stim_listA>","is challenging","","","","","",""
"null","<div style=""font-size:60px;"">+</div>","","html-keyboard-response","254","2431526","0.0-17.0-0.7","72832","List1A","white","man","","","","null","","","","","","","","",""
"null","<img src=""stim_listA/kiss4.gif""style=""height:400px;""></stim_listA>","","html-keyboard-response","255","2433545","0.0-17.0-1.7","72832","List1A","white","man","","","","null","","","","","","","","",""
"null","is being kissed by","","html-keyboard-response","256","2435562","0.0-17.0-2.7","72832","List1A","white","man","","","","null","","","","","","","","",""
"20919.30000001192","","","survey-text","257","2456487","0.0-17.0-3.7","72832","List1A","white","man","","","","","{""Q0"":""jane is being kissed by dave""}","<img src=""stim_listA/kiss4.gif""style=""height:400px;""></stim_listA>","is being kissed by","","","","","",""
"null","<div style=""font-size:60px;"">+</div>","","html-keyboard-response","258","2457004","0.0-17.0-0.8","72832","List1A","white","man","","","","null","","","","","","","","",""
"null","<img src=""stim_listA/seduce7.gif""style=""height:400px;""></stim_listA>","","html-keyboard-response","259","2459018","0.0-17.0-1.8","72832","List1A","white","man","","","","null","","","","","","","","",""
"null","is seducing","","html-keyboard-response","260","2461031","0.0-17.0-2.8","72832","List1A","white","man","","","","null","","","","","","","","",""
"9699.100000023842","","","survey-text","261","2470735","0.0-17.0-3.8","72832","List1A","white","man","","","","","{""Q0"":""beth is seducing jane""}","<img src=""stim_listA/seduce7.gif""style=""height:400px;""></stim_listA>","is seducing","","","","","",""
"null","<div style=""font-size:60px;"">+</div>","","html-keyboard-response","262","2471241","0.0-17.0-0.9","72832","List1A","white","man","","","","null","","","","","","","","",""
"null","<img src=""stim_listA/greet3.gif""style=""height:400px;""></stim_listA>","","html-keyboard-response","263","2473252","0.0-17.0-1.9","72832","List1A","white","man","","","","null","","","","","","","","",""
"null","is greeting","","html-keyboard-response","264","2475254","0.0-17.0-2.9","72832","List1A","white","man","","","","null","","","","","","","","",""
"7616.5999999940395","","","survey-text","265","2482876","0.0-17.0-3.9","72832","List1A","white","man","","","","","{""Q0"":""dave is greeting ruth""}","<img src=""stim_listA/greet3.gif""style=""height:400px;""></stim_listA>","is greeting","","","","","",""
"null","<div style=""font-size:60px;"">+</div>","","html-keyboard-response","266","2483378","0.0-17.0-0.10","72832","List1A","white","man","","","","null","","","","","","","","",""
"null","<img src=""stim_listA/greet4.gif""style=""height:400px;""></stim_listA>","","html-keyboard-response","267","2485388","0.0-17.0-1.10","72832","List1A","white","man","","","","null","","","","","","","","",""
"null","is being greeted by","","html-keyboard-response","268","2487396","0.0-17.0-2.10","72832","List1A","white","man","","","","null","","","","","","","","",""
"10625.40000000596","","","survey-text","269","2498027","0.0-17.0-3.10","72832","List1A","white","man","","","","","{""Q0"":""luke is being greeted by jane""}","<img src=""stim_listA/greet4.gif""style=""height:400px;""></stim_listA>","is being greeted by","","","","","",""
"null","<div style=""font-size:60px;"">+</div>","","html-keyboard-response","270","2498544","0.0-17.0-0.11","72832","List1A","white","man","","","","null","","","","","","","","",""
"null","<img src=""stim_listA/shout8.gif""style=""height:400px;""></stim_listA>","","html-keyboard-response","271","2500549","0.0-17.0-1.11","72832","List1A","white","man","","","","null","","","","","","","","",""
"null","is being shouted at by","","html-keyboard-response","272","2502560","0.0-17.0-2.11","72832","List1A","white","man","","","","null","","","","","","","","",""
"8732.399999976158","","","survey-text","273","2511298","0.0-17.0-3.11","72832","List1A","white","man","","","","","{""Q0"":""jane is shouted at by kate""}","<img src=""stim_listA/shout8.gif""style=""height:400px;""></stim_listA>","is being shouted at by","","","","","",""
"null","<div style=""font-size:60px;"">+</div>","","html-keyboard-response","274","2511800","0.0-17.0-0.12","72832","List1A","white","man","","","","null","","","","","","","","",""
"null","<img src=""stim_listA/hug7.gif""style=""height:400px;""></stim_listA>","","html-keyboard-response","275","2513818","0.0-17.0-1.12","72832","List1A","white","man","","","","null","","","","","","","","",""
"null","is hugging","","html-keyboard-response","276","2515827","0.0-17.0-2.12","72832","List1A","white","man","","","","null","","","","","","","","",""
"8407.40000000596","","","survey-text","277","2524240","0.0-17.0-3.12","72832","List1A","white","man","","","","","{""Q0"":""ruth is hugging beth""}","<img src=""stim_listA/hug7.gif""style=""height:400px;""></stim_listA>","is hugging","","","","","",""
"null","<div style=""font-size:60px;"">+</div>","","html-keyboard-response","278","2524751","0.0-17.0-0.13","72832","List1A","white","man","","","","null","","","","","","","","",""
"null","<img src=""stim_listA/oppose5.gif""style=""height:400px;""></stim_listA>","","html-keyboard-response","279","2526755","0.0-17.0-1.13","72832","List1A","white","man","","","","null","","","","","","","","",""
"null","is opposing","","html-keyboard-response","280","2528765","0.0-17.0-2.13","72832","List1A","white","man","","","","null","","","","","","","","",""
"10769.799999982119","","","survey-text","281","2539540","0.0-17.0-3.13","72832","List1A","white","man","","","","","{""Q0"":""dave is opposing mike""}","<img src=""stim_listA/oppose5.gif""style=""height:400px;""></stim_listA>","is opposing","","","","","",""
"null","<div style=""font-size:60px;"">+</div>","","html-keyboard-response","282","2540043","0.0-17.0-0.14","72832","List1A","white","man","","","","null","","","","","","","","",""
"null","<img src=""stim_listA/shout4.gif""style=""height:400px;""></stim_listA>","","html-keyboard-response","283","2542057","0.0-17.0-1.14","72832","List1A","white","man","","","","null","","","","","","","","",""
"null","is being shouted at by","","html-keyboard-response","284","2544066","0.0-17.0-2.14","72832","List1A","white","man","","","","null","","","","","","","","",""
"10626.09999999404","","","survey-text","285","2554695","0.0-17.0-3.14","72832","List1A","white","man","","","","","{""Q0"":""jane is being shouted at by dave""}","<img src=""stim_listA/shout4.gif""style=""height:400px;""></stim_listA>","is being shouted at by","","","","","",""
"null","<div style=""font-size:60px;"">+</div>","","html-keyboard-response","286","2555205","0.0-17.0-0.15","72832","List1A","white","man","","","","null","","","","","","","","",""
"null","<img src=""stim_listA/hug1.gif""style=""height:400px;""></stim_listA>","","html-keyboard-response","287","2557225","0.0-17.0-1.15","72832","List1A","white","man","","","","null","","","","","","","","",""
"null","is hugging","","html-keyboard-response","288","2559233","0.0-17.0-2.15","72832","List1A","white","man","","","","null","","","","","","","","",""
"6752.699999988079","","","survey-text","289","2565991","0.0-17.0-3.15","72832","List1A","white","man","","","","","{""Q0"":""beth is hugging fred""}","<img src=""stim_listA/hug1.gif""style=""height:400px;""></stim_listA>","is hugging","","","","","",""
"null","<div style=""font-size:60px;"">+</div>","","html-keyboard-response","290","2566508","0.0-17.0-0.16","72832","List1A","white","man","","","","null","","","","","","","","",""
"null","<img src=""stim_listA/oppose6.gif""style=""height:400px;""></stim_listA>","","html-keyboard-response","291","2568513","0.0-17.0-1.16","72832","List1A","white","man","","","","null","","","","","","","","",""
"null","is being opposed by","","html-keyboard-response","292","2570522","0.0-17.0-2.16","72832","List1A","white","man","","","","null","","","","","","","","",""
"10274.40000000596","","","survey-text","293","2580802","0.0-17.0-3.16","72832","List1A","white","man","","","","","{""Q0"":""fred is being opposed by luke""}","<img src=""stim_listA/oppose6.gif""style=""height:400px;""></stim_listA>","is being opposed by","","","","","",""
"null","<div style=""font-size:60px;"">+</div>","","html-keyboard-response","294","2581307","0.0-17.0-0.17","72832","List1A","white","man","","","","null","","","","","","","","",""
"null","<img src=""stim_listA/look8.gif""style=""height:400px;""></stim_listA>","","html-keyboard-response","295","2583312","0.0-17.0-1.17","72832","List1A","white","man","","","","null","","","","","","","","",""
"null","is being looked at by","","html-keyboard-response","296","2585327","0.0-17.0-2.17","72832","List1A","white","man","","","","null","","","","","","","","",""
"10821.600000023842","","","survey-text","297","2596154","0.0-17.0-3.17","72832","List1A","white","man","","","","","{""Q0"":""kate is being looked at by jane""}","<img src=""stim_listA/look8.gif""style=""height:400px;""></stim_listA>","is being looked at by","","","","","",""
"null","<div style=""font-size:60px;"">+</div>","","html-keyboard-response","298","2596661","0.0-17.0-0.18","72832","List1A","white","man","","","","null","","","","","","","","",""
"null","<img src=""stim_listA/copy3.gif""style=""height:400px;""></stim_listA>","","html-keyboard-response","299","2598679","0.0-17.0-1.18","72832","List1A","white","man","","","","null","","","","","","","","",""
"null","is copying","","html-keyboard-response","300","2600682","0.0-17.0-2.18","72832","List1A","white","man","","","","null","","","","","","","","",""
"10855","","","survey-text","301","2611542","0.0-17.0-3.18","72832","List1A","white","man","","","","","{""Q0"":""ruth is copying dave""}","<img src=""stim_listA/copy3.gif""style=""height:400px;""></stim_listA>","is copying","","","","","",""
"null","<div style=""font-size:60px;"">+</div>","","html-keyboard-response","302","2612051","0.0-17.0-0.19","72832","List1A","white","man","","","","null","","","","","","","","",""
"null","<img src=""stim_listA/seduce8.gif""style=""height:400px;""></stim_listA>","","html-keyboard-response","303","2614068","0.0-17.0-1.19","72832","List1A","white","man","","","","null","","","","","","","","",""
"null","is being seduced by","","html-keyboard-response","304","2616076","0.0-17.0-2.19","72832","List1A","white","man","","","","null","","","","","","","","",""
"11849.09999999404","","","survey-text","305","2627929","0.0-17.0-3.19","72832","List1A","white","man","","","","","{""Q0"":""ruth is being seduced by kate""}","<img src=""stim_listA/seduce8.gif""style=""height:400px;""></stim_listA>","is being seduced by","","","","","",""
"2419.0999999940395","<img src='img/portrait_matrix_list1.jpg' style='width:900px;height:500px;''></img><p>If you have memorised all the portraits and names and are ready to start, press Continue.</p><p><strong>Please note: Your memory of these faces will be tested 4 times during this experiment.</strong></p>","0","html-button-response","306","2630352","0.0-18.0-0.0","72832","List1A","white","man","","","","","","","","","","","","",""
"2139","<img src=""portrait/BW1.jpg""style=""height:400px;""></img>","0","html-button-response","307","2633508","0.0-18.0-1.0","72832","List1A","white","man","","true","0","","","","","","","","","",""
"null","CORRECT","","html-keyboard-response","308","2635028","0.0-18.0-2.0-0.0","72832","List1A","white","man","","","","null","","","","","","","","",""
"2516.800000011921","<img src=""portrait/WM1.jpg""style=""height:400px;""></img>","6","html-button-response","309","2637549","0.0-18.0-4.0","72832","List1A","white","man","","true","6","","","","","","","","","",""
"null","CORRECT","","html-keyboard-response","310","2639075","0.0-18.0-5.0-0.0","72832","List1A","white","man","","","","null","","","","","","","","",""
"4418.199999988079","<img src=""portrait/BW2.jpg""style=""height:400px;""></img>","2","html-button-response","311","2643498","0.0-18.0-7.0","72832","List1A","white","man","","true","2","","","","","","","","","",""
"null","CORRECT","","html-keyboard-response","312","2645017","0.0-18.0-8.0-0.0","72832","List1A","white","man","","","","null","","","","","","","","",""
"2075","<img src=""portrait/WW1.jpg""style=""height:400px;""></img>","1","html-button-response","313","2647096","0.0-18.0-10.0","72832","List1A","white","man","","true","1","","","","","","","","","",""
"null","CORRECT","","html-keyboard-response","314","2648611","0.0-18.0-11.0-0.0","72832","List1A","white","man","","","","null","","","","","","","","",""
"5209.800000011921","<img src=""portrait/BM1.jpg""style=""height:400px;""></img>","4","html-button-response","315","2653824","0.0-18.0-13.0","72832","List1A","white","man","","true","4","","","","","","","","","",""
"null","CORRECT","","html-keyboard-response","316","2655346","0.0-18.0-14.0-0.0","72832","List1A","white","man","","","","null","","","","","","","","",""
"7832.699999988079","<img src=""portrait/BM2.jpg""style=""height:400px;""></img>","5","html-button-response","317","2663182","0.0-18.0-16.0","72832","List1A","white","man","","true","5","","","","","","","","","",""
"null","CORRECT","","html-keyboard-response","318","2664701","0.0-18.0-17.0-0.0","72832","List1A","white","man","","","","null","","","","","","","","",""
"2159.600000023842","<img src=""portrait/WM2.jpg""style=""height:400px;""></img>","7","html-button-response","319","2666866","0.0-18.0-19.0","72832","List1A","white","man","","true","7","","","","","","","","","",""
"null","CORRECT","","html-keyboard-response","320","2668382","0.0-18.0-20.0-0.0","72832","List1A","white","man","","","","null","","","","","","","","",""
"3041.100000023842","<img src=""portrait/WW2.jpg""style=""height:400px;""></img>","3","html-button-response","321","2671426","0.0-18.0-22.0","72832","List1A","white","man","","true","3","","","","","","","","","",""
"null","CORRECT","","html-keyboard-response","322","2672941","0.0-18.0-23.0-0.0","72832","List1A","white","man","","","","null","","","","","","","","",""
"1673.0999999940395","<p>You got 8 out of 8 right first time. Press Continue.</p>","0","html-button-response","323","2674618","0.0-18.0-25.0","72832","List1A","white","man","","","","","","","","","","","","",""
"null","<div style=""font-size:60px;"">+</div>","","html-keyboard-response","324","2676145","0.0-19.0-0.0","72832","List1A","white","man","","","","null","","","","","","","","",""
"null","<img src=""stim_listA/touch7.gif""style=""height:400px;""></stim_listA>","","html-keyboard-response","325","2678152","0.0-19.0-1.0","72832","List1A","white","man","","","","null","","","","","","","","",""
"null","is touching","","html-keyboard-response","326","2680155","0.0-19.0-2.0","72832","List1A","white","man","","","","null","","","","","","","","",""
"7713.4000000059605","","","survey-text","327","2687873","0.0-19.0-3.0","72832","List1A","white","man","","","","","{""Q0"":""jane is being touched by kate""}","<img src=""stim_listA/touch7.gif""style=""height:400px;""></stim_listA>","is touching","","","","","",""
"null","<div style=""font-size:60px;"">+</div>","","html-keyboard-response","328","2688389","0.0-19.0-0.1","72832","List1A","white","man","","","","null","","","","","","","","",""
"null","<img src=""stim_listA/kiss5.gif""style=""height:400px;""></stim_listA>","","html-keyboard-response","329","2690397","0.0-19.0-1.1","72832","List1A","white","man","","","","null","","","","","","","","",""
"null","is kissing","","html-keyboard-response","330","2692415","0.0-19.0-2.1","72832","List1A","white","man","","","","null","","","","","","","","",""
"13139.90000000596","","","survey-text","331","2705560","0.0-19.0-3.1","72832","List1A","white","man","","","","","{""Q0"":""fred is kissing luke""}","<img src=""stim_listA/kiss5.gif""style=""height:400px;""></stim_listA>","is kissing","","","","","",""
"null","<div style=""font-size:60px;"">+</div>","","html-keyboard-response","332","2706077","0.0-19.0-0.2","72832","List1A","white","man","","","","null","","","","","","","","",""
"null","<img src=""stim_listA/copy1.gif""style=""height:400px;""></stim_listA>","","html-keyboard-response","333","2708093","0.0-19.0-1.2","72832","List1A","white","man","","","","null","","","","","","","","",""
"null","is copying","","html-keyboard-response","334","2710104","0.0-19.0-2.2","72832","List1A","white","man","","","","null","","","","","","","","",""
"5157.200000017881","","","survey-text","335","2715266","0.0-19.0-3.2","72832","List1A","white","man","","","","","{""Q0"":""beth is copying mike""}","<img src=""stim_listA/copy1.gif""style=""height:400px;""></stim_listA>","is copying","","","","","",""
"null","<div style=""font-size:60px;"">+</div>","","html-keyboard-response","336","2715769","0.0-19.0-0.3","72832","List1A","white","man","","","","null","","","","","","","","",""
"null","<img src=""stim_listA/greet2.gif""style=""height:400px;""></stim_listA>","","html-keyboard-response","337","2717780","0.0-19.0-1.3","72832","List1A","white","man","","","","null","","","","","","","","",""
"null","is being greeted by","","html-keyboard-response","338","2719783","0.0-19.0-2.3","72832","List1A","white","man","","","","null","","","","","","","","",""
"8707.199999988079","","","survey-text","339","2728494","0.0-19.0-3.3","72832","List1A","white","man","","","","","{""Q0"":""fred is being greeted by kate""}","<img src=""stim_listA/greet2.gif""style=""height:400px;""></stim_listA>","is being greeted by","","","","","",""
"null","<div style=""font-size:60px;"">+</div>","","html-keyboard-response","340","2729005","0.0-19.0-0.4","72832","List1A","white","man","","","","null","","","","","","","","",""
"null","<img src=""stim_listA/hug4.gif""style=""height:400px;""></stim_listA>","","html-keyboard-response","341","2731009","0.0-19.0-1.4","72832","List1A","white","man","","","","null","","","","","","","","",""
"null","is being hugged by","","html-keyboard-response","342","2733011","0.0-19.0-2.4","72832","List1A","white","man","","","","null","","","","","","","","",""
"7336.100000023842","","","survey-text","343","2740352","0.0-19.0-3.4","72832","List1A","white","man","","","","","{""Q0"":""jane is being hugged by dave""}","<img src=""stim_listA/hug4.gif""style=""height:400px;""></stim_listA>","is being hugged by","","","","","",""
"null","<div style=""font-size:60px;"">+</div>","","html-keyboard-response","344","2740855","0.0-19.0-0.5","72832","List1A","white","man","","","","null","","","","","","","","",""
"null","<img src=""stim_listA/kiss7.gif""style=""height:400px;""></stim_listA>","","html-keyboard-response","345","2742870","0.0-19.0-1.5","72832","List1A","white","man","","","","null","","","","","","","","",""
"null","is kissing","","html-keyboard-response","346","2744885","0.0-19.0-2.5","72832","List1A","white","man","","","","null","","","","","","","","",""
"5149","","","survey-text","347","2750039","0.0-19.0-3.5","72832","List1A","white","man","","","","","{""Q0"":""beth is kissing ruth""}","<img src=""stim_listA/kiss7.gif""style=""height:400px;""></stim_listA>","is kissing","","","","","",""
"null","<div style=""font-size:60px;"">+</div>","","html-keyboard-response","348","2750550","0.0-19.0-0.6","72832","List1A","white","man","","","","null","","","","","","","","",""
"null","<img src=""stim_listA/greet1.gif""style=""height:400px;""></stim_listA>","","html-keyboard-response","349","2752566","0.0-19.0-1.6","72832","List1A","white","man","","","","null","","","","","","","","",""
"null","is greeting","","html-keyboard-response","350","2754578","0.0-19.0-2.6","72832","List1A","white","man","","","","null","","","","","","","","",""
"8684.90000000596","","","survey-text","351","2763266","0.0-19.0-3.6","72832","List1A","white","man","","","","","{""Q0"":""beth is greeting mike""}","<img src=""stim_listA/greet1.gif""style=""height:400px;""></stim_listA>","is greeting","","","","","",""
"null","<div style=""font-size:60px;"">+</div>","","html-keyboard-response","352","2763783","0.0-19.0-0.7","72832","List1A","white","man","","","","null","","","","","","","","",""
"null","<img src=""stim_listA/look6.gif""style=""height:400px;""></stim_listA>","","html-keyboard-response","353","2765802","0.0-19.0-1.7","72832","List1A","white","man","","","","null","","","","","","","","",""
"null","is being looked at by","","html-keyboard-response","354","2767813","0.0-19.0-2.7","72832","List1A","white","man","","","","null","","","","","","","","",""
"10024.700000017881","","","survey-text","355","2777844","0.0-19.0-3.7","72832","List1A","white","man","","","","","{""Q0"":""mike is being looked at by dave""}","<img src=""stim_listA/look6.gif""style=""height:400px;""></stim_listA>","is being looked at by","","","","","",""
"null","<div style=""font-size:60px;"">+</div>","","html-keyboard-response","356","2778359","0.0-19.0-0.8","72832","List1A","white","man","","","","null","","","","","","","","",""
"null","<img src=""stim_listA/challenge4.gif""style=""height:400px;""></stim_listA>","","html-keyboard-response","357","2780368","0.0-19.0-1.8","72832","List1A","white","man","","","","null","","","","","","","","",""
"null","is being challenged by","","html-keyboard-response","358","2782371","0.0-19.0-2.8","72832","List1A","white","man","","","","null","","","","","","","","",""
"20022.09999999404","","","survey-text","359","2802398","0.0-19.0-3.8","72832","List1A","white","man","","","","","{""Q0"":""jane is being challenged by luke""}","<img src=""stim_listA/challenge4.gif""style=""height:400px;""></stim_listA>","is being challenged by","","","","","",""
"null","<div style=""font-size:60px;"">+</div>","","html-keyboard-response","360","2802900","0.0-19.0-0.9","72832","List1A","white","man","","","","null","","","","","","","","",""
"null","<img src=""stim_listA/look1.gif""style=""height:400px;""></stim_listA>","","html-keyboard-response","361","2804911","0.0-19.0-1.9","72832","List1A","white","man","","","","null","","","","","","","","",""
"null","is looking at","","html-keyboard-response","362","2806914","0.0-19.0-2.9","72832","List1A","white","man","","","","null","","","","","","","","",""
"6578.5","","","survey-text","363","2813498","0.0-19.0-3.9","72832","List1A","white","man","","","","","{""Q0"":""fred is looking at beth""}","<img src=""stim_listA/look1.gif""style=""height:400px;""></stim_listA>","is looking at","","","","","",""
"null","<div style=""font-size:60px;"">+</div>","","html-keyboard-response","364","2814016","0.0-19.0-0.10","72832","List1A","white","man","","","","null","","","","","","","","",""
"null","<img src=""stim_listA/greet5.gif""style=""height:400px;""></stim_listA>","","html-keyboard-response","365","2816022","0.0-19.0-1.10","72832","List1A","white","man","","","","null","","","","","","","","",""
"null","is greeting","","html-keyboard-response","366","2818026","0.0-19.0-2.10","72832","List1A","white","man","","","","null","","","","","","","","",""
"7818.199999988079","","","survey-text","367","2825849","0.0-19.0-3.10","72832","List1A","white","man","","","","","{""Q0"":""mike is greeting luke""}","<img src=""stim_listA/greet5.gif""style=""height:400px;""></stim_listA>","is greeting","","","","","",""
"null","<div style=""font-size:60px;"">+</div>","","html-keyboard-response","368","2826357","0.0-19.0-0.11","72832","List1A","white","man","","","","null","","","","","","","","",""
"null","<img src=""stim_listA/oppose2.gif""style=""height:400px;""></stim_listA>","","html-keyboard-response","369","2828371","0.0-19.0-1.11","72832","List1A","white","man","","","","null","","","","","","","","",""
"null","is being opposed by","","html-keyboard-response","370","2830374","0.0-19.0-2.11","72832","List1A","white","man","","","","null","","","","","","","","",""
"8001.4000000059605","","","survey-text","371","2838381","0.0-19.0-3.11","72832","List1A","white","man","","","","","{""Q0"":""fred is being opposed by beth""}","<img src=""stim_listA/oppose2.gif""style=""height:400px;""></stim_listA>","is being opposed by","","","","","",""
"null","<div style=""font-size:60px;"">+</div>","","html-keyboard-response","372","2838890","0.0-19.0-0.12","72832","List1A","white","man","","","","null","","","","","","","","",""
"null","<img src=""stim_listA/copy8.gif""style=""height:400px;""></stim_listA>","","html-keyboard-response","373","2840907","0.0-19.0-1.12","72832","List1A","white","man","","","","null","","","","","","","","",""
"null","is being copied by","","html-keyboard-response","374","2842925","0.0-19.0-2.12","72832","List1A","white","man","","","","null","","","","","","","","",""
"9897.09999999404","","","survey-text","375","2852828","0.0-19.0-3.12","72832","List1A","white","man","","","","","{""Q0"":""beth is being opposed by jane""}","<img src=""stim_listA/copy8.gif""style=""height:400px;""></stim_listA>","is being copied by","","","","","",""
"null","<div style=""font-size:60px;"">+</div>","","html-keyboard-response","376","2853331","0.0-19.0-0.13","72832","List1A","white","man","","","","null","","","","","","","","",""
"null","<img src=""stim_listA/touch1.gif""style=""height:400px;""></stim_listA>","","html-keyboard-response","377","2855350","0.0-19.0-1.13","72832","List1A","white","man","","","","null","","","","","","","","",""
"null","is touching","","html-keyboard-response","378","2857360","0.0-19.0-2.13","72832","List1A","white","man","","","","null","","","","","","","","",""
"7764.4000000059605","","","survey-text","379","2865130","0.0-19.0-3.13","72832","List1A","white","man","","","","","{""Q0"":""mike is touching kate""}","<img src=""stim_listA/touch1.gif""style=""height:400px;""></stim_listA>","is touching","","","","","",""
"null","<div style=""font-size:60px;"">+</div>","","html-keyboard-response","380","2865643","0.0-19.0-0.14","72832","List1A","white","man","","","","null","","","","","","","","",""
"null","<img src=""stim_listA/kiss1.gif""style=""height:400px;""></stim_listA>","","html-keyboard-response","381","2867662","0.0-19.0-1.14","72832","List1A","white","man","","","","null","","","","","","","","",""
"null","is kissing","","html-keyboard-response","382","2869669","0.0-19.0-2.14","72832","List1A","white","man","","","","null","","","","","","","","",""
"11523.699999988079","","","survey-text","383","2881198","0.0-19.0-3.14","72832","List1A","white","man","","","","","{""Q0"":""fred is kissing beth""}","<img src=""stim_listA/kiss1.gif""style=""height:400px;""></stim_listA>","is kissing","","","","","",""
"null","<div style=""font-size:60px;"">+</div>","","html-keyboard-response","384","2881708","0.0-19.0-0.15","72832","List1A","white","man","","","","null","","","","","","","","",""
"null","<img src=""stim_listA/hug2.gif""style=""height:400px;""></stim_listA>","","html-keyboard-response","385","2883719","0.0-19.0-1.15","72832","List1A","white","man","","","","null","","","","","","","","",""
"null","is being hugged by","","html-keyboard-response","386","2885730","0.0-19.0-2.15","72832","List1A","white","man","","","","null","","","","","","","","",""
"8796.700000017881","","","survey-text","387","2894532","0.0-19.0-3.15","72832","List1A","white","man","","","","","{""Q0"":""mike is being hugged by kate""}","<img src=""stim_listA/hug2.gif""style=""height:400px;""></stim_listA>","is being hugged by","","","","","",""
"null","<div style=""font-size:60px;"">+</div>","","html-keyboard-response","388","2895042","0.0-19.0-0.16","72832","List1A","white","man","","","","null","","","","","","","","",""
"null","<img src=""stim_listA/look7.gif""style=""height:400px;""></stim_listA>","","html-keyboard-response","389","2897052","0.0-19.0-1.16","72832","List1A","white","man","","","","null","","","","","","","","",""
"null","is looking at","","html-keyboard-response","390","2899057","0.0-19.0-2.16","72832","List1A","white","man","","","","null","","","","","","","","",""
"9426.200000017881","","","survey-text","391","2908494","0.0-19.0-3.16","72832","List1A","white","man","","","","","{""Q0"":""beth is looking at ruth""}","<img src=""stim_listA/look7.gif""style=""height:400px;""></stim_listA>","is looking at","","","","","",""
"null","<div style=""font-size:60px;"">+</div>","","html-keyboard-response","392","2908996","0.0-19.0-0.17","72832","List1A","white","man","","","","null","","","","","","","","",""
"null","<img src=""stim_listA/touch6.gif""style=""height:400px;""></stim_listA>","","html-keyboard-response","393","2911003","0.0-19.0-1.17","72832","List1A","white","man","","","","null","","","","","","","","",""
"null","is being touched by","","html-keyboard-response","394","2913011","0.0-19.0-2.17","72832","List1A","white","man","","","","null","","","","","","","","",""
"9219","","","survey-text","395","2922236","0.0-19.0-3.17","72832","List1A","white","man","","","","","{""Q0"":""fred is being touched by luke""}","<img src=""stim_listA/touch6.gif""style=""height:400px;""></stim_listA>","is being touched by","","","","","",""
"null","<div style=""font-size:60px;"">+</div>","","html-keyboard-response","396","2922751","0.0-19.0-0.18","72832","List1A","white","man","","","","null","","","","","","","","",""
"null","<img src=""stim_listA/look2.gif""style=""height:400px;""></stim_listA>","","html-keyboard-response","397","2924766","0.0-19.0-1.18","72832","List1A","white","man","","","","null","","","","","","","","",""
"null","is being looked at by","","html-keyboard-response","398","2926776","0.0-19.0-2.18","72832","List1A","white","man","","","","null","","","","","","","","",""
"8767.59999999404","","","survey-text","399","2935549","0.0-19.0-3.18","72832","List1A","white","man","","","","","{""Q0"":""mike is being looked at by jane""}","<img src=""stim_listA/look2.gif""style=""height:400px;""></stim_listA>","is being looked at by","","","","","",""
"null","<div style=""font-size:60px;"">+</div>","","html-keyboard-response","400","2936066","0.0-19.0-0.19","72832","List1A","white","man","","","","null","","","","","","","","",""
"null","<img src=""stim_listA/look4.gif""style=""height:400px;""></stim_listA>","","html-keyboard-response","401","2938080","0.0-19.0-1.19","72832","List1A","white","man","","","","null","","","","","","","","",""
"null","is being looked at by","","html-keyboard-response","402","2940092","0.0-19.0-2.19","72832","List1A","white","man","","","","null","","","","","","","","",""
"12592.40000000596","","","survey-text","403","2952689","0.0-19.0-3.19","72832","List1A","white","man","","","","","{""Q0"":""jane is being looked at by dave""}","<img src=""stim_listA/look4.gif""style=""height:400px;""></stim_listA>","is being looked at by","","","","","",""
"1616.4000000059605","<p>Thank you for completing that task.</p><p>The final part of this session is a questionnaire that will take about 4 minutes.</p><p>Press Continue.</p>","0","html-button-response","404","2954308","0.0-20.0","72832","List1A","white","man","","","","","","","","","","","","",""
"29581.59999999404","","","survey-text","405","2984908","0.0-21.0","72832","List1A","white","man","","","","","{""Q0"":""38"",""Q1"":""english"",""Q2"":""english"",""Q3"":""USA"",""Q4"":""American"",""Q5"":""White"",""Q6"":""Male""}","","","demographics","","","","",""
"2262.9000000059605","<p>Have you lived in the USA for the last 5 years or more?</p>","0","html-button-response","406","2987174","0.0-22.0","72832","List1A","white","man","","","","","","","","fiveyears","","","","",""
"1046","<p>Move the slider to show the extent to which you agree with the following statements.</p>","0","html-button-response","407","2989228","0.0-23.0","72832","List1A","white","man","","","","","","","","","","","","",""
"5247.9000000059605","","","html-slider-response","408","2995557","0.0-24.0-0.0-0.0","72832","List1A","white","man","","","","","","","","survey_race","51","","","I am glad to be my age.","filler"
"6760.0999999940395","","","html-slider-response","409","3002321","0.0-24.0-0.0-0.1","72832","List1A","white","man","","","","","","","","survey_race","51","","","I consider myself an extrovert.","filler"
"2162.699999988079","","","html-slider-response","410","3004488","0.0-24.0-0.0-0.2","72832","List1A","white","man","","","","","","","","survey_race","53","","","I feel solidarity with my race.","solidarity"
"1755.5999999940395","","","html-slider-response","411","3006246","0.0-24.0-0.0-0.3","72832","List1A","white","man","","","","","","","","survey_race","51","","","Being my age gives me a good feeling.","filler"
"1746.5","","","html-slider-response","412","3007995","0.0-24.0-0.0-0.4","72832","List1A","white","man","","","","","","","","survey_race","51","","","I have a lot in common with people of a similar age to me.","filler"
"1640.9000000059605","","","html-slider-response","413","3009639","0.0-24.0-0.0-0.5","72832","List1A","white","man","","","","","","","","survey_race","51","","","I consider myself an introvert.","filler"
"1633.0999999940395","","","html-slider-response","414","3011275","0.0-24.0-0.0-0.6","72832","List1A","white","man","","","","","","","","survey_race","51","","","I think that my race has a lot to be proud of.","proud"
"1435.9000000059605","","","html-slider-response","415","3012714","0.0-24.0-0.0-0.7","72832","List1A","white","man","","","","","","","","survey_race","51","","","I am similar to the average person of my race.","similar"
"992.4000000059605","","","html-slider-response","416","3013709","0.0-24.0-0.0-0.8","72832","List1A","white","man","","","","","","","","survey_race","51","","","Being my race is an important part of how I see myself.","important"
"802.1999999880791","","","html-slider-response","417","3014514","0.0-24.0-0.0-0.9","72832","List1A","white","man","","","","","","","","survey_race","51","","","I feel a bond with my race.","bond"
"1026.0999999940395","","","html-slider-response","418","3015543","0.0-24.0-0.0-0.10","72832","List1A","white","man","","","","","","","","survey_race","51","","","I feel committed to my race.","committed"
"2270.5999999940395","","","html-slider-response","419","3017816","0.0-24.0-0.0-0.11","72832","List1A","white","man","","","","","","","","survey_race","51","","","Getting older does not worry me.","filler"
"1166.7999999821186","","","html-slider-response","420","3018986","0.0-24.0-0.0-0.12","72832","List1A","white","man","","","","","","","","survey_race","51","","","I often think about the fact that I am my age.","filler"
"1355.9000000059605","","","html-slider-response","421","3020345","0.0-24.0-0.0-0.13","72832","List1A","white","man","","","","","","","","survey_race","51","","","I feel solidarity with people the same age as me.","filler"
"1185.7000000178814","","","html-slider-response","422","3021534","0.0-24.0-0.0-0.14","72832","List1A","white","man","","","","","","","","survey_race","51","","","I often think about the fact that I am my race.","often"
"1261.6000000238419","","","html-slider-response","423","3022798","0.0-24.0-0.0-0.15","72832","List1A","white","man","","","","","","","","survey_race","51","","","People of my race are very similar to each other.","verysimilar"
"1254.0999999940395","","","html-slider-response","424","3024055","0.0-24.0-0.0-0.16","72832","List1A","white","man","","","","","","","","survey_race","51","","","People of my race have a lot in common with each other.","common"
"1185.699999988079","","","html-slider-response","425","3025243","0.0-24.0-0.0-0.17","72832","List1A","white","man","","","","","","","","survey_race","51","","","The fact that I am my race is an important part of my identity.","identity"
"1494.9000000059605","","","html-slider-response","426","3026741","0.0-24.0-0.0-0.18","72832","List1A","white","man","","","","","","","","survey_race","51","","","The older I get, the wiser I feel.","filler"
"1280.0999999940395","","","html-slider-response","427","3028023","0.0-24.0-0.0-0.19","72832","List1A","white","man","","","","","","","","survey_race","51","","","It is pleasant to be my race.","pleasant"
"3316.5999999940395","","","html-slider-response","428","3031343","0.0-24.0-0.0-0.20","72832","List1A","white","man","","","","","","","","survey_race","49","","","I have a lot in common with the average person of my race.","average"
"1704.699999988079","","","html-slider-response","429","3033052","0.0-24.0-0.0-0.21","72832","List1A","white","man","","","","","","","","survey_race","52","","","I am glad to be the age I am.","filler"
"2982.199999988079","","","html-slider-response","430","3036037","0.0-24.0-0.0-0.22","72832","List1A","white","man","","","","","","","","survey_race","46","","","I enjoy being in large groups.","filler"
"4694.4000000059605","","","html-slider-response","431","3040735","0.0-24.0-0.0-0.23","72832","List1A","white","man","","","","","","","","survey_race","51","","","People my age have a lot in common with each other.","filler"
"2077.899999976158","","","html-slider-response","432","3042817","0.0-24.0-0.0-0.24","72832","List1A","white","man","","","","","","","","survey_race","51","","","I am glad to be my race.","glad"
"2600.600000023842","","","html-slider-response","433","3045422","0.0-24.0-0.0-0.25","72832","List1A","white","man","","","","","","","","survey_race","51","","","I feel a bond with people the same age as me.","filler"
"2720.600000023842","","","html-slider-response","434","3048147","0.0-24.0-0.0-0.26","72832","List1A","white","man","","","","","","","","survey_race","36","","","My age is not an important part of who I am.","filler"
"2441.800000011921","","","html-slider-response","435","3050591","0.0-24.0-0.0-0.27","72832","List1A","white","man","","","","","","","","survey_race","58","","","Being my race gives me a good feeling.","feeling"
"4077","","","html-slider-response","436","3054671","0.0-24.0-1.0-0.0","72832","List1A","white","man","","","","","","","","survey_gender","43","","","I often think about the fact that I am my gender.","often"
"2335.0999999940395","","","html-slider-response","437","3057010","0.0-24.0-1.0-0.1","72832","List1A","white","man","","","","","","","","survey_gender","62","","","I consider myself a highly empathetic person.","filler"
"2490.300000011921","","","html-slider-response","438","3059503","0.0-24.0-1.0-0.2","72832","List1A","white","man","","","","","","","","survey_gender","57","","","I would say I am an animal person.","filler"
"2183.199999988079","","","html-slider-response","439","3061691","0.0-24.0-1.0-0.3","72832","List1A","white","man","","","","","","","","survey_gender","64","","","I feel solidarity with my friends.","filler"
"2797.199999988079","","","html-slider-response","440","3064491","0.0-24.0-1.0-0.4","72832","List1A","white","man","","","","","","","","survey_gender","38","","","It is not always easy for people to know what I am thinking.","filler"
"1880.4000000059605","","","html-slider-response","441","3066374","0.0-24.0-1.0-0.5","72832","List1A","white","man","","","","","","","","survey_gender","55","","","I feel committed to my gender.","committed"
"3674.300000011921","","","html-slider-response","442","3070052","0.0-24.0-1.0-0.6","72832","List1A","white","man","","","","","","","","survey_gender","58","","","Being my gender gives me a good feeling.","feeling"
"1921.300000011921","","","html-slider-response","443","3071977","0.0-24.0-1.0-0.7","72832","List1A","white","man","","","","","","","","survey_gender","60","","","My friends understand me.","filler"
"1937.4000000059605","","","html-slider-response","444","3073917","0.0-24.0-1.0-0.8","72832","List1A","white","man","","","","","","","","survey_gender","68","","","I am glad to have the friends that I have.","filler"
"1951.699999988079","","","html-slider-response","445","3075871","0.0-24.0-1.0-0.9","72832","List1A","white","man","","","","","","","","survey_gender","62","","","I feel a bond with my friends.","filler"
"1978.2000000178814","","","html-slider-response","446","3077851","0.0-24.0-1.0-0.10","72832","List1A","white","man","","","","","","","","survey_gender","59","","","I am similar to the average person of my gender.","similar"
"3921.5999999940395","","","html-slider-response","447","3081776","0.0-24.0-1.0-0.11","72832","List1A","white","man","","","","","","","","survey_gender","34","","","Family is not more important to me than friendship.","filler"
"12445","","","html-slider-response","448","3094226","0.0-24.0-1.0-0.12","72832","List1A","white","man","","","","","","","","survey_gender","64","","","The fact that I am my gender is an important part of my identity.","identity"
"2918.2999999821186","","","html-slider-response","449","3097149","0.0-24.0-1.0-0.13","72832","List1A","white","man","","","","","","","","survey_gender","55","","","It is pleasant to be my gender.","pleasant"
"4792.9000000059605","","","html-slider-response","450","3101945","0.0-24.0-1.0-0.14","72832","List1A","white","man","","","","","","","","survey_gender","57","","","Being around my friends gives me a good feeling.","filler"
"25602.90000000596","","","html-slider-response","451","3127552","0.0-24.0-1.0-0.15","72832","List1A","white","man","","","","","","","","survey_gender","55","","","I am glad to be my gender.","glad"
"3273.7000000178814","","","html-slider-response","452","3130832","0.0-24.0-1.0-0.16","72832","List1A","white","man","","","","","","","","survey_gender","51","","","People of my gender have a lot in common with each other.","common"
"3429.7999999821186","","","html-slider-response","453","3134265","0.0-24.0-1.0-0.17","72832","List1A","white","man","","","","","","","","survey_gender","49","","","People of my gender are very similar to each other.","verysimilar"
"7139","","","html-slider-response","454","3141408","0.0-24.0-1.0-0.18","72832","List1A","white","man","","","","","","","","survey_gender","47","","","Being my gender is an important part of how I see myself.","important"
"7369.4000000059605","","","html-slider-response","455","3148782","0.0-24.0-1.0-0.19","72832","List1A","white","man","","","","","","","","survey_gender","51","","","I have a lot in common with my friends.","filler"
"3977.199999988079","","","html-slider-response","456","3152762","0.0-24.0-1.0-0.20","72832","List1A","white","man","","","","","","","","survey_gender","51","","","I feel solidarity with my gender.","solidarity"
"1554.8999999761581","","","html-slider-response","457","3154320","0.0-24.0-1.0-0.21","72832","List1A","white","man","","","","","","","","survey_gender","51","","","My friends have a lot in common with each other.","filler"
"1547.6000000238419","","","html-slider-response","458","3155871","0.0-24.0-1.0-0.22","72832","List1A","white","man","","","","","","","","survey_gender","51","","","I have a lot in common with the average person of my gender.","average"
"1500.199999988079","","","html-slider-response","459","3157374","0.0-24.0-1.0-0.23","72832","List1A","white","man","","","","","","","","survey_gender","51","","","I feel a bond with my gender.","bond"
"3340.800000011921","","","html-slider-response","460","3160718","0.0-24.0-1.0-0.24","72832","List1A","white","man","","","","","","","","survey_gender","32","","","Routine is not important to me.","filler"
"3800.9000000059605","","","html-slider-response","461","3164522","0.0-24.0-1.0-0.25","72832","List1A","white","man","","","","","","","","survey_gender","52","","","I often think about my actions.","filler"
"6710.4000000059605","","","html-slider-response","462","3171236","0.0-24.0-1.0-0.26","72832","List1A","white","man","","","","","","","","survey_gender","56","","","Most of the friends in my life are very similar to me.","filler"
"2327","","","html-slider-response","463","3173568","0.0-24.0-1.0-0.27","72832","List1A","white","man","","","","","","","","survey_gender","51","","","I think that my gender has a lot to be proud of.","proud"
"9927.59999999404","","","survey-text","464","3183502","0.0-25.0","72832","List1A","white","man","","","","","{""Q0"":""615eefab3eaced1232e11e87""}","","","worker_id","","","","",""
"3304.9000000059605","","","external-html","465","3189008","0.0-26.0","72832","List1A","white","man","debrief.html","","","","","","","","","","","",""
