rt,stimulus,button_pressed,trial_type,trial_index,time_elapsed,internal_node_id,subject,list,ppt_race,ppt_gender,url,first_guess,correct,key_press,responses,image_type,phrase_type,test_part,response,stimulus1,stimulus2,question_type,survey_item
2142.3,Welcome to the experiment. Press Continue to begin.,0,html-button-response,0,2146,0.0-0.0,74533,List1B,black,woman,,,,,,,,,,,,,
6990.8,,,external-html,1,10316,0.0-1.0,74533,List1B,black,woman,consent.html,,,,,,,,,,,,
7477.6,"<p>On the next page, you will see portraits of 8 people and their names.</p><p>Your first task is to take a few minutes to memorise the names of these people.</p><p>You will have to recall their names during the rest of the experiment, so it is</p><p>essential that you try to memorise these people and their names as best as you can.</p><br><p><strong>You will then be tested on your memory of these names and portraits.</strong></p><br><p>The experiment will start after you have completed this memory test.</p><br><p>Ready?</p>",0,html-button-response,2,17797,0.0-2.0,74533,List1B,black,woman,,,,,,,,,,,,,
81404.5,"<img src='img/portrait_matrix_list1.jpg' style='width:900px;height:500px;''></img><p>If you have memorised all the portraits and names and are ready to start, press Continue.</p><p><strong>Please note: Your memory of these faces will be tested 4 times during this experiment.</strong></p>",0,html-button-response,3,100207,0.0-3.0-0.0,74533,List1B,black,woman,,,,,,,,,,,,,
2626.8,"<img src=""portrait/WM2.jpg""style=""height:400px;""></img>",7,html-button-response,4,103844,0.0-3.0-1.0,74533,List1B,black,woman,,TRUE,7,,,,,,,,,,
null,CORRECT,,html-keyboard-response,5,105358,0.0-3.0-2.0-0.0,74533,List1B,black,woman,,,,null,,,,,,,,,
3698,"<img src=""portrait/BM2.jpg""style=""height:400px;""></img>",5,html-button-response,6,109059,0.0-3.0-4.0,74533,List1B,black,woman,,TRUE,5,,,,,,,,,,
null,CORRECT,,html-keyboard-response,7,110574,0.0-3.0-5.0-0.0,74533,List1B,black,woman,,,,null,,,,,,,,,
3782.1,"<img src=""portrait/BM1.jpg""style=""height:400px;""></img>",4,html-button-response,8,114359,0.0-3.0-7.0,74533,List1B,black,woman,,TRUE,4,,,,,,,,,,
null,CORRECT,,html-keyboard-response,9,115864,0.0-3.0-8.0-0.0,74533,List1B,black,woman,,,,null,,,,,,,,,
2426.6,"<img src=""portrait/BW2.jpg""style=""height:400px;""></img>",2,html-button-response,10,118293,0.0-3.0-10.0,74533,List1B,black,woman,,TRUE,2,,,,,,,,,,
null,CORRECT,,html-keyboard-response,11,119806,0.0-3.0-11.0-0.0,74533,List1B,black,woman,,,,null,,,,,,,,,
2837.3,"<img src=""portrait/BW1.jpg""style=""height:400px;""></img>",0,html-button-response,12,122646,0.0-3.0-13.0,74533,List1B,black,woman,,TRUE,0,,,,,,,,,,
null,CORRECT,,html-keyboard-response,13,124155,0.0-3.0-14.0-0.0,74533,List1B,black,woman,,,,null,,,,,,,,,
3468.1,"<img src=""portrait/WW1.jpg""style=""height:400px;""></img>",1,html-button-response,14,127626,0.0-3.0-16.0,74533,List1B,black,woman,,TRUE,1,,,,,,,,,,
null,CORRECT,,html-keyboard-response,15,129139,0.0-3.0-17.0-0.0,74533,List1B,black,woman,,,,null,,,,,,,,,
3543.5,"<img src=""portrait/WW2.jpg""style=""height:400px;""></img>",3,html-button-response,16,132685,0.0-3.0-19.0,74533,List1B,black,woman,,TRUE,3,,,,,,,,,,
null,CORRECT,,html-keyboard-response,17,134198,0.0-3.0-20.0-0.0,74533,List1B,black,woman,,,,null,,,,,,,,,
2382,"<img src=""portrait/WM1.jpg""style=""height:400px;""></img>",6,html-button-response,18,136583,0.0-3.0-22.0,74533,List1B,black,woman,,TRUE,6,,,,,,,,,,
null,CORRECT,,html-keyboard-response,19,138096,0.0-3.0-23.0-0.0,74533,List1B,black,woman,,,,null,,,,,,,,,
2161.4,<p>You got 8 out of 8 right first time. Press Continue.</p>,0,html-button-response,20,140261,0.0-3.0-25.0,74533,List1B,black,woman,,,,,,,,,,,,,
28460.7,"<p>In this experiment, you will view photographs of the people from the memory game interacting.</p><p>By using the <strong>exact</strong> phrase given <i>after</i> the photograph appears and recalling the correct names of the people in the photographs, form a sentence describing the interaction. You do not need to capitalise names.</p><p>Type your answer in the space provided. Please complete every sentence before moving onto the next trial.</p><p>You will only have a few seconds to memorise each given photograph and phrase before you can respond, so try your best to focus.</p><p>An example is given below. Press 'Continue' when you are ready.</p><img src='img/speaking_example.jpg' style='width:800px;height:460px;''></img>",0,html-button-response,21,169732,0.0-4.0,74533,List1B,black,woman,,,,,,,,,,,,,
1506.3,"<p>Before the experiment starts, you will watch two example trials. Press 'Continue'.</p>",0,html-button-response,22,172247,0.0-5.0,74533,List1B,black,woman,,,,,,,,,,,,,
null,<img src='img/play_eg.gif' style='height:400px;''></img>,,html-keyboard-response,23,175257,0.0-6.0,74533,List1B,black,woman,,,,null,,,,,,,,,
null,<p>is playing with</p>,,html-keyboard-response,24,177261,0.0-7.0,74533,List1B,black,woman,,,,null,,,,,,,,,
2622.8,<p><b>Answer:</b> kate is playing with beth</p>,0,html-button-response,25,179886,0.0-8.0,74533,List1B,black,woman,,,,,,,,,,,,,
null,<img src='img/dance_eg.gif' style='height:400px;''></img>,,html-keyboard-response,26,182894,0.0-9.0,74533,List1B,black,woman,,,,null,,,,,,,,,
null,<p>is being entertained by</p>,,html-keyboard-response,27,184899,0.0-10.0,74533,List1B,black,woman,,,,null,,,,,,,,,
4068.1,<p><b>Answer:</b> luke is being entertained by dave</p>,0,html-button-response,28,188970,0.0-11.0,74533,List1B,black,woman,,,,,,,,,,,,,
6448.1,"<p>Ready to start the experiment?</p><br><p><strong>Remember to describe the picture using a full sentence,</strong></p><p><strong>that combines the names of the people with the <i>exact</i> phrase given.</strong></p><p><strong>To receive full payment you must do this correctly.</strong></p><p><strong> You do not need to capitalise names or use punctuation.</strong></p><br><p>Press 'Continue' to begin.</p>",0,html-button-response,29,196426,0.0-12.0,74533,List1B,black,woman,,,,,,,,,,,,,
null,"<div style=""font-size:60px;"">+</div>",,html-keyboard-response,30,197935,0.0-13.0-0.0,74533,List1B,black,woman,,,,null,,,,,,,,,
null,"<img src=""stim_listB/shout8.gif""style=""height:400px;""></stim_listB>",,html-keyboard-response,31,199943,0.0-13.0-1.0,74533,List1B,black,woman,,,,null,,,,,,,,,
null,is being shouted at by,,html-keyboard-response,32,201948,0.0-13.0-2.0,74533,List1B,black,woman,,,,null,,,,,,,,,
18106.1,,,survey-text,33,220059,0.0-13.0-3.0,74533,List1B,black,woman,,,,,"{""Q0"":""kate is being shouted by jane ""}","<img src=""stim_listB/shout8.gif""style=""height:400px;""></stim_listB>",is being shouted at by,,,,,,
null,"<div style=""font-size:60px;"">+</div>",,html-keyboard-response,34,220563,0.0-13.0-0.1,74533,List1B,black,woman,,,,null,,,,,,,,,
null,"<img src=""stim_listB/greet5.gif""style=""height:400px;""></stim_listB>",,html-keyboard-response,35,222570,0.0-13.0-1.1,74533,List1B,black,woman,,,,null,,,,,,,,,
null,is greeting,,html-keyboard-response,36,224577,0.0-13.0-2.1,74533,List1B,black,woman,,,,null,,,,,,,,,
9177.4,,,survey-text,37,233758,0.0-13.0-3.1,74533,List1B,black,woman,,,,,"{""Q0"":""luke is greeting mike""}","<img src=""stim_listB/greet5.gif""style=""height:400px;""></stim_listB>",is greeting,,,,,,
null,"<div style=""font-size:60px;"">+</div>",,html-keyboard-response,38,234262,0.0-13.0-0.2,74533,List1B,black,woman,,,,null,,,,,,,,,
null,"<img src=""stim_listB/oppose5.gif""style=""height:400px;""></stim_listB>",,html-keyboard-response,39,236270,0.0-13.0-1.2,74533,List1B,black,woman,,,,null,,,,,,,,,
null,is opposing,,html-keyboard-response,40,238274,0.0-13.0-2.2,74533,List1B,black,woman,,,,null,,,,,,,,,
10301.9,,,survey-text,41,248580,0.0-13.0-3.2,74533,List1B,black,woman,,,,,"{""Q0"":""mike is making a fist at dave""}","<img src=""stim_listB/oppose5.gif""style=""height:400px;""></stim_listB>",is opposing,,,,,,
null,"<div style=""font-size:60px;"">+</div>",,html-keyboard-response,42,249084,0.0-13.0-0.3,74533,List1B,black,woman,,,,null,,,,,,,,,
null,"<img src=""stim_listB/greet7.gif""style=""height:400px;""></stim_listB>",,html-keyboard-response,43,251090,0.0-13.0-1.3,74533,List1B,black,woman,,,,null,,,,,,,,,
null,is greeting,,html-keyboard-response,44,253095,0.0-13.0-2.3,74533,List1B,black,woman,,,,null,,,,,,,,,
13796.7,,,survey-text,45,266896,0.0-13.0-3.3,74533,List1B,black,woman,,,,,"{""Q0"":""ruth is raising hand at kate""}","<img src=""stim_listB/greet7.gif""style=""height:400px;""></stim_listB>",is greeting,,,,,,
null,"<div style=""font-size:60px;"">+</div>",,html-keyboard-response,46,267399,0.0-13.0-0.4,74533,List1B,black,woman,,,,null,,,,,,,,,
null,"<img src=""stim_listB/copy6.gif""style=""height:400px;""></stim_listB>",,html-keyboard-response,47,269406,0.0-13.0-1.4,74533,List1B,black,woman,,,,null,,,,,,,,,
null,is being copied by,,html-keyboard-response,48,271409,0.0-13.0-2.4,74533,List1B,black,woman,,,,null,,,,,,,,,
11692,,,survey-text,49,283102,0.0-13.0-3.4,74533,List1B,black,woman,,,,,"{""Q0"":""dave is being copied by fred""}","<img src=""stim_listB/copy6.gif""style=""height:400px;""></stim_listB>",is being copied by,,,,,,
null,"<div style=""font-size:60px;"">+</div>",,html-keyboard-response,50,283607,0.0-13.0-0.5,74533,List1B,black,woman,,,,null,,,,,,,,,
null,"<img src=""stim_listB/look1.gif""style=""height:400px;""></stim_listB>",,html-keyboard-response,51,285614,0.0-13.0-1.5,74533,List1B,black,woman,,,,null,,,,,,,,,
null,is looking at,,html-keyboard-response,52,287617,0.0-13.0-2.5,74533,List1B,black,woman,,,,null,,,,,,,,,
6058.3,,,survey-text,53,293680,0.0-13.0-3.5,74533,List1B,black,woman,,,,,"{""Q0"":""beth is looking at fred""}","<img src=""stim_listB/look1.gif""style=""height:400px;""></stim_listB>",is looking at,,,,,,
null,"<div style=""font-size:60px;"">+</div>",,html-keyboard-response,54,294183,0.0-13.0-0.6,74533,List1B,black,woman,,,,null,,,,,,,,,
null,"<img src=""stim_listB/greet8.gif""style=""height:400px;""></stim_listB>",,html-keyboard-response,55,296191,0.0-13.0-1.6,74533,List1B,black,woman,,,,null,,,,,,,,,
null,is being greeted by,,html-keyboard-response,56,298197,0.0-13.0-2.6,74533,List1B,black,woman,,,,null,,,,,,,,,
7535.3,,,survey-text,57,305736,0.0-13.0-3.6,74533,List1B,black,woman,,,,,"{""Q0"":""kate is being greeted by jane""}","<img src=""stim_listB/greet8.gif""style=""height:400px;""></stim_listB>",is being greeted by,,,,,,
null,"<div style=""font-size:60px;"">+</div>",,html-keyboard-response,58,306240,0.0-13.0-0.7,74533,List1B,black,woman,,,,null,,,,,,,,,
null,"<img src=""stim_listB/seduce8.gif""style=""height:400px;""></stim_listB>",,html-keyboard-response,59,308245,0.0-13.0-1.7,74533,List1B,black,woman,,,,null,,,,,,,,,
null,is being seduced by,,html-keyboard-response,60,310249,0.0-13.0-2.7,74533,List1B,black,woman,,,,null,,,,,,,,,
13793.6,,,survey-text,61,324046,0.0-13.0-3.7,74533,List1B,black,woman,,,,,"{""Q0"":""ruth is being greeted by kate""}","<img src=""stim_listB/seduce8.gif""style=""height:400px;""></stim_listB>",is being seduced by,,,,,,
null,"<div style=""font-size:60px;"">+</div>",,html-keyboard-response,62,324548,0.0-13.0-0.8,74533,List1B,black,woman,,,,null,,,,,,,,,
null,"<img src=""stim_listB/copy3.gif""style=""height:400px;""></stim_listB>",,html-keyboard-response,63,326551,0.0-13.0-1.8,74533,List1B,black,woman,,,,null,,,,,,,,,
null,is copying,,html-keyboard-response,64,328554,0.0-13.0-2.8,74533,List1B,black,woman,,,,null,,,,,,,,,
4742.7,,,survey-text,65,333301,0.0-13.0-3.8,74533,List1B,black,woman,,,,,"{""Q0"":""ruth is copying dave""}","<img src=""stim_listB/copy3.gif""style=""height:400px;""></stim_listB>",is copying,,,,,,
null,"<div style=""font-size:60px;"">+</div>",,html-keyboard-response,66,333803,0.0-13.0-0.9,74533,List1B,black,woman,,,,null,,,,,,,,,
null,"<img src=""stim_listB/touch2.gif""style=""height:400px;""></stim_listB>",,html-keyboard-response,67,335810,0.0-13.0-1.9,74533,List1B,black,woman,,,,null,,,,,,,,,
null,is being touched by,,html-keyboard-response,68,337820,0.0-13.0-2.9,74533,List1B,black,woman,,,,null,,,,,,,,,
5233.9,,,survey-text,69,343058,0.0-13.0-3.9,74533,List1B,black,woman,,,,,"{""Q0"":""beth is being touched by luke""}","<img src=""stim_listB/touch2.gif""style=""height:400px;""></stim_listB>",is being touched by,,,,,,
null,"<div style=""font-size:60px;"">+</div>",,html-keyboard-response,70,343562,0.0-13.0-0.10,74533,List1B,black,woman,,,,null,,,,,,,,,
null,"<img src=""stim_listB/look8.gif""style=""height:400px;""></stim_listB>",,html-keyboard-response,71,345566,0.0-13.0-1.10,74533,List1B,black,woman,,,,null,,,,,,,,,
null,is being looked at by,,html-keyboard-response,72,347571,0.0-13.0-2.10,74533,List1B,black,woman,,,,null,,,,,,,,,
9380.5,,,survey-text,73,356956,0.0-13.0-3.10,74533,List1B,black,woman,,,,,"{""Q0"":""jane is being looked at by kate""}","<img src=""stim_listB/look8.gif""style=""height:400px;""></stim_listB>",is being looked at by,,,,,,
null,"<div style=""font-size:60px;"">+</div>",,html-keyboard-response,74,357459,0.0-13.0-0.11,74533,List1B,black,woman,,,,null,,,,,,,,,
null,"<img src=""stim_listB/touch6.gif""style=""height:400px;""></stim_listB>",,html-keyboard-response,75,359463,0.0-13.0-1.11,74533,List1B,black,woman,,,,null,,,,,,,,,
null,is being touched by,,html-keyboard-response,76,361465,0.0-13.0-2.11,74533,List1B,black,woman,,,,null,,,,,,,,,
8249.1,,,survey-text,77,369719,0.0-13.0-3.11,74533,List1B,black,woman,,,,,"{""Q0"":""dave is being touched by luke""}","<img src=""stim_listB/touch6.gif""style=""height:400px;""></stim_listB>",is being touched by,,,,,,
null,"<div style=""font-size:60px;"">+</div>",,html-keyboard-response,78,370223,0.0-13.0-0.12,74533,List1B,black,woman,,,,null,,,,,,,,,
null,"<img src=""stim_listB/hug6.gif""style=""height:400px;""></stim_listB>",,html-keyboard-response,79,372231,0.0-13.0-1.12,74533,List1B,black,woman,,,,null,,,,,,,,,
null,is being hugged by,,html-keyboard-response,80,374238,0.0-13.0-2.12,74533,List1B,black,woman,,,,null,,,,,,,,,
7385.6,,,survey-text,81,381628,0.0-13.0-3.12,74533,List1B,black,woman,,,,,"{""Q0"":""dave is being hugged by mike""}","<img src=""stim_listB/hug6.gif""style=""height:400px;""></stim_listB>",is being hugged by,,,,,,
null,"<div style=""font-size:60px;"">+</div>",,html-keyboard-response,82,382130,0.0-13.0-0.13,74533,List1B,black,woman,,,,null,,,,,,,,,
null,"<img src=""stim_listB/kiss8.gif""style=""height:400px;""></stim_listB>",,html-keyboard-response,83,384139,0.0-13.0-1.13,74533,List1B,black,woman,,,,null,,,,,,,,,
null,is being kissed by,,html-keyboard-response,84,386142,0.0-13.0-2.13,74533,List1B,black,woman,,,,null,,,,,,,,,
10911.4,,,survey-text,85,397058,0.0-13.0-3.13,74533,List1B,black,woman,,,,,"{""Q0"":""kate is being kissed by jane""}","<img src=""stim_listB/kiss8.gif""style=""height:400px;""></stim_listB>",is being kissed by,,,,,,
null,"<div style=""font-size:60px;"">+</div>",,html-keyboard-response,86,397561,0.0-13.0-0.14,74533,List1B,black,woman,,,,null,,,,,,,,,
null,"<img src=""stim_listB/kiss7.gif""style=""height:400px;""></stim_listB>",,html-keyboard-response,87,399564,0.0-13.0-1.14,74533,List1B,black,woman,,,,null,,,,,,,,,
null,is kissing,,html-keyboard-response,88,401566,0.0-13.0-2.14,74533,List1B,black,woman,,,,null,,,,,,,,,
5256.3,,,survey-text,89,406827,0.0-13.0-3.14,74533,List1B,black,woman,,,,,"{""Q0"":""ruth is kissing beth""}","<img src=""stim_listB/kiss7.gif""style=""height:400px;""></stim_listB>",is kissing,,,,,,
null,"<div style=""font-size:60px;"">+</div>",,html-keyboard-response,90,407330,0.0-13.0-0.15,74533,List1B,black,woman,,,,null,,,,,,,,,
null,"<img src=""stim_listB/copy7.gif""style=""height:400px;""></stim_listB>",,html-keyboard-response,91,409337,0.0-13.0-1.15,74533,List1B,black,woman,,,,null,,,,,,,,,
null,is copying,,html-keyboard-response,92,411344,0.0-13.0-2.15,74533,List1B,black,woman,,,,null,,,,,,,,,
4937.1,,,survey-text,93,416286,0.0-13.0-3.15,74533,List1B,black,woman,,,,,"{""Q0"":""ruth is copying kate""}","<img src=""stim_listB/copy7.gif""style=""height:400px;""></stim_listB>",is copying,,,,,,
null,"<div style=""font-size:60px;"">+</div>",,html-keyboard-response,94,416788,0.0-13.0-0.16,74533,List1B,black,woman,,,,null,,,,,,,,,
null,"<img src=""stim_listB/shout3.gif""style=""height:400px;""></stim_listB>",,html-keyboard-response,95,418795,0.0-13.0-1.16,74533,List1B,black,woman,,,,null,,,,,,,,,
null,is shouting at,,html-keyboard-response,96,420801,0.0-13.0-2.16,74533,List1B,black,woman,,,,null,,,,,,,,,
6541.7,,,survey-text,97,427346,0.0-13.0-3.16,74533,List1B,black,woman,,,,,"{""Q0"":""ruth is shouting at luke""}","<img src=""stim_listB/shout3.gif""style=""height:400px;""></stim_listB>",is shouting at,,,,,,
null,"<div style=""font-size:60px;"">+</div>",,html-keyboard-response,98,427848,0.0-13.0-0.17,74533,List1B,black,woman,,,,null,,,,,,,,,
null,"<img src=""stim_listB/oppose1.gif""style=""height:400px;""></stim_listB>",,html-keyboard-response,99,429853,0.0-13.0-1.17,74533,List1B,black,woman,,,,null,,,,,,,,,
null,is opposing,,html-keyboard-response,100,431855,0.0-13.0-2.17,74533,List1B,black,woman,,,,null,,,,,,,,,
4238.9,,,survey-text,101,436098,0.0-13.0-3.17,74533,List1B,black,woman,,,,,"{""Q0"":""kate is opposing mike""}","<img src=""stim_listB/oppose1.gif""style=""height:400px;""></stim_listB>",is opposing,,,,,,
null,"<div style=""font-size:60px;"">+</div>",,html-keyboard-response,102,436602,0.0-13.0-0.18,74533,List1B,black,woman,,,,null,,,,,,,,,
null,"<img src=""stim_listB/shout7.gif""style=""height:400px;""></stim_listB>",,html-keyboard-response,103,438608,0.0-13.0-1.18,74533,List1B,black,woman,,,,null,,,,,,,,,
null,is shouting at,,html-keyboard-response,104,440612,0.0-13.0-2.18,74533,List1B,black,woman,,,,null,,,,,,,,,
11549.6,,,survey-text,105,452165,0.0-13.0-3.18,74533,List1B,black,woman,,,,,"{""Q0"":""beth is shouting at ruth""}","<img src=""stim_listB/shout7.gif""style=""height:400px;""></stim_listB>",is shouting at,,,,,,
null,"<div style=""font-size:60px;"">+</div>",,html-keyboard-response,106,452667,0.0-13.0-0.19,74533,List1B,black,woman,,,,null,,,,,,,,,
null,"<img src=""stim_listB/look4.gif""style=""height:400px;""></stim_listB>",,html-keyboard-response,107,454671,0.0-13.0-1.19,74533,List1B,black,woman,,,,null,,,,,,,,,
null,is being looked at by,,html-keyboard-response,108,456673,0.0-13.0-2.19,74533,List1B,black,woman,,,,null,,,,,,,,,
6714.9,,,survey-text,109,463392,0.0-13.0-3.19,74533,List1B,black,woman,,,,,"{""Q0"":""jane is being looked at by dave""}","<img src=""stim_listB/look4.gif""style=""height:400px;""></stim_listB>",is being looked at by,,,,,,
5435.6,"<img src='img/portrait_matrix_list1.jpg' style='width:900px;height:500px;''></img><p>If you have memorised all the portraits and names and are ready to start, press Continue.</p><p><strong>Please note: Your memory of these faces will be tested 4 times during this experiment.</strong></p>",0,html-button-response,110,468830,0.0-14.0-0.0,74533,List1B,black,woman,,,,,,,,,,,,,
3174.4,"<img src=""portrait/WM1.jpg""style=""height:400px;""></img>",6,html-button-response,111,473013,0.0-14.0-1.0,74533,List1B,black,woman,,TRUE,6,,,,,,,,,,
null,CORRECT,,html-keyboard-response,112,474521,0.0-14.0-2.0-0.0,74533,List1B,black,woman,,,,null,,,,,,,,,
2079.5,"<img src=""portrait/WW2.jpg""style=""height:400px;""></img>",3,html-button-response,113,476603,0.0-14.0-4.0,74533,List1B,black,woman,,TRUE,3,,,,,,,,,,
null,CORRECT,,html-keyboard-response,114,478111,0.0-14.0-5.0-0.0,74533,List1B,black,woman,,,,null,,,,,,,,,
1833.5,"<img src=""portrait/WW1.jpg""style=""height:400px;""></img>",1,html-button-response,115,479947,0.0-14.0-7.0,74533,List1B,black,woman,,TRUE,1,,,,,,,,,,
null,CORRECT,,html-keyboard-response,116,481459,0.0-14.0-8.0-0.0,74533,List1B,black,woman,,,,null,,,,,,,,,
3195.9,"<img src=""portrait/BW2.jpg""style=""height:400px;""></img>",2,html-button-response,117,484658,0.0-14.0-10.0,74533,List1B,black,woman,,TRUE,2,,,,,,,,,,
null,CORRECT,,html-keyboard-response,118,486171,0.0-14.0-11.0-0.0,74533,List1B,black,woman,,,,null,,,,,,,,,
1462.2,"<img src=""portrait/WM2.jpg""style=""height:400px;""></img>",7,html-button-response,119,487636,0.0-14.0-13.0,74533,List1B,black,woman,,TRUE,7,,,,,,,,,,
null,CORRECT,,html-keyboard-response,120,489144,0.0-14.0-14.0-0.0,74533,List1B,black,woman,,,,null,,,,,,,,,
1377.6,"<img src=""portrait/BM1.jpg""style=""height:400px;""></img>",4,html-button-response,121,490525,0.0-14.0-16.0,74533,List1B,black,woman,,TRUE,4,,,,,,,,,,
null,CORRECT,,html-keyboard-response,122,492030,0.0-14.0-17.0-0.0,74533,List1B,black,woman,,,,null,,,,,,,,,
1809.4,"<img src=""portrait/BM2.jpg""style=""height:400px;""></img>",5,html-button-response,123,493842,0.0-14.0-19.0,74533,List1B,black,woman,,TRUE,5,,,,,,,,,,
null,CORRECT,,html-keyboard-response,124,495346,0.0-14.0-20.0-0.0,74533,List1B,black,woman,,,,null,,,,,,,,,
2254.8,"<img src=""portrait/BW1.jpg""style=""height:400px;""></img>",0,html-button-response,125,497603,0.0-14.0-22.0,74533,List1B,black,woman,,TRUE,0,,,,,,,,,,
null,CORRECT,,html-keyboard-response,126,499110,0.0-14.0-23.0-0.0,74533,List1B,black,woman,,,,null,,,,,,,,,
11289.1,<p>You got 8 out of 8 right first time. Press Continue.</p>,0,html-button-response,127,510402,0.0-14.0-25.0,74533,List1B,black,woman,,,,,,,,,,,,,
null,"<div style=""font-size:60px;"">+</div>",,html-keyboard-response,128,511915,0.0-15.0-0.0,74533,List1B,black,woman,,,,null,,,,,,,,,
null,"<img src=""stim_listB/hug7.gif""style=""height:400px;""></stim_listB>",,html-keyboard-response,129,513923,0.0-15.0-1.0,74533,List1B,black,woman,,,,null,,,,,,,,,
null,is hugging,,html-keyboard-response,130,515925,0.0-15.0-2.0,74533,List1B,black,woman,,,,null,,,,,,,,,
4140.7,,,survey-text,131,520071,0.0-15.0-3.0,74533,List1B,black,woman,,,,,"{""Q0"":""kate is hugging ruth""}","<img src=""stim_listB/hug7.gif""style=""height:400px;""></stim_listB>",is hugging,,,,,,
null,"<div style=""font-size:60px;"">+</div>",,html-keyboard-response,132,520573,0.0-15.0-0.1,74533,List1B,black,woman,,,,null,,,,,,,,,
null,"<img src=""stim_listB/oppose4.gif""style=""height:400px;""></stim_listB>",,html-keyboard-response,133,522579,0.0-15.0-1.1,74533,List1B,black,woman,,,,null,,,,,,,,,
null,is being opposed by,,html-keyboard-response,134,524586,0.0-15.0-2.1,74533,List1B,black,woman,,,,null,,,,,,,,,
5132.2,,,survey-text,135,529723,0.0-15.0-3.1,74533,List1B,black,woman,,,,,"{""Q0"":""ruth is being opposed by luke""}","<img src=""stim_listB/oppose4.gif""style=""height:400px;""></stim_listB>",is being opposed by,,,,,,
null,"<div style=""font-size:60px;"">+</div>",,html-keyboard-response,136,530226,0.0-15.0-0.2,74533,List1B,black,woman,,,,null,,,,,,,,,
null,"<img src=""stim_listB/challenge5.gif""style=""height:400px;""></stim_listB>",,html-keyboard-response,137,532234,0.0-15.0-1.2,74533,List1B,black,woman,,,,null,,,,,,,,,
null,is challenging,,html-keyboard-response,138,534242,0.0-15.0-2.2,74533,List1B,black,woman,,,,null,,,,,,,,,
7777,,,survey-text,139,542023,0.0-15.0-3.2,74533,List1B,black,woman,,,,,"{""Q0"":""mike is challenging luke""}","<img src=""stim_listB/challenge5.gif""style=""height:400px;""></stim_listB>",is challenging,,,,,,
null,"<div style=""font-size:60px;"">+</div>",,html-keyboard-response,140,542526,0.0-15.0-0.3,74533,List1B,black,woman,,,,null,,,,,,,,,
null,"<img src=""stim_listB/kiss3.gif""style=""height:400px;""></stim_listB>",,html-keyboard-response,141,544534,0.0-15.0-1.3,74533,List1B,black,woman,,,,null,,,,,,,,,
null,is kissing,,html-keyboard-response,142,546536,0.0-15.0-2.3,74533,List1B,black,woman,,,,null,,,,,,,,,
9273.8,,,survey-text,143,555815,0.0-15.0-3.3,74533,List1B,black,woman,,,,,"{""Q0"":""ruth is kissing luke""}","<img src=""stim_listB/kiss3.gif""style=""height:400px;""></stim_listB>",is kissing,,,,,,
null,"<div style=""font-size:60px;"">+</div>",,html-keyboard-response,144,556318,0.0-15.0-0.4,74533,List1B,black,woman,,,,null,,,,,,,,,
null,"<img src=""stim_listB/copy4.gif""style=""height:400px;""></stim_listB>",,html-keyboard-response,145,558324,0.0-15.0-1.4,74533,List1B,black,woman,,,,null,,,,,,,,,
null,is being copied by,,html-keyboard-response,146,560326,0.0-15.0-2.4,74533,List1B,black,woman,,,,null,,,,,,,,,
7524.1,,,survey-text,147,567854,0.0-15.0-3.4,74533,List1B,black,woman,,,,,"{""Q0"":""luke is being copied by jane""}","<img src=""stim_listB/copy4.gif""style=""height:400px;""></stim_listB>",is being copied by,,,,,,
null,"<div style=""font-size:60px;"">+</div>",,html-keyboard-response,148,568358,0.0-15.0-0.5,74533,List1B,black,woman,,,,null,,,,,,,,,
null,"<img src=""stim_listB/greet2.gif""style=""height:400px;""></stim_listB>",,html-keyboard-response,149,570363,0.0-15.0-1.5,74533,List1B,black,woman,,,,null,,,,,,,,,
null,is being greeted by,,html-keyboard-response,150,572367,0.0-15.0-2.5,74533,List1B,black,woman,,,,null,,,,,,,,,
8253.4,,,survey-text,151,580624,0.0-15.0-3.5,74533,List1B,black,woman,,,,,"{""Q0"":""kate is being greeted by fred""}","<img src=""stim_listB/greet2.gif""style=""height:400px;""></stim_listB>",is being greeted by,,,,,,
null,"<div style=""font-size:60px;"">+</div>",,html-keyboard-response,152,581128,0.0-15.0-0.6,74533,List1B,black,woman,,,,null,,,,,,,,,
null,"<img src=""stim_listB/hug2.gif""style=""height:400px;""></stim_listB>",,html-keyboard-response,153,583135,0.0-15.0-1.6,74533,List1B,black,woman,,,,null,,,,,,,,,
null,is being hugged by,,html-keyboard-response,154,585142,0.0-15.0-2.6,74533,List1B,black,woman,,,,null,,,,,,,,,
7927.6,,,survey-text,155,593075,0.0-15.0-3.6,74533,List1B,black,woman,,,,,"{""Q0"":""mike is being hugged by kate""}","<img src=""stim_listB/hug2.gif""style=""height:400px;""></stim_listB>",is being hugged by,,,,,,
null,"<div style=""font-size:60px;"">+</div>",,html-keyboard-response,156,593578,0.0-15.0-0.7,74533,List1B,black,woman,,,,null,,,,,,,,,
null,"<img src=""stim_listB/copy8.gif""style=""height:400px;""></stim_listB>",,html-keyboard-response,157,595582,0.0-15.0-1.7,74533,List1B,black,woman,,,,null,,,,,,,,,
null,is being copied by,,html-keyboard-response,158,597588,0.0-15.0-2.7,74533,List1B,black,woman,,,,null,,,,,,,,,
7075.5,,,survey-text,159,604667,0.0-15.0-3.7,74533,List1B,black,woman,,,,,"{""Q0"":""jane is being copied by beth""}","<img src=""stim_listB/copy8.gif""style=""height:400px;""></stim_listB>",is being copied by,,,,,,
null,"<div style=""font-size:60px;"">+</div>",,html-keyboard-response,160,605169,0.0-15.0-0.8,74533,List1B,black,woman,,,,null,,,,,,,,,
null,"<img src=""stim_listB/copy1.gif""style=""height:400px;""></stim_listB>",,html-keyboard-response,161,607177,0.0-15.0-1.8,74533,List1B,black,woman,,,,null,,,,,,,,,
null,is copying,,html-keyboard-response,162,609184,0.0-15.0-2.8,74533,List1B,black,woman,,,,null,,,,,,,,,
4097.6,,,survey-text,163,613285,0.0-15.0-3.8,74533,List1B,black,woman,,,,,"{""Q0"":""beth is copying mike""}","<img src=""stim_listB/copy1.gif""style=""height:400px;""></stim_listB>",is copying,,,,,,
null,"<div style=""font-size:60px;"">+</div>",,html-keyboard-response,164,613789,0.0-15.0-0.9,74533,List1B,black,woman,,,,null,,,,,,,,,
null,"<img src=""stim_listB/seduce5.gif""style=""height:400px;""></stim_listB>",,html-keyboard-response,165,615796,0.0-15.0-1.9,74533,List1B,black,woman,,,,null,,,,,,,,,
null,is seducing,,html-keyboard-response,166,617798,0.0-15.0-2.9,74533,List1B,black,woman,,,,null,,,,,,,,,
5575.9,,,survey-text,167,623378,0.0-15.0-3.9,74533,List1B,black,woman,,,,,"{""Q0"":""dave is seducing fred""}","<img src=""stim_listB/seduce5.gif""style=""height:400px;""></stim_listB>",is seducing,,,,,,
null,"<div style=""font-size:60px;"">+</div>",,html-keyboard-response,168,623882,0.0-15.0-0.10,74533,List1B,black,woman,,,,null,,,,,,,,,
null,"<img src=""stim_listB/hug5.gif""style=""height:400px;""></stim_listB>",,html-keyboard-response,169,625890,0.0-15.0-1.10,74533,List1B,black,woman,,,,null,,,,,,,,,
null,is hugging,,html-keyboard-response,170,627893,0.0-15.0-2.10,74533,List1B,black,woman,,,,null,,,,,,,,,
5290.7,,,survey-text,171,633188,0.0-15.0-3.10,74533,List1B,black,woman,,,,,"{""Q0"":""luke is hugging fred""}","<img src=""stim_listB/hug5.gif""style=""height:400px;""></stim_listB>",is hugging,,,,,,
null,"<div style=""font-size:60px;"">+</div>",,html-keyboard-response,172,633691,0.0-15.0-0.11,74533,List1B,black,woman,,,,null,,,,,,,,,
null,"<img src=""stim_listB/hug8.gif""style=""height:400px;""></stim_listB>",,html-keyboard-response,173,635699,0.0-15.0-1.11,74533,List1B,black,woman,,,,null,,,,,,,,,
null,is being hugged by,,html-keyboard-response,174,637706,0.0-15.0-2.11,74533,List1B,black,woman,,,,null,,,,,,,,,
7758.4,,,survey-text,175,645468,0.0-15.0-3.11,74533,List1B,black,woman,,,,,"{""Q0"":""kate is being hugged by jane""}","<img src=""stim_listB/hug8.gif""style=""height:400px;""></stim_listB>",is being hugged by,,,,,,
null,"<div style=""font-size:60px;"">+</div>",,html-keyboard-response,176,645970,0.0-15.0-0.12,74533,List1B,black,woman,,,,null,,,,,,,,,
null,"<img src=""stim_listB/kiss1.gif""style=""height:400px;""></stim_listB>",,html-keyboard-response,177,647974,0.0-15.0-1.12,74533,List1B,black,woman,,,,null,,,,,,,,,
null,is kissing,,html-keyboard-response,178,649980,0.0-15.0-2.12,74533,List1B,black,woman,,,,null,,,,,,,,,
3406.5,,,survey-text,179,653390,0.0-15.0-3.12,74533,List1B,black,woman,,,,,"{""Q0"":""beth is kissing fred""}","<img src=""stim_listB/kiss1.gif""style=""height:400px;""></stim_listB>",is kissing,,,,,,
null,"<div style=""font-size:60px;"">+</div>",,html-keyboard-response,180,653894,0.0-15.0-0.13,74533,List1B,black,woman,,,,null,,,,,,,,,
null,"<img src=""stim_listB/look3.gif""style=""height:400px;""></stim_listB>",,html-keyboard-response,181,655902,0.0-15.0-1.13,74533,List1B,black,woman,,,,null,,,,,,,,,
null,is looking at,,html-keyboard-response,182,657906,0.0-15.0-2.13,74533,List1B,black,woman,,,,null,,,,,,,,,
5818.1,,,survey-text,183,663729,0.0-15.0-3.13,74533,List1B,black,woman,,,,,"{""Q0"":""ruth is looking at luke""}","<img src=""stim_listB/look3.gif""style=""height:400px;""></stim_listB>",is looking at,,,,,,
null,"<div style=""font-size:60px;"">+</div>",,html-keyboard-response,184,664233,0.0-15.0-0.14,74533,List1B,black,woman,,,,null,,,,,,,,,
null,"<img src=""stim_listB/challenge8.gif""style=""height:400px;""></stim_listB>",,html-keyboard-response,185,666240,0.0-15.0-1.14,74533,List1B,black,woman,,,,null,,,,,,,,,
null,is being challenged by,,html-keyboard-response,186,668242,0.0-15.0-2.14,74533,List1B,black,woman,,,,null,,,,,,,,,
10001.7,,,survey-text,187,678248,0.0-15.0-3.14,74533,List1B,black,woman,,,,,"{""Q0"":""beth is being challenged by jane""}","<img src=""stim_listB/challenge8.gif""style=""height:400px;""></stim_listB>",is being challenged by,,,,,,
null,"<div style=""font-size:60px;"">+</div>",,html-keyboard-response,188,678752,0.0-15.0-0.15,74533,List1B,black,woman,,,,null,,,,,,,,,
null,"<img src=""stim_listB/look2.gif""style=""height:400px;""></stim_listB>",,html-keyboard-response,189,680759,0.0-15.0-1.15,74533,List1B,black,woman,,,,null,,,,,,,,,
null,is being looked at by,,html-keyboard-response,190,682763,0.0-15.0-2.15,74533,List1B,black,woman,,,,null,,,,,,,,,
9625.3,,,survey-text,191,692393,0.0-15.0-3.15,74533,List1B,black,woman,,,,,"{""Q0"":""kate is being looked at by mike""}","<img src=""stim_listB/look2.gif""style=""height:400px;""></stim_listB>",is being looked at by,,,,,,
null,"<div style=""font-size:60px;"">+</div>",,html-keyboard-response,192,692896,0.0-15.0-0.16,74533,List1B,black,woman,,,,null,,,,,,,,,
null,"<img src=""stim_listB/shout4.gif""style=""height:400px;""></stim_listB>",,html-keyboard-response,193,694899,0.0-15.0-1.16,74533,List1B,black,woman,,,,null,,,,,,,,,
null,is being shouted at by,,html-keyboard-response,194,696904,0.0-15.0-2.16,74533,List1B,black,woman,,,,null,,,,,,,,,
9856.9,,,survey-text,195,706766,0.0-15.0-3.16,74533,List1B,black,woman,,,,,"{""Q0"":""dave is being shouted by jane""}","<img src=""stim_listB/shout4.gif""style=""height:400px;""></stim_listB>",is being shouted at by,,,,,,
null,"<div style=""font-size:60px;"">+</div>",,html-keyboard-response,196,707270,0.0-15.0-0.17,74533,List1B,black,woman,,,,null,,,,,,,,,
null,"<img src=""stim_listB/oppose8.gif""style=""height:400px;""></stim_listB>",,html-keyboard-response,197,709274,0.0-15.0-1.17,74533,List1B,black,woman,,,,null,,,,,,,,,
null,is being opposed by,,html-keyboard-response,198,711277,0.0-15.0-2.17,74533,List1B,black,woman,,,,null,,,,,,,,,
6057.4,,,survey-text,199,717339,0.0-15.0-3.17,74533,List1B,black,woman,,,,,"{""Q0"":""beth is being opposed by ruth""}","<img src=""stim_listB/oppose8.gif""style=""height:400px;""></stim_listB>",is being opposed by,,,,,,
null,"<div style=""font-size:60px;"">+</div>",,html-keyboard-response,200,717841,0.0-15.0-0.18,74533,List1B,black,woman,,,,null,,,,,,,,,
null,"<img src=""stim_listB/challenge3.gif""style=""height:400px;""></stim_listB>",,html-keyboard-response,201,719849,0.0-15.0-1.18,74533,List1B,black,woman,,,,null,,,,,,,,,
null,is challenging,,html-keyboard-response,202,721856,0.0-15.0-2.18,74533,List1B,black,woman,,,,null,,,,,,,,,
5517.2,,,survey-text,203,727378,0.0-15.0-3.18,74533,List1B,black,woman,,,,,"{""Q0"":""ruth is challenging dave""}","<img src=""stim_listB/challenge3.gif""style=""height:400px;""></stim_listB>",is challenging,,,,,,
null,"<div style=""font-size:60px;"">+</div>",,html-keyboard-response,204,727880,0.0-15.0-0.19,74533,List1B,black,woman,,,,null,,,,,,,,,
null,"<img src=""stim_listB/kiss2.gif""style=""height:400px;""></stim_listB>",,html-keyboard-response,205,729883,0.0-15.0-1.19,74533,List1B,black,woman,,,,null,,,,,,,,,
null,is being kissed by,,html-keyboard-response,206,731890,0.0-15.0-2.19,74533,List1B,black,woman,,,,null,,,,,,,,,
7320.2,,,survey-text,207,739215,0.0-15.0-3.19,74533,List1B,black,woman,,,,,"{""Q0"":""mike is being kissed by kate""}","<img src=""stim_listB/kiss2.gif""style=""height:400px;""></stim_listB>",is being kissed by,,,,,,
1487.7,"<img src='img/portrait_matrix_list1.jpg' style='width:900px;height:500px;''></img><p>If you have memorised all the portraits and names and are ready to start, press Continue.</p><p><strong>Please note: Your memory of these faces will be tested 4 times during this experiment.</strong></p>",0,html-button-response,208,740705,0.0-16.0-0.0,74533,List1B,black,woman,,,,,,,,,,,,,
1669.7,"<img src=""portrait/BW2.jpg""style=""height:400px;""></img>",2,html-button-response,209,743384,0.0-16.0-1.0,74533,List1B,black,woman,,TRUE,2,,,,,,,,,,
null,CORRECT,,html-keyboard-response,210,744895,0.0-16.0-2.0-0.0,74533,List1B,black,woman,,,,null,,,,,,,,,
1486.8,"<img src=""portrait/WM2.jpg""style=""height:400px;""></img>",7,html-button-response,211,746385,0.0-16.0-4.0,74533,List1B,black,woman,,TRUE,7,,,,,,,,,,
null,CORRECT,,html-keyboard-response,212,747893,0.0-16.0-5.0-0.0,74533,List1B,black,woman,,,,null,,,,,,,,,
2241.1,"<img src=""portrait/BW1.jpg""style=""height:400px;""></img>",0,html-button-response,213,750137,0.0-16.0-7.0,74533,List1B,black,woman,,TRUE,0,,,,,,,,,,
null,CORRECT,,html-keyboard-response,214,751646,0.0-16.0-8.0-0.0,74533,List1B,black,woman,,,,null,,,,,,,,,
1709.7,"<img src=""portrait/WM1.jpg""style=""height:400px;""></img>",6,html-button-response,215,753359,0.0-16.0-10.0,74533,List1B,black,woman,,TRUE,6,,,,,,,,,,
null,CORRECT,,html-keyboard-response,216,754871,0.0-16.0-11.0-0.0,74533,List1B,black,woman,,,,null,,,,,,,,,
5263.4,"<img src=""portrait/WW1.jpg""style=""height:400px;""></img>",1,html-button-response,217,760137,0.0-16.0-13.0,74533,List1B,black,woman,,TRUE,1,,,,,,,,,,
null,CORRECT,,html-keyboard-response,218,761650,0.0-16.0-14.0-0.0,74533,List1B,black,woman,,,,null,,,,,,,,,
1357.2,"<img src=""portrait/WW2.jpg""style=""height:400px;""></img>",3,html-button-response,219,763011,0.0-16.0-16.0,74533,List1B,black,woman,,TRUE,3,,,,,,,,,,
null,CORRECT,,html-keyboard-response,220,764523,0.0-16.0-17.0-0.0,74533,List1B,black,woman,,,,null,,,,,,,,,
1552.9,"<img src=""portrait/BM1.jpg""style=""height:400px;""></img>",4,html-button-response,221,766080,0.0-16.0-19.0,74533,List1B,black,woman,,TRUE,4,,,,,,,,,,
null,CORRECT,,html-keyboard-response,222,767586,0.0-16.0-20.0-0.0,74533,List1B,black,woman,,,,null,,,,,,,,,
1323.5,"<img src=""portrait/BM2.jpg""style=""height:400px;""></img>",5,html-button-response,223,768913,0.0-16.0-22.0,74533,List1B,black,woman,,TRUE,5,,,,,,,,,,
null,CORRECT,,html-keyboard-response,224,770426,0.0-16.0-23.0-0.0,74533,List1B,black,woman,,,,null,,,,,,,,,
1268,<p>You got 8 out of 8 right first time. Press Continue.</p>,0,html-button-response,225,771697,0.0-16.0-25.0,74533,List1B,black,woman,,,,,,,,,,,,,
null,"<div style=""font-size:60px;"">+</div>",,html-keyboard-response,226,773206,0.0-17.0-0.0,74533,List1B,black,woman,,,,null,,,,,,,,,
null,"<img src=""stim_listB/shout2.gif""style=""height:400px;""></stim_listB>",,html-keyboard-response,227,775215,0.0-17.0-1.0,74533,List1B,black,woman,,,,null,,,,,,,,,
null,is being shouted at by,,html-keyboard-response,228,777222,0.0-17.0-2.0,74533,List1B,black,woman,,,,null,,,,,,,,,
10158,,,survey-text,229,787386,0.0-17.0-3.0,74533,List1B,black,woman,,,,,"{""Q0"":""mike is being shouted at by kate""}","<img src=""stim_listB/shout2.gif""style=""height:400px;""></stim_listB>",is being shouted at by,,,,,,
null,"<div style=""font-size:60px;"">+</div>",,html-keyboard-response,230,787888,0.0-17.0-0.1,74533,List1B,black,woman,,,,null,,,,,,,,,
null,"<img src=""stim_listB/oppose6.gif""style=""height:400px;""></stim_listB>",,html-keyboard-response,231,789896,0.0-17.0-1.1,74533,List1B,black,woman,,,,null,,,,,,,,,
null,is being opposed by,,html-keyboard-response,232,791901,0.0-17.0-2.1,74533,List1B,black,woman,,,,null,,,,,,,,,
7229.4,,,survey-text,233,799134,0.0-17.0-3.1,74533,List1B,black,woman,,,,,"{""Q0"":""fred is being opposed by luke""}","<img src=""stim_listB/oppose6.gif""style=""height:400px;""></stim_listB>",is being opposed by,,,,,,
null,"<div style=""font-size:60px;"">+</div>",,html-keyboard-response,234,799638,0.0-17.0-0.2,74533,List1B,black,woman,,,,null,,,,,,,,,
null,"<img src=""stim_listB/shout6.gif""style=""height:400px;""></stim_listB>",,html-keyboard-response,235,801642,0.0-17.0-1.2,74533,List1B,black,woman,,,,null,,,,,,,,,
null,is being shouted at by,,html-keyboard-response,236,803649,0.0-17.0-2.2,74533,List1B,black,woman,,,,null,,,,,,,,,
7550.9,,,survey-text,237,811204,0.0-17.0-3.2,74533,List1B,black,woman,,,,,"{""Q0"":""mike is being shouted at by dave""}","<img src=""stim_listB/shout6.gif""style=""height:400px;""></stim_listB>",is being shouted at by,,,,,,
null,"<div style=""font-size:60px;"">+</div>",,html-keyboard-response,238,811707,0.0-17.0-0.3,74533,List1B,black,woman,,,,null,,,,,,,,,
null,"<img src=""stim_listB/seduce6.gif""style=""height:400px;""></stim_listB>",,html-keyboard-response,239,813715,0.0-17.0-1.3,74533,List1B,black,woman,,,,null,,,,,,,,,
null,is being seduced by,,html-keyboard-response,240,815721,0.0-17.0-2.3,74533,List1B,black,woman,,,,null,,,,,,,,,
6841.6,,,survey-text,241,822567,0.0-17.0-3.3,74533,List1B,black,woman,,,,,"{""Q0"":""luke is being seduced by mike""}","<img src=""stim_listB/seduce6.gif""style=""height:400px;""></stim_listB>",is being seduced by,,,,,,
null,"<div style=""font-size:60px;"">+</div>",,html-keyboard-response,242,823069,0.0-17.0-0.4,74533,List1B,black,woman,,,,null,,,,,,,,,
null,"<img src=""stim_listB/kiss6.gif""style=""height:400px;""></stim_listB>",,html-keyboard-response,243,825077,0.0-17.0-1.4,74533,List1B,black,woman,,,,null,,,,,,,,,
null,is being kissed by,,html-keyboard-response,244,827081,0.0-17.0-2.4,74533,List1B,black,woman,,,,null,,,,,,,,,
7444.9,,,survey-text,245,834530,0.0-17.0-3.4,74533,List1B,black,woman,,,,,"{""Q0"":""dave is being kissed by mike""}","<img src=""stim_listB/kiss6.gif""style=""height:400px;""></stim_listB>",is being kissed by,,,,,,
null,"<div style=""font-size:60px;"">+</div>",,html-keyboard-response,246,835034,0.0-17.0-0.5,74533,List1B,black,woman,,,,null,,,,,,,,,
null,"<img src=""stim_listB/oppose7.gif""style=""height:400px;""></stim_listB>",,html-keyboard-response,247,837042,0.0-17.0-1.5,74533,List1B,black,woman,,,,null,,,,,,,,,
null,is opposing,,html-keyboard-response,248,839046,0.0-17.0-2.5,74533,List1B,black,woman,,,,null,,,,,,,,,
4802.8,,,survey-text,249,843853,0.0-17.0-3.5,74533,List1B,black,woman,,,,,"{""Q0"":""jane is opposing kate""}","<img src=""stim_listB/oppose7.gif""style=""height:400px;""></stim_listB>",is opposing,,,,,,
null,"<div style=""font-size:60px;"">+</div>",,html-keyboard-response,250,844355,0.0-17.0-0.6,74533,List1B,black,woman,,,,null,,,,,,,,,
null,"<img src=""stim_listB/kiss5.gif""style=""height:400px;""></stim_listB>",,html-keyboard-response,251,846359,0.0-17.0-1.6,74533,List1B,black,woman,,,,null,,,,,,,,,
null,is kissing,,html-keyboard-response,252,848365,0.0-17.0-2.6,74533,List1B,black,woman,,,,null,,,,,,,,,
5735.9,,,survey-text,253,854106,0.0-17.0-3.6,74533,List1B,black,woman,,,,,"{""Q0"":""luke is kissing fred""}","<img src=""stim_listB/kiss5.gif""style=""height:400px;""></stim_listB>",is kissing,,,,,,
null,"<div style=""font-size:60px;"">+</div>",,html-keyboard-response,254,854609,0.0-17.0-0.7,74533,List1B,black,woman,,,,null,,,,,,,,,
null,"<img src=""stim_listB/challenge2.gif""style=""height:400px;""></stim_listB>",,html-keyboard-response,255,856617,0.0-17.0-1.7,74533,List1B,black,woman,,,,null,,,,,,,,,
null,is being challenged by,,html-keyboard-response,256,858619,0.0-17.0-2.7,74533,List1B,black,woman,,,,null,,,,,,,,,
7671,,,survey-text,257,866294,0.0-17.0-3.7,74533,List1B,black,woman,,,,,"{""Q0"":""fred is being challenged by kate""}","<img src=""stim_listB/challenge2.gif""style=""height:400px;""></stim_listB>",is being challenged by,,,,,,
null,"<div style=""font-size:60px;"">+</div>",,html-keyboard-response,258,866798,0.0-17.0-0.8,74533,List1B,black,woman,,,,null,,,,,,,,,
null,"<img src=""stim_listB/touch4.gif""style=""height:400px;""></stim_listB>",,html-keyboard-response,259,868802,0.0-17.0-1.8,74533,List1B,black,woman,,,,null,,,,,,,,,
null,is being touched by,,html-keyboard-response,260,870805,0.0-17.0-2.8,74533,List1B,black,woman,,,,null,,,,,,,,,
9685.7,,,survey-text,261,880495,0.0-17.0-3.8,74533,List1B,black,woman,,,,,"{""Q0"":""luke is being touched by ruth""}","<img src=""stim_listB/touch4.gif""style=""height:400px;""></stim_listB>",is being touched by,,,,,,
null,"<div style=""font-size:60px;"">+</div>",,html-keyboard-response,262,880998,0.0-17.0-0.9,74533,List1B,black,woman,,,,null,,,,,,,,,
null,"<img src=""stim_listB/touch3.gif""style=""height:400px;""></stim_listB>",,html-keyboard-response,263,883001,0.0-17.0-1.9,74533,List1B,black,woman,,,,null,,,,,,,,,
null,is touching,,html-keyboard-response,264,885006,0.0-17.0-2.9,74533,List1B,black,woman,,,,null,,,,,,,,,
3764.5,,,survey-text,265,888774,0.0-17.0-3.9,74533,List1B,black,woman,,,,,"{""Q0"":""jane is touching dave""}","<img src=""stim_listB/touch3.gif""style=""height:400px;""></stim_listB>",is touching,,,,,,
null,"<div style=""font-size:60px;"">+</div>",,html-keyboard-response,266,889276,0.0-17.0-0.10,74533,List1B,black,woman,,,,null,,,,,,,,,
null,"<img src=""stim_listB/seduce3.gif""style=""height:400px;""></stim_listB>",,html-keyboard-response,267,891284,0.0-17.0-1.10,74533,List1B,black,woman,,,,null,,,,,,,,,
null,is seducing,,html-keyboard-response,268,893291,0.0-17.0-2.10,74533,List1B,black,woman,,,,null,,,,,,,,,
10087.9,,,survey-text,269,903383,0.0-17.0-3.10,74533,List1B,black,woman,,,,,"{""Q0"":""jane is seducing luke""}","<img src=""stim_listB/seduce3.gif""style=""height:400px;""></stim_listB>",is seducing,,,,,,
null,"<div style=""font-size:60px;"">+</div>",,html-keyboard-response,270,903886,0.0-17.0-0.11,74533,List1B,black,woman,,,,null,,,,,,,,,
null,"<img src=""stim_listB/hug3.gif""style=""height:400px;""></stim_listB>",,html-keyboard-response,271,905893,0.0-17.0-1.11,74533,List1B,black,woman,,,,null,,,,,,,,,
null,is hugging,,html-keyboard-response,272,907897,0.0-17.0-2.11,74533,List1B,black,woman,,,,null,,,,,,,,,
5675,,,survey-text,273,913576,0.0-17.0-3.11,74533,List1B,black,woman,,,,,"{""Q0"":""luke is hugging ruth""}","<img src=""stim_listB/hug3.gif""style=""height:400px;""></stim_listB>",is hugging,,,,,,
null,"<div style=""font-size:60px;"">+</div>",,html-keyboard-response,274,914080,0.0-17.0-0.12,74533,List1B,black,woman,,,,null,,,,,,,,,
null,"<img src=""stim_listB/seduce2.gif""style=""height:400px;""></stim_listB>",,html-keyboard-response,275,916088,0.0-17.0-1.12,74533,List1B,black,woman,,,,null,,,,,,,,,
null,is being seduced by,,html-keyboard-response,276,918094,0.0-17.0-2.12,74533,List1B,black,woman,,,,null,,,,,,,,,
6541.3,,,survey-text,277,924640,0.0-17.0-3.12,74533,List1B,black,woman,,,,,"{""Q0"":""mike is being seduced by mike""}","<img src=""stim_listB/seduce2.gif""style=""height:400px;""></stim_listB>",is being seduced by,,,,,,
null,"<div style=""font-size:60px;"">+</div>",,html-keyboard-response,278,925142,0.0-17.0-0.13,74533,List1B,black,woman,,,,null,,,,,,,,,
null,"<img src=""stim_listB/look7.gif""style=""height:400px;""></stim_listB>",,html-keyboard-response,279,927148,0.0-17.0-1.13,74533,List1B,black,woman,,,,null,,,,,,,,,
null,is looking at,,html-keyboard-response,280,929150,0.0-17.0-2.13,74533,List1B,black,woman,,,,null,,,,,,,,,
6547.1,,,survey-text,281,935702,0.0-17.0-3.13,74533,List1B,black,woman,,,,,"{""Q0"":""beth is looking at ruth""}","<img src=""stim_listB/look7.gif""style=""height:400px;""></stim_listB>",is looking at,,,,,,
null,"<div style=""font-size:60px;"">+</div>",,html-keyboard-response,282,936206,0.0-17.0-0.14,74533,List1B,black,woman,,,,null,,,,,,,,,
null,"<img src=""stim_listB/seduce4.gif""style=""height:400px;""></stim_listB>",,html-keyboard-response,283,938214,0.0-17.0-1.14,74533,List1B,black,woman,,,,null,,,,,,,,,
null,is being seduced by,,html-keyboard-response,284,940221,0.0-17.0-2.14,74533,List1B,black,woman,,,,null,,,,,,,,,
6477.4,,,survey-text,285,946703,0.0-17.0-3.14,74533,List1B,black,woman,,,,,"{""Q0"":""ruth is seduced by dave""}","<img src=""stim_listB/seduce4.gif""style=""height:400px;""></stim_listB>",is being seduced by,,,,,,
null,"<div style=""font-size:60px;"">+</div>",,html-keyboard-response,286,947205,0.0-17.0-0.15,74533,List1B,black,woman,,,,null,,,,,,,,,
null,"<img src=""stim_listB/oppose2.gif""style=""height:400px;""></stim_listB>",,html-keyboard-response,287,949213,0.0-17.0-1.15,74533,List1B,black,woman,,,,null,,,,,,,,,
null,is being opposed by,,html-keyboard-response,288,951217,0.0-17.0-2.15,74533,List1B,black,woman,,,,null,,,,,,,,,
8615.5,,,survey-text,289,959837,0.0-17.0-3.15,74533,List1B,black,woman,,,,,"{""Q0"":""beth is being opposed by fred""}","<img src=""stim_listB/oppose2.gif""style=""height:400px;""></stim_listB>",is being opposed by,,,,,,
null,"<div style=""font-size:60px;"">+</div>",,html-keyboard-response,290,960340,0.0-17.0-0.16,74533,List1B,black,woman,,,,null,,,,,,,,,
null,"<img src=""stim_listB/challenge7.gif""style=""height:400px;""></stim_listB>",,html-keyboard-response,291,962346,0.0-17.0-1.16,74533,List1B,black,woman,,,,null,,,,,,,,,
null,is challenging,,html-keyboard-response,292,964349,0.0-17.0-2.16,74533,List1B,black,woman,,,,null,,,,,,,,,
6447.7,,,survey-text,293,970802,0.0-17.0-3.16,74533,List1B,black,woman,,,,,"{""Q0"":""ruth is challenging kate""}","<img src=""stim_listB/challenge7.gif""style=""height:400px;""></stim_listB>",is challenging,,,,,,
null,"<div style=""font-size:60px;"">+</div>",,html-keyboard-response,294,971305,0.0-17.0-0.17,74533,List1B,black,woman,,,,null,,,,,,,,,
null,"<img src=""stim_listB/challenge4.gif""style=""height:400px;""></stim_listB>",,html-keyboard-response,295,973314,0.0-17.0-1.17,74533,List1B,black,woman,,,,null,,,,,,,,,
null,is being challenged by,,html-keyboard-response,296,975317,0.0-17.0-2.17,74533,List1B,black,woman,,,,null,,,,,,,,,
10532.2,,,survey-text,297,985854,0.0-17.0-3.17,74533,List1B,black,woman,,,,,"{""Q0"":""jane is being challenged by luke""}","<img src=""stim_listB/challenge4.gif""style=""height:400px;""></stim_listB>",is being challenged by,,,,,,
null,"<div style=""font-size:60px;"">+</div>",,html-keyboard-response,298,986356,0.0-17.0-0.18,74533,List1B,black,woman,,,,null,,,,,,,,,
null,"<img src=""stim_listB/greet4.gif""style=""height:400px;""></stim_listB>",,html-keyboard-response,299,988360,0.0-17.0-1.18,74533,List1B,black,woman,,,,null,,,,,,,,,
null,is being greeted by,,html-keyboard-response,300,990364,0.0-17.0-2.18,74533,List1B,black,woman,,,,null,,,,,,,,,
8037.3,,,survey-text,301,998406,0.0-17.0-3.18,74533,List1B,black,woman,,,,,"{""Q0"":""luke is being greeted by jane""}","<img src=""stim_listB/greet4.gif""style=""height:400px;""></stim_listB>",is being greeted by,,,,,,
null,"<div style=""font-size:60px;"">+</div>",,html-keyboard-response,302,998909,0.0-17.0-0.19,74533,List1B,black,woman,,,,null,,,,,,,,,
null,"<img src=""stim_listB/seduce7.gif""style=""height:400px;""></stim_listB>",,html-keyboard-response,303,1000916,0.0-17.0-1.19,74533,List1B,black,woman,,,,null,,,,,,,,,
null,is seducing,,html-keyboard-response,304,1002922,0.0-17.0-2.19,74533,List1B,black,woman,,,,null,,,,,,,,,
4145.6,,,survey-text,305,1007072,0.0-17.0-3.19,74533,List1B,black,woman,,,,,"{""Q0"":""beth is seducing jane""}","<img src=""stim_listB/seduce7.gif""style=""height:400px;""></stim_listB>",is seducing,,,,,,
3654,"<img src='img/portrait_matrix_list1.jpg' style='width:900px;height:500px;''></img><p>If you have memorised all the portraits and names and are ready to start, press Continue.</p><p><strong>Please note: Your memory of these faces will be tested 4 times during this experiment.</strong></p>",0,html-button-response,306,1010729,0.0-18.0-0.0,74533,List1B,black,woman,,,,,,,,,,,,,
1955.3,"<img src=""portrait/WM1.jpg""style=""height:400px;""></img>",6,html-button-response,307,1013691,0.0-18.0-1.0,74533,List1B,black,woman,,TRUE,6,,,,,,,,,,
null,CORRECT,,html-keyboard-response,308,1015204,0.0-18.0-2.0-0.0,74533,List1B,black,woman,,,,null,,,,,,,,,
1455,"<img src=""portrait/BM1.jpg""style=""height:400px;""></img>",4,html-button-response,309,1016664,0.0-18.0-4.0,74533,List1B,black,woman,,TRUE,4,,,,,,,,,,
null,CORRECT,,html-keyboard-response,310,1018174,0.0-18.0-5.0-0.0,74533,List1B,black,woman,,,,null,,,,,,,,,
1771.7,"<img src=""portrait/BM2.jpg""style=""height:400px;""></img>",5,html-button-response,311,1019950,0.0-18.0-7.0,74533,List1B,black,woman,,TRUE,5,,,,,,,,,,
null,CORRECT,,html-keyboard-response,312,1021459,0.0-18.0-8.0-0.0,74533,List1B,black,woman,,,,null,,,,,,,,,
1212.7,"<img src=""portrait/BW2.jpg""style=""height:400px;""></img>",2,html-button-response,313,1022675,0.0-18.0-10.0,74533,List1B,black,woman,,TRUE,2,,,,,,,,,,
null,CORRECT,,html-keyboard-response,314,1024185,0.0-18.0-11.0-0.0,74533,List1B,black,woman,,,,null,,,,,,,,,
1341.7,"<img src=""portrait/WW2.jpg""style=""height:400px;""></img>",3,html-button-response,315,1025530,0.0-18.0-13.0,74533,List1B,black,woman,,TRUE,3,,,,,,,,,,
null,CORRECT,,html-keyboard-response,316,1027040,0.0-18.0-14.0-0.0,74533,List1B,black,woman,,,,null,,,,,,,,,
1165.1,"<img src=""portrait/WW1.jpg""style=""height:400px;""></img>",1,html-button-response,317,1028207,0.0-18.0-16.0,74533,List1B,black,woman,,TRUE,1,,,,,,,,,,
null,CORRECT,,html-keyboard-response,318,1029714,0.0-18.0-17.0-0.0,74533,List1B,black,woman,,,,null,,,,,,,,,
2669.9,"<img src=""portrait/BW1.jpg""style=""height:400px;""></img>",0,html-button-response,319,1032387,0.0-18.0-19.0,74533,List1B,black,woman,,TRUE,0,,,,,,,,,,
null,CORRECT,,html-keyboard-response,320,1033900,0.0-18.0-20.0-0.0,74533,List1B,black,woman,,,,null,,,,,,,,,
1486.4,"<img src=""portrait/WM2.jpg""style=""height:400px;""></img>",7,html-button-response,321,1035389,0.0-18.0-22.0,74533,List1B,black,woman,,TRUE,7,,,,,,,,,,
null,CORRECT,,html-keyboard-response,322,1036901,0.0-18.0-23.0-0.0,74533,List1B,black,woman,,,,null,,,,,,,,,
1195,<p>You got 8 out of 8 right first time. Press Continue.</p>,0,html-button-response,323,1038099,0.0-18.0-25.0,74533,List1B,black,woman,,,,,,,,,,,,,
null,"<div style=""font-size:60px;"">+</div>",,html-keyboard-response,324,1039608,0.0-19.0-0.0,74533,List1B,black,woman,,,,null,,,,,,,,,
null,"<img src=""stim_listB/look6.gif""style=""height:400px;""></stim_listB>",,html-keyboard-response,325,1041615,0.0-19.0-1.0,74533,List1B,black,woman,,,,null,,,,,,,,,
null,is being looked at by,,html-keyboard-response,326,1043621,0.0-19.0-2.0,74533,List1B,black,woman,,,,null,,,,,,,,,
7808.1,,,survey-text,327,1051434,0.0-19.0-3.0,74533,List1B,black,woman,,,,,"{""Q0"":""dave is being looked at by mike""}","<img src=""stim_listB/look6.gif""style=""height:400px;""></stim_listB>",is being looked at by,,,,,,
null,"<div style=""font-size:60px;"">+</div>",,html-keyboard-response,328,1051937,0.0-19.0-0.1,74533,List1B,black,woman,,,,null,,,,,,,,,
null,"<img src=""stim_listB/touch5.gif""style=""height:400px;""></stim_listB>",,html-keyboard-response,329,1053941,0.0-19.0-1.1,74533,List1B,black,woman,,,,null,,,,,,,,,
null,is touching,,html-keyboard-response,330,1055947,0.0-19.0-2.1,74533,List1B,black,woman,,,,null,,,,,,,,,
3536.6,,,survey-text,331,1059488,0.0-19.0-3.1,74533,List1B,black,woman,,,,,"{""Q0"":""dave is touching mike""}","<img src=""stim_listB/touch5.gif""style=""height:400px;""></stim_listB>",is touching,,,,,,
null,"<div style=""font-size:60px;"">+</div>",,html-keyboard-response,332,1059989,0.0-19.0-0.2,74533,List1B,black,woman,,,,null,,,,,,,,,
null,"<img src=""stim_listB/challenge6.gif""style=""height:400px;""></stim_listB>",,html-keyboard-response,333,1061995,0.0-19.0-1.2,74533,List1B,black,woman,,,,null,,,,,,,,,
null,is being challenged by,,html-keyboard-response,334,1064000,0.0-19.0-2.2,74533,List1B,black,woman,,,,null,,,,,,,,,
8143.5,,,survey-text,335,1072148,0.0-19.0-3.2,74533,List1B,black,woman,,,,,"{""Q0"":""dave is being challenged by mike""}","<img src=""stim_listB/challenge6.gif""style=""height:400px;""></stim_listB>",is being challenged by,,,,,,
null,"<div style=""font-size:60px;"">+</div>",,html-keyboard-response,336,1072650,0.0-19.0-0.3,74533,List1B,black,woman,,,,null,,,,,,,,,
null,"<img src=""stim_listB/copy2.gif""style=""height:400px;""></stim_listB>",,html-keyboard-response,337,1074658,0.0-19.0-1.3,74533,List1B,black,woman,,,,null,,,,,,,,,
null,is being copied by,,html-keyboard-response,338,1076664,0.0-19.0-2.3,74533,List1B,black,woman,,,,null,,,,,,,,,
9761,,,survey-text,339,1086430,0.0-19.0-3.3,74533,List1B,black,woman,,,,,"{""Q0"":""fred is being copied by kate""}","<img src=""stim_listB/copy2.gif""style=""height:400px;""></stim_listB>",is being copied by,,,,,,
null,"<div style=""font-size:60px;"">+</div>",,html-keyboard-response,340,1086932,0.0-19.0-0.4,74533,List1B,black,woman,,,,null,,,,,,,,,
null,"<img src=""stim_listB/hug4.gif""style=""height:400px;""></stim_listB>",,html-keyboard-response,341,1088935,0.0-19.0-1.4,74533,List1B,black,woman,,,,null,,,,,,,,,
null,is being hugged by,,html-keyboard-response,342,1090939,0.0-19.0-2.4,74533,List1B,black,woman,,,,null,,,,,,,,,
7116.2,,,survey-text,343,1098059,0.0-19.0-3.4,74533,List1B,black,woman,,,,,"{""Q0"":""dave is being hugged by jane""}","<img src=""stim_listB/hug4.gif""style=""height:400px;""></stim_listB>",is being hugged by,,,,,,
null,"<div style=""font-size:60px;"">+</div>",,html-keyboard-response,344,1098563,0.0-19.0-0.5,74533,List1B,black,woman,,,,null,,,,,,,,,
null,"<img src=""stim_listB/touch1.gif""style=""height:400px;""></stim_listB>",,html-keyboard-response,345,1100571,0.0-19.0-1.5,74533,List1B,black,woman,,,,null,,,,,,,,,
null,is touching,,html-keyboard-response,346,1102578,0.0-19.0-2.5,74533,List1B,black,woman,,,,null,,,,,,,,,
3614.1,,,survey-text,347,1106195,0.0-19.0-3.5,74533,List1B,black,woman,,,,,"{""Q0"":""kate is touching mike""}","<img src=""stim_listB/touch1.gif""style=""height:400px;""></stim_listB>",is touching,,,,,,
null,"<div style=""font-size:60px;"">+</div>",,html-keyboard-response,348,1106698,0.0-19.0-0.6,74533,List1B,black,woman,,,,null,,,,,,,,,
null,"<img src=""stim_listB/oppose3.gif""style=""height:400px;""></stim_listB>",,html-keyboard-response,349,1108706,0.0-19.0-1.6,74533,List1B,black,woman,,,,null,,,,,,,,,
null,is opposing,,html-keyboard-response,350,1110711,0.0-19.0-2.6,74533,List1B,black,woman,,,,null,,,,,,,,,
4969.3,,,survey-text,351,1115690,0.0-19.0-3.6,74533,List1B,black,woman,,,,,"{""Q0"":""jane is opposing dave""}","<img src=""stim_listB/oppose3.gif""style=""height:400px;""></stim_listB>",is opposing,,,,,,
null,"<div style=""font-size:60px;"">+</div>",,html-keyboard-response,352,1116194,0.0-19.0-0.7,74533,List1B,black,woman,,,,null,,,,,,,,,
null,"<img src=""stim_listB/greet3.gif""style=""height:400px;""></stim_listB>",,html-keyboard-response,353,1118203,0.0-19.0-1.7,74533,List1B,black,woman,,,,null,,,,,,,,,
null,is greeting,,html-keyboard-response,354,1120213,0.0-19.0-2.7,74533,List1B,black,woman,,,,null,,,,,,,,,
4749.4,,,survey-text,355,1124970,0.0-19.0-3.7,74533,List1B,black,woman,,,,,"{""Q0"":""ruth is greeting dave""}","<img src=""stim_listB/greet3.gif""style=""height:400px;""></stim_listB>",is greeting,,,,,,
null,"<div style=""font-size:60px;"">+</div>",,html-keyboard-response,356,1125473,0.0-19.0-0.8,74533,List1B,black,woman,,,,null,,,,,,,,,
null,"<img src=""stim_listB/touch8.gif""style=""height:400px;""></stim_listB>",,html-keyboard-response,357,1127479,0.0-19.0-1.8,74533,List1B,black,woman,,,,null,,,,,,,,,
null,is being touched by,,html-keyboard-response,358,1129486,0.0-19.0-2.8,74533,List1B,black,woman,,,,null,,,,,,,,,
8341.9,,,survey-text,359,1137835,0.0-19.0-3.8,74533,List1B,black,woman,,,,,"{""Q0"":""ruth is being touched by beth""}","<img src=""stim_listB/touch8.gif""style=""height:400px;""></stim_listB>",is being touched by,,,,,,
null,"<div style=""font-size:60px;"">+</div>",,html-keyboard-response,360,1138339,0.0-19.0-0.9,74533,List1B,black,woman,,,,null,,,,,,,,,
null,"<img src=""stim_listB/greet6.gif""style=""height:400px;""></stim_listB>",,html-keyboard-response,361,1140346,0.0-19.0-1.9,74533,List1B,black,woman,,,,null,,,,,,,,,
null,is being greeted by,,html-keyboard-response,362,1142350,0.0-19.0-2.9,74533,List1B,black,woman,,,,null,,,,,,,,,
6786.3,,,survey-text,363,1149143,0.0-19.0-3.9,74533,List1B,black,woman,,,,,"{""Q0"":""fred is being greeted by dave""}","<img src=""stim_listB/greet6.gif""style=""height:400px;""></stim_listB>",is being greeted by,,,,,,
null,"<div style=""font-size:60px;"">+</div>",,html-keyboard-response,364,1149646,0.0-19.0-0.10,74533,List1B,black,woman,,,,null,,,,,,,,,
null,"<img src=""stim_listB/hug1.gif""style=""height:400px;""></stim_listB>",,html-keyboard-response,365,1151651,0.0-19.0-1.10,74533,List1B,black,woman,,,,null,,,,,,,,,
null,is hugging,,html-keyboard-response,366,1153658,0.0-19.0-2.10,74533,List1B,black,woman,,,,null,,,,,,,,,
4681.3,,,survey-text,367,1158345,0.0-19.0-3.10,74533,List1B,black,woman,,,,,"{""Q0"":""beth is hugging fred""}","<img src=""stim_listB/hug1.gif""style=""height:400px;""></stim_listB>",is hugging,,,,,,
null,"<div style=""font-size:60px;"">+</div>",,html-keyboard-response,368,1158848,0.0-19.0-0.11,74533,List1B,black,woman,,,,null,,,,,,,,,
null,"<img src=""stim_listB/greet1.gif""style=""height:400px;""></stim_listB>",,html-keyboard-response,369,1160854,0.0-19.0-1.11,74533,List1B,black,woman,,,,null,,,,,,,,,
null,is greeting,,html-keyboard-response,370,1162861,0.0-19.0-2.11,74533,List1B,black,woman,,,,null,,,,,,,,,
16302.9,,,survey-text,371,1179169,0.0-19.0-3.11,74533,List1B,black,woman,,,,,"{""Q0"":""mike is greeting beth""}","<img src=""stim_listB/greet1.gif""style=""height:400px;""></stim_listB>",is greeting,,,,,,
null,"<div style=""font-size:60px;"">+</div>",,html-keyboard-response,372,1179671,0.0-19.0-0.12,74533,List1B,black,woman,,,,null,,,,,,,,,
null,"<img src=""stim_listB/seduce1.gif""style=""height:400px;""></stim_listB>",,html-keyboard-response,373,1181676,0.0-19.0-1.12,74533,List1B,black,woman,,,,null,,,,,,,,,
null,is seducing,,html-keyboard-response,374,1183679,0.0-19.0-2.12,74533,List1B,black,woman,,,,null,,,,,,,,,
4761.1,,,survey-text,375,1188444,0.0-19.0-3.12,74533,List1B,black,woman,,,,,"{""Q0"":""fred is seducing kate""}","<img src=""stim_listB/seduce1.gif""style=""height:400px;""></stim_listB>",is seducing,,,,,,
null,"<div style=""font-size:60px;"">+</div>",,html-keyboard-response,376,1188948,0.0-19.0-0.13,74533,List1B,black,woman,,,,null,,,,,,,,,
null,"<img src=""stim_listB/shout1.gif""style=""height:400px;""></stim_listB>",,html-keyboard-response,377,1190952,0.0-19.0-1.13,74533,List1B,black,woman,,,,null,,,,,,,,,
null,is shouting at,,html-keyboard-response,378,1192958,0.0-19.0-2.13,74533,List1B,black,woman,,,,null,,,,,,,,,
5322.5,,,survey-text,379,1198285,0.0-19.0-3.13,74533,List1B,black,woman,,,,,"{""Q0"":""beth is shouting at fred""}","<img src=""stim_listB/shout1.gif""style=""height:400px;""></stim_listB>",is shouting at,,,,,,
null,"<div style=""font-size:60px;"">+</div>",,html-keyboard-response,380,1198789,0.0-19.0-0.14,74533,List1B,black,woman,,,,null,,,,,,,,,
null,"<img src=""stim_listB/kiss4.gif""style=""height:400px;""></stim_listB>",,html-keyboard-response,381,1200793,0.0-19.0-1.14,74533,List1B,black,woman,,,,null,,,,,,,,,
null,is being kissed by,,html-keyboard-response,382,1202800,0.0-19.0-2.14,74533,List1B,black,woman,,,,null,,,,,,,,,
6434.1,,,survey-text,383,1209239,0.0-19.0-3.14,74533,List1B,black,woman,,,,,"{""Q0"":""dave is being kissed by jane""}","<img src=""stim_listB/kiss4.gif""style=""height:400px;""></stim_listB>",is being kissed by,,,,,,
null,"<div style=""font-size:60px;"">+</div>",,html-keyboard-response,384,1209743,0.0-19.0-0.15,74533,List1B,black,woman,,,,null,,,,,,,,,
null,"<img src=""stim_listB/challenge1.gif""style=""height:400px;""></stim_listB>",,html-keyboard-response,385,1211750,0.0-19.0-1.15,74533,List1B,black,woman,,,,null,,,,,,,,,
null,is challenging,,html-keyboard-response,386,1213752,0.0-19.0-2.15,74533,List1B,black,woman,,,,null,,,,,,,,,
6026.9,,,survey-text,387,1219784,0.0-19.0-3.15,74533,List1B,black,woman,,,,,"{""Q0"":""beth is challenging mike""}","<img src=""stim_listB/challenge1.gif""style=""height:400px;""></stim_listB>",is challenging,,,,,,
null,"<div style=""font-size:60px;"">+</div>",,html-keyboard-response,388,1220288,0.0-19.0-0.16,74533,List1B,black,woman,,,,null,,,,,,,,,
null,"<img src=""stim_listB/touch7.gif""style=""height:400px;""></stim_listB>",,html-keyboard-response,389,1222296,0.0-19.0-1.16,74533,List1B,black,woman,,,,null,,,,,,,,,
null,is touching,,html-keyboard-response,390,1224303,0.0-19.0-2.16,74533,List1B,black,woman,,,,null,,,,,,,,,
5191.1,,,survey-text,391,1229499,0.0-19.0-3.16,74533,List1B,black,woman,,,,,"{""Q0"":""jane is touching kate""}","<img src=""stim_listB/touch7.gif""style=""height:400px;""></stim_listB>",is touching,,,,,,
null,"<div style=""font-size:60px;"">+</div>",,html-keyboard-response,392,1230003,0.0-19.0-0.17,74533,List1B,black,woman,,,,null,,,,,,,,,
null,"<img src=""stim_listB/shout5.gif""style=""height:400px;""></stim_listB>",,html-keyboard-response,393,1232011,0.0-19.0-1.17,74533,List1B,black,woman,,,,null,,,,,,,,,
null,is shouting at,,html-keyboard-response,394,1234015,0.0-19.0-2.17,74533,List1B,black,woman,,,,null,,,,,,,,,
5025.7,,,survey-text,395,1239046,0.0-19.0-3.17,74533,List1B,black,woman,,,,,"{""Q0"":""luke is shouting at fred""}","<img src=""stim_listB/shout5.gif""style=""height:400px;""></stim_listB>",is shouting at,,,,,,
null,"<div style=""font-size:60px;"">+</div>",,html-keyboard-response,396,1239548,0.0-19.0-0.18,74533,List1B,black,woman,,,,null,,,,,,,,,
null,"<img src=""stim_listB/look5.gif""style=""height:400px;""></stim_listB>",,html-keyboard-response,397,1241557,0.0-19.0-1.18,74533,List1B,black,woman,,,,null,,,,,,,,,
null,is looking at,,html-keyboard-response,398,1243562,0.0-19.0-2.18,74533,List1B,black,woman,,,,null,,,,,,,,,
5388.7,,,survey-text,399,1248954,0.0-19.0-3.18,74533,List1B,black,woman,,,,,"{""Q0"":""luke is looking at fred""}","<img src=""stim_listB/look5.gif""style=""height:400px;""></stim_listB>",is looking at,,,,,,
null,"<div style=""font-size:60px;"">+</div>",,html-keyboard-response,400,1249458,0.0-19.0-0.19,74533,List1B,black,woman,,,,null,,,,,,,,,
null,"<img src=""stim_listB/copy5.gif""style=""height:400px;""></stim_listB>",,html-keyboard-response,401,1251462,0.0-19.0-1.19,74533,List1B,black,woman,,,,null,,,,,,,,,
null,is copying,,html-keyboard-response,402,1253470,0.0-19.0-2.19,74533,List1B,black,woman,,,,null,,,,,,,,,
4526.8,,,survey-text,403,1258001,0.0-19.0-3.19,74533,List1B,black,woman,,,,,"{""Q0"":""mike is copying luke""}","<img src=""stim_listB/copy5.gif""style=""height:400px;""></stim_listB>",is copying,,,,,,
3358,<p>Thank you for completing that task.</p><p>The final part of this session is a questionnaire that will take about 4 minutes.</p><p>Press Continue.</p>,0,html-button-response,404,1261362,0.0-20.0,74533,List1B,black,woman,,,,,,,,,,,,,
21238.9,,,survey-text,405,1283612,0.0-21.0,74533,List1B,black,woman,,,,,"{""Q0"":""23"",""Q1"":""english"",""Q2"":""english"",""Q3"":""United States"",""Q4"":""eritrean"",""Q5"":""black"",""Q6"":""female""}",,,demographics,,,,,
1772.1,<p>Have you lived in the USA for the last 5 years or more?</p>,0,html-button-response,406,1285387,0.0-22.0,74533,List1B,black,woman,,,,,,,,fiveyears,,,,,
2287.2,<p>Move the slider to show the extent to which you agree with the following statements.</p>,0,html-button-response,407,1288682,0.0-23.0,74533,List1B,black,woman,,,,,,,,,,,,,
4288.1,,,html-slider-response,408,1293980,0.0-24.0-0.0-0.0,74533,List1B,black,woman,,,,,,,,survey_gender,30,,,I feel solidarity with my friends.,filler
3559.6,,,html-slider-response,409,1297543,0.0-24.0-0.0-0.1,74533,List1B,black,woman,,,,,,,,survey_gender,18,,,Being my gender gives me a good feeling.,feeling
4512.8,,,html-slider-response,410,1302059,0.0-24.0-0.0-0.2,74533,List1B,black,woman,,,,,,,,survey_gender,5,,,I am glad to have the friends that I have.,filler
5015.1,,,html-slider-response,411,1307078,0.0-24.0-0.0-0.3,74533,List1B,black,woman,,,,,,,,survey_gender,80,,,I am similar to the average person of my gender.,similar
4536.3,,,html-slider-response,412,1311618,0.0-24.0-0.0-0.4,74533,List1B,black,woman,,,,,,,,survey_gender,21,,,People of my gender are very similar to each other.,verysimilar
2892.5,,,html-slider-response,413,1314515,0.0-24.0-0.0-0.5,74533,List1B,black,woman,,,,,,,,survey_gender,82,,,People of my gender have a lot in common with each other.,common
5893.8,,,html-slider-response,414,1320412,0.0-24.0-0.0-0.6,74533,List1B,black,woman,,,,,,,,survey_gender,16,,,Being my gender is an important part of how I see myself.,important
2599.5,,,html-slider-response,415,1323016,0.0-24.0-0.0-0.7,74533,List1B,black,woman,,,,,,,,survey_gender,38,,,I feel a bond with my friends.,filler
8161.5,,,html-slider-response,416,1331180,0.0-24.0-0.0-0.8,74533,List1B,black,woman,,,,,,,,survey_gender,33,,,I feel solidarity with my gender.,solidarity
3730.8,,,html-slider-response,417,1334914,0.0-24.0-0.0-0.9,74533,List1B,black,woman,,,,,,,,survey_gender,26,,,It is pleasant to be my gender.,pleasant
5873,,,html-slider-response,418,1340791,0.0-24.0-0.0-0.10,74533,List1B,black,woman,,,,,,,,survey_gender,34,,,I feel a bond with my gender.,bond
3657.3,,,html-slider-response,419,1344452,0.0-24.0-0.0-0.11,74533,List1B,black,woman,,,,,,,,survey_gender,89,,,It is not always easy for people to know what I am thinking.,filler
2959.4,,,html-slider-response,420,1347414,0.0-24.0-0.0-0.12,74533,List1B,black,woman,,,,,,,,survey_gender,100,,,I consider myself a highly empathetic person.,filler
3477.8,,,html-slider-response,421,1350895,0.0-24.0-0.0-0.13,74533,List1B,black,woman,,,,,,,,survey_gender,66,,,I think that my gender has a lot to be proud of.,proud
3308.3,,,html-slider-response,422,1354208,0.0-24.0-0.0-0.14,74533,List1B,black,woman,,,,,,,,survey_gender,26,,,Being around my friends gives me a good feeling.,filler
3095.5,,,html-slider-response,423,1357307,0.0-24.0-0.0-0.15,74533,List1B,black,woman,,,,,,,,survey_gender,30,,,My friends understand me.,filler
2421.3,,,html-slider-response,424,1359732,0.0-24.0-0.0-0.16,74533,List1B,black,woman,,,,,,,,survey_gender,23,,,Family is not more important to me than friendship.,filler
2479.1,,,html-slider-response,425,1362215,0.0-24.0-0.0-0.17,74533,List1B,black,woman,,,,,,,,survey_gender,37,,,My friends have a lot in common with each other.,filler
2615,,,html-slider-response,426,1364833,0.0-24.0-0.0-0.18,74533,List1B,black,woman,,,,,,,,survey_gender,29,,,I feel committed to my gender.,committed
3177.9,,,html-slider-response,427,1368013,0.0-24.0-0.0-0.19,74533,List1B,black,woman,,,,,,,,survey_gender,20,,,I have a lot in common with the average person of my gender.,average
4121.9,,,html-slider-response,428,1372138,0.0-24.0-0.0-0.20,74533,List1B,black,woman,,,,,,,,survey_gender,11,,,The fact that I am my gender is an important part of my identity.,identity
4520.1,,,html-slider-response,429,1376662,0.0-24.0-0.0-0.21,74533,List1B,black,woman,,,,,,,,survey_gender,0,,,I would say I am an animal person.,filler
3754.9,,,html-slider-response,430,1380420,0.0-24.0-0.0-0.22,74533,List1B,black,woman,,,,,,,,survey_gender,27,,,Most of the friends in my life are very similar to me.,filler
2534.8,,,html-slider-response,431,1382958,0.0-24.0-0.0-0.23,74533,List1B,black,woman,,,,,,,,survey_gender,20,,,I often think about the fact that I am my gender.,often
2934.6,,,html-slider-response,432,1385896,0.0-24.0-0.0-0.24,74533,List1B,black,woman,,,,,,,,survey_gender,90,,,I often think about my actions.,filler
3982.5,,,html-slider-response,433,1389882,0.0-24.0-0.0-0.25,74533,List1B,black,woman,,,,,,,,survey_gender,28,,,I am glad to be my gender.,glad
2982.3,,,html-slider-response,434,1392868,0.0-24.0-0.0-0.26,74533,List1B,black,woman,,,,,,,,survey_gender,1,,,Routine is not important to me.,filler
2445.6,,,html-slider-response,435,1395317,0.0-24.0-0.0-0.27,74533,List1B,black,woman,,,,,,,,survey_gender,30,,,I have a lot in common with my friends.,filler
4715.7,,,html-slider-response,436,1400036,0.0-24.0-1.0-0.0,74533,List1B,black,woman,,,,,,,,survey_race,89,,,Being my race is an important part of how I see myself.,important
2437,,,html-slider-response,437,1402477,0.0-24.0-1.0-0.1,74533,List1B,black,woman,,,,,,,,survey_race,84,,,I am glad to be my age.,filler
2853.6,,,html-slider-response,438,1405333,0.0-24.0-1.0-0.2,74533,List1B,black,woman,,,,,,,,survey_race,91,,,I think that my race has a lot to be proud of.,proud
2797.5,,,html-slider-response,439,1408133,0.0-24.0-1.0-0.3,74533,List1B,black,woman,,,,,,,,survey_race,90,,,I have a lot in common with the average person of my race.,average
3201.9,,,html-slider-response,440,1411338,0.0-24.0-1.0-0.4,74533,List1B,black,woman,,,,,,,,survey_race,26,,,I have a lot in common with people of a similar age to me.,filler
3048.1,,,html-slider-response,441,1414389,0.0-24.0-1.0-0.5,74533,List1B,black,woman,,,,,,,,survey_race,11,,,I consider myself an extrovert.,filler
2916.7,,,html-slider-response,442,1417309,0.0-24.0-1.0-0.6,74533,List1B,black,woman,,,,,,,,survey_race,84,,,I am glad to be my race.,glad
2299.7,,,html-slider-response,443,1419612,0.0-24.0-1.0-0.7,74533,List1B,black,woman,,,,,,,,survey_race,11,,,People my age have a lot in common with each other.,filler
3080.6,,,html-slider-response,444,1422696,0.0-24.0-1.0-0.8,74533,List1B,black,woman,,,,,,,,survey_race,87,,,My age is not an important part of who I am.,filler
3209,,,html-slider-response,445,1425909,0.0-24.0-1.0-0.9,74533,List1B,black,woman,,,,,,,,survey_race,91,,,The fact that I am my race is an important part of my identity.,identity
3210.3,,,html-slider-response,446,1429124,0.0-24.0-1.0-0.10,74533,List1B,black,woman,,,,,,,,survey_race,71,,,I am glad to be the age I am.,filler
2917.6,,,html-slider-response,447,1432045,0.0-24.0-1.0-0.11,74533,List1B,black,woman,,,,,,,,survey_race,83,,,I feel solidarity with my race.,solidarity
2452.7,,,html-slider-response,448,1434501,0.0-24.0-1.0-0.12,74533,List1B,black,woman,,,,,,,,survey_race,80,,,People of my race are very similar to each other.,verysimilar
2559.9,,,html-slider-response,449,1437063,0.0-24.0-1.0-0.13,74533,List1B,black,woman,,,,,,,,survey_race,28,,,I feel solidarity with people the same age as me.,filler
3130.4,,,html-slider-response,450,1440196,0.0-24.0-1.0-0.14,74533,List1B,black,woman,,,,,,,,survey_race,71,,,"The older I get, the wiser I feel.",filler
3136.8,,,html-slider-response,451,1443336,0.0-24.0-1.0-0.15,74533,List1B,black,woman,,,,,,,,survey_race,41,,,Being my age gives me a good feeling.,filler
3512,,,html-slider-response,452,1446851,0.0-24.0-1.0-0.16,74533,List1B,black,woman,,,,,,,,survey_race,93,,,I often think about the fact that I am my race.,often
2486.1,,,html-slider-response,453,1449341,0.0-24.0-1.0-0.17,74533,List1B,black,woman,,,,,,,,survey_race,22,,,I enjoy being in large groups.,filler
3064.6,,,html-slider-response,454,1452408,0.0-24.0-1.0-0.18,74533,List1B,black,woman,,,,,,,,survey_race,94,,,I feel a bond with my race.,bond
3104.8,,,html-slider-response,455,1455517,0.0-24.0-1.0-0.19,74533,List1B,black,woman,,,,,,,,survey_race,23,,,Getting older does not worry me.,filler
3991.3,,,html-slider-response,456,1459511,0.0-24.0-1.0-0.20,74533,List1B,black,woman,,,,,,,,survey_race,34,,,I feel a bond with people the same age as me.,filler
2517.7,,,html-slider-response,457,1462033,0.0-24.0-1.0-0.21,74533,List1B,black,woman,,,,,,,,survey_race,88,,,It is pleasant to be my race.,pleasant
3326.2,,,html-slider-response,458,1465362,0.0-24.0-1.0-0.22,74533,List1B,black,woman,,,,,,,,survey_race,81,,,People of my race have a lot in common with each other.,common
144610.5,,,html-slider-response,459,1609973,0.0-24.0-1.0-0.23,74533,List1B,black,woman,,,,,,,,survey_race,100,,,I consider myself an introvert.,filler
4170.8,,,html-slider-response,460,1614147,0.0-24.0-1.0-0.24,74533,List1B,black,woman,,,,,,,,survey_race,80,,,I am similar to the average person of my race.,similar
2673,,,html-slider-response,461,1616823,0.0-24.0-1.0-0.25,74533,List1B,black,woman,,,,,,,,survey_race,99,,,Being my race gives me a good feeling.,feeling
3356.8,,,html-slider-response,462,1620183,0.0-24.0-1.0-0.26,74533,List1B,black,woman,,,,,,,,survey_race,23,,,I often think about the fact that I am my age.,filler
2079.8,,,html-slider-response,463,1622266,0.0-24.0-1.0-0.27,74533,List1B,black,woman,,,,,,,,survey_race,75,,,I feel committed to my race.,committed
3738.7,,,survey-text,464,1626009,0.0-25.0,74533,List1B,black,woman,,,,,"{""Q0"":""ccc""}",,,worker_id,,,,,
20404.6,,,external-html,465,1647231,0.0-26.0,74533,List1B,black,woman,debrief.html,,,,,,,,,,,,
