rt,stimulus,button_pressed,trial_type,trial_index,time_elapsed,internal_node_id,subject,list,ppt_race,ppt_gender,url,first_guess,correct,key_press,responses,image_type,phrase_type,test_part,response,stimulus1,stimulus2,question_type,survey_item
48427.9,Welcome to the experiment. Press Continue to begin.,0,html-button-response,0,48429,0.0-0.0,74532,List1A,black,man,,,,,,,,,,,,,
10790.3,,,external-html,1,60431,0.0-1.0,74532,List1A,black,man,consent.html,,,,,,,,,,,,
18888.8,"<p>On the next page, you will see portraits of 8 people and their names.</p><p>Your first task is to take a few minutes to memorise the names of these people.</p><p>You will have to recall their names during the rest of the experiment, so it is</p><p>essential that you try to memorise these people and their names as best as you can.</p><br><p><strong>You will then be tested on your memory of these names and portraits.</strong></p><br><p>The experiment will start after you have completed this memory test.</p><br><p>Ready?</p>",0,html-button-response,2,79321,0.0-2.0,74532,List1A,black,man,,,,,,,,,,,,,
39371.3,"<img src='img/portrait_matrix_list1.jpg' style='width:900px;height:500px;''></img><p>If you have memorised all the portraits and names and are ready to start, press Continue.</p><p><strong>Please note: Your memory of these faces will be tested 4 times during this experiment.</strong></p>",0,html-button-response,3,119693,0.0-3.0-0.0,74532,List1A,black,man,,,,,,,,,,,,,
5993.5,"<img src=""portrait/BW1.jpg""style=""height:400px;""></img>",0,html-button-response,4,126688,0.0-3.0-1.0,74532,List1A,black,man,,TRUE,0,,,,,,,,,,
null,CORRECT,,html-keyboard-response,5,128190,0.0-3.0-2.0-0.0,74532,List1A,black,man,,,,null,,,,,,,,,
3042.9,"<img src=""portrait/WM2.jpg""style=""height:400px;""></img>",7,html-button-response,6,131234,0.0-3.0-4.0,74532,List1A,black,man,,TRUE,7,,,,,,,,,,
null,CORRECT,,html-keyboard-response,7,132736,0.0-3.0-5.0-0.0,74532,List1A,black,man,,,,null,,,,,,,,,
3584.5,"<img src=""portrait/WW1.jpg""style=""height:400px;""></img>",1,html-button-response,8,136321,0.0-3.0-7.0,74532,List1A,black,man,,TRUE,1,,,,,,,,,,
null,CORRECT,,html-keyboard-response,9,137823,0.0-3.0-8.0-0.0,74532,List1A,black,man,,,,null,,,,,,,,,
3882,"<img src=""portrait/BW2.jpg""style=""height:400px;""></img>",2,html-button-response,10,141706,0.0-3.0-10.0,74532,List1A,black,man,,TRUE,2,,,,,,,,,,
null,CORRECT,,html-keyboard-response,11,143209,0.0-3.0-11.0-0.0,74532,List1A,black,man,,,,null,,,,,,,,,
2972,"<img src=""portrait/WW2.jpg""style=""height:400px;""></img>",3,html-button-response,12,146181,0.0-3.0-13.0,74532,List1A,black,man,,TRUE,3,,,,,,,,,,
null,CORRECT,,html-keyboard-response,13,147683,0.0-3.0-14.0-0.0,74532,List1A,black,man,,,,null,,,,,,,,,
3861.1,"<img src=""portrait/WM1.jpg""style=""height:400px;""></img>",6,html-button-response,14,151545,0.0-3.0-16.0,74532,List1A,black,man,,TRUE,6,,,,,,,,,,
null,CORRECT,,html-keyboard-response,15,153047,0.0-3.0-17.0-0.0,74532,List1A,black,man,,,,null,,,,,,,,,
4017.4,"<img src=""portrait/BM2.jpg""style=""height:400px;""></img>",5,html-button-response,16,157065,0.0-3.0-19.0,74532,List1A,black,man,,TRUE,5,,,,,,,,,,
null,CORRECT,,html-keyboard-response,17,158566,0.0-3.0-20.0-0.0,74532,List1A,black,man,,,,null,,,,,,,,,
2673.8,"<img src=""portrait/BM1.jpg""style=""height:400px;""></img>",4,html-button-response,18,161240,0.0-3.0-22.0,74532,List1A,black,man,,TRUE,4,,,,,,,,,,
null,CORRECT,,html-keyboard-response,19,162744,0.0-3.0-23.0-0.0,74532,List1A,black,man,,,,null,,,,,,,,,
7494.6,<p>You got 8 out of 8 right first time. Press Continue.</p>,0,html-button-response,20,170239,0.0-3.0-25.0,74532,List1A,black,man,,,,,,,,,,,,,
15181.6,"<p>In this experiment, you will view photographs of the people from the memory game interacting.</p><p>By using the <strong>exact</strong> phrase given <i>after</i> the photograph appears and recalling the correct names of the people in the photographs, form a sentence describing the interaction. You do not need to capitalise names.</p><p>Type your answer in the space provided. Please complete every sentence before moving onto the next trial.</p><p>You will only have a few seconds to memorise each given photograph and phrase before you can respond, so try your best to focus.</p><p>An example is given below. Press 'Continue' when you are ready.</p><img src='img/speaking_example.jpg' style='width:800px;height:460px;''></img>",0,html-button-response,21,186423,0.0-4.0,74532,List1A,black,man,,,,,,,,,,,,,
5703.4,"<p>Before the experiment starts, you will watch two example trials. Press 'Continue'.</p>",0,html-button-response,22,193127,0.0-5.0,74532,List1A,black,man,,,,,,,,,,,,,
null,<img src='img/play_eg.gif' style='height:400px;''></img>,,html-keyboard-response,23,196128,0.0-6.0,74532,List1A,black,man,,,,null,,,,,,,,,
null,<p>is playing with</p>,,html-keyboard-response,24,198129,0.0-7.0,74532,List1A,black,man,,,,null,,,,,,,,,
6341.6,<p><b>Answer:</b> kate is playing with beth</p>,0,html-button-response,25,204471,0.0-8.0,74532,List1A,black,man,,,,,,,,,,,,,
null,<img src='img/dance_eg.gif' style='height:400px;''></img>,,html-keyboard-response,26,207473,0.0-9.0,74532,List1A,black,man,,,,null,,,,,,,,,
null,<p>is being entertained by</p>,,html-keyboard-response,27,209474,0.0-10.0,74532,List1A,black,man,,,,null,,,,,,,,,
1857,<p><b>Answer:</b> luke is being entertained by dave</p>,0,html-button-response,28,211331,0.0-11.0,74532,List1A,black,man,,,,,,,,,,,,,
7933.4,"<p>Ready to start the experiment?</p><br><p><strong>Remember to describe the picture using a full sentence,</strong></p><p><strong>that combines the names of the people with the <i>exact</i> phrase given.</strong></p><p><strong>To receive full payment you must do this correctly.</strong></p><p><strong> You do not need to capitalise names or use punctuation.</strong></p><br><p>Press 'Continue' to begin.</p>",0,html-button-response,29,220266,0.0-12.0,74532,List1A,black,man,,,,,,,,,,,,,
null,"<div style=""font-size:60px;"">+</div>",,html-keyboard-response,30,221768,0.0-13.0-0.0,74532,List1A,black,man,,,,null,,,,,,,,,
null,"<img src=""stim_listA/look4.gif""style=""height:400px;""></stim_listA>",,html-keyboard-response,31,223769,0.0-13.0-1.0,74532,List1A,black,man,,,,null,,,,,,,,,
null,is being looked at by,,html-keyboard-response,32,225771,0.0-13.0-2.0,74532,List1A,black,man,,,,null,,,,,,,,,
6083.7,,,survey-text,33,231856,0.0-13.0-3.0,74532,List1A,black,man,,,,,"{""Q0"":""Jane""}","<img src=""stim_listA/look4.gif""style=""height:400px;""></stim_listA>",is being looked at by,,,,,,
null,"<div style=""font-size:60px;"">+</div>",,html-keyboard-response,34,232357,0.0-13.0-0.1,74532,List1A,black,man,,,,null,,,,,,,,,
null,"<img src=""stim_listA/challenge1.gif""style=""height:400px;""></stim_listA>",,html-keyboard-response,35,234359,0.0-13.0-1.1,74532,List1A,black,man,,,,null,,,,,,,,,
null,is challenging,,html-keyboard-response,36,236360,0.0-13.0-2.1,74532,List1A,black,man,,,,null,,,,,,,,,
11468.2,,,survey-text,37,247830,0.0-13.0-3.1,74532,List1A,black,man,,,,,"{""Q0"":""Mike is challenging Beth""}","<img src=""stim_listA/challenge1.gif""style=""height:400px;""></stim_listA>",is challenging,,,,,,
null,"<div style=""font-size:60px;"">+</div>",,html-keyboard-response,38,248331,0.0-13.0-0.2,74532,List1A,black,man,,,,null,,,,,,,,,
null,"<img src=""stim_listA/seduce3.gif""style=""height:400px;""></stim_listA>",,html-keyboard-response,39,250332,0.0-13.0-1.2,74532,List1A,black,man,,,,null,,,,,,,,,
null,is seducing,,html-keyboard-response,40,252333,0.0-13.0-2.2,74532,List1A,black,man,,,,null,,,,,,,,,
8570.9,,,survey-text,41,260905,0.0-13.0-3.2,74532,List1A,black,man,,,,,"{""Q0"":""Jane is seducing Beth""}","<img src=""stim_listA/seduce3.gif""style=""height:400px;""></stim_listA>",is seducing,,,,,,
null,"<div style=""font-size:60px;"">+</div>",,html-keyboard-response,42,261407,0.0-13.0-0.3,74532,List1A,black,man,,,,null,,,,,,,,,
null,"<img src=""stim_listA/challenge3.gif""style=""height:400px;""></stim_listA>",,html-keyboard-response,43,263408,0.0-13.0-1.3,74532,List1A,black,man,,,,null,,,,,,,,,
null,is challenging,,html-keyboard-response,44,265409,0.0-13.0-2.3,74532,List1A,black,man,,,,null,,,,,,,,,
11080.2,,,survey-text,45,276490,0.0-13.0-3.3,74532,List1A,black,man,,,,,"{""Q0"":""Dave is challenging Luke""}","<img src=""stim_listA/challenge3.gif""style=""height:400px;""></stim_listA>",is challenging,,,,,,
null,"<div style=""font-size:60px;"">+</div>",,html-keyboard-response,46,276991,0.0-13.0-0.4,74532,List1A,black,man,,,,null,,,,,,,,,
null,"<img src=""stim_listA/seduce7.gif""style=""height:400px;""></stim_listA>",,html-keyboard-response,47,278992,0.0-13.0-1.4,74532,List1A,black,man,,,,null,,,,,,,,,
null,is seducing,,html-keyboard-response,48,280993,0.0-13.0-2.4,74532,List1A,black,man,,,,null,,,,,,,,,
14867.3,,,survey-text,49,295861,0.0-13.0-3.4,74532,List1A,black,man,,,,,"{""Q0"":""Beth is flirting with jane""}","<img src=""stim_listA/seduce7.gif""style=""height:400px;""></stim_listA>",is seducing,,,,,,
null,"<div style=""font-size:60px;"">+</div>",,html-keyboard-response,50,296362,0.0-13.0-0.5,74532,List1A,black,man,,,,null,,,,,,,,,
null,"<img src=""stim_listA/touch1.gif""style=""height:400px;""></stim_listA>",,html-keyboard-response,51,298364,0.0-13.0-1.5,74532,List1A,black,man,,,,null,,,,,,,,,
null,is touching,,html-keyboard-response,52,300364,0.0-13.0-2.5,74532,List1A,black,man,,,,null,,,,,,,,,
26317.8,,,survey-text,53,326683,0.0-13.0-3.5,74532,List1A,black,man,,,,,"{""Q0"":""Mike is touching Kate""}","<img src=""stim_listA/touch1.gif""style=""height:400px;""></stim_listA>",is touching,,,,,,
null,"<div style=""font-size:60px;"">+</div>",,html-keyboard-response,54,327183,0.0-13.0-0.6,74532,List1A,black,man,,,,null,,,,,,,,,
null,"<img src=""stim_listA/greet1.gif""style=""height:400px;""></stim_listA>",,html-keyboard-response,55,329185,0.0-13.0-1.6,74532,List1A,black,man,,,,null,,,,,,,,,
null,is greeting,,html-keyboard-response,56,331186,0.0-13.0-2.6,74532,List1A,black,man,,,,null,,,,,,,,,
7017.7,,,survey-text,57,338205,0.0-13.0-3.6,74532,List1A,black,man,,,,,"{""Q0"":""Mike is greeting Beth""}","<img src=""stim_listA/greet1.gif""style=""height:400px;""></stim_listA>",is greeting,,,,,,
null,"<div style=""font-size:60px;"">+</div>",,html-keyboard-response,58,338705,0.0-13.0-0.7,74532,List1A,black,man,,,,null,,,,,,,,,
null,"<img src=""stim_listA/copy1.gif""style=""height:400px;""></stim_listA>",,html-keyboard-response,59,340707,0.0-13.0-1.7,74532,List1A,black,man,,,,null,,,,,,,,,
null,is copying,,html-keyboard-response,60,342708,0.0-13.0-2.7,74532,List1A,black,man,,,,null,,,,,,,,,
7492.7,,,survey-text,61,350202,0.0-13.0-3.7,74532,List1A,black,man,,,,,"{""Q0"":""Mike is copying Beth""}","<img src=""stim_listA/copy1.gif""style=""height:400px;""></stim_listA>",is copying,,,,,,
null,"<div style=""font-size:60px;"">+</div>",,html-keyboard-response,62,350703,0.0-13.0-0.8,74532,List1A,black,man,,,,null,,,,,,,,,
null,"<img src=""stim_listA/copy3.gif""style=""height:400px;""></stim_listA>",,html-keyboard-response,63,352704,0.0-13.0-1.8,74532,List1A,black,man,,,,null,,,,,,,,,
null,is copying,,html-keyboard-response,64,354705,0.0-13.0-2.8,74532,List1A,black,man,,,,null,,,,,,,,,
8853.5,,,survey-text,65,363559,0.0-13.0-3.8,74532,List1A,black,man,,,,,"{""Q0"":""Ruth is copying Dave""}","<img src=""stim_listA/copy3.gif""style=""height:400px;""></stim_listA>",is copying,,,,,,
null,"<div style=""font-size:60px;"">+</div>",,html-keyboard-response,66,364060,0.0-13.0-0.9,74532,List1A,black,man,,,,null,,,,,,,,,
null,"<img src=""stim_listA/shout3.gif""style=""height:400px;""></stim_listA>",,html-keyboard-response,67,366061,0.0-13.0-1.9,74532,List1A,black,man,,,,null,,,,,,,,,
null,is shouting at,,html-keyboard-response,68,368063,0.0-13.0-2.9,74532,List1A,black,man,,,,null,,,,,,,,,
9071.7,,,survey-text,69,377136,0.0-13.0-3.9,74532,List1A,black,man,,,,,"{""Q0"":""Ruth is shouting at Luke""}","<img src=""stim_listA/shout3.gif""style=""height:400px;""></stim_listA>",is shouting at,,,,,,
null,"<div style=""font-size:60px;"">+</div>",,html-keyboard-response,70,377637,0.0-13.0-0.10,74532,List1A,black,man,,,,null,,,,,,,,,
null,"<img src=""stim_listA/hug3.gif""style=""height:400px;""></stim_listA>",,html-keyboard-response,71,379638,0.0-13.0-1.10,74532,List1A,black,man,,,,null,,,,,,,,,
null,is hugging,,html-keyboard-response,72,381639,0.0-13.0-2.10,74532,List1A,black,man,,,,null,,,,,,,,,
10733.7,,,survey-text,73,392374,0.0-13.0-3.10,74532,List1A,black,man,,,,,"{""Q0"":""Ruth is hugging Luke""}","<img src=""stim_listA/hug3.gif""style=""height:400px;""></stim_listA>",is hugging,,,,,,
null,"<div style=""font-size:60px;"">+</div>",,html-keyboard-response,74,392875,0.0-13.0-0.11,74532,List1A,black,man,,,,null,,,,,,,,,
null,"<img src=""stim_listA/shout8.gif""style=""height:400px;""></stim_listA>",,html-keyboard-response,75,394878,0.0-13.0-1.11,74532,List1A,black,man,,,,null,,,,,,,,,
null,is being shouted at by,,html-keyboard-response,76,396880,0.0-13.0-2.11,74532,List1A,black,man,,,,null,,,,,,,,,
61828.2,,,survey-text,77,458709,0.0-13.0-3.11,74532,List1A,black,man,,,,,"{""Q0"":""Jane is being touched by Kate""}","<img src=""stim_listA/shout8.gif""style=""height:400px;""></stim_listA>",is being shouted at by,,,,,,
null,"<div style=""font-size:60px;"">+</div>",,html-keyboard-response,78,459210,0.0-13.0-0.12,74532,List1A,black,man,,,,null,,,,,,,,,
null,"<img src=""stim_listA/greet2.gif""style=""height:400px;""></stim_listA>",,html-keyboard-response,79,461211,0.0-13.0-1.12,74532,List1A,black,man,,,,null,,,,,,,,,
null,is being greeted by,,html-keyboard-response,80,463213,0.0-13.0-2.12,74532,List1A,black,man,,,,null,,,,,,,,,
9342,,,survey-text,81,472555,0.0-13.0-3.12,74532,List1A,black,man,,,,,"{""Q0"":""Kate is being greeted by Fred""}","<img src=""stim_listA/greet2.gif""style=""height:400px;""></stim_listA>",is being greeted by,,,,,,
null,"<div style=""font-size:60px;"">+</div>",,html-keyboard-response,82,473056,0.0-13.0-0.13,74532,List1A,black,man,,,,null,,,,,,,,,
null,"<img src=""stim_listA/copy4.gif""style=""height:400px;""></stim_listA>",,html-keyboard-response,83,475057,0.0-13.0-1.13,74532,List1A,black,man,,,,null,,,,,,,,,
null,is being copied by,,html-keyboard-response,84,477057,0.0-13.0-2.13,74532,List1A,black,man,,,,null,,,,,,,,,
11427.2,,,survey-text,85,488485,0.0-13.0-3.13,74532,List1A,black,man,,,,,"{""Q0"":""Luke is being copied by Jane""}","<img src=""stim_listA/copy4.gif""style=""height:400px;""></stim_listA>",is being copied by,,,,,,
null,"<div style=""font-size:60px;"">+</div>",,html-keyboard-response,86,488987,0.0-13.0-0.14,74532,List1A,black,man,,,,null,,,,,,,,,
null,"<img src=""stim_listA/look1.gif""style=""height:400px;""></stim_listA>",,html-keyboard-response,87,490989,0.0-13.0-1.14,74532,List1A,black,man,,,,null,,,,,,,,,
null,is looking at,,html-keyboard-response,88,492991,0.0-13.0-2.14,74532,List1A,black,man,,,,null,,,,,,,,,
14063.2,,,survey-text,89,507056,0.0-13.0-3.14,74532,List1A,black,man,,,,,"{""Q0"":""Fred is being looked at by Beth""}","<img src=""stim_listA/look1.gif""style=""height:400px;""></stim_listA>",is looking at,,,,,,
null,"<div style=""font-size:60px;"">+</div>",,html-keyboard-response,90,507557,0.0-13.0-0.15,74532,List1A,black,man,,,,null,,,,,,,,,
null,"<img src=""stim_listA/greet7.gif""style=""height:400px;""></stim_listA>",,html-keyboard-response,91,509559,0.0-13.0-1.15,74532,List1A,black,man,,,,null,,,,,,,,,
null,is greeting,,html-keyboard-response,92,511560,0.0-13.0-2.15,74532,List1A,black,man,,,,null,,,,,,,,,
9531.6,,,survey-text,93,521092,0.0-13.0-3.15,74532,List1A,black,man,,,,,"{""Q0"":""Ruth is greeting Kate""}","<img src=""stim_listA/greet7.gif""style=""height:400px;""></stim_listA>",is greeting,,,,,,
null,"<div style=""font-size:60px;"">+</div>",,html-keyboard-response,94,521593,0.0-13.0-0.16,74532,List1A,black,man,,,,null,,,,,,,,,
null,"<img src=""stim_listA/shout2.gif""style=""height:400px;""></stim_listA>",,html-keyboard-response,95,523594,0.0-13.0-1.16,74532,List1A,black,man,,,,null,,,,,,,,,
null,is being shouted at by,,html-keyboard-response,96,525595,0.0-13.0-2.16,74532,List1A,black,man,,,,null,,,,,,,,,
17377.3,,,survey-text,97,542973,0.0-13.0-3.16,74532,List1A,black,man,,,,,"{""Q0"":""Mike is being shouted at by Kate""}","<img src=""stim_listA/shout2.gif""style=""height:400px;""></stim_listA>",is being shouted at by,,,,,,
null,"<div style=""font-size:60px;"">+</div>",,html-keyboard-response,98,543474,0.0-13.0-0.17,74532,List1A,black,man,,,,null,,,,,,,,,
null,"<img src=""stim_listA/touch8.gif""style=""height:400px;""></stim_listA>",,html-keyboard-response,99,545475,0.0-13.0-1.17,74532,List1A,black,man,,,,null,,,,,,,,,
null,is being touched by,,html-keyboard-response,100,547475,0.0-13.0-2.17,74532,List1A,black,man,,,,null,,,,,,,,,
10230.9,,,survey-text,101,557707,0.0-13.0-3.17,74532,List1A,black,man,,,,,"{""Q0"":""Ruth is being touched by Beth""}","<img src=""stim_listA/touch8.gif""style=""height:400px;""></stim_listA>",is being touched by,,,,,,
null,"<div style=""font-size:60px;"">+</div>",,html-keyboard-response,102,558209,0.0-13.0-0.18,74532,List1A,black,man,,,,null,,,,,,,,,
null,"<img src=""stim_listA/shout1.gif""style=""height:400px;""></stim_listA>",,html-keyboard-response,103,560211,0.0-13.0-1.18,74532,List1A,black,man,,,,null,,,,,,,,,
null,is shouting at,,html-keyboard-response,104,562212,0.0-13.0-2.18,74532,List1A,black,man,,,,null,,,,,,,,,
8355,,,survey-text,105,570568,0.0-13.0-3.18,74532,List1A,black,man,,,,,"{""Q0"":""Fred is shouting at Beth""}","<img src=""stim_listA/shout1.gif""style=""height:400px;""></stim_listA>",is shouting at,,,,,,
null,"<div style=""font-size:60px;"">+</div>",,html-keyboard-response,106,571068,0.0-13.0-0.19,74532,List1A,black,man,,,,null,,,,,,,,,
null,"<img src=""stim_listA/kiss7.gif""style=""height:400px;""></stim_listA>",,html-keyboard-response,107,573070,0.0-13.0-1.19,74532,List1A,black,man,,,,null,,,,,,,,,
null,is kissing,,html-keyboard-response,108,575071,0.0-13.0-2.19,74532,List1A,black,man,,,,null,,,,,,,,,
8056.7,,,survey-text,109,583129,0.0-13.0-3.19,74532,List1A,black,man,,,,,"{""Q0"":""Ruth is kissing Beth""}","<img src=""stim_listA/kiss7.gif""style=""height:400px;""></stim_listA>",is kissing,,,,,,
117279,"<img src='img/portrait_matrix_list1.jpg' style='width:900px;height:500px;''></img><p>If you have memorised all the portraits and names and are ready to start, press Continue.</p><p><strong>Please note: Your memory of these faces will be tested 4 times during this experiment.</strong></p>",0,html-button-response,110,700409,0.0-14.0-0.0,74532,List1A,black,man,,,,,,,,,,,,,
6265.2,"<img src=""portrait/WM1.jpg""style=""height:400px;""></img>",6,html-button-response,111,707675,0.0-14.0-1.0,74532,List1A,black,man,,TRUE,6,,,,,,,,,,
null,CORRECT,,html-keyboard-response,112,709179,0.0-14.0-2.0-0.0,74532,List1A,black,man,,,,null,,,,,,,,,
1943.1,"<img src=""portrait/BM1.jpg""style=""height:400px;""></img>",4,html-button-response,113,711123,0.0-14.0-4.0,74532,List1A,black,man,,TRUE,4,,,,,,,,,,
null,CORRECT,,html-keyboard-response,114,712624,0.0-14.0-5.0-0.0,74532,List1A,black,man,,,,null,,,,,,,,,
2159.6,"<img src=""portrait/WM2.jpg""style=""height:400px;""></img>",7,html-button-response,115,714785,0.0-14.0-7.0,74532,List1A,black,man,,TRUE,7,,,,,,,,,,
null,CORRECT,,html-keyboard-response,116,716287,0.0-14.0-8.0-0.0,74532,List1A,black,man,,,,null,,,,,,,,,
2167.2,"<img src=""portrait/WW2.jpg""style=""height:400px;""></img>",3,html-button-response,117,718455,0.0-14.0-10.0,74532,List1A,black,man,,TRUE,3,,,,,,,,,,
null,CORRECT,,html-keyboard-response,118,719956,0.0-14.0-11.0-0.0,74532,List1A,black,man,,,,null,,,,,,,,,
3286.9,"<img src=""portrait/BW2.jpg""style=""height:400px;""></img>",2,html-button-response,119,723244,0.0-14.0-13.0,74532,List1A,black,man,,TRUE,2,,,,,,,,,,
null,CORRECT,,html-keyboard-response,120,724759,0.0-14.0-14.0-0.0,74532,List1A,black,man,,,,null,,,,,,,,,
2762.8,"<img src=""portrait/WW1.jpg""style=""height:400px;""></img>",1,html-button-response,121,727522,0.0-14.0-16.0,74532,List1A,black,man,,TRUE,1,,,,,,,,,,
null,CORRECT,,html-keyboard-response,122,729024,0.0-14.0-17.0-0.0,74532,List1A,black,man,,,,null,,,,,,,,,
2420.7,"<img src=""portrait/BM2.jpg""style=""height:400px;""></img>",5,html-button-response,123,731445,0.0-14.0-19.0,74532,List1A,black,man,,TRUE,5,,,,,,,,,,
null,CORRECT,,html-keyboard-response,124,732948,0.0-14.0-20.0-0.0,74532,List1A,black,man,,,,null,,,,,,,,,
6006.2,"<img src=""portrait/BW1.jpg""style=""height:400px;""></img>",0,html-button-response,125,738954,0.0-14.0-22.0,74532,List1A,black,man,,TRUE,0,,,,,,,,,,
null,CORRECT,,html-keyboard-response,126,740457,0.0-14.0-23.0-0.0,74532,List1A,black,man,,,,null,,,,,,,,,
1325.9,<p>You got 8 out of 8 right first time. Press Continue.</p>,0,html-button-response,127,741784,0.0-14.0-25.0,74532,List1A,black,man,,,,,,,,,,,,,
null,"<div style=""font-size:60px;"">+</div>",,html-keyboard-response,128,743286,0.0-15.0-0.0,74532,List1A,black,man,,,,null,,,,,,,,,
null,"<img src=""stim_listA/challenge2.gif""style=""height:400px;""></stim_listA>",,html-keyboard-response,129,745288,0.0-15.0-1.0,74532,List1A,black,man,,,,null,,,,,,,,,
null,is being challenged by,,html-keyboard-response,130,747289,0.0-15.0-2.0,74532,List1A,black,man,,,,null,,,,,,,,,
12008.3,,,survey-text,131,759298,0.0-15.0-3.0,74532,List1A,black,man,,,,,"{""Q0"":""Fred is being challenged by Kate""}","<img src=""stim_listA/challenge2.gif""style=""height:400px;""></stim_listA>",is being challenged by,,,,,,
null,"<div style=""font-size:60px;"">+</div>",,html-keyboard-response,132,759801,0.0-15.0-0.1,74532,List1A,black,man,,,,null,,,,,,,,,
null,"<img src=""stim_listA/hug2.gif""style=""height:400px;""></stim_listA>",,html-keyboard-response,133,761802,0.0-15.0-1.1,74532,List1A,black,man,,,,null,,,,,,,,,
null,is being hugged by,,html-keyboard-response,134,763803,0.0-15.0-2.1,74532,List1A,black,man,,,,null,,,,,,,,,
8050.1,,,survey-text,135,771854,0.0-15.0-3.1,74532,List1A,black,man,,,,,"{""Q0"":""Mike is being hugged by Kate""}","<img src=""stim_listA/hug2.gif""style=""height:400px;""></stim_listA>",is being hugged by,,,,,,
null,"<div style=""font-size:60px;"">+</div>",,html-keyboard-response,136,772355,0.0-15.0-0.2,74532,List1A,black,man,,,,null,,,,,,,,,
null,"<img src=""stim_listA/touch7.gif""style=""height:400px;""></stim_listA>",,html-keyboard-response,137,774356,0.0-15.0-1.2,74532,List1A,black,man,,,,null,,,,,,,,,
null,is touching,,html-keyboard-response,138,776356,0.0-15.0-2.2,74532,List1A,black,man,,,,null,,,,,,,,,
5850.3,,,survey-text,139,782207,0.0-15.0-3.2,74532,List1A,black,man,,,,,"{""Q0"":""Jane is touching Kate""}","<img src=""stim_listA/touch7.gif""style=""height:400px;""></stim_listA>",is touching,,,,,,
null,"<div style=""font-size:60px;"">+</div>",,html-keyboard-response,140,782708,0.0-15.0-0.3,74532,List1A,black,man,,,,null,,,,,,,,,
null,"<img src=""stim_listA/oppose5.gif""style=""height:400px;""></stim_listA>",,html-keyboard-response,141,784710,0.0-15.0-1.3,74532,List1A,black,man,,,,null,,,,,,,,,
null,is opposing,,html-keyboard-response,142,786710,0.0-15.0-2.3,74532,List1A,black,man,,,,null,,,,,,,,,
10698,,,survey-text,143,797409,0.0-15.0-3.3,74532,List1A,black,man,,,,,"{""Q0"":""Dave is opposing Mike""}","<img src=""stim_listA/oppose5.gif""style=""height:400px;""></stim_listA>",is opposing,,,,,,
null,"<div style=""font-size:60px;"">+</div>",,html-keyboard-response,144,797911,0.0-15.0-0.4,74532,List1A,black,man,,,,null,,,,,,,,,
null,"<img src=""stim_listA/challenge6.gif""style=""height:400px;""></stim_listA>",,html-keyboard-response,145,799912,0.0-15.0-1.4,74532,List1A,black,man,,,,null,,,,,,,,,
null,is being challenged by,,html-keyboard-response,146,801913,0.0-15.0-2.4,74532,List1A,black,man,,,,null,,,,,,,,,
8748.9,,,survey-text,147,810662,0.0-15.0-3.4,74532,List1A,black,man,,,,,"{""Q0"":""Dave is opposing Fred""}","<img src=""stim_listA/challenge6.gif""style=""height:400px;""></stim_listA>",is being challenged by,,,,,,
null,"<div style=""font-size:60px;"">+</div>",,html-keyboard-response,148,811163,0.0-15.0-0.5,74532,List1A,black,man,,,,null,,,,,,,,,
null,"<img src=""stim_listA/shout7.gif""style=""height:400px;""></stim_listA>",,html-keyboard-response,149,813164,0.0-15.0-1.5,74532,List1A,black,man,,,,null,,,,,,,,,
null,is shouting at,,html-keyboard-response,150,815165,0.0-15.0-2.5,74532,List1A,black,man,,,,null,,,,,,,,,
11854.5,,,survey-text,151,827020,0.0-15.0-3.5,74532,List1A,black,man,,,,,"{""Q0"":""Ruth is shouting at Beth""}","<img src=""stim_listA/shout7.gif""style=""height:400px;""></stim_listA>",is shouting at,,,,,,
null,"<div style=""font-size:60px;"">+</div>",,html-keyboard-response,152,827522,0.0-15.0-0.6,74532,List1A,black,man,,,,null,,,,,,,,,
null,"<img src=""stim_listA/touch3.gif""style=""height:400px;""></stim_listA>",,html-keyboard-response,153,829523,0.0-15.0-1.6,74532,List1A,black,man,,,,null,,,,,,,,,
null,is touching,,html-keyboard-response,154,831523,0.0-15.0-2.6,74532,List1A,black,man,,,,null,,,,,,,,,
8283.8,,,survey-text,155,839808,0.0-15.0-3.6,74532,List1A,black,man,,,,,"{""Q0"":""Jane is touching Dave""}","<img src=""stim_listA/touch3.gif""style=""height:400px;""></stim_listA>",is touching,,,,,,
null,"<div style=""font-size:60px;"">+</div>",,html-keyboard-response,156,840310,0.0-15.0-0.7,74532,List1A,black,man,,,,null,,,,,,,,,
null,"<img src=""stim_listA/hug4.gif""style=""height:400px;""></stim_listA>",,html-keyboard-response,157,842312,0.0-15.0-1.7,74532,List1A,black,man,,,,null,,,,,,,,,
null,is being hugged by,,html-keyboard-response,158,844313,0.0-15.0-2.7,74532,List1A,black,man,,,,null,,,,,,,,,
8070.7,,,survey-text,159,852385,0.0-15.0-3.7,74532,List1A,black,man,,,,,"{""Q0"":""Jane is being hugged by Dave""}","<img src=""stim_listA/hug4.gif""style=""height:400px;""></stim_listA>",is being hugged by,,,,,,
null,"<div style=""font-size:60px;"">+</div>",,html-keyboard-response,160,852885,0.0-15.0-0.8,74532,List1A,black,man,,,,null,,,,,,,,,
null,"<img src=""stim_listA/look6.gif""style=""height:400px;""></stim_listA>",,html-keyboard-response,161,854886,0.0-15.0-1.8,74532,List1A,black,man,,,,null,,,,,,,,,
null,is being looked at by,,html-keyboard-response,162,856887,0.0-15.0-2.8,74532,List1A,black,man,,,,null,,,,,,,,,
6910.1,,,survey-text,163,863798,0.0-15.0-3.8,74532,List1A,black,man,,,,,"{""Q0"":""Dave is being looked at by Mike""}","<img src=""stim_listA/look6.gif""style=""height:400px;""></stim_listA>",is being looked at by,,,,,,
null,"<div style=""font-size:60px;"">+</div>",,html-keyboard-response,164,864298,0.0-15.0-0.9,74532,List1A,black,man,,,,null,,,,,,,,,
null,"<img src=""stim_listA/hug5.gif""style=""height:400px;""></stim_listA>",,html-keyboard-response,165,866300,0.0-15.0-1.9,74532,List1A,black,man,,,,null,,,,,,,,,
null,is hugging,,html-keyboard-response,166,868301,0.0-15.0-2.9,74532,List1A,black,man,,,,null,,,,,,,,,
6970,,,survey-text,167,875272,0.0-15.0-3.9,74532,List1A,black,man,,,,,"{""Q0"":""Luke is hugging Fred""}","<img src=""stim_listA/hug5.gif""style=""height:400px;""></stim_listA>",is hugging,,,,,,
null,"<div style=""font-size:60px;"">+</div>",,html-keyboard-response,168,875772,0.0-15.0-0.10,74532,List1A,black,man,,,,null,,,,,,,,,
null,"<img src=""stim_listA/seduce4.gif""style=""height:400px;""></stim_listA>",,html-keyboard-response,169,877773,0.0-15.0-1.10,74532,List1A,black,man,,,,null,,,,,,,,,
null,is being seduced by,,html-keyboard-response,170,879773,0.0-15.0-2.10,74532,List1A,black,man,,,,null,,,,,,,,,
8334.3,,,survey-text,171,888108,0.0-15.0-3.10,74532,List1A,black,man,,,,,"{""Q0"":""Ruth is being seduced by Dave""}","<img src=""stim_listA/seduce4.gif""style=""height:400px;""></stim_listA>",is being seduced by,,,,,,
null,"<div style=""font-size:60px;"">+</div>",,html-keyboard-response,172,888609,0.0-15.0-0.11,74532,List1A,black,man,,,,null,,,,,,,,,
null,"<img src=""stim_listA/kiss6.gif""style=""height:400px;""></stim_listA>",,html-keyboard-response,173,890611,0.0-15.0-1.11,74532,List1A,black,man,,,,null,,,,,,,,,
null,is being kissed by,,html-keyboard-response,174,892612,0.0-15.0-2.11,74532,List1A,black,man,,,,null,,,,,,,,,
9242,,,survey-text,175,901855,0.0-15.0-3.11,74532,List1A,black,man,,,,,"{""Q0"":""Mike is being kissed by Dave""}","<img src=""stim_listA/kiss6.gif""style=""height:400px;""></stim_listA>",is being kissed by,,,,,,
null,"<div style=""font-size:60px;"">+</div>",,html-keyboard-response,176,902356,0.0-15.0-0.12,74532,List1A,black,man,,,,null,,,,,,,,,
null,"<img src=""stim_listA/hug1.gif""style=""height:400px;""></stim_listA>",,html-keyboard-response,177,904358,0.0-15.0-1.12,74532,List1A,black,man,,,,null,,,,,,,,,
null,is hugging,,html-keyboard-response,178,906359,0.0-15.0-2.12,74532,List1A,black,man,,,,null,,,,,,,,,
6363.3,,,survey-text,179,912723,0.0-15.0-3.12,74532,List1A,black,man,,,,,"{""Q0"":""Beth is hugging Fred""}","<img src=""stim_listA/hug1.gif""style=""height:400px;""></stim_listA>",is hugging,,,,,,
null,"<div style=""font-size:60px;"">+</div>",,html-keyboard-response,180,913224,0.0-15.0-0.13,74532,List1A,black,man,,,,null,,,,,,,,,
null,"<img src=""stim_listA/copy8.gif""style=""height:400px;""></stim_listA>",,html-keyboard-response,181,915225,0.0-15.0-1.13,74532,List1A,black,man,,,,null,,,,,,,,,
null,is being copied by,,html-keyboard-response,182,917226,0.0-15.0-2.13,74532,List1A,black,man,,,,null,,,,,,,,,
10994.4,,,survey-text,183,928221,0.0-15.0-3.13,74532,List1A,black,man,,,,,"{""Q0"":""Jane is being copied by Beth""}","<img src=""stim_listA/copy8.gif""style=""height:400px;""></stim_listA>",is being copied by,,,,,,
null,"<div style=""font-size:60px;"">+</div>",,html-keyboard-response,184,928722,0.0-15.0-0.14,74532,List1A,black,man,,,,null,,,,,,,,,
null,"<img src=""stim_listA/shout5.gif""style=""height:400px;""></stim_listA>",,html-keyboard-response,185,930723,0.0-15.0-1.14,74532,List1A,black,man,,,,null,,,,,,,,,
null,is shouting at,,html-keyboard-response,186,932723,0.0-15.0-2.14,74532,List1A,black,man,,,,null,,,,,,,,,
41039,,,survey-text,187,973763,0.0-15.0-3.14,74532,List1A,black,man,,,,,"{""Q0"":""Luke is shouting at Fred""}","<img src=""stim_listA/shout5.gif""style=""height:400px;""></stim_listA>",is shouting at,,,,,,
null,"<div style=""font-size:60px;"">+</div>",,html-keyboard-response,188,974264,0.0-15.0-0.15,74532,List1A,black,man,,,,null,,,,,,,,,
null,"<img src=""stim_listA/seduce6.gif""style=""height:400px;""></stim_listA>",,html-keyboard-response,189,976266,0.0-15.0-1.15,74532,List1A,black,man,,,,null,,,,,,,,,
null,is being seduced by,,html-keyboard-response,190,978266,0.0-15.0-2.15,74532,List1A,black,man,,,,null,,,,,,,,,
11104.7,,,survey-text,191,989372,0.0-15.0-3.15,74532,List1A,black,man,,,,,"{""Q0"":""Luke is being seduced by Mike""}","<img src=""stim_listA/seduce6.gif""style=""height:400px;""></stim_listA>",is being seduced by,,,,,,
null,"<div style=""font-size:60px;"">+</div>",,html-keyboard-response,192,989872,0.0-15.0-0.16,74532,List1A,black,man,,,,null,,,,,,,,,
null,"<img src=""stim_listA/copy6.gif""style=""height:400px;""></stim_listA>",,html-keyboard-response,193,991873,0.0-15.0-1.16,74532,List1A,black,man,,,,null,,,,,,,,,
null,is being copied by,,html-keyboard-response,194,993874,0.0-15.0-2.16,74532,List1A,black,man,,,,null,,,,,,,,,
9325.7,,,survey-text,195,1003200,0.0-15.0-3.16,74532,List1A,black,man,,,,,"{""Q0"":""Fred is being copied by Luke""}","<img src=""stim_listA/copy6.gif""style=""height:400px;""></stim_listA>",is being copied by,,,,,,
null,"<div style=""font-size:60px;"">+</div>",,html-keyboard-response,196,1003702,0.0-15.0-0.17,74532,List1A,black,man,,,,null,,,,,,,,,
null,"<img src=""stim_listA/oppose6.gif""style=""height:400px;""></stim_listA>",,html-keyboard-response,197,1005704,0.0-15.0-1.17,74532,List1A,black,man,,,,null,,,,,,,,,
null,is being opposed by,,html-keyboard-response,198,1007705,0.0-15.0-2.17,74532,List1A,black,man,,,,null,,,,,,,,,
9681.8,,,survey-text,199,1017388,0.0-15.0-3.17,74532,List1A,black,man,,,,,"{""Q0"":""Luke is being opposed by Fred""}","<img src=""stim_listA/oppose6.gif""style=""height:400px;""></stim_listA>",is being opposed by,,,,,,
null,"<div style=""font-size:60px;"">+</div>",,html-keyboard-response,200,1017889,0.0-15.0-0.18,74532,List1A,black,man,,,,null,,,,,,,,,
null,"<img src=""stim_listA/oppose3.gif""style=""height:400px;""></stim_listA>",,html-keyboard-response,201,1019890,0.0-15.0-1.18,74532,List1A,black,man,,,,null,,,,,,,,,
null,is opposing,,html-keyboard-response,202,1021891,0.0-15.0-2.18,74532,List1A,black,man,,,,null,,,,,,,,,
11424.1,,,survey-text,203,1033315,0.0-15.0-3.18,74532,List1A,black,man,,,,,"{""Q0"":""Dave is opposing Jane""}","<img src=""stim_listA/oppose3.gif""style=""height:400px;""></stim_listA>",is opposing,,,,,,
null,"<div style=""font-size:60px;"">+</div>",,html-keyboard-response,204,1033817,0.0-15.0-0.19,74532,List1A,black,man,,,,null,,,,,,,,,
null,"<img src=""stim_listA/seduce2.gif""style=""height:400px;""></stim_listA>",,html-keyboard-response,205,1035819,0.0-15.0-1.19,74532,List1A,black,man,,,,null,,,,,,,,,
null,is being seduced by,,html-keyboard-response,206,1037820,0.0-15.0-2.19,74532,List1A,black,man,,,,null,,,,,,,,,
10700.9,,,survey-text,207,1048522,0.0-15.0-3.19,74532,List1A,black,man,,,,,"{""Q0"":""Beth is being seduced by Mike""}","<img src=""stim_listA/seduce2.gif""style=""height:400px;""></stim_listA>",is being seduced by,,,,,,
210231.7,"<img src='img/portrait_matrix_list1.jpg' style='width:900px;height:500px;''></img><p>If you have memorised all the portraits and names and are ready to start, press Continue.</p><p><strong>Please note: Your memory of these faces will be tested 4 times during this experiment.</strong></p>",0,html-button-response,208,1258754,0.0-16.0-0.0,74532,List1A,black,man,,,,,,,,,,,,,
4664.6,"<img src=""portrait/BW1.jpg""style=""height:400px;""></img>",0,html-button-response,209,1264420,0.0-16.0-1.0,74532,List1A,black,man,,TRUE,0,,,,,,,,,,
null,CORRECT,,html-keyboard-response,210,1265923,0.0-16.0-2.0-0.0,74532,List1A,black,man,,,,null,,,,,,,,,
1773,"<img src=""portrait/BM1.jpg""style=""height:400px;""></img>",4,html-button-response,211,1267697,0.0-16.0-4.0,74532,List1A,black,man,,TRUE,4,,,,,,,,,,
null,CORRECT,,html-keyboard-response,212,1269199,0.0-16.0-5.0-0.0,74532,List1A,black,man,,,,null,,,,,,,,,
1940.3,"<img src=""portrait/WW2.jpg""style=""height:400px;""></img>",3,html-button-response,213,1271140,0.0-16.0-7.0,74532,List1A,black,man,,TRUE,3,,,,,,,,,,
null,CORRECT,,html-keyboard-response,214,1272643,0.0-16.0-8.0-0.0,74532,List1A,black,man,,,,null,,,,,,,,,
3204.7,"<img src=""portrait/BW2.jpg""style=""height:400px;""></img>",2,html-button-response,215,1275848,0.0-16.0-10.0,74532,List1A,black,man,,TRUE,2,,,,,,,,,,
null,CORRECT,,html-keyboard-response,216,1277351,0.0-16.0-11.0-0.0,74532,List1A,black,man,,,,null,,,,,,,,,
3195.7,"<img src=""portrait/WW1.jpg""style=""height:400px;""></img>",1,html-button-response,217,1280548,0.0-16.0-13.0,74532,List1A,black,man,,TRUE,1,,,,,,,,,,
null,CORRECT,,html-keyboard-response,218,1282051,0.0-16.0-14.0-0.0,74532,List1A,black,man,,,,null,,,,,,,,,
1856.4,"<img src=""portrait/WM2.jpg""style=""height:400px;""></img>",7,html-button-response,219,1283908,0.0-16.0-16.0,74532,List1A,black,man,,TRUE,7,,,,,,,,,,
null,CORRECT,,html-keyboard-response,220,1285409,0.0-16.0-17.0-0.0,74532,List1A,black,man,,,,null,,,,,,,,,
3640.5,"<img src=""portrait/WM1.jpg""style=""height:400px;""></img>",6,html-button-response,221,1289051,0.0-16.0-19.0,74532,List1A,black,man,,TRUE,6,,,,,,,,,,
null,CORRECT,,html-keyboard-response,222,1290553,0.0-16.0-20.0-0.0,74532,List1A,black,man,,,,null,,,,,,,,,
2755.9,"<img src=""portrait/BM2.jpg""style=""height:400px;""></img>",5,html-button-response,223,1293309,0.0-16.0-22.0,74532,List1A,black,man,,TRUE,5,,,,,,,,,,
null,CORRECT,,html-keyboard-response,224,1294812,0.0-16.0-23.0-0.0,74532,List1A,black,man,,,,null,,,,,,,,,
1196.2,<p>You got 8 out of 8 right first time. Press Continue.</p>,0,html-button-response,225,1296009,0.0-16.0-25.0,74532,List1A,black,man,,,,,,,,,,,,,
null,"<div style=""font-size:60px;"">+</div>",,html-keyboard-response,226,1297511,0.0-17.0-0.0,74532,List1A,black,man,,,,null,,,,,,,,,
null,"<img src=""stim_listA/kiss3.gif""style=""height:400px;""></stim_listA>",,html-keyboard-response,227,1299512,0.0-17.0-1.0,74532,List1A,black,man,,,,null,,,,,,,,,
null,is kissing,,html-keyboard-response,228,1301513,0.0-17.0-2.0,74532,List1A,black,man,,,,null,,,,,,,,,
6542.7,,,survey-text,229,1308057,0.0-17.0-3.0,74532,List1A,black,man,,,,,"{""Q0"":""Luke is kissing Ruth""}","<img src=""stim_listA/kiss3.gif""style=""height:400px;""></stim_listA>",is kissing,,,,,,
null,"<div style=""font-size:60px;"">+</div>",,html-keyboard-response,230,1308557,0.0-17.0-0.1,74532,List1A,black,man,,,,null,,,,,,,,,
null,"<img src=""stim_listA/greet8.gif""style=""height:400px;""></stim_listA>",,html-keyboard-response,231,1310559,0.0-17.0-1.1,74532,List1A,black,man,,,,null,,,,,,,,,
null,is being greeted by,,html-keyboard-response,232,1312560,0.0-17.0-2.1,74532,List1A,black,man,,,,null,,,,,,,,,
12504.6,,,survey-text,233,1325065,0.0-17.0-3.1,74532,List1A,black,man,,,,,"{""Q0"":""Jane is being greeted by Beth""}","<img src=""stim_listA/greet8.gif""style=""height:400px;""></stim_listA>",is being greeted by,,,,,,
null,"<div style=""font-size:60px;"">+</div>",,html-keyboard-response,234,1325566,0.0-17.0-0.2,74532,List1A,black,man,,,,null,,,,,,,,,
null,"<img src=""stim_listA/kiss5.gif""style=""height:400px;""></stim_listA>",,html-keyboard-response,235,1327567,0.0-17.0-1.2,74532,List1A,black,man,,,,null,,,,,,,,,
null,is kissing,,html-keyboard-response,236,1329568,0.0-17.0-2.2,74532,List1A,black,man,,,,null,,,,,,,,,
7989,,,survey-text,237,1337558,0.0-17.0-3.2,74532,List1A,black,man,,,,,"{""Q0"":""Fred is kissing Luke""}","<img src=""stim_listA/kiss5.gif""style=""height:400px;""></stim_listA>",is kissing,,,,,,
null,"<div style=""font-size:60px;"">+</div>",,html-keyboard-response,238,1338059,0.0-17.0-0.3,74532,List1A,black,man,,,,null,,,,,,,,,
null,"<img src=""stim_listA/kiss1.gif""style=""height:400px;""></stim_listA>",,html-keyboard-response,239,1340059,0.0-17.0-1.3,74532,List1A,black,man,,,,null,,,,,,,,,
null,is kissing,,html-keyboard-response,240,1342060,0.0-17.0-2.3,74532,List1A,black,man,,,,null,,,,,,,,,
5292.3,,,survey-text,241,1347353,0.0-17.0-3.3,74532,List1A,black,man,,,,,"{""Q0"":""Fred is kissing Beth""}","<img src=""stim_listA/kiss1.gif""style=""height:400px;""></stim_listA>",is kissing,,,,,,
null,"<div style=""font-size:60px;"">+</div>",,html-keyboard-response,242,1347853,0.0-17.0-0.4,74532,List1A,black,man,,,,null,,,,,,,,,
null,"<img src=""stim_listA/touch5.gif""style=""height:400px;""></stim_listA>",,html-keyboard-response,243,1349855,0.0-17.0-1.4,74532,List1A,black,man,,,,null,,,,,,,,,
null,is touching,,html-keyboard-response,244,1351856,0.0-17.0-2.4,74532,List1A,black,man,,,,null,,,,,,,,,
6930.7,,,survey-text,245,1358788,0.0-17.0-3.4,74532,List1A,black,man,,,,,"{""Q0"":""Mike is touching Dave""}","<img src=""stim_listA/touch5.gif""style=""height:400px;""></stim_listA>",is touching,,,,,,
null,"<div style=""font-size:60px;"">+</div>",,html-keyboard-response,246,1359290,0.0-17.0-0.5,74532,List1A,black,man,,,,null,,,,,,,,,
null,"<img src=""stim_listA/greet3.gif""style=""height:400px;""></stim_listA>",,html-keyboard-response,247,1361292,0.0-17.0-1.5,74532,List1A,black,man,,,,null,,,,,,,,,
null,is greeting,,html-keyboard-response,248,1363293,0.0-17.0-2.5,74532,List1A,black,man,,,,null,,,,,,,,,
5625.2,,,survey-text,249,1368919,0.0-17.0-3.5,74532,List1A,black,man,,,,,"{""Q0"":""Dave is greeting Ruth""}","<img src=""stim_listA/greet3.gif""style=""height:400px;""></stim_listA>",is greeting,,,,,,
null,"<div style=""font-size:60px;"">+</div>",,html-keyboard-response,250,1369421,0.0-17.0-0.6,74532,List1A,black,man,,,,null,,,,,,,,,
null,"<img src=""stim_listA/copy7.gif""style=""height:400px;""></stim_listA>",,html-keyboard-response,251,1371422,0.0-17.0-1.6,74532,List1A,black,man,,,,null,,,,,,,,,
null,is copying,,html-keyboard-response,252,1373423,0.0-17.0-2.6,74532,List1A,black,man,,,,null,,,,,,,,,
8399.3,,,survey-text,253,1381823,0.0-17.0-3.6,74532,List1A,black,man,,,,,"{""Q0"":""Ruth is copying Kate""}","<img src=""stim_listA/copy7.gif""style=""height:400px;""></stim_listA>",is copying,,,,,,
null,"<div style=""font-size:60px;"">+</div>",,html-keyboard-response,254,1382325,0.0-17.0-0.7,74532,List1A,black,man,,,,null,,,,,,,,,
null,"<img src=""stim_listA/oppose8.gif""style=""height:400px;""></stim_listA>",,html-keyboard-response,255,1384325,0.0-17.0-1.7,74532,List1A,black,man,,,,null,,,,,,,,,
null,is being opposed by,,html-keyboard-response,256,1386326,0.0-17.0-2.7,74532,List1A,black,man,,,,null,,,,,,,,,
19020.7,,,survey-text,257,1405347,0.0-17.0-3.7,74532,List1A,black,man,,,,,"{""Q0"":""Kate is being opposed by Beth""}","<img src=""stim_listA/oppose8.gif""style=""height:400px;""></stim_listA>",is being opposed by,,,,,,
null,"<div style=""font-size:60px;"">+</div>",,html-keyboard-response,258,1405848,0.0-17.0-0.8,74532,List1A,black,man,,,,null,,,,,,,,,
null,"<img src=""stim_listA/copy2.gif""style=""height:400px;""></stim_listA>",,html-keyboard-response,259,1407849,0.0-17.0-1.8,74532,List1A,black,man,,,,null,,,,,,,,,
null,is being copied by,,html-keyboard-response,260,1409850,0.0-17.0-2.8,74532,List1A,black,man,,,,null,,,,,,,,,
7058.2,,,survey-text,261,1416909,0.0-17.0-3.8,74532,List1A,black,man,,,,,"{""Q0"":""Fred is being copied by Kate""}","<img src=""stim_listA/copy2.gif""style=""height:400px;""></stim_listA>",is being copied by,,,,,,
null,"<div style=""font-size:60px;"">+</div>",,html-keyboard-response,262,1417410,0.0-17.0-0.9,74532,List1A,black,man,,,,null,,,,,,,,,
null,"<img src=""stim_listA/challenge7.gif""style=""height:400px;""></stim_listA>",,html-keyboard-response,263,1419411,0.0-17.0-1.9,74532,List1A,black,man,,,,null,,,,,,,,,
null,is challenging,,html-keyboard-response,264,1421412,0.0-17.0-2.9,74532,List1A,black,man,,,,null,,,,,,,,,
10805.5,,,survey-text,265,1432219,0.0-17.0-3.9,74532,List1A,black,man,,,,,"{""Q0"":""Kate is being challenged by Ruth""}","<img src=""stim_listA/challenge7.gif""style=""height:400px;""></stim_listA>",is challenging,,,,,,
null,"<div style=""font-size:60px;"">+</div>",,html-keyboard-response,266,1432719,0.0-17.0-0.10,74532,List1A,black,man,,,,null,,,,,,,,,
null,"<img src=""stim_listA/greet6.gif""style=""height:400px;""></stim_listA>",,html-keyboard-response,267,1434720,0.0-17.0-1.10,74532,List1A,black,man,,,,null,,,,,,,,,
null,is being greeted by,,html-keyboard-response,268,1436722,0.0-17.0-2.10,74532,List1A,black,man,,,,null,,,,,,,,,
7649.1,,,survey-text,269,1444372,0.0-17.0-3.10,74532,List1A,black,man,,,,,"{""Q0"":""Fred is being greeted by Dave""}","<img src=""stim_listA/greet6.gif""style=""height:400px;""></stim_listA>",is being greeted by,,,,,,
null,"<div style=""font-size:60px;"">+</div>",,html-keyboard-response,270,1444874,0.0-17.0-0.11,74532,List1A,black,man,,,,null,,,,,,,,,
null,"<img src=""stim_listA/look7.gif""style=""height:400px;""></stim_listA>",,html-keyboard-response,271,1446875,0.0-17.0-1.11,74532,List1A,black,man,,,,null,,,,,,,,,
null,is looking at,,html-keyboard-response,272,1448876,0.0-17.0-2.11,74532,List1A,black,man,,,,null,,,,,,,,,
4879.5,,,survey-text,273,1453756,0.0-17.0-3.11,74532,List1A,black,man,,,,,"{""Q0"":""Beth is looking at Ruth""}","<img src=""stim_listA/look7.gif""style=""height:400px;""></stim_listA>",is looking at,,,,,,
null,"<div style=""font-size:60px;"">+</div>",,html-keyboard-response,274,1454257,0.0-17.0-0.12,74532,List1A,black,man,,,,null,,,,,,,,,
null,"<img src=""stim_listA/greet4.gif""style=""height:400px;""></stim_listA>",,html-keyboard-response,275,1456259,0.0-17.0-1.12,74532,List1A,black,man,,,,null,,,,,,,,,
null,is being greeted by,,html-keyboard-response,276,1458259,0.0-17.0-2.12,74532,List1A,black,man,,,,null,,,,,,,,,
7448.1,,,survey-text,277,1465708,0.0-17.0-3.12,74532,List1A,black,man,,,,,"{""Q0"":""Jane is being greeted by Luke""}","<img src=""stim_listA/greet4.gif""style=""height:400px;""></stim_listA>",is being greeted by,,,,,,
null,"<div style=""font-size:60px;"">+</div>",,html-keyboard-response,278,1466209,0.0-17.0-0.13,74532,List1A,black,man,,,,null,,,,,,,,,
null,"<img src=""stim_listA/oppose1.gif""style=""height:400px;""></stim_listA>",,html-keyboard-response,279,1468210,0.0-17.0-1.13,74532,List1A,black,man,,,,null,,,,,,,,,
null,is opposing,,html-keyboard-response,280,1470211,0.0-17.0-2.13,74532,List1A,black,man,,,,null,,,,,,,,,
5533.3,,,survey-text,281,1475745,0.0-17.0-3.13,74532,List1A,black,man,,,,,"{""Q0"":""Mike is opposing Kate""}","<img src=""stim_listA/oppose1.gif""style=""height:400px;""></stim_listA>",is opposing,,,,,,
null,"<div style=""font-size:60px;"">+</div>",,html-keyboard-response,282,1476245,0.0-17.0-0.14,74532,List1A,black,man,,,,null,,,,,,,,,
null,"<img src=""stim_listA/shout6.gif""style=""height:400px;""></stim_listA>",,html-keyboard-response,283,1478246,0.0-17.0-1.14,74532,List1A,black,man,,,,null,,,,,,,,,
null,is being shouted at by,,html-keyboard-response,284,1480248,0.0-17.0-2.14,74532,List1A,black,man,,,,null,,,,,,,,,
5947.4,,,survey-text,285,1486196,0.0-17.0-3.14,74532,List1A,black,man,,,,,"{""Q0"":""Dave is being shouted at by Mike""}","<img src=""stim_listA/shout6.gif""style=""height:400px;""></stim_listA>",is being shouted at by,,,,,,
null,"<div style=""font-size:60px;"">+</div>",,html-keyboard-response,286,1486697,0.0-17.0-0.15,74532,List1A,black,man,,,,null,,,,,,,,,
null,"<img src=""stim_listA/oppose4.gif""style=""height:400px;""></stim_listA>",,html-keyboard-response,287,1488699,0.0-17.0-1.15,74532,List1A,black,man,,,,null,,,,,,,,,
null,is being opposed by,,html-keyboard-response,288,1490700,0.0-17.0-2.15,74532,List1A,black,man,,,,null,,,,,,,,,
7505.6,,,survey-text,289,1498206,0.0-17.0-3.15,74532,List1A,black,man,,,,,"{""Q0"":""Ruth is being opposed by Luke""}","<img src=""stim_listA/oppose4.gif""style=""height:400px;""></stim_listA>",is being opposed by,,,,,,
null,"<div style=""font-size:60px;"">+</div>",,html-keyboard-response,290,1498708,0.0-17.0-0.16,74532,List1A,black,man,,,,null,,,,,,,,,
null,"<img src=""stim_listA/challenge5.gif""style=""height:400px;""></stim_listA>",,html-keyboard-response,291,1500709,0.0-17.0-1.16,74532,List1A,black,man,,,,null,,,,,,,,,
null,is challenging,,html-keyboard-response,292,1502710,0.0-17.0-2.16,74532,List1A,black,man,,,,null,,,,,,,,,
9510.6,,,survey-text,293,1512222,0.0-17.0-3.16,74532,List1A,black,man,,,,,"{""Q0"":""Mike is challenging Luke""}","<img src=""stim_listA/challenge5.gif""style=""height:400px;""></stim_listA>",is challenging,,,,,,
null,"<div style=""font-size:60px;"">+</div>",,html-keyboard-response,294,1512723,0.0-17.0-0.17,74532,List1A,black,man,,,,null,,,,,,,,,
null,"<img src=""stim_listA/seduce5.gif""style=""height:400px;""></stim_listA>",,html-keyboard-response,295,1514724,0.0-17.0-1.17,74532,List1A,black,man,,,,null,,,,,,,,,
null,is seducing,,html-keyboard-response,296,1516725,0.0-17.0-2.17,74532,List1A,black,man,,,,null,,,,,,,,,
4721.5,,,survey-text,297,1521447,0.0-17.0-3.17,74532,List1A,black,man,,,,,"{""Q0"":""Dave is seducing Fred""}","<img src=""stim_listA/seduce5.gif""style=""height:400px;""></stim_listA>",is seducing,,,,,,
null,"<div style=""font-size:60px;"">+</div>",,html-keyboard-response,298,1521948,0.0-17.0-0.18,74532,List1A,black,man,,,,null,,,,,,,,,
null,"<img src=""stim_listA/challenge8.gif""style=""height:400px;""></stim_listA>",,html-keyboard-response,299,1523949,0.0-17.0-1.18,74532,List1A,black,man,,,,null,,,,,,,,,
null,is being challenged by,,html-keyboard-response,300,1525950,0.0-17.0-2.18,74532,List1A,black,man,,,,null,,,,,,,,,
6492.2,,,survey-text,301,1532443,0.0-17.0-3.18,74532,List1A,black,man,,,,,"{""Q0"":""Beth is challenged by Jane""}","<img src=""stim_listA/challenge8.gif""style=""height:400px;""></stim_listA>",is being challenged by,,,,,,
null,"<div style=""font-size:60px;"">+</div>",,html-keyboard-response,302,1532944,0.0-17.0-0.19,74532,List1A,black,man,,,,null,,,,,,,,,
null,"<img src=""stim_listA/oppose2.gif""style=""height:400px;""></stim_listA>",,html-keyboard-response,303,1534946,0.0-17.0-1.19,74532,List1A,black,man,,,,null,,,,,,,,,
null,is being opposed by,,html-keyboard-response,304,1536947,0.0-17.0-2.19,74532,List1A,black,man,,,,null,,,,,,,,,
10553.3,,,survey-text,305,1547501,0.0-17.0-3.19,74532,List1A,black,man,,,,,"{""Q0"":""Fred is opposing Beth""}","<img src=""stim_listA/oppose2.gif""style=""height:400px;""></stim_listA>",is being opposed by,,,,,,
118767.9,"<img src='img/portrait_matrix_list1.jpg' style='width:900px;height:500px;''></img><p>If you have memorised all the portraits and names and are ready to start, press Continue.</p><p><strong>Please note: Your memory of these faces will be tested 4 times during this experiment.</strong></p>",0,html-button-response,306,1666269,0.0-18.0-0.0,74532,List1A,black,man,,,,,,,,,,,,,
3573.8,"<img src=""portrait/WM1.jpg""style=""height:400px;""></img>",6,html-button-response,307,1670845,0.0-18.0-1.0,74532,List1A,black,man,,TRUE,6,,,,,,,,,,
null,CORRECT,,html-keyboard-response,308,1672347,0.0-18.0-2.0-0.0,74532,List1A,black,man,,,,null,,,,,,,,,
2017.8,"<img src=""portrait/WW2.jpg""style=""height:400px;""></img>",3,html-button-response,309,1674365,0.0-18.0-4.0,74532,List1A,black,man,,TRUE,3,,,,,,,,,,
null,CORRECT,,html-keyboard-response,310,1675867,0.0-18.0-5.0-0.0,74532,List1A,black,man,,,,null,,,,,,,,,
2393.8,"<img src=""portrait/BM2.jpg""style=""height:400px;""></img>",5,html-button-response,311,1678261,0.0-18.0-7.0,74532,List1A,black,man,,TRUE,5,,,,,,,,,,
null,CORRECT,,html-keyboard-response,312,1679763,0.0-18.0-8.0-0.0,74532,List1A,black,man,,,,null,,,,,,,,,
2036.1,"<img src=""portrait/BW2.jpg""style=""height:400px;""></img>",2,html-button-response,313,1681800,0.0-18.0-10.0,74532,List1A,black,man,,TRUE,2,,,,,,,,,,
null,CORRECT,,html-keyboard-response,314,1683303,0.0-18.0-11.0-0.0,74532,List1A,black,man,,,,null,,,,,,,,,
2040,"<img src=""portrait/WM2.jpg""style=""height:400px;""></img>",7,html-button-response,315,1685343,0.0-18.0-13.0,74532,List1A,black,man,,TRUE,7,,,,,,,,,,
null,CORRECT,,html-keyboard-response,316,1686845,0.0-18.0-14.0-0.0,74532,List1A,black,man,,,,null,,,,,,,,,
3452.4,"<img src=""portrait/WW1.jpg""style=""height:400px;""></img>",1,html-button-response,317,1690298,0.0-18.0-16.0,74532,List1A,black,man,,TRUE,1,,,,,,,,,,
null,CORRECT,,html-keyboard-response,318,1691801,0.0-18.0-17.0-0.0,74532,List1A,black,man,,,,null,,,,,,,,,
2288.4,"<img src=""portrait/BM1.jpg""style=""height:400px;""></img>",4,html-button-response,319,1694090,0.0-18.0-19.0,74532,List1A,black,man,,TRUE,4,,,,,,,,,,
null,CORRECT,,html-keyboard-response,320,1695592,0.0-18.0-20.0-0.0,74532,List1A,black,man,,,,null,,,,,,,,,
2392.4,"<img src=""portrait/BW1.jpg""style=""height:400px;""></img>",0,html-button-response,321,1697986,0.0-18.0-22.0,74532,List1A,black,man,,TRUE,0,,,,,,,,,,
null,CORRECT,,html-keyboard-response,322,1699487,0.0-18.0-23.0-0.0,74532,List1A,black,man,,,,null,,,,,,,,,
1225.6,<p>You got 8 out of 8 right first time. Press Continue.</p>,0,html-button-response,323,1700713,0.0-18.0-25.0,74532,List1A,black,man,,,,,,,,,,,,,
null,"<div style=""font-size:60px;"">+</div>",,html-keyboard-response,324,1702217,0.0-19.0-0.0,74532,List1A,black,man,,,,null,,,,,,,,,
null,"<img src=""stim_listA/greet5.gif""style=""height:400px;""></stim_listA>",,html-keyboard-response,325,1704218,0.0-19.0-1.0,74532,List1A,black,man,,,,null,,,,,,,,,
null,is greeting,,html-keyboard-response,326,1706219,0.0-19.0-2.0,74532,List1A,black,man,,,,null,,,,,,,,,
36960,,,survey-text,327,1743179,0.0-19.0-3.0,74532,List1A,black,man,,,,,"{""Q0"":""Luke is greeting Mike""}","<img src=""stim_listA/greet5.gif""style=""height:400px;""></stim_listA>",is greeting,,,,,,
null,"<div style=""font-size:60px;"">+</div>",,html-keyboard-response,328,1743681,0.0-19.0-0.1,74532,List1A,black,man,,,,null,,,,,,,,,
null,"<img src=""stim_listA/kiss4.gif""style=""height:400px;""></stim_listA>",,html-keyboard-response,329,1745683,0.0-19.0-1.1,74532,List1A,black,man,,,,null,,,,,,,,,
null,is being kissed by,,html-keyboard-response,330,1747683,0.0-19.0-2.1,74532,List1A,black,man,,,,null,,,,,,,,,
8401,,,survey-text,331,1756085,0.0-19.0-3.1,74532,List1A,black,man,,,,,"{""Q0"":""Jane is being kissed by Dave""}","<img src=""stim_listA/kiss4.gif""style=""height:400px;""></stim_listA>",is being kissed by,,,,,,
null,"<div style=""font-size:60px;"">+</div>",,html-keyboard-response,332,1756587,0.0-19.0-0.2,74532,List1A,black,man,,,,null,,,,,,,,,
null,"<img src=""stim_listA/touch2.gif""style=""height:400px;""></stim_listA>",,html-keyboard-response,333,1758589,0.0-19.0-1.2,74532,List1A,black,man,,,,null,,,,,,,,,
null,is being touched by,,html-keyboard-response,334,1760589,0.0-19.0-2.2,74532,List1A,black,man,,,,null,,,,,,,,,
6622.6,,,survey-text,335,1767213,0.0-19.0-3.2,74532,List1A,black,man,,,,,"{""Q0"":""Beth is being touched by Fred""}","<img src=""stim_listA/touch2.gif""style=""height:400px;""></stim_listA>",is being touched by,,,,,,
null,"<div style=""font-size:60px;"">+</div>",,html-keyboard-response,336,1767714,0.0-19.0-0.3,74532,List1A,black,man,,,,null,,,,,,,,,
null,"<img src=""stim_listA/look3.gif""style=""height:400px;""></stim_listA>",,html-keyboard-response,337,1769716,0.0-19.0-1.3,74532,List1A,black,man,,,,null,,,,,,,,,
null,is looking at,,html-keyboard-response,338,1771717,0.0-19.0-2.3,74532,List1A,black,man,,,,null,,,,,,,,,
4451.5,,,survey-text,339,1776169,0.0-19.0-3.3,74532,List1A,black,man,,,,,"{""Q0"":""Luke is looking at Ruth""}","<img src=""stim_listA/look3.gif""style=""height:400px;""></stim_listA>",is looking at,,,,,,
null,"<div style=""font-size:60px;"">+</div>",,html-keyboard-response,340,1776670,0.0-19.0-0.4,74532,List1A,black,man,,,,null,,,,,,,,,
null,"<img src=""stim_listA/kiss2.gif""style=""height:400px;""></stim_listA>",,html-keyboard-response,341,1778671,0.0-19.0-1.4,74532,List1A,black,man,,,,null,,,,,,,,,
null,is being kissed by,,html-keyboard-response,342,1780672,0.0-19.0-2.4,74532,List1A,black,man,,,,null,,,,,,,,,
5204.6,,,survey-text,343,1785878,0.0-19.0-3.4,74532,List1A,black,man,,,,,"{""Q0"":""kate is being kissed by Mike""}","<img src=""stim_listA/kiss2.gif""style=""height:400px;""></stim_listA>",is being kissed by,,,,,,
null,"<div style=""font-size:60px;"">+</div>",,html-keyboard-response,344,1786379,0.0-19.0-0.5,74532,List1A,black,man,,,,null,,,,,,,,,
null,"<img src=""stim_listA/touch4.gif""style=""height:400px;""></stim_listA>",,html-keyboard-response,345,1788380,0.0-19.0-1.5,74532,List1A,black,man,,,,null,,,,,,,,,
null,is being touched by,,html-keyboard-response,346,1790381,0.0-19.0-2.5,74532,List1A,black,man,,,,null,,,,,,,,,
12276.6,,,survey-text,347,1802658,0.0-19.0-3.5,74532,List1A,black,man,,,,,"{""Q0"":""Luke is being touched by Ruth""}","<img src=""stim_listA/touch4.gif""style=""height:400px;""></stim_listA>",is being touched by,,,,,,
null,"<div style=""font-size:60px;"">+</div>",,html-keyboard-response,348,1803159,0.0-19.0-0.6,74532,List1A,black,man,,,,null,,,,,,,,,
null,"<img src=""stim_listA/touch6.gif""style=""height:400px;""></stim_listA>",,html-keyboard-response,349,1805160,0.0-19.0-1.6,74532,List1A,black,man,,,,null,,,,,,,,,
null,is being touched by,,html-keyboard-response,350,1807161,0.0-19.0-2.6,74532,List1A,black,man,,,,null,,,,,,,,,
6440.9,,,survey-text,351,1813603,0.0-19.0-3.6,74532,List1A,black,man,,,,,"{""Q0"":""Luke is being touched by Fred""}","<img src=""stim_listA/touch6.gif""style=""height:400px;""></stim_listA>",is being touched by,,,,,,
null,"<div style=""font-size:60px;"">+</div>",,html-keyboard-response,352,1814104,0.0-19.0-0.7,74532,List1A,black,man,,,,null,,,,,,,,,
null,"<img src=""stim_listA/seduce8.gif""style=""height:400px;""></stim_listA>",,html-keyboard-response,353,1816106,0.0-19.0-1.7,74532,List1A,black,man,,,,null,,,,,,,,,
null,is being seduced by,,html-keyboard-response,354,1818106,0.0-19.0-2.7,74532,List1A,black,man,,,,null,,,,,,,,,
8063,,,survey-text,355,1826170,0.0-19.0-3.7,74532,List1A,black,man,,,,,"{""Q0"":""Ruth is being seduced by Kate""}","<img src=""stim_listA/seduce8.gif""style=""height:400px;""></stim_listA>",is being seduced by,,,,,,
null,"<div style=""font-size:60px;"">+</div>",,html-keyboard-response,356,1826671,0.0-19.0-0.8,74532,List1A,black,man,,,,null,,,,,,,,,
null,"<img src=""stim_listA/hug8.gif""style=""height:400px;""></stim_listA>",,html-keyboard-response,357,1828672,0.0-19.0-1.8,74532,List1A,black,man,,,,null,,,,,,,,,
null,is being hugged by,,html-keyboard-response,358,1830673,0.0-19.0-2.8,74532,List1A,black,man,,,,null,,,,,,,,,
6169.2,,,survey-text,359,1836843,0.0-19.0-3.8,74532,List1A,black,man,,,,,"{""Q0"":""Kate is being hugged by Jane""}","<img src=""stim_listA/hug8.gif""style=""height:400px;""></stim_listA>",is being hugged by,,,,,,
null,"<div style=""font-size:60px;"">+</div>",,html-keyboard-response,360,1837343,0.0-19.0-0.9,74532,List1A,black,man,,,,null,,,,,,,,,
null,"<img src=""stim_listA/hug7.gif""style=""height:400px;""></stim_listA>",,html-keyboard-response,361,1839345,0.0-19.0-1.9,74532,List1A,black,man,,,,null,,,,,,,,,
null,is hugging,,html-keyboard-response,362,1841346,0.0-19.0-2.9,74532,List1A,black,man,,,,null,,,,,,,,,
9828.7,,,survey-text,363,1851175,0.0-19.0-3.9,74532,List1A,black,man,,,,,"{""Q0"":""Beth is hugging Jane""}","<img src=""stim_listA/hug7.gif""style=""height:400px;""></stim_listA>",is hugging,,,,,,
null,"<div style=""font-size:60px;"">+</div>",,html-keyboard-response,364,1851676,0.0-19.0-0.10,74532,List1A,black,man,,,,null,,,,,,,,,
null,"<img src=""stim_listA/hug6.gif""style=""height:400px;""></stim_listA>",,html-keyboard-response,365,1853678,0.0-19.0-1.10,74532,List1A,black,man,,,,null,,,,,,,,,
null,is being hugged by,,html-keyboard-response,366,1855680,0.0-19.0-2.10,74532,List1A,black,man,,,,null,,,,,,,,,
7892.1,,,survey-text,367,1863573,0.0-19.0-3.10,74532,List1A,black,man,,,,,"{""Q0"":""Dave is being hugged by Mike""}","<img src=""stim_listA/hug6.gif""style=""height:400px;""></stim_listA>",is being hugged by,,,,,,
null,"<div style=""font-size:60px;"">+</div>",,html-keyboard-response,368,1864074,0.0-19.0-0.11,74532,List1A,black,man,,,,null,,,,,,,,,
null,"<img src=""stim_listA/seduce1.gif""style=""height:400px;""></stim_listA>",,html-keyboard-response,369,1866075,0.0-19.0-1.11,74532,List1A,black,man,,,,null,,,,,,,,,
null,is seducing,,html-keyboard-response,370,1868076,0.0-19.0-2.11,74532,List1A,black,man,,,,null,,,,,,,,,
8238.9,,,survey-text,371,1876316,0.0-19.0-3.11,74532,List1A,black,man,,,,,"{""Q0"":""Fred is seducing kate""}","<img src=""stim_listA/seduce1.gif""style=""height:400px;""></stim_listA>",is seducing,,,,,,
null,"<div style=""font-size:60px;"">+</div>",,html-keyboard-response,372,1876817,0.0-19.0-0.12,74532,List1A,black,man,,,,null,,,,,,,,,
null,"<img src=""stim_listA/look2.gif""style=""height:400px;""></stim_listA>",,html-keyboard-response,373,1878818,0.0-19.0-1.12,74532,List1A,black,man,,,,null,,,,,,,,,
null,is being looked at by,,html-keyboard-response,374,1880819,0.0-19.0-2.12,74532,List1A,black,man,,,,null,,,,,,,,,
8906.3,,,survey-text,375,1889726,0.0-19.0-3.12,74532,List1A,black,man,,,,,"{""Q0"":""Kate is being looked at by Mike""}","<img src=""stim_listA/look2.gif""style=""height:400px;""></stim_listA>",is being looked at by,,,,,,
null,"<div style=""font-size:60px;"">+</div>",,html-keyboard-response,376,1890227,0.0-19.0-0.13,74532,List1A,black,man,,,,null,,,,,,,,,
null,"<img src=""stim_listA/look8.gif""style=""height:400px;""></stim_listA>",,html-keyboard-response,377,1892229,0.0-19.0-1.13,74532,List1A,black,man,,,,null,,,,,,,,,
null,is being looked at by,,html-keyboard-response,378,1894230,0.0-19.0-2.13,74532,List1A,black,man,,,,null,,,,,,,,,
8141.6,,,survey-text,379,1902373,0.0-19.0-3.13,74532,List1A,black,man,,,,,"{""Q0"":""Kate is being looked at by Jane""}","<img src=""stim_listA/look8.gif""style=""height:400px;""></stim_listA>",is being looked at by,,,,,,
null,"<div style=""font-size:60px;"">+</div>",,html-keyboard-response,380,1902873,0.0-19.0-0.14,74532,List1A,black,man,,,,null,,,,,,,,,
null,"<img src=""stim_listA/challenge4.gif""style=""height:400px;""></stim_listA>",,html-keyboard-response,381,1904874,0.0-19.0-1.14,74532,List1A,black,man,,,,null,,,,,,,,,
null,is being challenged by,,html-keyboard-response,382,1906874,0.0-19.0-2.14,74532,List1A,black,man,,,,null,,,,,,,,,
8232.9,,,survey-text,383,1915109,0.0-19.0-3.14,74532,List1A,black,man,,,,,"{""Q0"":""Jane is being challenged by Luke""}","<img src=""stim_listA/challenge4.gif""style=""height:400px;""></stim_listA>",is being challenged by,,,,,,
null,"<div style=""font-size:60px;"">+</div>",,html-keyboard-response,384,1915611,0.0-19.0-0.15,74532,List1A,black,man,,,,null,,,,,,,,,
null,"<img src=""stim_listA/copy5.gif""style=""height:400px;""></stim_listA>",,html-keyboard-response,385,1917613,0.0-19.0-1.15,74532,List1A,black,man,,,,null,,,,,,,,,
null,is copying,,html-keyboard-response,386,1919615,0.0-19.0-2.15,74532,List1A,black,man,,,,null,,,,,,,,,
7165.8,,,survey-text,387,1926781,0.0-19.0-3.15,74532,List1A,black,man,,,,,"{""Q0"":""Mike is copying Luke""}","<img src=""stim_listA/copy5.gif""style=""height:400px;""></stim_listA>",is copying,,,,,,
null,"<div style=""font-size:60px;"">+</div>",,html-keyboard-response,388,1927282,0.0-19.0-0.16,74532,List1A,black,man,,,,null,,,,,,,,,
null,"<img src=""stim_listA/oppose7.gif""style=""height:400px;""></stim_listA>",,html-keyboard-response,389,1929283,0.0-19.0-1.16,74532,List1A,black,man,,,,null,,,,,,,,,
null,is opposing,,html-keyboard-response,390,1931284,0.0-19.0-2.16,74532,List1A,black,man,,,,null,,,,,,,,,
5806,,,survey-text,391,1937091,0.0-19.0-3.16,74532,List1A,black,man,,,,,"{""Q0"":""Kate is opposing Jane""}","<img src=""stim_listA/oppose7.gif""style=""height:400px;""></stim_listA>",is opposing,,,,,,
null,"<div style=""font-size:60px;"">+</div>",,html-keyboard-response,392,1937592,0.0-19.0-0.17,74532,List1A,black,man,,,,null,,,,,,,,,
null,"<img src=""stim_listA/shout4.gif""style=""height:400px;""></stim_listA>",,html-keyboard-response,393,1939594,0.0-19.0-1.17,74532,List1A,black,man,,,,null,,,,,,,,,
null,is being shouted at by,,html-keyboard-response,394,1941595,0.0-19.0-2.17,74532,List1A,black,man,,,,null,,,,,,,,,
9698.8,,,survey-text,395,1951295,0.0-19.0-3.17,74532,List1A,black,man,,,,,"{""Q0"":""Jane is being shouted at by Dave""}","<img src=""stim_listA/shout4.gif""style=""height:400px;""></stim_listA>",is being shouted at by,,,,,,
null,"<div style=""font-size:60px;"">+</div>",,html-keyboard-response,396,1951796,0.0-19.0-0.18,74532,List1A,black,man,,,,null,,,,,,,,,
null,"<img src=""stim_listA/look5.gif""style=""height:400px;""></stim_listA>",,html-keyboard-response,397,1953797,0.0-19.0-1.18,74532,List1A,black,man,,,,null,,,,,,,,,
null,is looking at,,html-keyboard-response,398,1955798,0.0-19.0-2.18,74532,List1A,black,man,,,,null,,,,,,,,,
3465,,,survey-text,399,1959264,0.0-19.0-3.18,74532,List1A,black,man,,,,,"{""Q0"":""Fred is looking at Luke""}","<img src=""stim_listA/look5.gif""style=""height:400px;""></stim_listA>",is looking at,,,,,,
null,"<div style=""font-size:60px;"">+</div>",,html-keyboard-response,400,1959765,0.0-19.0-0.19,74532,List1A,black,man,,,,null,,,,,,,,,
null,"<img src=""stim_listA/kiss8.gif""style=""height:400px;""></stim_listA>",,html-keyboard-response,401,1961767,0.0-19.0-1.19,74532,List1A,black,man,,,,null,,,,,,,,,
null,is being kissed by,,html-keyboard-response,402,1963769,0.0-19.0-2.19,74532,List1A,black,man,,,,null,,,,,,,,,
5606.6,,,survey-text,403,1969377,0.0-19.0-3.19,74532,List1A,black,man,,,,,"{""Q0"":""Jane is being kissed by Kate""}","<img src=""stim_listA/kiss8.gif""style=""height:400px;""></stim_listA>",is being kissed by,,,,,,
3949.9,<p>Thank you for completing that task.</p><p>The final part of this session is a questionnaire that will take about 4 minutes.</p><p>Press Continue.</p>,0,html-button-response,404,1973328,0.0-20.0,74532,List1A,black,man,,,,,,,,,,,,,
33053.7,,,survey-text,405,2007383,0.0-21.0,74532,List1A,black,man,,,,,"{""Q0"":""34"",""Q1"":""English"",""Q2"":""English"",""Q3"":""USA"",""Q4"":""African American"",""Q5"":""African American"",""Q6"":""Male""}",,,demographics,,,,,
2254.3,<p>Have you lived in the USA for the last 5 years or more?</p>,0,html-button-response,406,2009638,0.0-22.0,74532,List1A,black,man,,,,,,,,fiveyears,,,,,
2699,<p>Move the slider to show the extent to which you agree with the following statements.</p>,0,html-button-response,407,2013339,0.0-23.0,74532,List1A,black,man,,,,,,,,,,,,,
7176.5,,,html-slider-response,408,2021517,0.0-24.0-0.0-0.0,74532,List1A,black,man,,,,,,,,survey_race,100,,,Being my race gives me a good feeling.,feeling
4727.6,,,html-slider-response,409,2026246,0.0-24.0-0.0-0.1,74532,List1A,black,man,,,,,,,,survey_race,100,,,I feel a bond with people the same age as me.,filler
4859.9,,,html-slider-response,410,2031107,0.0-24.0-0.0-0.2,74532,List1A,black,man,,,,,,,,survey_race,100,,,I am glad to be the age I am.,filler
8255.6,,,html-slider-response,411,2039363,0.0-24.0-0.0-0.3,74532,List1A,black,man,,,,,,,,survey_race,94,,,My age is not an important part of who I am.,filler
4582,,,html-slider-response,412,2043946,0.0-24.0-0.0-0.4,74532,List1A,black,man,,,,,,,,survey_race,77,,,Being my race is an important part of how I see myself.,important
2943.2,,,html-slider-response,413,2046890,0.0-24.0-0.0-0.5,74532,List1A,black,man,,,,,,,,survey_race,80,,,I am glad to be my age.,filler
5207.8,,,html-slider-response,414,2052098,0.0-24.0-0.0-0.6,74532,List1A,black,man,,,,,,,,survey_race,92,,,The fact that I am my race is an important part of my identity.,identity
5610.8,,,html-slider-response,415,2057710,0.0-24.0-0.0-0.7,74532,List1A,black,man,,,,,,,,survey_race,15,,,I often think about the fact that I am my age.,filler
4806.5,,,html-slider-response,416,2062518,0.0-24.0-0.0-0.8,74532,List1A,black,man,,,,,,,,survey_race,86,,,I have a lot in common with the average person of my race.,average
2879.1,,,html-slider-response,417,2065398,0.0-24.0-0.0-0.9,74532,List1A,black,man,,,,,,,,survey_race,18,,,I consider myself an extrovert.,filler
3183.7,,,html-slider-response,418,2068583,0.0-24.0-0.0-0.10,74532,List1A,black,man,,,,,,,,survey_race,100,,,I am glad to be my race.,glad
4607.9,,,html-slider-response,419,2073191,0.0-24.0-0.0-0.11,74532,List1A,black,man,,,,,,,,survey_race,80,,,I feel committed to my race.,committed
2749.1,,,html-slider-response,420,2075941,0.0-24.0-0.0-0.12,74532,List1A,black,man,,,,,,,,survey_race,100,,,"The older I get, the wiser I feel.",filler
6159.6,,,html-slider-response,421,2082101,0.0-24.0-0.0-0.13,74532,List1A,black,man,,,,,,,,survey_race,74,,,People my age have a lot in common with each other.,filler
2873.1,,,html-slider-response,422,2084975,0.0-24.0-0.0-0.14,74532,List1A,black,man,,,,,,,,survey_race,100,,,I feel a bond with my race.,bond
4319.4,,,html-slider-response,423,2089295,0.0-24.0-0.0-0.15,74532,List1A,black,man,,,,,,,,survey_race,84,,,I often think about the fact that I am my race.,often
2770.9,,,html-slider-response,424,2092067,0.0-24.0-0.0-0.16,74532,List1A,black,man,,,,,,,,survey_race,89,,,I feel solidarity with my race.,solidarity
3238.7,,,html-slider-response,425,2095306,0.0-24.0-0.0-0.17,74532,List1A,black,man,,,,,,,,survey_race,89,,,I think that my race has a lot to be proud of.,proud
5887.6,,,html-slider-response,426,2101194,0.0-24.0-0.0-0.18,74532,List1A,black,man,,,,,,,,survey_race,100,,,Getting older does not worry me.,filler
4625.4,,,html-slider-response,427,2105821,0.0-24.0-0.0-0.19,74532,List1A,black,man,,,,,,,,survey_race,37,,,I feel solidarity with people the same age as me.,filler
2981.2,,,html-slider-response,428,2108803,0.0-24.0-0.0-0.20,74532,List1A,black,man,,,,,,,,survey_race,9,,,I consider myself an introvert.,filler
5112.5,,,html-slider-response,429,2113916,0.0-24.0-0.0-0.21,74532,List1A,black,man,,,,,,,,survey_race,72,,,People of my race have a lot in common with each other.,common
3118.7,,,html-slider-response,430,2117036,0.0-24.0-0.0-0.22,74532,List1A,black,man,,,,,,,,survey_race,74,,,Being my age gives me a good feeling.,filler
14154.8,,,html-slider-response,431,2131191,0.0-24.0-0.0-0.23,74532,List1A,black,man,,,,,,,,survey_race,72,,,I am similar to the average person of my race.,similar
3061.1,,,html-slider-response,432,2134253,0.0-24.0-0.0-0.24,74532,List1A,black,man,,,,,,,,survey_race,67,,,I enjoy being in large groups.,filler
3462.1,,,html-slider-response,433,2137716,0.0-24.0-0.0-0.25,74532,List1A,black,man,,,,,,,,survey_race,77,,,I have a lot in common with people of a similar age to me.,filler
3247.4,,,html-slider-response,434,2140964,0.0-24.0-0.0-0.26,74532,List1A,black,man,,,,,,,,survey_race,100,,,It is pleasant to be my race.,pleasant
4699.1,,,html-slider-response,435,2145664,0.0-24.0-0.0-0.27,74532,List1A,black,man,,,,,,,,survey_race,67,,,People of my race are very similar to each other.,verysimilar
2779.9,,,html-slider-response,436,2148445,0.0-24.0-1.0-0.0,74532,List1A,black,man,,,,,,,,survey_gender,100,,,I have a lot in common with my friends.,filler
3358.6,,,html-slider-response,437,2151804,0.0-24.0-1.0-0.1,74532,List1A,black,man,,,,,,,,survey_gender,83,,,People of my gender have a lot in common with each other.,common
4943.4,,,html-slider-response,438,2156749,0.0-24.0-1.0-0.2,74532,List1A,black,man,,,,,,,,survey_gender,75,,,Being around my friends gives me a good feeling.,filler
4219,,,html-slider-response,439,2160968,0.0-24.0-1.0-0.3,74532,List1A,black,man,,,,,,,,survey_gender,79,,,I think that my gender has a lot to be proud of.,proud
4315.4,,,html-slider-response,440,2165285,0.0-24.0-1.0-0.4,74532,List1A,black,man,,,,,,,,survey_gender,86,,,Most of the friends in my life are very similar to me.,filler
6108.6,,,html-slider-response,441,2171394,0.0-24.0-1.0-0.5,74532,List1A,black,man,,,,,,,,survey_gender,38,,,Family is not more important to me than friendship.,filler
4670.2,,,html-slider-response,442,2176065,0.0-24.0-1.0-0.6,74532,List1A,black,man,,,,,,,,survey_gender,77,,,I have a lot in common with the average person of my gender.,average
8761.7,,,html-slider-response,443,2184828,0.0-24.0-1.0-0.7,74532,List1A,black,man,,,,,,,,survey_gender,88,,,The fact that I am my gender is an important part of my identity.,identity
5546.2,,,html-slider-response,444,2190375,0.0-24.0-1.0-0.8,74532,List1A,black,man,,,,,,,,survey_gender,24,,,People of my gender are very similar to each other.,verysimilar
4983.2,,,html-slider-response,445,2195359,0.0-24.0-1.0-0.9,74532,List1A,black,man,,,,,,,,survey_gender,25,,,I consider myself a highly empathetic person.,filler
2136.7,,,html-slider-response,446,2197496,0.0-24.0-1.0-0.10,74532,List1A,black,man,,,,,,,,survey_gender,77,,,I am glad to have the friends that I have.,filler
2380,,,html-slider-response,447,2199877,0.0-24.0-1.0-0.11,74532,List1A,black,man,,,,,,,,survey_gender,78,,,I feel a bond with my friends.,filler
1759.2,,,html-slider-response,448,2201636,0.0-24.0-1.0-0.12,74532,List1A,black,man,,,,,,,,survey_gender,86,,,I feel a bond with my gender.,bond
3212,,,html-slider-response,449,2204849,0.0-24.0-1.0-0.13,74532,List1A,black,man,,,,,,,,survey_gender,83,,,Being my gender gives me a good feeling.,feeling
2739.6,,,html-slider-response,450,2207589,0.0-24.0-1.0-0.14,74532,List1A,black,man,,,,,,,,survey_gender,90,,,My friends understand me.,filler
4460,,,html-slider-response,451,2212049,0.0-24.0-1.0-0.15,74532,List1A,black,man,,,,,,,,survey_gender,100,,,Routine is not important to me.,filler
3286.2,,,html-slider-response,452,2215336,0.0-24.0-1.0-0.16,74532,List1A,black,man,,,,,,,,survey_gender,37,,,I feel solidarity with my gender.,solidarity
4981.3,,,html-slider-response,453,2220318,0.0-24.0-1.0-0.17,74532,List1A,black,man,,,,,,,,survey_gender,80,,,I often think about the fact that I am my gender.,often
6955.7,,,html-slider-response,454,2227275,0.0-24.0-1.0-0.18,74532,List1A,black,man,,,,,,,,survey_gender,40,,,My friends have a lot in common with each other.,filler
5780.5,,,html-slider-response,455,2233056,0.0-24.0-1.0-0.19,74532,List1A,black,man,,,,,,,,survey_gender,51,,,I would say I am an animal person.,filler
6110.8,,,html-slider-response,456,2239168,0.0-24.0-1.0-0.20,74532,List1A,black,man,,,,,,,,survey_gender,84,,,It is not always easy for people to know what I am thinking.,filler
4864.5,,,html-slider-response,457,2244033,0.0-24.0-1.0-0.21,74532,List1A,black,man,,,,,,,,survey_gender,77,,,Being my gender is an important part of how I see myself.,important
2493.4,,,html-slider-response,458,2246527,0.0-24.0-1.0-0.22,74532,List1A,black,man,,,,,,,,survey_gender,79,,,I often think about my actions.,filler
7657,,,html-slider-response,459,2254185,0.0-24.0-1.0-0.23,74532,List1A,black,man,,,,,,,,survey_gender,63,,,I am similar to the average person of my gender.,similar
4984.1,,,html-slider-response,460,2259170,0.0-24.0-1.0-0.24,74532,List1A,black,man,,,,,,,,survey_gender,90,,,I feel solidarity with my friends.,filler
10911.6,,,html-slider-response,461,2270082,0.0-24.0-1.0-0.25,74532,List1A,black,man,,,,,,,,survey_gender,92,,,I am glad to be my gender.,glad
3896.8,,,html-slider-response,462,2273980,0.0-24.0-1.0-0.26,74532,List1A,black,man,,,,,,,,survey_gender,39,,,I feel committed to my gender.,committed
2172.8,,,html-slider-response,463,2276154,0.0-24.0-1.0-0.27,74532,List1A,black,man,,,,,,,,survey_gender,77,,,It is pleasant to be my gender.,pleasant
9022.4,,,survey-text,464,2285177,0.0-25.0,74532,List1A,black,man,,,,,"{""Q0"":""ccc""}",,,worker_id,,,,,
12208.8,,,external-html,465,2297581,0.0-26.0,74532,List1A,black,man,debrief.html,,,,,,,,,,,,
