"rt","stimulus","button_pressed","trial_type","trial_index","time_elapsed","internal_node_id","subject","list","ppt_race","ppt_gender","url","first_guess","correct","key_press","responses","image_type","phrase_type","test_part","response","stimulus1","stimulus2","question_type","survey_item"
"1882.199999988079","Welcome to the experiment. Press Continue to begin.","0","html-button-response","0","1886","0.0-0.0","755","List1A","white","woman","","","","","","","","","","","","",""
"9275.800000011921","","","external-html","1","12293","0.0-1.0","755","List1A","white","woman","consent.html","","","","","","","","","","","",""
"1816.5999999642372","<p>On the next page, you will see portraits of 8 people and their names.</p><p>Your first task is to take a few minutes to memorise the names of these people.</p><p>You will have to recall their names during the rest of the experiment, so it is</p><p>essential that you try to memorise these people and their names as best as you can.</p><br><p><strong>You will then be tested on your memory of these names and portraits.</strong></p><br><p>The experiment will start after you have completed this memory test.</p><br><p>Ready?</p>","0","html-button-response","2","14115","0.0-2.0","755","List1A","white","woman","","","","","","","","","","","","",""
"17150.900000035763","<img src='img/portrait_matrix_list1.jpg' style='width:900px;height:500px;''></img><p>If you have memorised all the portraits and names and are ready to start, press Continue.</p><p><strong>Please note: Your memory of these faces will be tested 4 times during this experiment.</strong></p>","0","html-button-response","3","32271","0.0-3.0-0.0","755","List1A","white","woman","","","","","","","","","","","","",""
"3459.099999964237","<img src=""portrait/BM1.jpg""style=""height:400px;""></img>","4","html-button-response","4","36737","0.0-3.0-1.0","755","List1A","white","woman","","true","4","","","","","","","","","",""
"null","CORRECT","","html-keyboard-response","5","38248","0.0-3.0-2.0-0.0","755","List1A","white","woman","","","","null","","","","","","","","",""
"8624.5","<img src=""portrait/WW1.jpg""style=""height:400px;""></img>","1","html-button-response","6","46875","0.0-3.0-4.0","755","List1A","white","woman","","true","1","","","","","","","","","",""
"null","CORRECT","","html-keyboard-response","7","48388","0.0-3.0-5.0-0.0","755","List1A","white","woman","","","","null","","","","","","","","",""
"2001.1000000238419","<img src=""portrait/BW1.jpg""style=""height:400px;""></img>","0","html-button-response","8","50391","0.0-3.0-7.0","755","List1A","white","woman","","true","0","","","","","","","","","",""
"null","CORRECT","","html-keyboard-response","9","51902","0.0-3.0-8.0-0.0","755","List1A","white","woman","","","","null","","","","","","","","",""
"4374.100000023842","<img src=""portrait/WM1.jpg""style=""height:400px;""></img>","7","html-button-response","10","56279","0.0-3.0-10.0","755","List1A","white","woman","","true","6","","","","","","","","","",""
"2668.5","<img src=""portrait/WM1.jpg""style=""height:400px;""></img>","6","html-button-response","11","59953","0.0-3.0-12.0-0.0","755","List1A","white","woman","","false","6","","","","","","","","","",""
"null","CORRECT","","html-keyboard-response","12","61460","0.0-3.0-12.0-1.0-0.0","755","List1A","white","woman","","","","null","","","","","","","","",""
"2555.5","<img src=""portrait/WW2.jpg""style=""height:400px;""></img>","3","html-button-response","13","64019","0.0-3.0-13.0","755","List1A","white","woman","","true","3","","","","","","","","","",""
"null","CORRECT","","html-keyboard-response","14","65532","0.0-3.0-14.0-0.0","755","List1A","white","woman","","","","null","","","","","","","","",""
"3842.5","<img src=""portrait/BM2.jpg""style=""height:400px;""></img>","5","html-button-response","15","69377","0.0-3.0-16.0","755","List1A","white","woman","","true","5","","","","","","","","","",""
"null","CORRECT","","html-keyboard-response","16","70884","0.0-3.0-17.0-0.0","755","List1A","white","woman","","","","null","","","","","","","","",""
"1600.800000011921","<img src=""portrait/WM2.jpg""style=""height:400px;""></img>","4","html-button-response","17","72487","0.0-3.0-19.0","755","List1A","white","woman","","true","7","","","","","","","","","",""
"1556.3999999761581","<img src=""portrait/WM2.jpg""style=""height:400px;""></img>","7","html-button-response","18","75046","0.0-3.0-21.0-0.0","755","List1A","white","woman","","false","7","","","","","","","","","",""
"null","CORRECT","","html-keyboard-response","19","76551","0.0-3.0-21.0-1.0-0.0","755","List1A","white","woman","","","","null","","","","","","","","",""
"2999.800000011921","<img src=""portrait/BW2.jpg""style=""height:400px;""></img>","2","html-button-response","20","79554","0.0-3.0-22.0","755","List1A","white","woman","","true","2","","","","","","","","","",""
"null","CORRECT","","html-keyboard-response","21","81061","0.0-3.0-23.0-0.0","755","List1A","white","woman","","","","null","","","","","","","","",""
"10342.5","<p>You got 6 out of 8 right first time. Press Continue.</p>","0","html-button-response","22","91407","0.0-3.0-25.0","755","List1A","white","woman","","","","","","","","","","","","",""
"1924.300000011921","As you did not score 100%, the memory game will repeat. Press Continue.","0","html-button-response","23","94335","0.0-3.0-26.0-0.0","755","List1A","white","woman","","","","","","","","","","","","",""
"93887.69999998808","<img src='img/portrait_matrix_list1.jpg' style='width:900px;height:500px;''></img><p>If you have memorised all the portraits and names and are ready to start, press Continue.</p><p><strong>Please note: Your memory of these faces will be tested 4 times during this experiment.</strong></p>","0","html-button-response","24","189234","0.0-3.1-0.1","755","List1A","white","woman","","","","","","","","","","","","",""
"8055.199999988079","<img src=""portrait/BM1.jpg""style=""height:400px;""></img>","4","html-button-response","25","198297","0.0-3.1-1.1","755","List1A","white","woman","","true","4","","","","","","","","","",""
"null","CORRECT","","html-keyboard-response","26","199808","0.0-3.1-2.1-0.1","755","List1A","white","woman","","","","null","","","","","","","","",""
"4498.599999964237","<img src=""portrait/WW1.jpg""style=""height:400px;""></img>","1","html-button-response","27","204310","0.0-3.1-4.1","755","List1A","white","woman","","true","1","","","","","","","","","",""
"null","CORRECT","","html-keyboard-response","28","205819","0.0-3.1-5.1-0.1","755","List1A","white","woman","","","","null","","","","","","","","",""
"3370.199999988079","<img src=""portrait/BW1.jpg""style=""height:400px;""></img>","0","html-button-response","29","209193","0.0-3.1-7.1","755","List1A","white","woman","","true","0","","","","","","","","","",""
"null","CORRECT","","html-keyboard-response","30","210705","0.0-3.1-8.1-0.1","755","List1A","white","woman","","","","null","","","","","","","","",""
"3346.099999964237","<img src=""portrait/WM1.jpg""style=""height:400px;""></img>","6","html-button-response","31","214055","0.0-3.1-10.1","755","List1A","white","woman","","true","6","","","","","","","","","",""
"null","CORRECT","","html-keyboard-response","32","215566","0.0-3.1-11.1-0.1","755","List1A","white","woman","","","","null","","","","","","","","",""
"8564.100000023842","<img src=""portrait/WW2.jpg""style=""height:400px;""></img>","3","html-button-response","33","224134","0.0-3.1-13.1","755","List1A","white","woman","","true","3","","","","","","","","","",""
"null","CORRECT","","html-keyboard-response","34","225638","0.0-3.1-14.1-0.1","755","List1A","white","woman","","","","null","","","","","","","","",""
"3856.900000035763","<img src=""portrait/BM2.jpg""style=""height:400px;""></img>","5","html-button-response","35","229498","0.0-3.1-16.1","755","List1A","white","woman","","true","5","","","","","","","","","",""
"null","CORRECT","","html-keyboard-response","36","231009","0.0-3.1-17.1-0.1","755","List1A","white","woman","","","","null","","","","","","","","",""
"3263.199999988079","<img src=""portrait/WM2.jpg""style=""height:400px;""></img>","7","html-button-response","37","234276","0.0-3.1-19.1","755","List1A","white","woman","","true","7","","","","","","","","","",""
"null","CORRECT","","html-keyboard-response","38","235787","0.0-3.1-20.1-0.1","755","List1A","white","woman","","","","null","","","","","","","","",""
"3066.2000000476837","<img src=""portrait/BW2.jpg""style=""height:400px;""></img>","2","html-button-response","39","238856","0.0-3.1-22.1","755","List1A","white","woman","","true","2","","","","","","","","","",""
"null","CORRECT","","html-keyboard-response","40","240364","0.0-3.1-23.1-0.1","755","List1A","white","woman","","","","null","","","","","","","","",""
"1893.6000000238419","<p>You got 8 out of 8 right first time. Press Continue.</p>","0","html-button-response","41","242260","0.0-3.1-25.1","755","List1A","white","woman","","","","","","","","","","","","",""
"12296.800000011921","<p>In this experiment, you will view photographs of the people from the memory game interacting.</p><p>By using the <strong>exact</strong> phrase given <i>after</i> the photograph appears and recalling the correct names of the people in the photographs, form a sentence describing the interaction. You do not need to capitalise names.</p><p>Type your answer in the space provided. Please complete every sentence before moving onto the next trial.</p><p>You will only have a few seconds to memorise each given photograph and phrase before you can respond, so try your best to focus.</p><p>An example is given below. Press 'Continue' when you are ready.</p><img src='img/speaking_example.jpg' style='width:800px;height:460px;''></img>","0","html-button-response","42","255562","0.0-4.0","755","List1A","white","woman","","","","","","","","","","","","",""
"1426.7000000476837","<p>Before the experiment starts, you will watch two example trials. Press 'Continue'.</p>","0","html-button-response","43","257993","0.0-5.0","755","List1A","white","woman","","","","","","","","","","","","",""
"null","<img src='img/play_eg.gif' style='height:400px;''></img>","","html-keyboard-response","44","261003","0.0-6.0","755","List1A","white","woman","","","","null","","","","","","","","",""
"null","<p>is playing with</p>","","html-keyboard-response","45","263006","0.0-7.0","755","List1A","white","woman","","","","null","","","","","","","","",""
"1634.6000000238419","<p><b>Answer:</b> kate is playing with beth</p>","0","html-button-response","46","264643","0.0-8.0","755","List1A","white","woman","","","","","","","","","","","","",""
"null","<img src='img/dance_eg.gif' style='height:400px;''></img>","","html-keyboard-response","47","267654","0.0-9.0","755","List1A","white","woman","","","","null","","","","","","","","",""
"null","<p>is being entertained by</p>","","html-keyboard-response","48","269656","0.0-10.0","755","List1A","white","woman","","","","null","","","","","","","","",""
"2398.100000023842","<p><b>Answer:</b> luke is being entertained by dave</p>","0","html-button-response","49","272056","0.0-11.0","755","List1A","white","woman","","","","","","","","","","","","",""
"8336.699999988079","<p>Ready to start the experiment?</p><br><p><strong>Remember to describe the picture using a full sentence,</strong></p><p><strong>that combines the names of the people with the <i>exact</i> phrase given.</strong></p><p><strong>To receive full payment you must do this correctly.</strong></p><p><strong> You do not need to capitalise names or use punctuation.</strong></p><br><p>Press 'Continue' to begin.</p>","0","html-button-response","50","281401","0.0-12.0","755","List1A","white","woman","","","","","","","","","","","","",""
"null","<div style=""font-size:60px;"">+</div>","","html-keyboard-response","51","282913","0.0-13.0-0.0","755","List1A","white","woman","","","","null","","","","","","","","",""
"null","<img src=""stim_listA/challenge2.gif""style=""height:400px;""></stim_listA>","","html-keyboard-response","52","284921","0.0-13.0-1.0","755","List1A","white","woman","","","","null","","","","","","","","",""
"null","is being challenged by","","html-keyboard-response","53","286926","0.0-13.0-2.0","755","List1A","white","woman","","","","null","","","","","","","","",""
"12912.399999976158","","","survey-text","54","299844","0.0-13.0-3.0","755","List1A","white","woman","","","","","{""Q0"":""kate is being challenged by fred""}","<img src=""stim_listA/challenge2.gif""style=""height:400px;""></stim_listA>","is being challenged by","","","","","",""
"null","<div style=""font-size:60px;"">+</div>","","html-keyboard-response","55","300353","0.0-13.0-0.1","755","List1A","white","woman","","","","null","","","","","","","","",""
"null","<img src=""stim_listA/oppose5.gif""style=""height:400px;""></stim_listA>","","html-keyboard-response","56","302360","0.0-13.0-1.1","755","List1A","white","woman","","","","null","","","","","","","","",""
"null","is opposing","","html-keyboard-response","57","304368","0.0-13.0-2.1","755","List1A","white","woman","","","","null","","","","","","","","",""
"10846.600000023842","","","survey-text","58","315218","0.0-13.0-3.1","755","List1A","white","woman","","","","","{""Q0"":""mike is opposing dave""}","<img src=""stim_listA/oppose5.gif""style=""height:400px;""></stim_listA>","is opposing","","","","","",""
"null","<div style=""font-size:60px;"">+</div>","","html-keyboard-response","59","315726","0.0-13.0-0.2","755","List1A","white","woman","","","","null","","","","","","","","",""
"null","<img src=""stim_listA/look2.gif""style=""height:400px;""></stim_listA>","","html-keyboard-response","60","317736","0.0-13.0-1.2","755","List1A","white","woman","","","","null","","","","","","","","",""
"null","is being looked at by","","html-keyboard-response","61","319738","0.0-13.0-2.2","755","List1A","white","woman","","","","null","","","","","","","","",""
"23227.200000047684","","","survey-text","62","342970","0.0-13.0-3.2","755","List1A","white","woman","","","","","{""Q0"":""kate is being looked at by mike""}","<img src=""stim_listA/look2.gif""style=""height:400px;""></stim_listA>","is being looked at by","","","","","",""
"null","<div style=""font-size:60px;"">+</div>","","html-keyboard-response","63","343477","0.0-13.0-0.3","755","List1A","white","woman","","","","null","","","","","","","","",""
"null","<img src=""stim_listA/seduce2.gif""style=""height:400px;""></stim_listA>","","html-keyboard-response","64","345484","0.0-13.0-1.3","755","List1A","white","woman","","","","null","","","","","","","","",""
"null","is being seduced by","","html-keyboard-response","65","347490","0.0-13.0-2.3","755","List1A","white","woman","","","","null","","","","","","","","",""
"10683.699999988079","","","survey-text","66","358178","0.0-13.0-3.3","755","List1A","white","woman","","","","","{""Q0"":""mike is being seduced by beth""}","<img src=""stim_listA/seduce2.gif""style=""height:400px;""></stim_listA>","is being seduced by","","","","","",""
"null","<div style=""font-size:60px;"">+</div>","","html-keyboard-response","67","358685","0.0-13.0-0.4","755","List1A","white","woman","","","","null","","","","","","","","",""
"null","<img src=""stim_listA/touch3.gif""style=""height:400px;""></stim_listA>","","html-keyboard-response","68","360692","0.0-13.0-1.4","755","List1A","white","woman","","","","null","","","","","","","","",""
"null","is touching","","html-keyboard-response","69","362698","0.0-13.0-2.4","755","List1A","white","woman","","","","null","","","","","","","","",""
"11316.100000023842","","","survey-text","70","374018","0.0-13.0-3.4","755","List1A","white","woman","","","","","{""Q0"":""dave is touching ruth""}","<img src=""stim_listA/touch3.gif""style=""height:400px;""></stim_listA>","is touching","","","","","",""
"null","<div style=""font-size:60px;"">+</div>","","html-keyboard-response","71","374521","0.0-13.0-0.5","755","List1A","white","woman","","","","null","","","","","","","","",""
"null","<img src=""stim_listA/greet4.gif""style=""height:400px;""></stim_listA>","","html-keyboard-response","72","376527","0.0-13.0-1.5","755","List1A","white","woman","","","","null","","","","","","","","",""
"null","is being greeted by","","html-keyboard-response","73","378532","0.0-13.0-2.5","755","List1A","white","woman","","","","null","","","","","","","","",""
"8078.5","","","survey-text","74","386615","0.0-13.0-3.5","755","List1A","white","woman","","","","","{""Q0"":""luke is being greeted by ruth""}","<img src=""stim_listA/greet4.gif""style=""height:400px;""></stim_listA>","is being greeted by","","","","","",""
"null","<div style=""font-size:60px;"">+</div>","","html-keyboard-response","75","387118","0.0-13.0-0.6","755","List1A","white","woman","","","","null","","","","","","","","",""
"null","<img src=""stim_listA/oppose7.gif""style=""height:400px;""></stim_listA>","","html-keyboard-response","76","389124","0.0-13.0-1.6","755","List1A","white","woman","","","","null","","","","","","","","",""
"null","is opposing","","html-keyboard-response","77","391131","0.0-13.0-2.6","755","List1A","white","woman","","","","null","","","","","","","","",""
"5924.199999988079","","","survey-text","78","397060","0.0-13.0-3.6","755","List1A","white","woman","","","","","{""Q0"":""jane is opposing kate""}","<img src=""stim_listA/oppose7.gif""style=""height:400px;""></stim_listA>","is opposing","","","","","",""
"null","<div style=""font-size:60px;"">+</div>","","html-keyboard-response","79","397567","0.0-13.0-0.7","755","List1A","white","woman","","","","null","","","","","","","","",""
"null","<img src=""stim_listA/touch2.gif""style=""height:400px;""></stim_listA>","","html-keyboard-response","80","399573","0.0-13.0-1.7","755","List1A","white","woman","","","","null","","","","","","","","",""
"null","is being touched by","","html-keyboard-response","81","401576","0.0-13.0-2.7","755","List1A","white","woman","","","","null","","","","","","","","",""
"6295.300000011921","","","survey-text","82","407875","0.0-13.0-3.7","755","List1A","white","woman","","","","","{""Q0"":""beth is being touched by fred""}","<img src=""stim_listA/touch2.gif""style=""height:400px;""></stim_listA>","is being touched by","","","","","",""
"null","<div style=""font-size:60px;"">+</div>","","html-keyboard-response","83","408383","0.0-13.0-0.8","755","List1A","white","woman","","","","null","","","","","","","","",""
"null","<img src=""stim_listA/look6.gif""style=""height:400px;""></stim_listA>","","html-keyboard-response","84","410388","0.0-13.0-1.8","755","List1A","white","woman","","","","null","","","","","","","","",""
"null","is being looked at by","","html-keyboard-response","85","412395","0.0-13.0-2.8","755","List1A","white","woman","","","","null","","","","","","","","",""
"8659.600000023842","","","survey-text","86","421059","0.0-13.0-3.8","755","List1A","white","woman","","","","","{""Q0"":""dave is being looked at by mike""}","<img src=""stim_listA/look6.gif""style=""height:400px;""></stim_listA>","is being looked at by","","","","","",""
"null","<div style=""font-size:60px;"">+</div>","","html-keyboard-response","87","421562","0.0-13.0-0.9","755","List1A","white","woman","","","","null","","","","","","","","",""
"null","<img src=""stim_listA/greet8.gif""style=""height:400px;""></stim_listA>","","html-keyboard-response","88","423569","0.0-13.0-1.9","755","List1A","white","woman","","","","null","","","","","","","","",""
"null","is being greeted by","","html-keyboard-response","89","425575","0.0-13.0-2.9","755","List1A","white","woman","","","","null","","","","","","","","",""
"8699.200000047684","","","survey-text","90","434278","0.0-13.0-3.9","755","List1A","white","woman","","","","","{""Q0"":""beth is being greeted by jane""}","<img src=""stim_listA/greet8.gif""style=""height:400px;""></stim_listA>","is being greeted by","","","","","",""
"null","<div style=""font-size:60px;"">+</div>","","html-keyboard-response","91","434784","0.0-13.0-0.10","755","List1A","white","woman","","","","null","","","","","","","","",""
"null","<img src=""stim_listA/greet6.gif""style=""height:400px;""></stim_listA>","","html-keyboard-response","92","436790","0.0-13.0-1.10","755","List1A","white","woman","","","","null","","","","","","","","",""
"null","is being greeted by","","html-keyboard-response","93","438796","0.0-13.0-2.10","755","List1A","white","woman","","","","null","","","","","","","","",""
"9596","","","survey-text","94","448396","0.0-13.0-3.10","755","List1A","white","woman","","","","","{""Q0"":""dave is being greeted by fred""}","<img src=""stim_listA/greet6.gif""style=""height:400px;""></stim_listA>","is being greeted by","","","","","",""
"null","<div style=""font-size:60px;"">+</div>","","html-keyboard-response","95","448902","0.0-13.0-0.11","755","List1A","white","woman","","","","null","","","","","","","","",""
"null","<img src=""stim_listA/oppose1.gif""style=""height:400px;""></stim_listA>","","html-keyboard-response","96","450910","0.0-13.0-1.11","755","List1A","white","woman","","","","null","","","","","","","","",""
"null","is opposing","","html-keyboard-response","97","452915","0.0-13.0-2.11","755","List1A","white","woman","","","","null","","","","","","","","",""
"16435.400000035763","","","survey-text","98","469355","0.0-13.0-3.11","755","List1A","white","woman","","","","","{""Q0"":""mike is opposing kate""}","<img src=""stim_listA/oppose1.gif""style=""height:400px;""></stim_listA>","is opposing","","","","","",""
"null","<div style=""font-size:60px;"">+</div>","","html-keyboard-response","99","469860","0.0-13.0-0.12","755","List1A","white","woman","","","","null","","","","","","","","",""
"null","<img src=""stim_listA/kiss3.gif""style=""height:400px;""></stim_listA>","","html-keyboard-response","100","471867","0.0-13.0-1.12","755","List1A","white","woman","","","","null","","","","","","","","",""
"null","is kissing","","html-keyboard-response","101","473872","0.0-13.0-2.12","755","List1A","white","woman","","","","null","","","","","","","","",""
"8844.5","","","survey-text","102","482721","0.0-13.0-3.12","755","List1A","white","woman","","","","","{""Q0"":""luke is kissing ruth""}","<img src=""stim_listA/kiss3.gif""style=""height:400px;""></stim_listA>","is kissing","","","","","",""
"null","<div style=""font-size:60px;"">+</div>","","html-keyboard-response","103","483224","0.0-13.0-0.13","755","List1A","white","woman","","","","null","","","","","","","","",""
"null","<img src=""stim_listA/oppose4.gif""style=""height:400px;""></stim_listA>","","html-keyboard-response","104","485232","0.0-13.0-1.13","755","List1A","white","woman","","","","null","","","","","","","","",""
"null","is being opposed by","","html-keyboard-response","105","487237","0.0-13.0-2.13","755","List1A","white","woman","","","","null","","","","","","","","",""
"8912.5","","","survey-text","106","496154","0.0-13.0-3.13","755","List1A","white","woman","","","","","{""Q0"":""luke is being opposed by ruth""}","<img src=""stim_listA/oppose4.gif""style=""height:400px;""></stim_listA>","is being opposed by","","","","","",""
"null","<div style=""font-size:60px;"">+</div>","","html-keyboard-response","107","496658","0.0-13.0-0.14","755","List1A","white","woman","","","","null","","","","","","","","",""
"null","<img src=""stim_listA/greet7.gif""style=""height:400px;""></stim_listA>","","html-keyboard-response","108","498665","0.0-13.0-1.14","755","List1A","white","woman","","","","null","","","","","","","","",""
"null","is greeting","","html-keyboard-response","109","500669","0.0-13.0-2.14","755","List1A","white","woman","","","","null","","","","","","","","",""
"5398.199999988079","","","survey-text","110","506071","0.0-13.0-3.14","755","List1A","white","woman","","","","","{""Q0"":""ruth is greeting kate""}","<img src=""stim_listA/greet7.gif""style=""height:400px;""></stim_listA>","is greeting","","","","","",""
"null","<div style=""font-size:60px;"">+</div>","","html-keyboard-response","111","506576","0.0-13.0-0.15","755","List1A","white","woman","","","","null","","","","","","","","",""
"null","<img src=""stim_listA/challenge3.gif""style=""height:400px;""></stim_listA>","","html-keyboard-response","112","508584","0.0-13.0-1.15","755","List1A","white","woman","","","","null","","","","","","","","",""
"null","is challenging","","html-keyboard-response","113","510592","0.0-13.0-2.15","755","List1A","white","woman","","","","null","","","","","","","","",""
"14600.5","","","survey-text","114","525198","0.0-13.0-3.15","755","List1A","white","woman","","","","","{""Q0"":""dave is being challenged by jane""}","<img src=""stim_listA/challenge3.gif""style=""height:400px;""></stim_listA>","is challenging","","","","","",""
"null","<div style=""font-size:60px;"">+</div>","","html-keyboard-response","115","525702","0.0-13.0-0.16","755","List1A","white","woman","","","","null","","","","","","","","",""
"null","<img src=""stim_listA/copy5.gif""style=""height:400px;""></stim_listA>","","html-keyboard-response","116","527706","0.0-13.0-1.16","755","List1A","white","woman","","","","null","","","","","","","","",""
"null","is copying","","html-keyboard-response","117","529711","0.0-13.0-2.16","755","List1A","white","woman","","","","null","","","","","","","","",""
"6081.900000035763","","","survey-text","118","535797","0.0-13.0-3.16","755","List1A","white","woman","","","","","{""Q0"":""mike is copying luke""}","<img src=""stim_listA/copy5.gif""style=""height:400px;""></stim_listA>","is copying","","","","","",""
"null","<div style=""font-size:60px;"">+</div>","","html-keyboard-response","119","536301","0.0-13.0-0.17","755","List1A","white","woman","","","","null","","","","","","","","",""
"null","<img src=""stim_listA/hug1.gif""style=""height:400px;""></stim_listA>","","html-keyboard-response","120","538310","0.0-13.0-1.17","755","List1A","white","woman","","","","null","","","","","","","","",""
"null","is hugging","","html-keyboard-response","121","540314","0.0-13.0-2.17","755","List1A","white","woman","","","","null","","","","","","","","",""
"5572.5","","","survey-text","122","545890","0.0-13.0-3.17","755","List1A","white","woman","","","","","{""Q0"":""beth is hugging fred""}","<img src=""stim_listA/hug1.gif""style=""height:400px;""></stim_listA>","is hugging","","","","","",""
"null","<div style=""font-size:60px;"">+</div>","","html-keyboard-response","123","546398","0.0-13.0-0.18","755","List1A","white","woman","","","","null","","","","","","","","",""
"null","<img src=""stim_listA/kiss7.gif""style=""height:400px;""></stim_listA>","","html-keyboard-response","124","548407","0.0-13.0-1.18","755","List1A","white","woman","","","","null","","","","","","","","",""
"null","is kissing","","html-keyboard-response","125","550411","0.0-13.0-2.18","755","List1A","white","woman","","","","null","","","","","","","","",""
"12937.800000011921","","","survey-text","126","563354","0.0-13.0-3.18","755","List1A","white","woman","","","","","{""Q0"":""ruth is kissing beth""}","<img src=""stim_listA/kiss7.gif""style=""height:400px;""></stim_listA>","is kissing","","","","","",""
"null","<div style=""font-size:60px;"">+</div>","","html-keyboard-response","127","563857","0.0-13.0-0.19","755","List1A","white","woman","","","","null","","","","","","","","",""
"null","<img src=""stim_listA/touch4.gif""style=""height:400px;""></stim_listA>","","html-keyboard-response","128","565864","0.0-13.0-1.19","755","List1A","white","woman","","","","null","","","","","","","","",""
"null","is being touched by","","html-keyboard-response","129","567867","0.0-13.0-2.19","755","List1A","white","woman","","","","null","","","","","","","","",""
"6447.800000011921","","","survey-text","130","574320","0.0-13.0-3.19","755","List1A","white","woman","","","","","{""Q0"":""ruth is being touched by luke""}","<img src=""stim_listA/touch4.gif""style=""height:400px;""></stim_listA>","is being touched by","","","","","",""
"10649.700000047684","<img src='img/portrait_matrix_list1.jpg' style='width:900px;height:500px;''></img><p>If you have memorised all the portraits and names and are ready to start, press Continue.</p><p><strong>Please note: Your memory of these faces will be tested 4 times during this experiment.</strong></p>","0","html-button-response","131","584974","0.0-14.0-0.0","755","List1A","white","woman","","","","","","","","","","","","",""
"3644.300000011921","<img src=""portrait/WM1.jpg""style=""height:400px;""></img>","6","html-button-response","132","589629","0.0-14.0-1.0","755","List1A","white","woman","","true","6","","","","","","","","","",""
"null","CORRECT","","html-keyboard-response","133","591134","0.0-14.0-2.0-0.0","755","List1A","white","woman","","","","null","","","","","","","","",""
"4524.099999964237","<img src=""portrait/BW1.jpg""style=""height:400px;""></img>","0","html-button-response","134","595662","0.0-14.0-4.0","755","List1A","white","woman","","true","0","","","","","","","","","",""
"null","CORRECT","","html-keyboard-response","135","597171","0.0-14.0-5.0-0.0","755","List1A","white","woman","","","","null","","","","","","","","",""
"2622.7000000476837","<img src=""portrait/BW2.jpg""style=""height:400px;""></img>","2","html-button-response","136","599799","0.0-14.0-7.0","755","List1A","white","woman","","true","2","","","","","","","","","",""
"null","CORRECT","","html-keyboard-response","137","601311","0.0-14.0-8.0-0.0","755","List1A","white","woman","","","","null","","","","","","","","",""
"3219.100000023842","<img src=""portrait/WW2.jpg""style=""height:400px;""></img>","3","html-button-response","138","604535","0.0-14.0-10.0","755","List1A","white","woman","","true","3","","","","","","","","","",""
"null","CORRECT","","html-keyboard-response","139","606041","0.0-14.0-11.0-0.0","755","List1A","white","woman","","","","null","","","","","","","","",""
"2752.300000011921","<img src=""portrait/WW1.jpg""style=""height:400px;""></img>","1","html-button-response","140","608797","0.0-14.0-13.0","755","List1A","white","woman","","true","1","","","","","","","","","",""
"null","CORRECT","","html-keyboard-response","141","610307","0.0-14.0-14.0-0.0","755","List1A","white","woman","","","","null","","","","","","","","",""
"3672.599999964237","<img src=""portrait/BM2.jpg""style=""height:400px;""></img>","5","html-button-response","142","613984","0.0-14.0-16.0","755","List1A","white","woman","","true","5","","","","","","","","","",""
"null","CORRECT","","html-keyboard-response","143","615492","0.0-14.0-17.0-0.0","755","List1A","white","woman","","","","null","","","","","","","","",""
"2816.400000035763","<img src=""portrait/WM2.jpg""style=""height:400px;""></img>","7","html-button-response","144","618314","0.0-14.0-19.0","755","List1A","white","woman","","true","7","","","","","","","","","",""
"null","CORRECT","","html-keyboard-response","145","619828","0.0-14.0-20.0-0.0","755","List1A","white","woman","","","","null","","","","","","","","",""
"3719.7000000476837","<img src=""portrait/BM1.jpg""style=""height:400px;""></img>","4","html-button-response","146","623551","0.0-14.0-22.0","755","List1A","white","woman","","true","4","","","","","","","","","",""
"null","CORRECT","","html-keyboard-response","147","625057","0.0-14.0-23.0-0.0","755","List1A","white","woman","","","","null","","","","","","","","",""
"1201.5999999642372","<p>You got 8 out of 8 right first time. Press Continue.</p>","0","html-button-response","148","626261","0.0-14.0-25.0","755","List1A","white","woman","","","","","","","","","","","","",""
"null","<div style=""font-size:60px;"">+</div>","","html-keyboard-response","149","627769","0.0-15.0-0.0","755","List1A","white","woman","","","","null","","","","","","","","",""
"null","<img src=""stim_listA/look3.gif""style=""height:400px;""></stim_listA>","","html-keyboard-response","150","629774","0.0-15.0-1.0","755","List1A","white","woman","","","","null","","","","","","","","",""
"null","is looking at","","html-keyboard-response","151","631780","0.0-15.0-2.0","755","List1A","white","woman","","","","null","","","","","","","","",""
"5675.399999976158","","","survey-text","152","637459","0.0-15.0-3.0","755","List1A","white","woman","","","","","{""Q0"":""ruth is looking at luke""}","<img src=""stim_listA/look3.gif""style=""height:400px;""></stim_listA>","is looking at","","","","","",""
"null","<div style=""font-size:60px;"">+</div>","","html-keyboard-response","153","637961","0.0-15.0-0.1","755","List1A","white","woman","","","","null","","","","","","","","",""
"null","<img src=""stim_listA/seduce3.gif""style=""height:400px;""></stim_listA>","","html-keyboard-response","154","639967","0.0-15.0-1.1","755","List1A","white","woman","","","","null","","","","","","","","",""
"null","is seducing","","html-keyboard-response","155","641973","0.0-15.0-2.1","755","List1A","white","woman","","","","null","","","","","","","","",""
"5226.700000047684","","","survey-text","156","647204","0.0-15.0-3.1","755","List1A","white","woman","","","","","{""Q0"":""luke is seducing jane""}","<img src=""stim_listA/seduce3.gif""style=""height:400px;""></stim_listA>","is seducing","","","","","",""
"null","<div style=""font-size:60px;"">+</div>","","html-keyboard-response","157","647707","0.0-15.0-0.2","755","List1A","white","woman","","","","null","","","","","","","","",""
"null","<img src=""stim_listA/shout3.gif""style=""height:400px;""></stim_listA>","","html-keyboard-response","158","649715","0.0-15.0-1.2","755","List1A","white","woman","","","","null","","","","","","","","",""
"null","is shouting at","","html-keyboard-response","159","651721","0.0-15.0-2.2","755","List1A","white","woman","","","","null","","","","","","","","",""
"8324.399999976158","","","survey-text","160","660049","0.0-15.0-3.2","755","List1A","white","woman","","","","","{""Q0"":""luke is shouting at ruth""}","<img src=""stim_listA/shout3.gif""style=""height:400px;""></stim_listA>","is shouting at","","","","","",""
"null","<div style=""font-size:60px;"">+</div>","","html-keyboard-response","161","660551","0.0-15.0-0.3","755","List1A","white","woman","","","","null","","","","","","","","",""
"null","<img src=""stim_listA/seduce4.gif""style=""height:400px;""></stim_listA>","","html-keyboard-response","162","662559","0.0-15.0-1.3","755","List1A","white","woman","","","","null","","","","","","","","",""
"null","is being seduced by","","html-keyboard-response","163","664565","0.0-15.0-2.3","755","List1A","white","woman","","","","null","","","","","","","","",""
"7396.599999964237","","","survey-text","164","671966","0.0-15.0-3.3","755","List1A","white","woman","","","","","{""Q0"":""ruth is being seduced by dave""}","<img src=""stim_listA/seduce4.gif""style=""height:400px;""></stim_listA>","is being seduced by","","","","","",""
"null","<div style=""font-size:60px;"">+</div>","","html-keyboard-response","165","672467","0.0-15.0-0.4","755","List1A","white","woman","","","","null","","","","","","","","",""
"null","<img src=""stim_listA/shout6.gif""style=""height:400px;""></stim_listA>","","html-keyboard-response","166","674472","0.0-15.0-1.4","755","List1A","white","woman","","","","null","","","","","","","","",""
"null","is being shouted at by","","html-keyboard-response","167","676479","0.0-15.0-2.4","755","List1A","white","woman","","","","null","","","","","","","","",""
"8933.200000047684","","","survey-text","168","685416","0.0-15.0-3.4","755","List1A","white","woman","","","","","{""Q0"":""dave is being shouted at by mike""}","<img src=""stim_listA/shout6.gif""style=""height:400px;""></stim_listA>","is being shouted at by","","","","","",""
"null","<div style=""font-size:60px;"">+</div>","","html-keyboard-response","169","685920","0.0-15.0-0.5","755","List1A","white","woman","","","","null","","","","","","","","",""
"null","<img src=""stim_listA/copy3.gif""style=""height:400px;""></stim_listA>","","html-keyboard-response","170","687927","0.0-15.0-1.5","755","List1A","white","woman","","","","null","","","","","","","","",""
"null","is copying","","html-keyboard-response","171","689932","0.0-15.0-2.5","755","List1A","white","woman","","","","null","","","","","","","","",""
"4347.599999964237","","","survey-text","172","694285","0.0-15.0-3.5","755","List1A","white","woman","","","","","{""Q0"":""dave is copying ruth""}","<img src=""stim_listA/copy3.gif""style=""height:400px;""></stim_listA>","is copying","","","","","",""
"null","<div style=""font-size:60px;"">+</div>","","html-keyboard-response","173","694789","0.0-15.0-0.6","755","List1A","white","woman","","","","null","","","","","","","","",""
"null","<img src=""stim_listA/greet5.gif""style=""height:400px;""></stim_listA>","","html-keyboard-response","174","696793","0.0-15.0-1.6","755","List1A","white","woman","","","","null","","","","","","","","",""
"null","is greeting","","html-keyboard-response","175","698796","0.0-15.0-2.6","755","List1A","white","woman","","","","null","","","","","","","","",""
"6525.800000011921","","","survey-text","176","705326","0.0-15.0-3.6","755","List1A","white","woman","","","","","{""Q0"":""mike is greeting luke""}","<img src=""stim_listA/greet5.gif""style=""height:400px;""></stim_listA>","is greeting","","","","","",""
"null","<div style=""font-size:60px;"">+</div>","","html-keyboard-response","177","705829","0.0-15.0-0.7","755","List1A","white","woman","","","","null","","","","","","","","",""
"null","<img src=""stim_listA/kiss1.gif""style=""height:400px;""></stim_listA>","","html-keyboard-response","178","707833","0.0-15.0-1.7","755","List1A","white","woman","","","","null","","","","","","","","",""
"null","is kissing","","html-keyboard-response","179","709838","0.0-15.0-2.7","755","List1A","white","woman","","","","null","","","","","","","","",""
"4897.399999976158","","","survey-text","180","714739","0.0-15.0-3.7","755","List1A","white","woman","","","","","{""Q0"":""fred is kissing beth""}","<img src=""stim_listA/kiss1.gif""style=""height:400px;""></stim_listA>","is kissing","","","","","",""
"null","<div style=""font-size:60px;"">+</div>","","html-keyboard-response","181","715244","0.0-15.0-0.8","755","List1A","white","woman","","","","null","","","","","","","","",""
"null","<img src=""stim_listA/challenge5.gif""style=""height:400px;""></stim_listA>","","html-keyboard-response","182","717248","0.0-15.0-1.8","755","List1A","white","woman","","","","null","","","","","","","","",""
"null","is challenging","","html-keyboard-response","183","719252","0.0-15.0-2.8","755","List1A","white","woman","","","","null","","","","","","","","",""
"4844","","","survey-text","184","724100","0.0-15.0-3.8","755","List1A","white","woman","","","","","{""Q0"":""luke is challenging mike""}","<img src=""stim_listA/challenge5.gif""style=""height:400px;""></stim_listA>","is challenging","","","","","",""
"null","<div style=""font-size:60px;"">+</div>","","html-keyboard-response","185","724602","0.0-15.0-0.9","755","List1A","white","woman","","","","null","","","","","","","","",""
"null","<img src=""stim_listA/hug5.gif""style=""height:400px;""></stim_listA>","","html-keyboard-response","186","726610","0.0-15.0-1.9","755","List1A","white","woman","","","","null","","","","","","","","",""
"null","is hugging","","html-keyboard-response","187","728614","0.0-15.0-2.9","755","List1A","white","woman","","","","null","","","","","","","","",""
"13146","","","survey-text","188","741764","0.0-15.0-3.9","755","List1A","white","woman","","","","","{""Q0"":""luke is hugging fred""}","<img src=""stim_listA/hug5.gif""style=""height:400px;""></stim_listA>","is hugging","","","","","",""
"null","<div style=""font-size:60px;"">+</div>","","html-keyboard-response","189","742266","0.0-15.0-0.10","755","List1A","white","woman","","","","null","","","","","","","","",""
"null","<img src=""stim_listA/greet2.gif""style=""height:400px;""></stim_listA>","","html-keyboard-response","190","744270","0.0-15.0-1.10","755","List1A","white","woman","","","","null","","","","","","","","",""
"null","is being greeted by","","html-keyboard-response","191","746272","0.0-15.0-2.10","755","List1A","white","woman","","","","null","","","","","","","","",""
"9240.299999952316","","","survey-text","192","755516","0.0-15.0-3.10","755","List1A","white","woman","","","","","{""Q0"":""kate is being greeted by fred""}","<img src=""stim_listA/greet2.gif""style=""height:400px;""></stim_listA>","is being greeted by","","","","","",""
"null","<div style=""font-size:60px;"">+</div>","","html-keyboard-response","193","756020","0.0-15.0-0.11","755","List1A","white","woman","","","","null","","","","","","","","",""
"null","<img src=""stim_listA/challenge4.gif""style=""height:400px;""></stim_listA>","","html-keyboard-response","194","758024","0.0-15.0-1.11","755","List1A","white","woman","","","","null","","","","","","","","",""
"null","is being challenged by","","html-keyboard-response","195","760030","0.0-15.0-2.11","755","List1A","white","woman","","","","null","","","","","","","","",""
"12247.900000035763","","","survey-text","196","772282","0.0-15.0-3.11","755","List1A","white","woman","","","","","{""Q0"":""jane is being challenged by luke""}","<img src=""stim_listA/challenge4.gif""style=""height:400px;""></stim_listA>","is being challenged by","","","","","",""
"null","<div style=""font-size:60px;"">+</div>","","html-keyboard-response","197","772785","0.0-15.0-0.12","755","List1A","white","woman","","","","null","","","","","","","","",""
"null","<img src=""stim_listA/seduce7.gif""style=""height:400px;""></stim_listA>","","html-keyboard-response","198","774790","0.0-15.0-1.12","755","List1A","white","woman","","","","null","","","","","","","","",""
"null","is seducing","","html-keyboard-response","199","776795","0.0-15.0-2.12","755","List1A","white","woman","","","","null","","","","","","","","",""
"4591.699999988079","","","survey-text","200","781391","0.0-15.0-3.12","755","List1A","white","woman","","","","","{""Q0"":""beth is seducing jane""}","<img src=""stim_listA/seduce7.gif""style=""height:400px;""></stim_listA>","is seducing","","","","","",""
"null","<div style=""font-size:60px;"">+</div>","","html-keyboard-response","201","781895","0.0-15.0-0.13","755","List1A","white","woman","","","","null","","","","","","","","",""
"null","<img src=""stim_listA/challenge8.gif""style=""height:400px;""></stim_listA>","","html-keyboard-response","202","783898","0.0-15.0-1.13","755","List1A","white","woman","","","","null","","","","","","","","",""
"null","is being challenged by","","html-keyboard-response","203","785901","0.0-15.0-2.13","755","List1A","white","woman","","","","null","","","","","","","","",""
"5846.600000023842","","","survey-text","204","791751","0.0-15.0-3.13","755","List1A","white","woman","","","","","{""Q0"":""jane is being challenged by beth""}","<img src=""stim_listA/challenge8.gif""style=""height:400px;""></stim_listA>","is being challenged by","","","","","",""
"null","<div style=""font-size:60px;"">+</div>","","html-keyboard-response","205","792255","0.0-15.0-0.14","755","List1A","white","woman","","","","null","","","","","","","","",""
"null","<img src=""stim_listA/seduce5.gif""style=""height:400px;""></stim_listA>","","html-keyboard-response","206","794260","0.0-15.0-1.14","755","List1A","white","woman","","","","null","","","","","","","","",""
"null","is seducing","","html-keyboard-response","207","796267","0.0-15.0-2.14","755","List1A","white","woman","","","","null","","","","","","","","",""
"33690.5","","","survey-text","208","829963","0.0-15.0-3.14","755","List1A","white","woman","","","","","{""Q0"":""dave is seducing fred""}","<img src=""stim_listA/seduce5.gif""style=""height:400px;""></stim_listA>","is seducing","","","","","",""
"null","<div style=""font-size:60px;"">+</div>","","html-keyboard-response","209","830466","0.0-15.0-0.15","755","List1A","white","woman","","","","null","","","","","","","","",""
"null","<img src=""stim_listA/shout1.gif""style=""height:400px;""></stim_listA>","","html-keyboard-response","210","832473","0.0-15.0-1.15","755","List1A","white","woman","","","","null","","","","","","","","",""
"null","is shouting at","","html-keyboard-response","211","834478","0.0-15.0-2.15","755","List1A","white","woman","","","","null","","","","","","","","",""
"5520.300000011921","","","survey-text","212","840002","0.0-15.0-3.15","755","List1A","white","woman","","","","","{""Q0"":""fred is shouting at beth""}","<img src=""stim_listA/shout1.gif""style=""height:400px;""></stim_listA>","is shouting at","","","","","",""
"null","<div style=""font-size:60px;"">+</div>","","html-keyboard-response","213","840504","0.0-15.0-0.16","755","List1A","white","woman","","","","null","","","","","","","","",""
"null","<img src=""stim_listA/challenge6.gif""style=""height:400px;""></stim_listA>","","html-keyboard-response","214","842508","0.0-15.0-1.16","755","List1A","white","woman","","","","null","","","","","","","","",""
"null","is being challenged by","","html-keyboard-response","215","844512","0.0-15.0-2.16","755","List1A","white","woman","","","","null","","","","","","","","",""
"18153.600000023842","","","survey-text","216","862670","0.0-15.0-3.16","755","List1A","white","woman","","","","","{""Q0"":""dave is being challenged by fred""}","<img src=""stim_listA/challenge6.gif""style=""height:400px;""></stim_listA>","is being challenged by","","","","","",""
"null","<div style=""font-size:60px;"">+</div>","","html-keyboard-response","217","863174","0.0-15.0-0.17","755","List1A","white","woman","","","","null","","","","","","","","",""
"null","<img src=""stim_listA/oppose3.gif""style=""height:400px;""></stim_listA>","","html-keyboard-response","218","865181","0.0-15.0-1.17","755","List1A","white","woman","","","","null","","","","","","","","",""
"null","is opposing","","html-keyboard-response","219","867185","0.0-15.0-2.17","755","List1A","white","woman","","","","null","","","","","","","","",""
"8933.899999976158","","","survey-text","220","876107","0.0-15.0-3.17","755","List1A","white","woman","","","","","{""Q0"":""dave is opposing jane""}","<img src=""stim_listA/oppose3.gif""style=""height:400px;""></stim_listA>","is opposing","","","","","",""
"null","<div style=""font-size:60px;"">+</div>","","html-keyboard-response","221","876608","0.0-15.0-0.18","755","List1A","white","woman","","","","null","","","","","","","","",""
"null","<img src=""stim_listA/copy4.gif""style=""height:400px;""></stim_listA>","","html-keyboard-response","222","878615","0.0-15.0-1.18","755","List1A","white","woman","","","","null","","","","","","","","",""
"null","is being copied by","","html-keyboard-response","223","880614","0.0-15.0-2.18","755","List1A","white","woman","","","","null","","","","","","","","",""
"5755.100000023842","","","survey-text","224","886366","0.0-15.0-3.18","755","List1A","white","woman","","","","","{""Q0"":""luke is being copied by jane""}","<img src=""stim_listA/copy4.gif""style=""height:400px;""></stim_listA>","is being copied by","","","","","",""
"null","<div style=""font-size:60px;"">+</div>","","html-keyboard-response","225","886868","0.0-15.0-0.19","755","List1A","white","woman","","","","null","","","","","","","","",""
"null","<img src=""stim_listA/copy7.gif""style=""height:400px;""></stim_listA>","","html-keyboard-response","226","888873","0.0-15.0-1.19","755","List1A","white","woman","","","","null","","","","","","","","",""
"null","is copying","","html-keyboard-response","227","890874","0.0-15.0-2.19","755","List1A","white","woman","","","","null","","","","","","","","",""
"7667","","","survey-text","228","898541","0.0-15.0-3.19","755","List1A","white","woman","","","","","{""Q0"":""kate is copying ruth""}","<img src=""stim_listA/copy7.gif""style=""height:400px;""></stim_listA>","is copying","","","","","",""
"3092.300000011921","<img src='img/portrait_matrix_list1.jpg' style='width:900px;height:500px;''></img><p>If you have memorised all the portraits and names and are ready to start, press Continue.</p><p><strong>Please note: Your memory of these faces will be tested 4 times during this experiment.</strong></p>","0","html-button-response","229","901635","0.0-16.0-0.0","755","List1A","white","woman","","","","","","","","","","","","",""
"2566.2000000476837","<img src=""portrait/BM1.jpg""style=""height:400px;""></img>","4","html-button-response","230","905208","0.0-16.0-1.0","755","List1A","white","woman","","true","4","","","","","","","","","",""
"null","CORRECT","","html-keyboard-response","231","906715","0.0-16.0-2.0-0.0","755","List1A","white","woman","","","","null","","","","","","","","",""
"2605.900000035763","<img src=""portrait/WM2.jpg""style=""height:400px;""></img>","7","html-button-response","232","909323","0.0-16.0-4.0","755","List1A","white","woman","","true","7","","","","","","","","","",""
"null","CORRECT","","html-keyboard-response","233","910829","0.0-16.0-5.0-0.0","755","List1A","white","woman","","","","null","","","","","","","","",""
"2444.600000023842","<img src=""portrait/BW1.jpg""style=""height:400px;""></img>","0","html-button-response","234","913277","0.0-16.0-7.0","755","List1A","white","woman","","true","0","","","","","","","","","",""
"null","CORRECT","","html-keyboard-response","235","914788","0.0-16.0-8.0-0.0","755","List1A","white","woman","","","","null","","","","","","","","",""
"2684.699999988079","<img src=""portrait/BM2.jpg""style=""height:400px;""></img>","5","html-button-response","236","917476","0.0-16.0-10.0","755","List1A","white","woman","","true","5","","","","","","","","","",""
"null","CORRECT","","html-keyboard-response","237","918987","0.0-16.0-11.0-0.0","755","List1A","white","woman","","","","null","","","","","","","","",""
"3242.399999976158","<img src=""portrait/WM1.jpg""style=""height:400px;""></img>","6","html-button-response","238","922233","0.0-16.0-13.0","755","List1A","white","woman","","true","6","","","","","","","","","",""
"null","CORRECT","","html-keyboard-response","239","923741","0.0-16.0-14.0-0.0","755","List1A","white","woman","","","","null","","","","","","","","",""
"3459.600000023842","<img src=""portrait/WW1.jpg""style=""height:400px;""></img>","1","html-button-response","240","927203","0.0-16.0-16.0","755","List1A","white","woman","","true","1","","","","","","","","","",""
"null","CORRECT","","html-keyboard-response","241","928708","0.0-16.0-17.0-0.0","755","List1A","white","woman","","","","null","","","","","","","","",""
"2494.300000011921","<img src=""portrait/BW2.jpg""style=""height:400px;""></img>","2","html-button-response","242","931205","0.0-16.0-19.0","755","List1A","white","woman","","true","2","","","","","","","","","",""
"null","CORRECT","","html-keyboard-response","243","932712","0.0-16.0-20.0-0.0","755","List1A","white","woman","","","","null","","","","","","","","",""
"2344.2999999523163","<img src=""portrait/WW2.jpg""style=""height:400px;""></img>","3","html-button-response","244","935059","0.0-16.0-22.0","755","List1A","white","woman","","true","3","","","","","","","","","",""
"null","CORRECT","","html-keyboard-response","245","936565","0.0-16.0-23.0-0.0","755","List1A","white","woman","","","","null","","","","","","","","",""
"1378.9000000357628","<p>You got 8 out of 8 right first time. Press Continue.</p>","0","html-button-response","246","937950","0.0-16.0-25.0","755","List1A","white","woman","","","","","","","","","","","","",""
"null","<div style=""font-size:60px;"">+</div>","","html-keyboard-response","247","939460","0.0-17.0-0.0","755","List1A","white","woman","","","","null","","","","","","","","",""
"null","<img src=""stim_listA/look4.gif""style=""height:400px;""></stim_listA>","","html-keyboard-response","248","941465","0.0-17.0-1.0","755","List1A","white","woman","","","","null","","","","","","","","",""
"null","is being looked at by","","html-keyboard-response","249","943470","0.0-17.0-2.0","755","List1A","white","woman","","","","null","","","","","","","","",""
"9768","","","survey-text","250","953242","0.0-17.0-3.0","755","List1A","white","woman","","","","","{""Q0"":""jane is being looked at by dave""}","<img src=""stim_listA/look4.gif""style=""height:400px;""></stim_listA>","is being looked at by","","","","","",""
"null","<div style=""font-size:60px;"">+</div>","","html-keyboard-response","251","953746","0.0-17.0-0.1","755","List1A","white","woman","","","","null","","","","","","","","",""
"null","<img src=""stim_listA/seduce8.gif""style=""height:400px;""></stim_listA>","","html-keyboard-response","252","955750","0.0-17.0-1.1","755","List1A","white","woman","","","","null","","","","","","","","",""
"null","is being seduced by","","html-keyboard-response","253","957755","0.0-17.0-2.1","755","List1A","white","woman","","","","null","","","","","","","","",""
"5084","","","survey-text","254","962843","0.0-17.0-3.1","755","List1A","white","woman","","","","","{""Q0"":""ruth is being seduced by kate""}","<img src=""stim_listA/seduce8.gif""style=""height:400px;""></stim_listA>","is being seduced by","","","","","",""
"null","<div style=""font-size:60px;"">+</div>","","html-keyboard-response","255","963346","0.0-17.0-0.2","755","List1A","white","woman","","","","null","","","","","","","","",""
"null","<img src=""stim_listA/shout2.gif""style=""height:400px;""></stim_listA>","","html-keyboard-response","256","965354","0.0-17.0-1.2","755","List1A","white","woman","","","","null","","","","","","","","",""
"null","is being shouted at by","","html-keyboard-response","257","967361","0.0-17.0-2.2","755","List1A","white","woman","","","","null","","","","","","","","",""
"6048.200000047684","","","survey-text","258","973413","0.0-17.0-3.2","755","List1A","white","woman","","","","","{""Q0"":""kate is being shouted at by mike""}","<img src=""stim_listA/shout2.gif""style=""height:400px;""></stim_listA>","is being shouted at by","","","","","",""
"null","<div style=""font-size:60px;"">+</div>","","html-keyboard-response","259","973915","0.0-17.0-0.3","755","List1A","white","woman","","","","null","","","","","","","","",""
"null","<img src=""stim_listA/shout8.gif""style=""height:400px;""></stim_listA>","","html-keyboard-response","260","975920","0.0-17.0-1.3","755","List1A","white","woman","","","","null","","","","","","","","",""
"null","is being shouted at by","","html-keyboard-response","261","977925","0.0-17.0-2.3","755","List1A","white","woman","","","","null","","","","","","","","",""
"6149.300000011921","","","survey-text","262","984078","0.0-17.0-3.3","755","List1A","white","woman","","","","","{""Q0"":""jane is being shouted at by kate""}","<img src=""stim_listA/shout8.gif""style=""height:400px;""></stim_listA>","is being shouted at by","","","","","",""
"null","<div style=""font-size:60px;"">+</div>","","html-keyboard-response","263","984581","0.0-17.0-0.4","755","List1A","white","woman","","","","null","","","","","","","","",""
"null","<img src=""stim_listA/kiss5.gif""style=""height:400px;""></stim_listA>","","html-keyboard-response","264","986587","0.0-17.0-1.4","755","List1A","white","woman","","","","null","","","","","","","","",""
"null","is kissing","","html-keyboard-response","265","988594","0.0-17.0-2.4","755","List1A","white","woman","","","","null","","","","","","","","",""
"4118.099999964237","","","survey-text","266","992716","0.0-17.0-3.4","755","List1A","white","woman","","","","","{""Q0"":""fred is kissing luke""}","<img src=""stim_listA/kiss5.gif""style=""height:400px;""></stim_listA>","is kissing","","","","","",""
"null","<div style=""font-size:60px;"">+</div>","","html-keyboard-response","267","993219","0.0-17.0-0.5","755","List1A","white","woman","","","","null","","","","","","","","",""
"null","<img src=""stim_listA/look7.gif""style=""height:400px;""></stim_listA>","","html-keyboard-response","268","995228","0.0-17.0-1.5","755","List1A","white","woman","","","","null","","","","","","","","",""
"null","is looking at","","html-keyboard-response","269","997235","0.0-17.0-2.5","755","List1A","white","woman","","","","null","","","","","","","","",""
"5974.400000035763","","","survey-text","270","1003213","0.0-17.0-3.5","755","List1A","white","woman","","","","","{""Q0"":""beth is looking at ruth""}","<img src=""stim_listA/look7.gif""style=""height:400px;""></stim_listA>","is looking at","","","","","",""
"null","<div style=""font-size:60px;"">+</div>","","html-keyboard-response","271","1003717","0.0-17.0-0.6","755","List1A","white","woman","","","","null","","","","","","","","",""
"null","<img src=""stim_listA/kiss8.gif""style=""height:400px;""></stim_listA>","","html-keyboard-response","272","1005725","0.0-17.0-1.6","755","List1A","white","woman","","","","null","","","","","","","","",""
"null","is being kissed by","","html-keyboard-response","273","1007731","0.0-17.0-2.6","755","List1A","white","woman","","","","null","","","","","","","","",""
"5241.899999976158","","","survey-text","274","1012976","0.0-17.0-3.6","755","List1A","white","woman","","","","","{""Q0"":""kate is being kissed by jane""}","<img src=""stim_listA/kiss8.gif""style=""height:400px;""></stim_listA>","is being kissed by","","","","","",""
"null","<div style=""font-size:60px;"">+</div>","","html-keyboard-response","275","1013479","0.0-17.0-0.7","755","List1A","white","woman","","","","null","","","","","","","","",""
"null","<img src=""stim_listA/shout7.gif""style=""height:400px;""></stim_listA>","","html-keyboard-response","276","1015484","0.0-17.0-1.7","755","List1A","white","woman","","","","null","","","","","","","","",""
"null","is shouting at","","html-keyboard-response","277","1017491","0.0-17.0-2.7","755","List1A","white","woman","","","","null","","","","","","","","",""
"9091.699999988079","","","survey-text","278","1026587","0.0-17.0-3.7","755","List1A","white","woman","","","","","{""Q0"":""beth is opposing ruth""}","<img src=""stim_listA/shout7.gif""style=""height:400px;""></stim_listA>","is shouting at","","","","","",""
"null","<div style=""font-size:60px;"">+</div>","","html-keyboard-response","279","1027091","0.0-17.0-0.8","755","List1A","white","woman","","","","null","","","","","","","","",""
"null","<img src=""stim_listA/challenge7.gif""style=""height:400px;""></stim_listA>","","html-keyboard-response","280","1029095","0.0-17.0-1.8","755","List1A","white","woman","","","","null","","","","","","","","",""
"null","is challenging","","html-keyboard-response","281","1031098","0.0-17.0-2.8","755","List1A","white","woman","","","","null","","","","","","","","",""
"68418.39999997616","","","survey-text","282","1099519","0.0-17.0-3.8","755","List1A","white","woman","","","","","{""Q0"":""ruth is challenging kate""}","<img src=""stim_listA/challenge7.gif""style=""height:400px;""></stim_listA>","is challenging","","","","","",""
"null","<div style=""font-size:60px;"">+</div>","","html-keyboard-response","283","1100023","0.0-17.0-0.9","755","List1A","white","woman","","","","null","","","","","","","","",""
"null","<img src=""stim_listA/kiss4.gif""style=""height:400px;""></stim_listA>","","html-keyboard-response","284","1102030","0.0-17.0-1.9","755","List1A","white","woman","","","","null","","","","","","","","",""
"null","is being kissed by","","html-keyboard-response","285","1104034","0.0-17.0-2.9","755","List1A","white","woman","","","","null","","","","","","","","",""
"5729.800000011921","","","survey-text","286","1109768","0.0-17.0-3.9","755","List1A","white","woman","","","","","{""Q0"":""jane is being kissed by dave""}","<img src=""stim_listA/kiss4.gif""style=""height:400px;""></stim_listA>","is being kissed by","","","","","",""
"null","<div style=""font-size:60px;"">+</div>","","html-keyboard-response","287","1110272","0.0-17.0-0.10","755","List1A","white","woman","","","","null","","","","","","","","",""
"null","<img src=""stim_listA/seduce6.gif""style=""height:400px;""></stim_listA>","","html-keyboard-response","288","1112276","0.0-17.0-1.10","755","List1A","white","woman","","","","null","","","","","","","","",""
"null","is being seduced by","","html-keyboard-response","289","1114282","0.0-17.0-2.10","755","List1A","white","woman","","","","null","","","","","","","","",""
"5407.399999976158","","","survey-text","290","1119693","0.0-17.0-3.10","755","List1A","white","woman","","","","","{""Q0"":""luke is being seduced by mike""}","<img src=""stim_listA/seduce6.gif""style=""height:400px;""></stim_listA>","is being seduced by","","","","","",""
"null","<div style=""font-size:60px;"">+</div>","","html-keyboard-response","291","1120197","0.0-17.0-0.11","755","List1A","white","woman","","","","null","","","","","","","","",""
"null","<img src=""stim_listA/greet1.gif""style=""height:400px;""></stim_listA>","","html-keyboard-response","292","1122205","0.0-17.0-1.11","755","List1A","white","woman","","","","null","","","","","","","","",""
"null","is greeting","","html-keyboard-response","293","1124209","0.0-17.0-2.11","755","List1A","white","woman","","","","null","","","","","","","","",""
"6840.5","","","survey-text","294","1131053","0.0-17.0-3.11","755","List1A","white","woman","","","","","{""Q0"":""mike is greeting beth""}","<img src=""stim_listA/greet1.gif""style=""height:400px;""></stim_listA>","is greeting","","","","","",""
"null","<div style=""font-size:60px;"">+</div>","","html-keyboard-response","295","1131556","0.0-17.0-0.12","755","List1A","white","woman","","","","null","","","","","","","","",""
"null","<img src=""stim_listA/kiss6.gif""style=""height:400px;""></stim_listA>","","html-keyboard-response","296","1133560","0.0-17.0-1.12","755","List1A","white","woman","","","","null","","","","","","","","",""
"null","is being kissed by","","html-keyboard-response","297","1135567","0.0-17.0-2.12","755","List1A","white","woman","","","","null","","","","","","","","",""
"6754","","","survey-text","298","1142324","0.0-17.0-3.12","755","List1A","white","woman","","","","","{""Q0"":""dave is being kissed by luke""}","<img src=""stim_listA/kiss6.gif""style=""height:400px;""></stim_listA>","is being kissed by","","","","","",""
"null","<div style=""font-size:60px;"">+</div>","","html-keyboard-response","299","1142826","0.0-17.0-0.13","755","List1A","white","woman","","","","null","","","","","","","","",""
"null","<img src=""stim_listA/shout4.gif""style=""height:400px;""></stim_listA>","","html-keyboard-response","300","1144828","0.0-17.0-1.13","755","List1A","white","woman","","","","null","","","","","","","","",""
"null","is being shouted at by","","html-keyboard-response","301","1146834","0.0-17.0-2.13","755","List1A","white","woman","","","","null","","","","","","","","",""
"7506.600000023842","","","survey-text","302","1154344","0.0-17.0-3.13","755","List1A","white","woman","","","","","{""Q0"":""jane is being shouted at by dave""}","<img src=""stim_listA/shout4.gif""style=""height:400px;""></stim_listA>","is being shouted at by","","","","","",""
"null","<div style=""font-size:60px;"">+</div>","","html-keyboard-response","303","1154848","0.0-17.0-0.14","755","List1A","white","woman","","","","null","","","","","","","","",""
"null","<img src=""stim_listA/oppose2.gif""style=""height:400px;""></stim_listA>","","html-keyboard-response","304","1156854","0.0-17.0-1.14","755","List1A","white","woman","","","","null","","","","","","","","",""
"null","is being opposed by","","html-keyboard-response","305","1158860","0.0-17.0-2.14","755","List1A","white","woman","","","","null","","","","","","","","",""
"7566.5","","","survey-text","306","1166429","0.0-17.0-3.14","755","List1A","white","woman","","","","","{""Q0"":""fred is being opposed by beth""}","<img src=""stim_listA/oppose2.gif""style=""height:400px;""></stim_listA>","is being opposed by","","","","","",""
"null","<div style=""font-size:60px;"">+</div>","","html-keyboard-response","307","1166933","0.0-17.0-0.15","755","List1A","white","woman","","","","null","","","","","","","","",""
"null","<img src=""stim_listA/oppose6.gif""style=""height:400px;""></stim_listA>","","html-keyboard-response","308","1168941","0.0-17.0-1.15","755","List1A","white","woman","","","","null","","","","","","","","",""
"null","is being opposed by","","html-keyboard-response","309","1170948","0.0-17.0-2.15","755","List1A","white","woman","","","","null","","","","","","","","",""
"5400.099999964237","","","survey-text","310","1176353","0.0-17.0-3.15","755","List1A","white","woman","","","","","{""Q0"":""fred is being opposed by luke""}","<img src=""stim_listA/oppose6.gif""style=""height:400px;""></stim_listA>","is being opposed by","","","","","",""
"null","<div style=""font-size:60px;"">+</div>","","html-keyboard-response","311","1176855","0.0-17.0-0.16","755","List1A","white","woman","","","","null","","","","","","","","",""
"null","<img src=""stim_listA/touch5.gif""style=""height:400px;""></stim_listA>","","html-keyboard-response","312","1178858","0.0-17.0-1.16","755","List1A","white","woman","","","","null","","","","","","","","",""
"null","is touching","","html-keyboard-response","313","1180865","0.0-17.0-2.16","755","List1A","white","woman","","","","null","","","","","","","","",""
"5787.5","","","survey-text","314","1186656","0.0-17.0-3.16","755","List1A","white","woman","","","","","{""Q0"":""mike is touching dave""}","<img src=""stim_listA/touch5.gif""style=""height:400px;""></stim_listA>","is touching","","","","","",""
"null","<div style=""font-size:60px;"">+</div>","","html-keyboard-response","315","1187158","0.0-17.0-0.17","755","List1A","white","woman","","","","null","","","","","","","","",""
"null","<img src=""stim_listA/hug4.gif""style=""height:400px;""></stim_listA>","","html-keyboard-response","316","1189166","0.0-17.0-1.17","755","List1A","white","woman","","","","null","","","","","","","","",""
"null","is being hugged by","","html-keyboard-response","317","1191173","0.0-17.0-2.17","755","List1A","white","woman","","","","null","","","","","","","","",""
"4562.600000023842","","","survey-text","318","1195739","0.0-17.0-3.17","755","List1A","white","woman","","","","","{""Q0"":""jane is being hugged by dave""}","<img src=""stim_listA/hug4.gif""style=""height:400px;""></stim_listA>","is being hugged by","","","","","",""
"null","<div style=""font-size:60px;"">+</div>","","html-keyboard-response","319","1196244","0.0-17.0-0.18","755","List1A","white","woman","","","","null","","","","","","","","",""
"null","<img src=""stim_listA/hug2.gif""style=""height:400px;""></stim_listA>","","html-keyboard-response","320","1198247","0.0-17.0-1.18","755","List1A","white","woman","","","","null","","","","","","","","",""
"null","is being hugged by","","html-keyboard-response","321","1200249","0.0-17.0-2.18","755","List1A","white","woman","","","","null","","","","","","","","",""
"5118","","","survey-text","322","1205371","0.0-17.0-3.18","755","List1A","white","woman","","","","","{""Q0"":""kate is being hugged by mike""}","<img src=""stim_listA/hug2.gif""style=""height:400px;""></stim_listA>","is being hugged by","","","","","",""
"null","<div style=""font-size:60px;"">+</div>","","html-keyboard-response","323","1205872","0.0-17.0-0.19","755","List1A","white","woman","","","","null","","","","","","","","",""
"null","<img src=""stim_listA/look1.gif""style=""height:400px;""></stim_listA>","","html-keyboard-response","324","1207880","0.0-17.0-1.19","755","List1A","white","woman","","","","null","","","","","","","","",""
"null","is looking at","","html-keyboard-response","325","1209886","0.0-17.0-2.19","755","List1A","white","woman","","","","null","","","","","","","","",""
"5294.099999964237","","","survey-text","326","1215184","0.0-17.0-3.19","755","List1A","white","woman","","","","","{""Q0"":""fred is looking at beth""}","<img src=""stim_listA/look1.gif""style=""height:400px;""></stim_listA>","is looking at","","","","","",""
"2538.7999999523163","<img src='img/portrait_matrix_list1.jpg' style='width:900px;height:500px;''></img><p>If you have memorised all the portraits and names and are ready to start, press Continue.</p><p><strong>Please note: Your memory of these faces will be tested 4 times during this experiment.</strong></p>","0","html-button-response","327","1217725","0.0-18.0-0.0","755","List1A","white","woman","","","","","","","","","","","","",""
"4075.800000011921","<img src=""portrait/BM1.jpg""style=""height:400px;""></img>","4","html-button-response","328","1222809","0.0-18.0-1.0","755","List1A","white","woman","","true","4","","","","","","","","","",""
"null","CORRECT","","html-keyboard-response","329","1224320","0.0-18.0-2.0-0.0","755","List1A","white","woman","","","","null","","","","","","","","",""
"3797.599999964237","<img src=""portrait/WM1.jpg""style=""height:400px;""></img>","6","html-button-response","330","1228120","0.0-18.0-4.0","755","List1A","white","woman","","true","6","","","","","","","","","",""
"null","CORRECT","","html-keyboard-response","331","1229626","0.0-18.0-5.0-0.0","755","List1A","white","woman","","","","null","","","","","","","","",""
"2684.399999976158","<img src=""portrait/WW2.jpg""style=""height:400px;""></img>","3","html-button-response","332","1232314","0.0-18.0-7.0","755","List1A","white","woman","","true","3","","","","","","","","","",""
"null","CORRECT","","html-keyboard-response","333","1233827","0.0-18.0-8.0-0.0","755","List1A","white","woman","","","","null","","","","","","","","",""
"3394","<img src=""portrait/WM2.jpg""style=""height:400px;""></img>","7","html-button-response","334","1237224","0.0-18.0-10.0","755","List1A","white","woman","","true","7","","","","","","","","","",""
"null","CORRECT","","html-keyboard-response","335","1238737","0.0-18.0-11.0-0.0","755","List1A","white","woman","","","","null","","","","","","","","",""
"3200.900000035763","<img src=""portrait/BM2.jpg""style=""height:400px;""></img>","5","html-button-response","336","1241940","0.0-18.0-13.0","755","List1A","white","woman","","true","5","","","","","","","","","",""
"null","CORRECT","","html-keyboard-response","337","1243451","0.0-18.0-14.0-0.0","755","List1A","white","woman","","","","null","","","","","","","","",""
"3084.899999976158","<img src=""portrait/WW1.jpg""style=""height:400px;""></img>","1","html-button-response","338","1246539","0.0-18.0-16.0","755","List1A","white","woman","","true","1","","","","","","","","","",""
"null","CORRECT","","html-keyboard-response","339","1248051","0.0-18.0-17.0-0.0","755","List1A","white","woman","","","","null","","","","","","","","",""
"3367","<img src=""portrait/BW1.jpg""style=""height:400px;""></img>","0","html-button-response","340","1251421","0.0-18.0-19.0","755","List1A","white","woman","","true","0","","","","","","","","","",""
"null","CORRECT","","html-keyboard-response","341","1252926","0.0-18.0-20.0-0.0","755","List1A","white","woman","","","","null","","","","","","","","",""
"3646.699999988079","<img src=""portrait/BW2.jpg""style=""height:400px;""></img>","2","html-button-response","342","1256575","0.0-18.0-22.0","755","List1A","white","woman","","true","2","","","","","","","","","",""
"null","CORRECT","","html-keyboard-response","343","1258085","0.0-18.0-23.0-0.0","755","List1A","white","woman","","","","null","","","","","","","","",""
"1270.8999999761581","<p>You got 8 out of 8 right first time. Press Continue.</p>","0","html-button-response","344","1259359","0.0-18.0-25.0","755","List1A","white","woman","","","","","","","","","","","","",""
"null","<div style=""font-size:60px;"">+</div>","","html-keyboard-response","345","1260866","0.0-19.0-0.0","755","List1A","white","woman","","","","null","","","","","","","","",""
"null","<img src=""stim_listA/copy8.gif""style=""height:400px;""></stim_listA>","","html-keyboard-response","346","1262874","0.0-19.0-1.0","755","List1A","white","woman","","","","null","","","","","","","","",""
"null","is being copied by","","html-keyboard-response","347","1264881","0.0-19.0-2.0","755","List1A","white","woman","","","","null","","","","","","","","",""
"8114.900000035763","","","survey-text","348","1273000","0.0-19.0-3.0","755","List1A","white","woman","","","","","{""Q0"":""beth is being copied by jane""}","<img src=""stim_listA/copy8.gif""style=""height:400px;""></stim_listA>","is being copied by","","","","","",""
"null","<div style=""font-size:60px;"">+</div>","","html-keyboard-response","349","1273504","0.0-19.0-0.1","755","List1A","white","woman","","","","null","","","","","","","","",""
"null","<img src=""stim_listA/copy6.gif""style=""height:400px;""></stim_listA>","","html-keyboard-response","350","1275508","0.0-19.0-1.1","755","List1A","white","woman","","","","null","","","","","","","","",""
"null","is being copied by","","html-keyboard-response","351","1277515","0.0-19.0-2.1","755","List1A","white","woman","","","","null","","","","","","","","",""
"5372.300000011921","","","survey-text","352","1282891","0.0-19.0-3.1","755","List1A","white","woman","","","","","{""Q0"":""dave is being copied by fred""}","<img src=""stim_listA/copy6.gif""style=""height:400px;""></stim_listA>","is being copied by","","","","","",""
"null","<div style=""font-size:60px;"">+</div>","","html-keyboard-response","353","1283393","0.0-19.0-0.2","755","List1A","white","woman","","","","null","","","","","","","","",""
"null","<img src=""stim_listA/hug8.gif""style=""height:400px;""></stim_listA>","","html-keyboard-response","354","1285400","0.0-19.0-1.2","755","List1A","white","woman","","","","null","","","","","","","","",""
"null","is being hugged by","","html-keyboard-response","355","1287408","0.0-19.0-2.2","755","List1A","white","woman","","","","null","","","","","","","","",""
"6855.899999976158","","","survey-text","356","1294268","0.0-19.0-3.2","755","List1A","white","woman","","","","","{""Q0"":""kate is being hugged by jane""}","<img src=""stim_listA/hug8.gif""style=""height:400px;""></stim_listA>","is being hugged by","","","","","",""
"null","<div style=""font-size:60px;"">+</div>","","html-keyboard-response","357","1294772","0.0-19.0-0.3","755","List1A","white","woman","","","","null","","","","","","","","",""
"null","<img src=""stim_listA/look5.gif""style=""height:400px;""></stim_listA>","","html-keyboard-response","358","1296780","0.0-19.0-1.3","755","List1A","white","woman","","","","null","","","","","","","","",""
"null","is looking at","","html-keyboard-response","359","1298787","0.0-19.0-2.3","755","List1A","white","woman","","","","null","","","","","","","","",""
"4731.399999976158","","","survey-text","360","1303522","0.0-19.0-3.3","755","List1A","white","woman","","","","","{""Q0"":""luke is looking at fred""}","<img src=""stim_listA/look5.gif""style=""height:400px;""></stim_listA>","is looking at","","","","","",""
"null","<div style=""font-size:60px;"">+</div>","","html-keyboard-response","361","1304026","0.0-19.0-0.4","755","List1A","white","woman","","","","null","","","","","","","","",""
"null","<img src=""stim_listA/copy2.gif""style=""height:400px;""></stim_listA>","","html-keyboard-response","362","1306030","0.0-19.0-1.4","755","List1A","white","woman","","","","null","","","","","","","","",""
"null","is being copied by","","html-keyboard-response","363","1308037","0.0-19.0-2.4","755","List1A","white","woman","","","","null","","","","","","","","",""
"5196.099999964237","","","survey-text","364","1313237","0.0-19.0-3.4","755","List1A","white","woman","","","","","{""Q0"":""kate is being copied by fred""}","<img src=""stim_listA/copy2.gif""style=""height:400px;""></stim_listA>","is being copied by","","","","","",""
"null","<div style=""font-size:60px;"">+</div>","","html-keyboard-response","365","1313741","0.0-19.0-0.5","755","List1A","white","woman","","","","null","","","","","","","","",""
"null","<img src=""stim_listA/touch8.gif""style=""height:400px;""></stim_listA>","","html-keyboard-response","366","1315746","0.0-19.0-1.5","755","List1A","white","woman","","","","null","","","","","","","","",""
"null","is being touched by","","html-keyboard-response","367","1317753","0.0-19.0-2.5","755","List1A","white","woman","","","","null","","","","","","","","",""
"6392.699999988079","","","survey-text","368","1324150","0.0-19.0-3.5","755","List1A","white","woman","","","","","{""Q0"":""beth is being touched by ruth""}","<img src=""stim_listA/touch8.gif""style=""height:400px;""></stim_listA>","is being touched by","","","","","",""
"null","<div style=""font-size:60px;"">+</div>","","html-keyboard-response","369","1324654","0.0-19.0-0.6","755","List1A","white","woman","","","","null","","","","","","","","",""
"null","<img src=""stim_listA/hug3.gif""style=""height:400px;""></stim_listA>","","html-keyboard-response","370","1326663","0.0-19.0-1.6","755","List1A","white","woman","","","","null","","","","","","","","",""
"null","is hugging","","html-keyboard-response","371","1328669","0.0-19.0-2.6","755","List1A","white","woman","","","","null","","","","","","","","",""
"3789.300000011921","","","survey-text","372","1332463","0.0-19.0-3.6","755","List1A","white","woman","","","","","{""Q0"":""ruth is hugging luke""}","<img src=""stim_listA/hug3.gif""style=""height:400px;""></stim_listA>","is hugging","","","","","",""
"null","<div style=""font-size:60px;"">+</div>","","html-keyboard-response","373","1332967","0.0-19.0-0.7","755","List1A","white","woman","","","","null","","","","","","","","",""
"null","<img src=""stim_listA/hug6.gif""style=""height:400px;""></stim_listA>","","html-keyboard-response","374","1334975","0.0-19.0-1.7","755","List1A","white","woman","","","","null","","","","","","","","",""
"null","is being hugged by","","html-keyboard-response","375","1336978","0.0-19.0-2.7","755","List1A","white","woman","","","","null","","","","","","","","",""
"6180.599999964237","","","survey-text","376","1343163","0.0-19.0-3.7","755","List1A","white","woman","","","","","{""Q0"":""mike is being hugged by dave""}","<img src=""stim_listA/hug6.gif""style=""height:400px;""></stim_listA>","is being hugged by","","","","","",""
"null","<div style=""font-size:60px;"">+</div>","","html-keyboard-response","377","1343665","0.0-19.0-0.8","755","List1A","white","woman","","","","null","","","","","","","","",""
"null","<img src=""stim_listA/copy1.gif""style=""height:400px;""></stim_listA>","","html-keyboard-response","378","1345673","0.0-19.0-1.8","755","List1A","white","woman","","","","null","","","","","","","","",""
"null","is copying","","html-keyboard-response","379","1347676","0.0-19.0-2.8","755","List1A","white","woman","","","","null","","","","","","","","",""
"8178","","","survey-text","380","1355857","0.0-19.0-3.8","755","List1A","white","woman","","","","","{""Q0"":""mike is copying beth""}","<img src=""stim_listA/copy1.gif""style=""height:400px;""></stim_listA>","is copying","","","","","",""
"null","<div style=""font-size:60px;"">+</div>","","html-keyboard-response","381","1356362","0.0-19.0-0.9","755","List1A","white","woman","","","","null","","","","","","","","",""
"null","<img src=""stim_listA/greet3.gif""style=""height:400px;""></stim_listA>","","html-keyboard-response","382","1358369","0.0-19.0-1.9","755","List1A","white","woman","","","","null","","","","","","","","",""
"null","is greeting","","html-keyboard-response","383","1360372","0.0-19.0-2.9","755","List1A","white","woman","","","","null","","","","","","","","",""
"4753.599999964237","","","survey-text","384","1365130","0.0-19.0-3.9","755","List1A","white","woman","","","","","{""Q0"":""dave is greeting ruth""}","<img src=""stim_listA/greet3.gif""style=""height:400px;""></stim_listA>","is greeting","","","","","",""
"null","<div style=""font-size:60px;"">+</div>","","html-keyboard-response","385","1365634","0.0-19.0-0.10","755","List1A","white","woman","","","","null","","","","","","","","",""
"null","<img src=""stim_listA/look8.gif""style=""height:400px;""></stim_listA>","","html-keyboard-response","386","1367644","0.0-19.0-1.10","755","List1A","white","woman","","","","null","","","","","","","","",""
"null","is being looked at by","","html-keyboard-response","387","1369651","0.0-19.0-2.10","755","List1A","white","woman","","","","null","","","","","","","","",""
"5894.699999988079","","","survey-text","388","1375550","0.0-19.0-3.10","755","List1A","white","woman","","","","","{""Q0"":""kate is being looked at by jane""}","<img src=""stim_listA/look8.gif""style=""height:400px;""></stim_listA>","is being looked at by","","","","","",""
"null","<div style=""font-size:60px;"">+</div>","","html-keyboard-response","389","1376053","0.0-19.0-0.11","755","List1A","white","woman","","","","null","","","","","","","","",""
"null","<img src=""stim_listA/touch6.gif""style=""height:400px;""></stim_listA>","","html-keyboard-response","390","1378061","0.0-19.0-1.11","755","List1A","white","woman","","","","null","","","","","","","","",""
"null","is being touched by","","html-keyboard-response","391","1380065","0.0-19.0-2.11","755","List1A","white","woman","","","","null","","","","","","","","",""
"10570","","","survey-text","392","1390638","0.0-19.0-3.11","755","List1A","white","woman","","","","","{""Q0"":""fred is being touched by luke""}","<img src=""stim_listA/touch6.gif""style=""height:400px;""></stim_listA>","is being touched by","","","","","",""
"null","<div style=""font-size:60px;"">+</div>","","html-keyboard-response","393","1391143","0.0-19.0-0.12","755","List1A","white","woman","","","","null","","","","","","","","",""
"null","<img src=""stim_listA/kiss2.gif""style=""height:400px;""></stim_listA>","","html-keyboard-response","394","1393150","0.0-19.0-1.12","755","List1A","white","woman","","","","null","","","","","","","","",""
"null","is being kissed by","","html-keyboard-response","395","1395152","0.0-19.0-2.12","755","List1A","white","woman","","","","null","","","","","","","","",""
"6181.5","","","survey-text","396","1401338","0.0-19.0-3.12","755","List1A","white","woman","","","","","{""Q0"":""kate is being kissed by luke""}","<img src=""stim_listA/kiss2.gif""style=""height:400px;""></stim_listA>","is being kissed by","","","","","",""
"null","<div style=""font-size:60px;"">+</div>","","html-keyboard-response","397","1401840","0.0-19.0-0.13","755","List1A","white","woman","","","","null","","","","","","","","",""
"null","<img src=""stim_listA/oppose8.gif""style=""height:400px;""></stim_listA>","","html-keyboard-response","398","1403845","0.0-19.0-1.13","755","List1A","white","woman","","","","null","","","","","","","","",""
"null","is being opposed by","","html-keyboard-response","399","1405851","0.0-19.0-2.13","755","List1A","white","woman","","","","null","","","","","","","","",""
"5674.800000011921","","","survey-text","400","1411531","0.0-19.0-3.13","755","List1A","white","woman","","","","","{""Q0"":""beth is being opposed by ruth""}","<img src=""stim_listA/oppose8.gif""style=""height:400px;""></stim_listA>","is being opposed by","","","","","",""
"null","<div style=""font-size:60px;"">+</div>","","html-keyboard-response","401","1412034","0.0-19.0-0.14","755","List1A","white","woman","","","","null","","","","","","","","",""
"null","<img src=""stim_listA/seduce1.gif""style=""height:400px;""></stim_listA>","","html-keyboard-response","402","1414042","0.0-19.0-1.14","755","List1A","white","woman","","","","null","","","","","","","","",""
"null","is seducing","","html-keyboard-response","403","1416045","0.0-19.0-2.14","755","List1A","white","woman","","","","null","","","","","","","","",""
"3695.600000023842","","","survey-text","404","1419745","0.0-19.0-3.14","755","List1A","white","woman","","","","","{""Q0"":""fred is seducing kate""}","<img src=""stim_listA/seduce1.gif""style=""height:400px;""></stim_listA>","is seducing","","","","","",""
"null","<div style=""font-size:60px;"">+</div>","","html-keyboard-response","405","1420247","0.0-19.0-0.15","755","List1A","white","woman","","","","null","","","","","","","","",""
"null","<img src=""stim_listA/hug7.gif""style=""height:400px;""></stim_listA>","","html-keyboard-response","406","1422254","0.0-19.0-1.15","755","List1A","white","woman","","","","null","","","","","","","","",""
"null","is hugging","","html-keyboard-response","407","1424261","0.0-19.0-2.15","755","List1A","white","woman","","","","null","","","","","","","","",""
"3322.2999999523163","","","survey-text","408","1427587","0.0-19.0-3.15","755","List1A","white","woman","","","","","{""Q0"":""beth is hugging ruth""}","<img src=""stim_listA/hug7.gif""style=""height:400px;""></stim_listA>","is hugging","","","","","",""
"null","<div style=""font-size:60px;"">+</div>","","html-keyboard-response","409","1428090","0.0-19.0-0.16","755","List1A","white","woman","","","","null","","","","","","","","",""
"null","<img src=""stim_listA/touch1.gif""style=""height:400px;""></stim_listA>","","html-keyboard-response","410","1430096","0.0-19.0-1.16","755","List1A","white","woman","","","","null","","","","","","","","",""
"null","is touching","","html-keyboard-response","411","1432103","0.0-19.0-2.16","755","List1A","white","woman","","","","null","","","","","","","","",""
"4348.899999976158","","","survey-text","412","1436456","0.0-19.0-3.16","755","List1A","white","woman","","","","","{""Q0"":""kate is touching mike""}","<img src=""stim_listA/touch1.gif""style=""height:400px;""></stim_listA>","is touching","","","","","",""
"null","<div style=""font-size:60px;"">+</div>","","html-keyboard-response","413","1436960","0.0-19.0-0.17","755","List1A","white","woman","","","","null","","","","","","","","",""
"null","<img src=""stim_listA/shout5.gif""style=""height:400px;""></stim_listA>","","html-keyboard-response","414","1438969","0.0-19.0-1.17","755","List1A","white","woman","","","","null","","","","","","","","",""
"null","is shouting at","","html-keyboard-response","415","1440976","0.0-19.0-2.17","755","List1A","white","woman","","","","null","","","","","","","","",""
"4342.899999976158","","","survey-text","416","1445325","0.0-19.0-3.17","755","List1A","white","woman","","","","","{""Q0"":""mike is shouting at luke""}","<img src=""stim_listA/shout5.gif""style=""height:400px;""></stim_listA>","is shouting at","","","","","",""
"null","<div style=""font-size:60px;"">+</div>","","html-keyboard-response","417","1445827","0.0-19.0-0.18","755","List1A","white","woman","","","","null","","","","","","","","",""
"null","<img src=""stim_listA/challenge1.gif""style=""height:400px;""></stim_listA>","","html-keyboard-response","418","1447835","0.0-19.0-1.18","755","List1A","white","woman","","","","null","","","","","","","","",""
"null","is challenging","","html-keyboard-response","419","1449843","0.0-19.0-2.18","755","List1A","white","woman","","","","null","","","","","","","","",""
"7808.700000047684","","","survey-text","420","1457656","0.0-19.0-3.18","755","List1A","white","woman","","","","","{""Q0"":""mike is challenging beth""}","<img src=""stim_listA/challenge1.gif""style=""height:400px;""></stim_listA>","is challenging","","","","","",""
"null","<div style=""font-size:60px;"">+</div>","","html-keyboard-response","421","1458159","0.0-19.0-0.19","755","List1A","white","woman","","","","null","","","","","","","","",""
"null","<img src=""stim_listA/touch7.gif""style=""height:400px;""></stim_listA>","","html-keyboard-response","422","1460166","0.0-19.0-1.19","755","List1A","white","woman","","","","null","","","","","","","","",""
"null","is touching","","html-keyboard-response","423","1462173","0.0-19.0-2.19","755","List1A","white","woman","","","","null","","","","","","","","",""
"7063","","","survey-text","424","1469240","0.0-19.0-3.19","755","List1A","white","woman","","","","","{""Q0"":""kate is touching jane""}","<img src=""stim_listA/touch7.gif""style=""height:400px;""></stim_listA>","is touching","","","","","",""
"3448.900000035763","<p>Thank you for completing that task.</p><p>The final part of this session is a questionnaire that will take about 4 minutes.</p><p>Press Continue.</p>","0","html-button-response","425","1472692","0.0-20.0","755","List1A","white","woman","","","","","","","","","","","","",""
"29613.30000001192","","","survey-text","426","1503318","0.0-21.0","755","List1A","white","woman","","","","","{""Q0"":""21"",""Q1"":""English"",""Q2"":""English"",""Q3"":""United States"",""Q4"":""Polish"",""Q5"":""White"",""Q6"":""Female""}","","","demographics","","","","",""
"2607.899999976158","<p>Have you lived in the USA for the last 5 years or more?</p>","0","html-button-response","427","1505929","0.0-22.0","755","List1A","white","woman","","","","","","","","fiveyears","","","","",""
"1129.3999999761581","<p>Move the slider to show the extent to which you agree with the following statements.</p>","0","html-button-response","428","1508065","0.0-23.0","755","List1A","white","woman","","","","","","","","","","","","",""
"7712.199999988079","","","html-slider-response","429","1516785","0.0-24.0-0.0-0.0","755","List1A","white","woman","","","","","","","","survey_race","66","","","I have a lot in common with people of a similar age to me.","filler"
"5237.5","","","html-slider-response","430","1522025","0.0-24.0-0.0-0.1","755","List1A","white","woman","","","","","","","","survey_race","58","","","I often think about the fact that I am my race.","often"
"17278.30000001192","","","html-slider-response","431","1539306","0.0-24.0-0.0-0.2","755","List1A","white","woman","","","","","","","","survey_race","17","","","Being my race gives me a good feeling.","feeling"
"3284.399999976158","","","html-slider-response","432","1542594","0.0-24.0-0.0-0.3","755","List1A","white","woman","","","","","","","","survey_race","14","","","I am glad to be my age.","filler"
"3513.400000035763","","","html-slider-response","433","1546110","0.0-24.0-0.0-0.4","755","List1A","white","woman","","","","","","","","survey_race","56","","","I consider myself an extrovert.","filler"
"3836.400000035763","","","html-slider-response","434","1549950","0.0-24.0-0.0-0.5","755","List1A","white","woman","","","","","","","","survey_race","17","","","I feel solidarity with my race.","solidarity"
"2610.300000011921","","","html-slider-response","435","1552564","0.0-24.0-0.0-0.6","755","List1A","white","woman","","","","","","","","survey_race","32","","","I enjoy being in large groups.","filler"
"2325.600000023842","","","html-slider-response","436","1554892","0.0-24.0-0.0-0.7","755","List1A","white","woman","","","","","","","","survey_race","37","","","I am glad to be the age I am.","filler"
"4001","","","html-slider-response","437","1558896","0.0-24.0-0.0-0.8","755","List1A","white","woman","","","","","","","","survey_race","52","","","People of my race have a lot in common with each other.","common"
"2794.099999964237","","","html-slider-response","438","1561694","0.0-24.0-0.0-0.9","755","List1A","white","woman","","","","","","","","survey_race","16","","","I feel a bond with my race.","bond"
"2524.5","","","html-slider-response","439","1564222","0.0-24.0-0.0-0.10","755","List1A","white","woman","","","","","","","","survey_race","21","","","Being my age gives me a good feeling.","filler"
"2415.699999988079","","","html-slider-response","440","1566640","0.0-24.0-0.0-0.11","755","List1A","white","woman","","","","","","","","survey_race","60","","","I often think about the fact that I am my age.","filler"
"2147.699999988079","","","html-slider-response","441","1568789","0.0-24.0-0.0-0.12","755","List1A","white","woman","","","","","","","","survey_race","58","","","I feel a bond with people the same age as me.","filler"
"4302","","","html-slider-response","442","1573093","0.0-24.0-0.0-0.13","755","List1A","white","woman","","","","","","","","survey_race","10","","","The fact that I am my race is an important part of my identity.","identity"
"8041.199999988079","","","html-slider-response","443","1581137","0.0-24.0-0.0-0.14","755","List1A","white","woman","","","","","","","","survey_race","44","","","I have a lot in common with the average person of my race.","average"
"3664.7000000476837","","","html-slider-response","444","1584805","0.0-24.0-0.0-0.15","755","List1A","white","woman","","","","","","","","survey_race","54","","","My age is not an important part of who I am.","filler"
"5089.600000023842","","","html-slider-response","445","1589897","0.0-24.0-0.0-0.16","755","List1A","white","woman","","","","","","","","survey_race","33","","","Being my race is an important part of how I see myself.","important"
"2168.899999976158","","","html-slider-response","446","1592069","0.0-24.0-0.0-0.17","755","List1A","white","woman","","","","","","","","survey_race","61","","","I feel solidarity with people the same age as me.","filler"
"3091.399999976158","","","html-slider-response","447","1595163","0.0-24.0-0.0-0.18","755","List1A","white","woman","","","","","","","","survey_race","45","","","I consider myself an introvert.","filler"
"4951.899999976158","","","html-slider-response","448","1600117","0.0-24.0-0.0-0.19","755","List1A","white","woman","","","","","","","","survey_race","48","","","I am glad to be my race.","glad"
"2711.100000023842","","","html-slider-response","449","1602831","0.0-24.0-0.0-0.20","755","List1A","white","woman","","","","","","","","survey_race","12","","","Getting older does not worry me.","filler"
"2445.100000023842","","","html-slider-response","450","1605279","0.0-24.0-0.0-0.21","755","List1A","white","woman","","","","","","","","survey_race","54","","","People my age have a lot in common with each other.","filler"
"4421.600000023842","","","html-slider-response","451","1609703","0.0-24.0-0.0-0.22","755","List1A","white","woman","","","","","","","","survey_race","3","","","I feel committed to my race.","committed"
"3236.5","","","html-slider-response","452","1612943","0.0-24.0-0.0-0.23","755","List1A","white","woman","","","","","","","","survey_race","56","","","The older I get, the wiser I feel.","filler"
"5357.199999988079","","","html-slider-response","453","1618303","0.0-24.0-0.0-0.24","755","List1A","white","woman","","","","","","","","survey_race","0","","","I think that my race has a lot to be proud of.","proud"
"4806.900000035763","","","html-slider-response","454","1623113","0.0-24.0-0.0-0.25","755","List1A","white","woman","","","","","","","","survey_race","46","","","I am similar to the average person of my race.","similar"
"2586.399999976158","","","html-slider-response","455","1625701","0.0-24.0-0.0-0.26","755","List1A","white","woman","","","","","","","","survey_race","45","","","People of my race are very similar to each other.","verysimilar"
"5754.699999988079","","","html-slider-response","456","1631458","0.0-24.0-0.0-0.27","755","List1A","white","woman","","","","","","","","survey_race","52","","","It is pleasant to be my race.","pleasant"
"2857.199999988079","","","html-slider-response","457","1634318","0.0-24.0-1.0-0.0","755","List1A","white","woman","","","","","","","","survey_gender","54","","","People of my gender have a lot in common with each other.","common"
"3813.399999976158","","","html-slider-response","458","1638134","0.0-24.0-1.0-0.1","755","List1A","white","woman","","","","","","","","survey_gender","100","","","I am glad to have the friends that I have.","filler"
"7297.100000023842","","","html-slider-response","459","1645434","0.0-24.0-1.0-0.2","755","List1A","white","woman","","","","","","","","survey_gender","54","","","Family is not more important to me than friendship.","filler"
"3290.800000011921","","","html-slider-response","460","1648728","0.0-24.0-1.0-0.3","755","List1A","white","woman","","","","","","","","survey_gender","83","","","I feel solidarity with my gender.","solidarity"
"3277.699999988079","","","html-slider-response","461","1652008","0.0-24.0-1.0-0.4","755","List1A","white","woman","","","","","","","","survey_gender","74","","","I have a lot in common with my friends.","filler"
"4534.699999988079","","","html-slider-response","462","1656546","0.0-24.0-1.0-0.5","755","List1A","white","woman","","","","","","","","survey_gender","56","","","It is not always easy for people to know what I am thinking.","filler"
"2762.600000023842","","","html-slider-response","463","1659312","0.0-24.0-1.0-0.6","755","List1A","white","woman","","","","","","","","survey_gender","93","","","Being around my friends gives me a good feeling.","filler"
"3409.399999976158","","","html-slider-response","464","1662724","0.0-24.0-1.0-0.7","755","List1A","white","woman","","","","","","","","survey_gender","23","","","It is pleasant to be my gender.","pleasant"
"2876.600000023842","","","html-slider-response","465","1665604","0.0-24.0-1.0-0.8","755","List1A","white","woman","","","","","","","","survey_gender","52","","","I feel committed to my gender.","committed"
"2708.400000035763","","","html-slider-response","466","1668316","0.0-24.0-1.0-0.9","755","List1A","white","woman","","","","","","","","survey_gender","71","","","I would say I am an animal person.","filler"
"2484.5","","","html-slider-response","467","1670803","0.0-24.0-1.0-0.10","755","List1A","white","woman","","","","","","","","survey_gender","92","","","I feel a bond with my friends.","filler"
"3753","","","html-slider-response","468","1674558","0.0-24.0-1.0-0.11","755","List1A","white","woman","","","","","","","","survey_gender","25","","","Routine is not important to me.","filler"
"2220.199999988079","","","html-slider-response","469","1676781","0.0-24.0-1.0-0.12","755","List1A","white","woman","","","","","","","","survey_gender","71","","","My friends understand me.","filler"
"2351.900000035763","","","html-slider-response","470","1679135","0.0-24.0-1.0-0.13","755","List1A","white","woman","","","","","","","","survey_gender","81","","","I often think about my actions.","filler"
"5193.800000011921","","","html-slider-response","471","1684331","0.0-24.0-1.0-0.14","755","List1A","white","woman","","","","","","","","survey_gender","66","","","The fact that I am my gender is an important part of my identity.","identity"
"2711.699999988079","","","html-slider-response","472","1687046","0.0-24.0-1.0-0.15","755","List1A","white","woman","","","","","","","","survey_gender","91","","","I am glad to be my gender.","glad"
"2997.699999988079","","","html-slider-response","473","1690045","0.0-24.0-1.0-0.16","755","List1A","white","woman","","","","","","","","survey_gender","63","","","My friends have a lot in common with each other.","filler"
"2136.900000035763","","","html-slider-response","474","1692185","0.0-24.0-1.0-0.17","755","List1A","white","woman","","","","","","","","survey_gender","52","","","Being my gender is an important part of how I see myself.","important"
"2378.900000035763","","","html-slider-response","475","1694566","0.0-24.0-1.0-0.18","755","List1A","white","woman","","","","","","","","survey_gender","53","","","I think that my gender has a lot to be proud of.","proud"
"2432.900000035763","","","html-slider-response","476","1697001","0.0-24.0-1.0-0.19","755","List1A","white","woman","","","","","","","","survey_gender","41","","","People of my gender are very similar to each other.","verysimilar"
"2011.699999988079","","","html-slider-response","477","1699015","0.0-24.0-1.0-0.20","755","List1A","white","woman","","","","","","","","survey_gender","58","","","Being my gender gives me a good feeling.","feeling"
"2969.300000011921","","","html-slider-response","478","1701987","0.0-24.0-1.0-0.21","755","List1A","white","woman","","","","","","","","survey_gender","74","","","I feel solidarity with my friends.","filler"
"1979.2000000476837","","","html-slider-response","479","1703969","0.0-24.0-1.0-0.22","755","List1A","white","woman","","","","","","","","survey_gender","60","","","I feel a bond with my gender.","bond"
