rt,stimulus,button_pressed,trial_type,trial_index,time_elapsed,internal_node_id,subject,list,ppt_race,ppt_gender,url,first_guess,correct,key_press,responses,image_type,phrase_type,test_part,response,stimulus1,stimulus2,question_type,survey_item
1716.6,Welcome to the experiment. Press Continue to begin.,0,html-button-response,0,1723,0.0-0.0,7681,List2A,white,man,,,,,,,,,,,,,
23548.8,,,external-html,1,26399,0.0-1.0,7681,List2A,white,man,consent.html,,,,,,,,,,,,
8972.4,"<p>On the next page, you will see portraits of 8 people and their names.</p><p>Your first task is to take a few minutes to memorise the names of these people.</p><p>You will have to recall their names during the rest of the experiment, so it is</p><p>essential that you try to memorise these people and their names as best as you can.</p><br><p><strong>You will then be tested on your memory of these names and portraits.</strong></p><br><p>The experiment will start after you have completed this memory test.</p><br><p>Ready?</p>",0,html-button-response,2,35374,0.0-2.0,7681,List2A,white,man,,,,,,,,,,,,,
61439.9,"<img src='img/portrait_matrix_list2.jpg' style='width:900px;height:500px;''></img><p>If you have memorised all the portraits and names and are ready to start, press Continue.</p><p><strong>Please note: Your memory of these faces will be tested 4 times during this experiment.</strong></p>",0,html-button-response,3,97819,0.0-3.0-0.0,7681,List2A,white,man,,,,,,,,,,,,,
19778,"<img src=""portrait/WM1.jpg""style=""height:400px;""></img>",6,html-button-response,4,118601,0.0-3.0-1.0,7681,List2A,white,man,,TRUE,6,,,,,,,,,,
null,CORRECT,,html-keyboard-response,5,120111,0.0-3.0-2.0-0.0,7681,List2A,white,man,,,,null,,,,,,,,,
13871,"<img src=""portrait/BM1.jpg""style=""height:400px;""></img>",7,html-button-response,6,133984,0.0-3.0-4.0,7681,List2A,white,man,,TRUE,4,,,,,,,,,,
6125.6,"<img src=""portrait/BM1.jpg""style=""height:400px;""></img>",4,html-button-response,7,141119,0.0-3.0-6.0-0.0,7681,List2A,white,man,,FALSE,4,,,,,,,,,,
null,CORRECT,,html-keyboard-response,8,142625,0.0-3.0-6.0-1.0-0.0,7681,List2A,white,man,,,,null,,,,,,,,,
3342.2,"<img src=""portrait/BM2.jpg""style=""height:400px;""></img>",5,html-button-response,9,145969,0.0-3.0-7.0,7681,List2A,white,man,,TRUE,5,,,,,,,,,,
null,CORRECT,,html-keyboard-response,10,147471,0.0-3.0-8.0-0.0,7681,List2A,white,man,,,,null,,,,,,,,,
4701,"<img src=""portrait/WW1.jpg""style=""height:400px;""></img>",1,html-button-response,11,152174,0.0-3.0-10.0,7681,List2A,white,man,,TRUE,1,,,,,,,,,,
null,CORRECT,,html-keyboard-response,12,153676,0.0-3.0-11.0-0.0,7681,List2A,white,man,,,,null,,,,,,,,,
5405.8,"<img src=""portrait/BW1.jpg""style=""height:400px;""></img>",0,html-button-response,13,159083,0.0-3.0-13.0,7681,List2A,white,man,,TRUE,0,,,,,,,,,,
null,CORRECT,,html-keyboard-response,14,160590,0.0-3.0-14.0-0.0,7681,List2A,white,man,,,,null,,,,,,,,,
4244.4,"<img src=""portrait/BW2.jpg""style=""height:400px;""></img>",2,html-button-response,15,164836,0.0-3.0-16.0,7681,List2A,white,man,,TRUE,2,,,,,,,,,,
null,CORRECT,,html-keyboard-response,16,166346,0.0-3.0-17.0-0.0,7681,List2A,white,man,,,,null,,,,,,,,,
4644.7,"<img src=""portrait/WW2.jpg""style=""height:400px;""></img>",3,html-button-response,17,170993,0.0-3.0-19.0,7681,List2A,white,man,,TRUE,3,,,,,,,,,,
null,CORRECT,,html-keyboard-response,18,172502,0.0-3.0-20.0-0.0,7681,List2A,white,man,,,,null,,,,,,,,,
6382.8,"<img src=""portrait/WM2.jpg""style=""height:400px;""></img>",7,html-button-response,19,178887,0.0-3.0-22.0,7681,List2A,white,man,,TRUE,7,,,,,,,,,,
null,CORRECT,,html-keyboard-response,20,180397,0.0-3.0-23.0-0.0,7681,List2A,white,man,,,,null,,,,,,,,,
3108.3,<p>You got 7 out of 8 right first time. Press Continue.</p>,0,html-button-response,21,183507,0.0-3.0-25.0,7681,List2A,white,man,,,,,,,,,,,,,
2784.7,"As you did not score 100%, the memory game will repeat. Press Continue.",0,html-button-response,22,187295,0.0-3.0-26.0-0.0,7681,List2A,white,man,,,,,,,,,,,,,
16509,"<img src='img/portrait_matrix_list2.jpg' style='width:900px;height:500px;''></img><p>If you have memorised all the portraits and names and are ready to start, press Continue.</p><p><strong>Please note: Your memory of these faces will be tested 4 times during this experiment.</strong></p>",0,html-button-response,23,204812,0.0-3.1-0.1,7681,List2A,white,man,,,,,,,,,,,,,
6847.1,"<img src=""portrait/WM1.jpg""style=""height:400px;""></img>",6,html-button-response,24,212667,0.0-3.1-1.1,7681,List2A,white,man,,TRUE,6,,,,,,,,,,
null,CORRECT,,html-keyboard-response,25,214175,0.0-3.1-2.1-0.1,7681,List2A,white,man,,,,null,,,,,,,,,
3222.6,"<img src=""portrait/BM1.jpg""style=""height:400px;""></img>",4,html-button-response,26,217400,0.0-3.1-4.1,7681,List2A,white,man,,TRUE,4,,,,,,,,,,
null,CORRECT,,html-keyboard-response,27,218907,0.0-3.1-5.1-0.1,7681,List2A,white,man,,,,null,,,,,,,,,
1989.8,"<img src=""portrait/BM2.jpg""style=""height:400px;""></img>",5,html-button-response,28,220899,0.0-3.1-7.1,7681,List2A,white,man,,TRUE,5,,,,,,,,,,
null,CORRECT,,html-keyboard-response,29,222407,0.0-3.1-8.1-0.1,7681,List2A,white,man,,,,null,,,,,,,,,
3197.5,"<img src=""portrait/WW1.jpg""style=""height:400px;""></img>",1,html-button-response,30,225606,0.0-3.1-10.1,7681,List2A,white,man,,TRUE,1,,,,,,,,,,
null,CORRECT,,html-keyboard-response,31,227113,0.0-3.1-11.1-0.1,7681,List2A,white,man,,,,null,,,,,,,,,
3927.6,"<img src=""portrait/BW1.jpg""style=""height:400px;""></img>",0,html-button-response,32,231051,0.0-3.1-13.1,7681,List2A,white,man,,TRUE,0,,,,,,,,,,
null,CORRECT,,html-keyboard-response,33,232558,0.0-3.1-14.1-0.1,7681,List2A,white,man,,,,null,,,,,,,,,
1968.7,"<img src=""portrait/BW2.jpg""style=""height:400px;""></img>",2,html-button-response,34,234533,0.0-3.1-16.1,7681,List2A,white,man,,TRUE,2,,,,,,,,,,
null,CORRECT,,html-keyboard-response,35,236042,0.0-3.1-17.1-0.1,7681,List2A,white,man,,,,null,,,,,,,,,
2178.4,"<img src=""portrait/WW2.jpg""style=""height:400px;""></img>",3,html-button-response,36,238226,0.0-3.1-19.1,7681,List2A,white,man,,TRUE,3,,,,,,,,,,
null,CORRECT,,html-keyboard-response,37,239738,0.0-3.1-20.1-0.1,7681,List2A,white,man,,,,null,,,,,,,,,
3301.4,"<img src=""portrait/WM2.jpg""style=""height:400px;""></img>",7,html-button-response,38,243045,0.0-3.1-22.1,7681,List2A,white,man,,TRUE,7,,,,,,,,,,
null,CORRECT,,html-keyboard-response,39,244556,0.0-3.1-23.1-0.1,7681,List2A,white,man,,,,null,,,,,,,,,
3147.8,<p>You got 8 out of 8 right first time. Press Continue.</p>,0,html-button-response,40,247709,0.0-3.1-25.1,7681,List2A,white,man,,,,,,,,,,,,,
22358.5,"<p>In this experiment, you will view photographs of the people from the memory game interacting.</p><p>By using the <strong>exact</strong> phrase given <i>after</i> the photograph appears and recalling the correct names of the people in the photographs, form a sentence describing the interaction. You do not need to capitalise names.</p><p>Type your answer in the space provided. Please complete every sentence before moving onto the next trial.</p><p>You will only have a few seconds to memorise each given photograph and phrase before you can respond, so try your best to focus.</p><p>An example is given below. Press 'Continue' when you are ready.</p><img src='img/speaking_example.jpg' style='width:800px;height:460px;''></img>",0,html-button-response,41,271086,0.0-4.0,7681,List2A,white,man,,,,,,,,,,,,,
2259.6,"<p>Before the experiment starts, you will watch two example trials. Press 'Continue'.</p>",0,html-button-response,42,274353,0.0-5.0,7681,List2A,white,man,,,,,,,,,,,,,
null,<img src='img/play_eg.gif' style='height:400px;''></img>,,html-keyboard-response,43,277362,0.0-6.0,7681,List2A,white,man,,,,null,,,,,,,,,
null,<p>is playing with</p>,,html-keyboard-response,44,279368,0.0-7.0,7681,List2A,white,man,,,,null,,,,,,,,,
2621.9,<p><b>Answer:</b> jane is playing with ruth</p>,0,html-button-response,45,281991,0.0-8.0,7681,List2A,white,man,,,,,,,,,,,,,
null,<img src='img/dance_eg.gif' style='height:400px;''></img>,,html-keyboard-response,46,284997,0.0-9.0,7681,List2A,white,man,,,,null,,,,,,,,,
null,<p>is being entertained by</p>,,html-keyboard-response,47,286998,0.0-10.0,7681,List2A,white,man,,,,null,,,,,,,,,
2967,<p><b>Answer:</b> fred is being entertained by mike</p>,0,html-button-response,48,289967,0.0-11.0,7681,List2A,white,man,,,,,,,,,,,,,
3068.4,"<p>Ready to start the experiment?</p><br><p><strong>Remember to describe the picture using a full sentence,</strong></p><p><strong>that combines the names of the people with the <i>exact</i> phrase given.</strong></p><p><strong>To receive full payment you must do this correctly.</strong></p><p><strong> You do not need to capitalise names or use punctuation.</strong></p><br><p>Press 'Continue' to begin.</p>",0,html-button-response,49,294043,0.0-12.0,7681,List2A,white,man,,,,,,,,,,,,,
null,"<div style=""font-size:60px;"">+</div>",,html-keyboard-response,50,295549,0.0-13.0-0.0,7681,List2A,white,man,,,,null,,,,,,,,,
null,"<img src=""stim_listA/touch6.gif""style=""height:400px;""></stim_listA>",,html-keyboard-response,51,297554,0.0-13.0-1.0,7681,List2A,white,man,,,,null,,,,,,,,,
null,is being touched by,,html-keyboard-response,52,299556,0.0-13.0-2.0,7681,List2A,white,man,,,,null,,,,,,,,,
37971.9,,,survey-text,53,337534,0.0-13.0-3.0,7681,List2A,white,man,,,,,"{""Q0"":""Luke is high fiving Fred""}","<img src=""stim_listA/touch6.gif""style=""height:400px;""></stim_listA>",is being touched by,,,,,,
null,"<div style=""font-size:60px;"">+</div>",,html-keyboard-response,54,338036,0.0-13.0-0.1,7681,List2A,white,man,,,,null,,,,,,,,,
null,"<img src=""stim_listA/touch4.gif""style=""height:400px;""></stim_listA>",,html-keyboard-response,55,340038,0.0-13.0-1.1,7681,List2A,white,man,,,,null,,,,,,,,,
null,is being touched by,,html-keyboard-response,56,342044,0.0-13.0-2.1,7681,List2A,white,man,,,,null,,,,,,,,,
18262.1,,,survey-text,57,360310,0.0-13.0-3.1,7681,List2A,white,man,,,,,"{""Q0"":""Beth is being touched by Fred""}","<img src=""stim_listA/touch4.gif""style=""height:400px;""></stim_listA>",is being touched by,,,,,,
null,"<div style=""font-size:60px;"">+</div>",,html-keyboard-response,58,360812,0.0-13.0-0.2,7681,List2A,white,man,,,,null,,,,,,,,,
null,"<img src=""stim_listA/hug5.gif""style=""height:400px;""></stim_listA>",,html-keyboard-response,59,362818,0.0-13.0-1.2,7681,List2A,white,man,,,,null,,,,,,,,,
null,is hugging,,html-keyboard-response,60,364822,0.0-13.0-2.2,7681,List2A,white,man,,,,null,,,,,,,,,
11697.9,,,survey-text,61,376525,0.0-13.0-3.2,7681,List2A,white,man,,,,,"{""Q0"":""Fred is hugging Luke""}","<img src=""stim_listA/hug5.gif""style=""height:400px;""></stim_listA>",is hugging,,,,,,
null,"<div style=""font-size:60px;"">+</div>",,html-keyboard-response,62,377028,0.0-13.0-0.3,7681,List2A,white,man,,,,null,,,,,,,,,
null,"<img src=""stim_listA/challenge6.gif""style=""height:400px;""></stim_listA>",,html-keyboard-response,63,379034,0.0-13.0-1.3,7681,List2A,white,man,,,,null,,,,,,,,,
null,is being challenged by,,html-keyboard-response,64,381037,0.0-13.0-2.3,7681,List2A,white,man,,,,null,,,,,,,,,
34779.1,,,survey-text,65,415820,0.0-13.0-3.3,7681,List2A,white,man,,,,,"{""Q0"":""Can't remember""}","<img src=""stim_listA/challenge6.gif""style=""height:400px;""></stim_listA>",is being challenged by,,,,,,
null,"<div style=""font-size:60px;"">+</div>",,html-keyboard-response,66,416322,0.0-13.0-0.4,7681,List2A,white,man,,,,null,,,,,,,,,
null,"<img src=""stim_listA/seduce8.gif""style=""height:400px;""></stim_listA>",,html-keyboard-response,67,418327,0.0-13.0-1.4,7681,List2A,white,man,,,,null,,,,,,,,,
null,is being seduced by,,html-keyboard-response,68,420333,0.0-13.0-2.4,7681,List2A,white,man,,,,null,,,,,,,,,
15814.5,,,survey-text,69,436151,0.0-13.0-3.4,7681,List2A,white,man,,,,,"{""Q0"":""Beth is being seduced by Ruby""}","<img src=""stim_listA/seduce8.gif""style=""height:400px;""></stim_listA>",is being seduced by,,,,,,
null,"<div style=""font-size:60px;"">+</div>",,html-keyboard-response,70,436653,0.0-13.0-0.5,7681,List2A,white,man,,,,null,,,,,,,,,
null,"<img src=""stim_listA/touch8.gif""style=""height:400px;""></stim_listA>",,html-keyboard-response,71,438660,0.0-13.0-1.5,7681,List2A,white,man,,,,null,,,,,,,,,
null,is being touched by,,html-keyboard-response,72,440664,0.0-13.0-2.5,7681,List2A,white,man,,,,null,,,,,,,,,
29582.9,,,survey-text,73,470251,0.0-13.0-3.5,7681,List2A,white,man,,,,,"{""Q0"":""Beth is being touched by Ruby""}","<img src=""stim_listA/touch8.gif""style=""height:400px;""></stim_listA>",is being touched by,,,,,,
null,"<div style=""font-size:60px;"">+</div>",,html-keyboard-response,74,470754,0.0-13.0-0.6,7681,List2A,white,man,,,,null,,,,,,,,,
null,"<img src=""stim_listA/copy2.gif""style=""height:400px;""></stim_listA>",,html-keyboard-response,75,472757,0.0-13.0-1.6,7681,List2A,white,man,,,,null,,,,,,,,,
null,is being copied by,,html-keyboard-response,76,474758,0.0-13.0-2.6,7681,List2A,white,man,,,,null,,,,,,,,,
19358.1,,,survey-text,77,494120,0.0-13.0-3.6,7681,List2A,white,man,,,,,"{""Q0"":""Luke is being touched by Jane""}","<img src=""stim_listA/copy2.gif""style=""height:400px;""></stim_listA>",is being copied by,,,,,,
null,"<div style=""font-size:60px;"">+</div>",,html-keyboard-response,78,494621,0.0-13.0-0.7,7681,List2A,white,man,,,,null,,,,,,,,,
null,"<img src=""stim_listA/seduce5.gif""style=""height:400px;""></stim_listA>",,html-keyboard-response,79,496624,0.0-13.0-1.7,7681,List2A,white,man,,,,null,,,,,,,,,
null,is seducing,,html-keyboard-response,80,498626,0.0-13.0-2.7,7681,List2A,white,man,,,,null,,,,,,,,,
25044.9,,,survey-text,81,523674,0.0-13.0-3.7,7681,List2A,white,man,,,,,"{""Q0"":""Mike is seducing Dave""}","<img src=""stim_listA/seduce5.gif""style=""height:400px;""></stim_listA>",is seducing,,,,,,
null,"<div style=""font-size:60px;"">+</div>",,html-keyboard-response,82,524176,0.0-13.0-0.8,7681,List2A,white,man,,,,null,,,,,,,,,
null,"<img src=""stim_listA/look6.gif""style=""height:400px;""></stim_listA>",,html-keyboard-response,83,526177,0.0-13.0-1.8,7681,List2A,white,man,,,,null,,,,,,,,,
null,is being looked at by,,html-keyboard-response,84,528181,0.0-13.0-2.8,7681,List2A,white,man,,,,null,,,,,,,,,
36492.8,,,survey-text,85,564677,0.0-13.0-3.8,7681,List2A,white,man,,,,,"{""Q0"":""Fred is being looked at by Dave""}","<img src=""stim_listA/look6.gif""style=""height:400px;""></stim_listA>",is being looked at by,,,,,,
null,"<div style=""font-size:60px;"">+</div>",,html-keyboard-response,86,565178,0.0-13.0-0.9,7681,List2A,white,man,,,,null,,,,,,,,,
null,"<img src=""stim_listA/seduce6.gif""style=""height:400px;""></stim_listA>",,html-keyboard-response,87,567180,0.0-13.0-1.9,7681,List2A,white,man,,,,null,,,,,,,,,
null,is being seduced by,,html-keyboard-response,88,569181,0.0-13.0-2.9,7681,List2A,white,man,,,,null,,,,,,,,,
33729.8,,,survey-text,89,602915,0.0-13.0-3.9,7681,List2A,white,man,,,,,"{""Q0"":""Dave is being seduced by Fred""}","<img src=""stim_listA/seduce6.gif""style=""height:400px;""></stim_listA>",is being seduced by,,,,,,
null,"<div style=""font-size:60px;"">+</div>",,html-keyboard-response,90,603416,0.0-13.0-0.10,7681,List2A,white,man,,,,null,,,,,,,,,
null,"<img src=""stim_listA/oppose2.gif""style=""height:400px;""></stim_listA>",,html-keyboard-response,91,605418,0.0-13.0-1.10,7681,List2A,white,man,,,,null,,,,,,,,,
null,is being opposed by,,html-keyboard-response,92,607420,0.0-13.0-2.10,7681,List2A,white,man,,,,null,,,,,,,,,
23950.3,,,survey-text,93,631374,0.0-13.0-3.10,7681,List2A,white,man,,,,,"{""Q0"":""Ruby is being challenged by Luke""}","<img src=""stim_listA/oppose2.gif""style=""height:400px;""></stim_listA>",is being opposed by,,,,,,
null,"<div style=""font-size:60px;"">+</div>",,html-keyboard-response,94,631875,0.0-13.0-0.11,7681,List2A,white,man,,,,null,,,,,,,,,
null,"<img src=""stim_listA/seduce4.gif""style=""height:400px;""></stim_listA>",,html-keyboard-response,95,633877,0.0-13.0-1.11,7681,List2A,white,man,,,,null,,,,,,,,,
null,is being seduced by,,html-keyboard-response,96,635879,0.0-13.0-2.11,7681,List2A,white,man,,,,null,,,,,,,,,
15535.5,,,survey-text,97,651418,0.0-13.0-3.11,7681,List2A,white,man,,,,,"{""Q0"":""Mike is being seduced by Beth""}","<img src=""stim_listA/seduce4.gif""style=""height:400px;""></stim_listA>",is being seduced by,,,,,,
null,"<div style=""font-size:60px;"">+</div>",,html-keyboard-response,98,651920,0.0-13.0-0.12,7681,List2A,white,man,,,,null,,,,,,,,,
null,"<img src=""stim_listA/hug4.gif""style=""height:400px;""></stim_listA>",,html-keyboard-response,99,653923,0.0-13.0-1.12,7681,List2A,white,man,,,,null,,,,,,,,,
null,is being hugged by,,html-keyboard-response,100,655924,0.0-13.0-2.12,7681,List2A,white,man,,,,null,,,,,,,,,
16168.6,,,survey-text,101,672096,0.0-13.0-3.12,7681,List2A,white,man,,,,,"{""Q0"":""Mike is being hugged by Kate""}","<img src=""stim_listA/hug4.gif""style=""height:400px;""></stim_listA>",is being hugged by,,,,,,
null,"<div style=""font-size:60px;"">+</div>",,html-keyboard-response,102,672598,0.0-13.0-0.13,7681,List2A,white,man,,,,null,,,,,,,,,
null,"<img src=""stim_listA/look3.gif""style=""height:400px;""></stim_listA>",,html-keyboard-response,103,674600,0.0-13.0-1.13,7681,List2A,white,man,,,,null,,,,,,,,,
null,is looking at,,html-keyboard-response,104,676603,0.0-13.0-2.13,7681,List2A,white,man,,,,null,,,,,,,,,
11239.5,,,survey-text,105,687846,0.0-13.0-3.13,7681,List2A,white,man,,,,,"{""Q0"":""Kate is looking at Fred""}","<img src=""stim_listA/look3.gif""style=""height:400px;""></stim_listA>",is looking at,,,,,,
null,"<div style=""font-size:60px;"">+</div>",,html-keyboard-response,106,688348,0.0-13.0-0.14,7681,List2A,white,man,,,,null,,,,,,,,,
null,"<img src=""stim_listA/shout5.gif""style=""height:400px;""></stim_listA>",,html-keyboard-response,107,690354,0.0-13.0-1.14,7681,List2A,white,man,,,,null,,,,,,,,,
null,is shouting at,,html-keyboard-response,108,692356,0.0-13.0-2.14,7681,List2A,white,man,,,,null,,,,,,,,,
15222.4,,,survey-text,109,707582,0.0-13.0-3.14,7681,List2A,white,man,,,,,"{""Q0"":""Fred is shouting at Luke""}","<img src=""stim_listA/shout5.gif""style=""height:400px;""></stim_listA>",is shouting at,,,,,,
null,"<div style=""font-size:60px;"">+</div>",,html-keyboard-response,110,708086,0.0-13.0-0.15,7681,List2A,white,man,,,,null,,,,,,,,,
null,"<img src=""stim_listA/copy8.gif""style=""height:400px;""></stim_listA>",,html-keyboard-response,111,710090,0.0-13.0-1.15,7681,List2A,white,man,,,,null,,,,,,,,,
null,is being copied by,,html-keyboard-response,112,712092,0.0-13.0-2.15,7681,List2A,white,man,,,,null,,,,,,,,,
17367.2,,,survey-text,113,729462,0.0-13.0-3.15,7681,List2A,white,man,,,,,"{""Q0"":""Jane is being copied by Kate""}","<img src=""stim_listA/copy8.gif""style=""height:400px;""></stim_listA>",is being copied by,,,,,,
null,"<div style=""font-size:60px;"">+</div>",,html-keyboard-response,114,729964,0.0-13.0-0.16,7681,List2A,white,man,,,,null,,,,,,,,,
null,"<img src=""stim_listA/kiss3.gif""style=""height:400px;""></stim_listA>",,html-keyboard-response,115,731971,0.0-13.0-1.16,7681,List2A,white,man,,,,null,,,,,,,,,
null,is kissing,,html-keyboard-response,116,733975,0.0-13.0-2.16,7681,List2A,white,man,,,,null,,,,,,,,,
16624.5,,,survey-text,117,750603,0.0-13.0-3.16,7681,List2A,white,man,,,,,"{""Q0"":""Fred is kissing Kate""}","<img src=""stim_listA/kiss3.gif""style=""height:400px;""></stim_listA>",is kissing,,,,,,
null,"<div style=""font-size:60px;"">+</div>",,html-keyboard-response,118,751105,0.0-13.0-0.17,7681,List2A,white,man,,,,null,,,,,,,,,
null,"<img src=""stim_listA/hug1.gif""style=""height:400px;""></stim_listA>",,html-keyboard-response,119,753111,0.0-13.0-1.17,7681,List2A,white,man,,,,null,,,,,,,,,
null,is hugging,,html-keyboard-response,120,755116,0.0-13.0-2.17,7681,List2A,white,man,,,,null,,,,,,,,,
19874.9,,,survey-text,121,774995,0.0-13.0-3.17,7681,List2A,white,man,,,,,"{""Q0"":""Ruby is hugging Luke""}","<img src=""stim_listA/hug1.gif""style=""height:400px;""></stim_listA>",is hugging,,,,,,
null,"<div style=""font-size:60px;"">+</div>",,html-keyboard-response,122,775497,0.0-13.0-0.18,7681,List2A,white,man,,,,null,,,,,,,,,
null,"<img src=""stim_listA/challenge2.gif""style=""height:400px;""></stim_listA>",,html-keyboard-response,123,777499,0.0-13.0-1.18,7681,List2A,white,man,,,,null,,,,,,,,,
null,is being challenged by,,html-keyboard-response,124,779501,0.0-13.0-2.18,7681,List2A,white,man,,,,null,,,,,,,,,
18231.4,,,survey-text,125,797736,0.0-13.0-3.18,7681,List2A,white,man,,,,,"{""Q0"":""Jane is being challenged by Dave""}","<img src=""stim_listA/challenge2.gif""style=""height:400px;""></stim_listA>",is being challenged by,,,,,,
null,"<div style=""font-size:60px;"">+</div>",,html-keyboard-response,126,798237,0.0-13.0-0.19,7681,List2A,white,man,,,,null,,,,,,,,,
null,"<img src=""stim_listA/copy3.gif""style=""height:400px;""></stim_listA>",,html-keyboard-response,127,800239,0.0-13.0-1.19,7681,List2A,white,man,,,,null,,,,,,,,,
null,is copying,,html-keyboard-response,128,802241,0.0-13.0-2.19,7681,List2A,white,man,,,,null,,,,,,,,,
36922.8,,,survey-text,129,839167,0.0-13.0-3.19,7681,List2A,white,man,,,,,"{""Q0"":""Beth is copying Mike""}","<img src=""stim_listA/copy3.gif""style=""height:400px;""></stim_listA>",is copying,,,,,,
35020.1,"<img src='img/portrait_matrix_list2.jpg' style='width:900px;height:500px;''></img><p>If you have memorised all the portraits and names and are ready to start, press Continue.</p><p><strong>Please note: Your memory of these faces will be tested 4 times during this experiment.</strong></p>",0,html-button-response,130,874190,0.0-14.0-0.0,7681,List2A,white,man,,,,,,,,,,,,,
3769.2,"<img src=""portrait/BM1.jpg""style=""height:400px;""></img>",4,html-button-response,131,878962,0.0-14.0-1.0,7681,List2A,white,man,,TRUE,4,,,,,,,,,,
null,CORRECT,,html-keyboard-response,132,880472,0.0-14.0-2.0-0.0,7681,List2A,white,man,,,,null,,,,,,,,,
4820.6,"<img src=""portrait/BW2.jpg""style=""height:400px;""></img>",2,html-button-response,133,885294,0.0-14.0-4.0,7681,List2A,white,man,,TRUE,2,,,,,,,,,,
null,CORRECT,,html-keyboard-response,134,886805,0.0-14.0-5.0-0.0,7681,List2A,white,man,,,,null,,,,,,,,,
4212,"<img src=""portrait/WW1.jpg""style=""height:400px;""></img>",1,html-button-response,135,891019,0.0-14.0-7.0,7681,List2A,white,man,,TRUE,1,,,,,,,,,,
null,CORRECT,,html-keyboard-response,136,892528,0.0-14.0-8.0-0.0,7681,List2A,white,man,,,,null,,,,,,,,,
11182.3,"<img src=""portrait/WM1.jpg""style=""height:400px;""></img>",6,html-button-response,137,903712,0.0-14.0-10.0,7681,List2A,white,man,,TRUE,6,,,,,,,,,,
null,CORRECT,,html-keyboard-response,138,905222,0.0-14.0-11.0-0.0,7681,List2A,white,man,,,,null,,,,,,,,,
6149.1,"<img src=""portrait/BW1.jpg""style=""height:400px;""></img>",0,html-button-response,139,911373,0.0-14.0-13.0,7681,List2A,white,man,,TRUE,0,,,,,,,,,,
null,CORRECT,,html-keyboard-response,140,912882,0.0-14.0-14.0-0.0,7681,List2A,white,man,,,,null,,,,,,,,,
3021.3,"<img src=""portrait/WM2.jpg""style=""height:400px;""></img>",7,html-button-response,141,915905,0.0-14.0-16.0,7681,List2A,white,man,,TRUE,7,,,,,,,,,,
null,CORRECT,,html-keyboard-response,142,917413,0.0-14.0-17.0-0.0,7681,List2A,white,man,,,,null,,,,,,,,,
2413.9,"<img src=""portrait/WW2.jpg""style=""height:400px;""></img>",3,html-button-response,143,919828,0.0-14.0-19.0,7681,List2A,white,man,,TRUE,3,,,,,,,,,,
null,CORRECT,,html-keyboard-response,144,921339,0.0-14.0-20.0-0.0,7681,List2A,white,man,,,,null,,,,,,,,,
3043.5,"<img src=""portrait/BM2.jpg""style=""height:400px;""></img>",5,html-button-response,145,924384,0.0-14.0-22.0,7681,List2A,white,man,,TRUE,5,,,,,,,,,,
null,CORRECT,,html-keyboard-response,146,925885,0.0-14.0-23.0-0.0,7681,List2A,white,man,,,,null,,,,,,,,,
1952.1,<p>You got 8 out of 8 right first time. Press Continue.</p>,0,html-button-response,147,927839,0.0-14.0-25.0,7681,List2A,white,man,,,,,,,,,,,,,
null,"<div style=""font-size:60px;"">+</div>",,html-keyboard-response,148,929346,0.0-15.0-0.0,7681,List2A,white,man,,,,null,,,,,,,,,
null,"<img src=""stim_listA/greet8.gif""style=""height:400px;""></stim_listA>",,html-keyboard-response,149,931351,0.0-15.0-1.0,7681,List2A,white,man,,,,null,,,,,,,,,
null,is being greeted by,,html-keyboard-response,150,933353,0.0-15.0-2.0,7681,List2A,white,man,,,,null,,,,,,,,,
18079,,,survey-text,151,951435,0.0-15.0-3.0,7681,List2A,white,man,,,,,"{""Q0"":""Ruth is being greeted by Beth""}","<img src=""stim_listA/greet8.gif""style=""height:400px;""></stim_listA>",is being greeted by,,,,,,
null,"<div style=""font-size:60px;"">+</div>",,html-keyboard-response,152,951937,0.0-15.0-0.1,7681,List2A,white,man,,,,null,,,,,,,,,
null,"<img src=""stim_listA/greet4.gif""style=""height:400px;""></stim_listA>",,html-keyboard-response,153,953944,0.0-15.0-1.1,7681,List2A,white,man,,,,null,,,,,,,,,
null,is being greeted by,,html-keyboard-response,154,955947,0.0-15.0-2.1,7681,List2A,white,man,,,,null,,,,,,,,,
14595.3,,,survey-text,155,970546,0.0-15.0-3.1,7681,List2A,white,man,,,,,"{""Q0"":""Kate is being greeted by Fred""}","<img src=""stim_listA/greet4.gif""style=""height:400px;""></stim_listA>",is being greeted by,,,,,,
null,"<div style=""font-size:60px;"">+</div>",,html-keyboard-response,156,971049,0.0-15.0-0.2,7681,List2A,white,man,,,,null,,,,,,,,,
null,"<img src=""stim_listA/hug2.gif""style=""height:400px;""></stim_listA>",,html-keyboard-response,157,973054,0.0-15.0-1.2,7681,List2A,white,man,,,,null,,,,,,,,,
null,is being hugged by,,html-keyboard-response,158,975060,0.0-15.0-2.2,7681,List2A,white,man,,,,null,,,,,,,,,
14223.2,,,survey-text,159,989286,0.0-15.0-3.2,7681,List2A,white,man,,,,,"{""Q0"":""Dave is being hugged by Jane""}","<img src=""stim_listA/hug2.gif""style=""height:400px;""></stim_listA>",is being hugged by,,,,,,
null,"<div style=""font-size:60px;"">+</div>",,html-keyboard-response,160,989788,0.0-15.0-0.3,7681,List2A,white,man,,,,null,,,,,,,,,
null,"<img src=""stim_listA/touch3.gif""style=""height:400px;""></stim_listA>",,html-keyboard-response,161,991791,0.0-15.0-1.3,7681,List2A,white,man,,,,null,,,,,,,,,
null,is touching,,html-keyboard-response,162,993793,0.0-15.0-2.3,7681,List2A,white,man,,,,null,,,,,,,,,
18411.9,,,survey-text,163,1012208,0.0-15.0-3.3,7681,List2A,white,man,,,,,"{""Q0"":""Kate is touching Mike""}","<img src=""stim_listA/touch3.gif""style=""height:400px;""></stim_listA>",is touching,,,,,,
null,"<div style=""font-size:60px;"">+</div>",,html-keyboard-response,164,1012711,0.0-15.0-0.4,7681,List2A,white,man,,,,null,,,,,,,,,
null,"<img src=""stim_listA/touch1.gif""style=""height:400px;""></stim_listA>",,html-keyboard-response,165,1014717,0.0-15.0-1.4,7681,List2A,white,man,,,,null,,,,,,,,,
null,is touching,,html-keyboard-response,166,1016720,0.0-15.0-2.4,7681,List2A,white,man,,,,null,,,,,,,,,
13496.5,,,survey-text,167,1030220,0.0-15.0-3.4,7681,List2A,white,man,,,,,"{""Q0"":""Jane is touching Dave""}","<img src=""stim_listA/touch1.gif""style=""height:400px;""></stim_listA>",is touching,,,,,,
null,"<div style=""font-size:60px;"">+</div>",,html-keyboard-response,168,1030722,0.0-15.0-0.5,7681,List2A,white,man,,,,null,,,,,,,,,
null,"<img src=""stim_listA/hug8.gif""style=""height:400px;""></stim_listA>",,html-keyboard-response,169,1032729,0.0-15.0-1.5,7681,List2A,white,man,,,,null,,,,,,,,,
null,is being hugged by,,html-keyboard-response,170,1034733,0.0-15.0-2.5,7681,List2A,white,man,,,,null,,,,,,,,,
16612.9,,,survey-text,171,1051349,0.0-15.0-3.5,7681,List2A,white,man,,,,,"{""Q0"":""Kate is being hugged by Jane""}","<img src=""stim_listA/hug8.gif""style=""height:400px;""></stim_listA>",is being hugged by,,,,,,
null,"<div style=""font-size:60px;"">+</div>",,html-keyboard-response,172,1051850,0.0-15.0-0.6,7681,List2A,white,man,,,,null,,,,,,,,,
null,"<img src=""stim_listA/seduce1.gif""style=""height:400px;""></stim_listA>",,html-keyboard-response,173,1053853,0.0-15.0-1.6,7681,List2A,white,man,,,,null,,,,,,,,,
null,is seducing,,html-keyboard-response,174,1055855,0.0-15.0-2.6,7681,List2A,white,man,,,,null,,,,,,,,,
16844.2,,,survey-text,175,1072702,0.0-15.0-3.6,7681,List2A,white,man,,,,,"{""Q0"":""Jane is seducing luke""}","<img src=""stim_listA/seduce1.gif""style=""height:400px;""></stim_listA>",is seducing,,,,,,
null,"<div style=""font-size:60px;"">+</div>",,html-keyboard-response,176,1073203,0.0-15.0-0.7,7681,List2A,white,man,,,,null,,,,,,,,,
null,"<img src=""stim_listA/copy7.gif""style=""height:400px;""></stim_listA>",,html-keyboard-response,177,1075209,0.0-15.0-1.7,7681,List2A,white,man,,,,null,,,,,,,,,
null,is copying,,html-keyboard-response,178,1077215,0.0-15.0-2.7,7681,List2A,white,man,,,,null,,,,,,,,,
22941.9,,,survey-text,179,1100160,0.0-15.0-3.7,7681,List2A,white,man,,,,,"{""Q0"":""Jane is copying Beth""}","<img src=""stim_listA/copy7.gif""style=""height:400px;""></stim_listA>",is copying,,,,,,
null,"<div style=""font-size:60px;"">+</div>",,html-keyboard-response,180,1100663,0.0-15.0-0.8,7681,List2A,white,man,,,,null,,,,,,,,,
null,"<img src=""stim_listA/greet6.gif""style=""height:400px;""></stim_listA>",,html-keyboard-response,181,1102669,0.0-15.0-1.8,7681,List2A,white,man,,,,null,,,,,,,,,
null,is being greeted by,,html-keyboard-response,182,1104672,0.0-15.0-2.8,7681,List2A,white,man,,,,null,,,,,,,,,
18709.1,,,survey-text,183,1123385,0.0-15.0-3.8,7681,List2A,white,man,,,,,"{""Q0"":""Mike is being greeted by Luke""}","<img src=""stim_listA/greet6.gif""style=""height:400px;""></stim_listA>",is being greeted by,,,,,,
null,"<div style=""font-size:60px;"">+</div>",,html-keyboard-response,184,1123886,0.0-15.0-0.9,7681,List2A,white,man,,,,null,,,,,,,,,
null,"<img src=""stim_listA/seduce3.gif""style=""height:400px;""></stim_listA>",,html-keyboard-response,185,1125891,0.0-15.0-1.9,7681,List2A,white,man,,,,null,,,,,,,,,
null,is seducing,,html-keyboard-response,186,1127892,0.0-15.0-2.9,7681,List2A,white,man,,,,null,,,,,,,,,
25018,,,survey-text,187,1152968,0.0-15.0-3.9,7681,List2A,white,man,,,,,"{""Q0"":""Kate is seducing Fred""}","<img src=""stim_listA/seduce3.gif""style=""height:400px;""></stim_listA>",is seducing,,,,,,
null,"<div style=""font-size:60px;"">+</div>",,html-keyboard-response,188,1153469,0.0-15.0-0.10,7681,List2A,white,man,,,,null,,,,,,,,,
null,"<img src=""stim_listA/shout1.gif""style=""height:400px;""></stim_listA>",,html-keyboard-response,189,1155471,0.0-15.0-1.10,7681,List2A,white,man,,,,null,,,,,,,,,
null,is shouting at,,html-keyboard-response,190,1157476,0.0-15.0-2.10,7681,List2A,white,man,,,,null,,,,,,,,,
12061.2,,,survey-text,191,1169541,0.0-15.0-3.10,7681,List2A,white,man,,,,,"{""Q0"":""Ruth is shouting at Luke""}","<img src=""stim_listA/shout1.gif""style=""height:400px;""></stim_listA>",is shouting at,,,,,,
null,"<div style=""font-size:60px;"">+</div>",,html-keyboard-response,192,1170043,0.0-15.0-0.11,7681,List2A,white,man,,,,null,,,,,,,,,
null,"<img src=""stim_listA/look8.gif""style=""height:400px;""></stim_listA>",,html-keyboard-response,193,1172048,0.0-15.0-1.11,7681,List2A,white,man,,,,null,,,,,,,,,
null,is being looked at by,,html-keyboard-response,194,1174050,0.0-15.0-2.11,7681,List2A,white,man,,,,null,,,,,,,,,
17564.9,,,survey-text,195,1191619,0.0-15.0-3.11,7681,List2A,white,man,,,,,"{""Q0"":""Kate is being looked at by Jane""}","<img src=""stim_listA/look8.gif""style=""height:400px;""></stim_listA>",is being looked at by,,,,,,
null,"<div style=""font-size:60px;"">+</div>",,html-keyboard-response,196,1192121,0.0-15.0-0.12,7681,List2A,white,man,,,,null,,,,,,,,,
null,"<img src=""stim_listA/shout3.gif""style=""height:400px;""></stim_listA>",,html-keyboard-response,197,1194125,0.0-15.0-1.12,7681,List2A,white,man,,,,null,,,,,,,,,
null,is shouting at,,html-keyboard-response,198,1196127,0.0-15.0-2.12,7681,List2A,white,man,,,,null,,,,,,,,,
13054.8,,,survey-text,199,1209185,0.0-15.0-3.12,7681,List2A,white,man,,,,,"{""Q0"":""Kate is shouting at Fred""}","<img src=""stim_listA/shout3.gif""style=""height:400px;""></stim_listA>",is shouting at,,,,,,
null,"<div style=""font-size:60px;"">+</div>",,html-keyboard-response,200,1209686,0.0-15.0-0.13,7681,List2A,white,man,,,,null,,,,,,,,,
null,"<img src=""stim_listA/oppose8.gif""style=""height:400px;""></stim_listA>",,html-keyboard-response,201,1211693,0.0-15.0-1.13,7681,List2A,white,man,,,,null,,,,,,,,,
null,is being opposed by,,html-keyboard-response,202,1213694,0.0-15.0-2.13,7681,List2A,white,man,,,,null,,,,,,,,,
16979.5,,,survey-text,203,1230677,0.0-15.0-3.13,7681,List2A,white,man,,,,,"{""Q0"":""Ruth is opposed by Beth""}","<img src=""stim_listA/oppose8.gif""style=""height:400px;""></stim_listA>",is being opposed by,,,,,,
null,"<div style=""font-size:60px;"">+</div>",,html-keyboard-response,204,1231181,0.0-15.0-0.14,7681,List2A,white,man,,,,null,,,,,,,,,
null,"<img src=""stim_listA/greet7.gif""style=""height:400px;""></stim_listA>",,html-keyboard-response,205,1233187,0.0-15.0-1.14,7681,List2A,white,man,,,,null,,,,,,,,,
null,is greeting,,html-keyboard-response,206,1235192,0.0-15.0-2.14,7681,List2A,white,man,,,,null,,,,,,,,,
12105.4,,,survey-text,207,1247302,0.0-15.0-3.14,7681,List2A,white,man,,,,,"{""Q0"":""Kate is greeting Jane""}","<img src=""stim_listA/greet7.gif""style=""height:400px;""></stim_listA>",is greeting,,,,,,
null,"<div style=""font-size:60px;"">+</div>",,html-keyboard-response,208,1247804,0.0-15.0-0.15,7681,List2A,white,man,,,,null,,,,,,,,,
null,"<img src=""stim_listA/oppose4.gif""style=""height:400px;""></stim_listA>",,html-keyboard-response,209,1249810,0.0-15.0-1.15,7681,List2A,white,man,,,,null,,,,,,,,,
null,is being opposed by,,html-keyboard-response,210,1251815,0.0-15.0-2.15,7681,List2A,white,man,,,,null,,,,,,,,,
15315.1,,,survey-text,211,1267134,0.0-15.0-3.15,7681,List2A,white,man,,,,,"{""Q0"":""Fred is being opposed by Beth""}","<img src=""stim_listA/oppose4.gif""style=""height:400px;""></stim_listA>",is being opposed by,,,,,,
null,"<div style=""font-size:60px;"">+</div>",,html-keyboard-response,212,1267636,0.0-15.0-0.16,7681,List2A,white,man,,,,null,,,,,,,,,
null,"<img src=""stim_listA/look7.gif""style=""height:400px;""></stim_listA>",,html-keyboard-response,213,1269641,0.0-15.0-1.16,7681,List2A,white,man,,,,null,,,,,,,,,
null,is looking at,,html-keyboard-response,214,1271646,0.0-15.0-2.16,7681,List2A,white,man,,,,null,,,,,,,,,
9939.9,,,survey-text,215,1281589,0.0-15.0-3.16,7681,List2A,white,man,,,,,"{""Q0"":""Beth is facing Ruth""}","<img src=""stim_listA/look7.gif""style=""height:400px;""></stim_listA>",is looking at,,,,,,
null,"<div style=""font-size:60px;"">+</div>",,html-keyboard-response,216,1282091,0.0-15.0-0.17,7681,List2A,white,man,,,,null,,,,,,,,,
null,"<img src=""stim_listA/look4.gif""style=""height:400px;""></stim_listA>",,html-keyboard-response,217,1284093,0.0-15.0-1.17,7681,List2A,white,man,,,,null,,,,,,,,,
null,is being looked at by,,html-keyboard-response,218,1286095,0.0-15.0-2.17,7681,List2A,white,man,,,,null,,,,,,,,,
14089.1,,,survey-text,219,1300188,0.0-15.0-3.17,7681,List2A,white,man,,,,,"{""Q0"":""Mike is being looked at by Kate""}","<img src=""stim_listA/look4.gif""style=""height:400px;""></stim_listA>",is being looked at by,,,,,,
null,"<div style=""font-size:60px;"">+</div>",,html-keyboard-response,220,1300689,0.0-15.0-0.18,7681,List2A,white,man,,,,null,,,,,,,,,
null,"<img src=""stim_listA/shout6.gif""style=""height:400px;""></stim_listA>",,html-keyboard-response,221,1302691,0.0-15.0-1.18,7681,List2A,white,man,,,,null,,,,,,,,,
null,is being shouted at by,,html-keyboard-response,222,1304691,0.0-15.0-2.18,7681,List2A,white,man,,,,null,,,,,,,,,
17495.4,,,survey-text,223,1322191,0.0-15.0-3.18,7681,List2A,white,man,,,,,"{""Q0"":""Mike is being shouted at by Dave""}","<img src=""stim_listA/shout6.gif""style=""height:400px;""></stim_listA>",is being shouted at by,,,,,,
null,"<div style=""font-size:60px;"">+</div>",,html-keyboard-response,224,1322692,0.0-15.0-0.19,7681,List2A,white,man,,,,null,,,,,,,,,
null,"<img src=""stim_listA/seduce2.gif""style=""height:400px;""></stim_listA>",,html-keyboard-response,225,1324694,0.0-15.0-1.19,7681,List2A,white,man,,,,null,,,,,,,,,
null,is being seduced by,,html-keyboard-response,226,1326695,0.0-15.0-2.19,7681,List2A,white,man,,,,null,,,,,,,,,
13677,,,survey-text,227,1340375,0.0-15.0-3.19,7681,List2A,white,man,,,,,"{""Q0"":""Dave is being seduced by Ruth""}","<img src=""stim_listA/seduce2.gif""style=""height:400px;""></stim_listA>",is being seduced by,,,,,,
20653.6,"<img src='img/portrait_matrix_list2.jpg' style='width:900px;height:500px;''></img><p>If you have memorised all the portraits and names and are ready to start, press Continue.</p><p><strong>Please note: Your memory of these faces will be tested 4 times during this experiment.</strong></p>",0,html-button-response,228,1361031,0.0-16.0-0.0,7681,List2A,white,man,,,,,,,,,,,,,
3676.2,"<img src=""portrait/WW2.jpg""style=""height:400px;""></img>",3,html-button-response,229,1365714,0.0-16.0-1.0,7681,List2A,white,man,,TRUE,3,,,,,,,,,,
null,CORRECT,,html-keyboard-response,230,1367221,0.0-16.0-2.0-0.0,7681,List2A,white,man,,,,null,,,,,,,,,
3838.8,"<img src=""portrait/WM1.jpg""style=""height:400px;""></img>",6,html-button-response,231,1371061,0.0-16.0-4.0,7681,List2A,white,man,,TRUE,6,,,,,,,,,,
null,CORRECT,,html-keyboard-response,232,1372564,0.0-16.0-5.0-0.0,7681,List2A,white,man,,,,null,,,,,,,,,
4412.3,"<img src=""portrait/BW1.jpg""style=""height:400px;""></img>",0,html-button-response,233,1376979,0.0-16.0-7.0,7681,List2A,white,man,,TRUE,0,,,,,,,,,,
null,CORRECT,,html-keyboard-response,234,1378488,0.0-16.0-8.0-0.0,7681,List2A,white,man,,,,null,,,,,,,,,
2586.9,"<img src=""portrait/BW2.jpg""style=""height:400px;""></img>",2,html-button-response,235,1381076,0.0-16.0-10.0,7681,List2A,white,man,,TRUE,2,,,,,,,,,,
null,CORRECT,,html-keyboard-response,236,1382586,0.0-16.0-11.0-0.0,7681,List2A,white,man,,,,null,,,,,,,,,
2779.8,"<img src=""portrait/WM2.jpg""style=""height:400px;""></img>",7,html-button-response,237,1385368,0.0-16.0-13.0,7681,List2A,white,man,,TRUE,7,,,,,,,,,,
null,CORRECT,,html-keyboard-response,238,1386871,0.0-16.0-14.0-0.0,7681,List2A,white,man,,,,null,,,,,,,,,
4608.7,"<img src=""portrait/WW1.jpg""style=""height:400px;""></img>",1,html-button-response,239,1391481,0.0-16.0-16.0,7681,List2A,white,man,,TRUE,1,,,,,,,,,,
null,CORRECT,,html-keyboard-response,240,1392991,0.0-16.0-17.0-0.0,7681,List2A,white,man,,,,null,,,,,,,,,
2931.7,"<img src=""portrait/BM2.jpg""style=""height:400px;""></img>",5,html-button-response,241,1395925,0.0-16.0-19.0,7681,List2A,white,man,,TRUE,5,,,,,,,,,,
null,CORRECT,,html-keyboard-response,242,1397429,0.0-16.0-20.0-0.0,7681,List2A,white,man,,,,null,,,,,,,,,
2184.1,"<img src=""portrait/BM1.jpg""style=""height:400px;""></img>",4,html-button-response,243,1399616,0.0-16.0-22.0,7681,List2A,white,man,,TRUE,4,,,,,,,,,,
null,CORRECT,,html-keyboard-response,244,1401126,0.0-16.0-23.0-0.0,7681,List2A,white,man,,,,null,,,,,,,,,
1761.7,<p>You got 8 out of 8 right first time. Press Continue.</p>,0,html-button-response,245,1402889,0.0-16.0-25.0,7681,List2A,white,man,,,,,,,,,,,,,
null,"<div style=""font-size:60px;"">+</div>",,html-keyboard-response,246,1404397,0.0-17.0-0.0,7681,List2A,white,man,,,,null,,,,,,,,,
null,"<img src=""stim_listA/greet2.gif""style=""height:400px;""></stim_listA>",,html-keyboard-response,247,1406400,0.0-17.0-1.0,7681,List2A,white,man,,,,null,,,,,,,,,
null,is being greeted by,,html-keyboard-response,248,1408402,0.0-17.0-2.0,7681,List2A,white,man,,,,null,,,,,,,,,
23443.8,,,survey-text,249,1431851,0.0-17.0-3.0,7681,List2A,white,man,,,,,"{""Q0"":""Jane is being greeted by Luke""}","<img src=""stim_listA/greet2.gif""style=""height:400px;""></stim_listA>",is being greeted by,,,,,,
null,"<div style=""font-size:60px;"">+</div>",,html-keyboard-response,250,1432353,0.0-17.0-0.1,7681,List2A,white,man,,,,null,,,,,,,,,
null,"<img src=""stim_listA/shout7.gif""style=""height:400px;""></stim_listA>",,html-keyboard-response,251,1434355,0.0-17.0-1.1,7681,List2A,white,man,,,,null,,,,,,,,,
null,is shouting at,,html-keyboard-response,252,1436358,0.0-17.0-2.1,7681,List2A,white,man,,,,null,,,,,,,,,
16335.7,,,survey-text,253,1452698,0.0-17.0-3.1,7681,List2A,white,man,,,,,"{""Q0"":""Beth is shouting at Ruby""}","<img src=""stim_listA/shout7.gif""style=""height:400px;""></stim_listA>",is shouting at,,,,,,
null,"<div style=""font-size:60px;"">+</div>",,html-keyboard-response,254,1453200,0.0-17.0-0.2,7681,List2A,white,man,,,,null,,,,,,,,,
null,"<img src=""stim_listA/kiss6.gif""style=""height:400px;""></stim_listA>",,html-keyboard-response,255,1455206,0.0-17.0-1.2,7681,List2A,white,man,,,,null,,,,,,,,,
null,is being kissed by,,html-keyboard-response,256,1457208,0.0-17.0-2.2,7681,List2A,white,man,,,,null,,,,,,,,,
13213.4,,,survey-text,257,1470425,0.0-17.0-3.2,7681,List2A,white,man,,,,,"{""Q0"":""Mike is being kissed by Dave""}","<img src=""stim_listA/kiss6.gif""style=""height:400px;""></stim_listA>",is being kissed by,,,,,,
null,"<div style=""font-size:60px;"">+</div>",,html-keyboard-response,258,1470926,0.0-17.0-0.3,7681,List2A,white,man,,,,null,,,,,,,,,
null,"<img src=""stim_listA/shout8.gif""style=""height:400px;""></stim_listA>",,html-keyboard-response,259,1472930,0.0-17.0-1.3,7681,List2A,white,man,,,,null,,,,,,,,,
null,is being shouted at by,,html-keyboard-response,260,1474933,0.0-17.0-2.3,7681,List2A,white,man,,,,null,,,,,,,,,
15460.6,,,survey-text,261,1490398,0.0-17.0-3.3,7681,List2A,white,man,,,,,"{""Q0"":""Kate is being shouted at by Jane""}","<img src=""stim_listA/shout8.gif""style=""height:400px;""></stim_listA>",is being shouted at by,,,,,,
null,"<div style=""font-size:60px;"">+</div>",,html-keyboard-response,262,1490900,0.0-17.0-0.4,7681,List2A,white,man,,,,null,,,,,,,,,
null,"<img src=""stim_listA/look5.gif""style=""height:400px;""></stim_listA>",,html-keyboard-response,263,1492905,0.0-17.0-1.4,7681,List2A,white,man,,,,null,,,,,,,,,
null,is looking at,,html-keyboard-response,264,1494905,0.0-17.0-2.4,7681,List2A,white,man,,,,null,,,,,,,,,
16155.6,,,survey-text,265,1511064,0.0-17.0-3.4,7681,List2A,white,man,,,,,"{""Q0"":""Fred is looking at Luke""}","<img src=""stim_listA/look5.gif""style=""height:400px;""></stim_listA>",is looking at,,,,,,
null,"<div style=""font-size:60px;"">+</div>",,html-keyboard-response,266,1511565,0.0-17.0-0.5,7681,List2A,white,man,,,,null,,,,,,,,,
null,"<img src=""stim_listA/challenge4.gif""style=""height:400px;""></stim_listA>",,html-keyboard-response,267,1513568,0.0-17.0-1.5,7681,List2A,white,man,,,,null,,,,,,,,,
null,is being challenged by,,html-keyboard-response,268,1515569,0.0-17.0-2.5,7681,List2A,white,man,,,,null,,,,,,,,,
14180.4,,,survey-text,269,1529752,0.0-17.0-3.5,7681,List2A,white,man,,,,,"{""Q0"":""Fred is being challenged by Kate""}","<img src=""stim_listA/challenge4.gif""style=""height:400px;""></stim_listA>",is being challenged by,,,,,,
null,"<div style=""font-size:60px;"">+</div>",,html-keyboard-response,270,1530253,0.0-17.0-0.6,7681,List2A,white,man,,,,null,,,,,,,,,
null,"<img src=""stim_listA/look2.gif""style=""height:400px;""></stim_listA>",,html-keyboard-response,271,1532260,0.0-17.0-1.6,7681,List2A,white,man,,,,null,,,,,,,,,
null,is being looked at by,,html-keyboard-response,272,1534261,0.0-17.0-2.6,7681,List2A,white,man,,,,null,,,,,,,,,
17923.2,,,survey-text,273,1552187,0.0-17.0-3.6,7681,List2A,white,man,,,,,"{""Q0"":""Jane is being looked at by Dave""}","<img src=""stim_listA/look2.gif""style=""height:400px;""></stim_listA>",is being looked at by,,,,,,
null,"<div style=""font-size:60px;"">+</div>",,html-keyboard-response,274,1552689,0.0-17.0-0.7,7681,List2A,white,man,,,,null,,,,,,,,,
null,"<img src=""stim_listA/touch5.gif""style=""height:400px;""></stim_listA>",,html-keyboard-response,275,1554691,0.0-17.0-1.7,7681,List2A,white,man,,,,null,,,,,,,,,
null,is touching,,html-keyboard-response,276,1556692,0.0-17.0-2.7,7681,List2A,white,man,,,,null,,,,,,,,,
14237.5,,,survey-text,277,1570933,0.0-17.0-3.7,7681,List2A,white,man,,,,,"{""Q0"":""Mike is touching Dave""}","<img src=""stim_listA/touch5.gif""style=""height:400px;""></stim_listA>",is touching,,,,,,
null,"<div style=""font-size:60px;"">+</div>",,html-keyboard-response,278,1571434,0.0-17.0-0.8,7681,List2A,white,man,,,,null,,,,,,,,,
null,"<img src=""stim_listA/seduce7.gif""style=""height:400px;""></stim_listA>",,html-keyboard-response,279,1573436,0.0-17.0-1.8,7681,List2A,white,man,,,,null,,,,,,,,,
null,is seducing,,html-keyboard-response,280,1575441,0.0-17.0-2.8,7681,List2A,white,man,,,,null,,,,,,,,,
17945.9,,,survey-text,281,1593391,0.0-17.0-3.8,7681,List2A,white,man,,,,,"{""Q0"":""Kate is seducing Ruth""}","<img src=""stim_listA/seduce7.gif""style=""height:400px;""></stim_listA>",is seducing,,,,,,
null,"<div style=""font-size:60px;"">+</div>",,html-keyboard-response,282,1593893,0.0-17.0-0.9,7681,List2A,white,man,,,,null,,,,,,,,,
null,"<img src=""stim_listA/hug6.gif""style=""height:400px;""></stim_listA>",,html-keyboard-response,283,1595900,0.0-17.0-1.9,7681,List2A,white,man,,,,null,,,,,,,,,
null,is being hugged by,,html-keyboard-response,284,1597903,0.0-17.0-2.9,7681,List2A,white,man,,,,null,,,,,,,,,
13293.4,,,survey-text,285,1611199,0.0-17.0-3.9,7681,List2A,white,man,,,,,"{""Q0"":""Dave is being hugged by Mike""}","<img src=""stim_listA/hug6.gif""style=""height:400px;""></stim_listA>",is being hugged by,,,,,,
null,"<div style=""font-size:60px;"">+</div>",,html-keyboard-response,286,1611701,0.0-17.0-0.10,7681,List2A,white,man,,,,null,,,,,,,,,
null,"<img src=""stim_listA/challenge1.gif""style=""height:400px;""></stim_listA>",,html-keyboard-response,287,1613708,0.0-17.0-1.10,7681,List2A,white,man,,,,null,,,,,,,,,
null,is challenging,,html-keyboard-response,288,1615712,0.0-17.0-2.10,7681,List2A,white,man,,,,null,,,,,,,,,
20443.3,,,survey-text,289,1636160,0.0-17.0-3.10,7681,List2A,white,man,,,,,"{""Q0"":""Dave is challenging Ruth""}","<img src=""stim_listA/challenge1.gif""style=""height:400px;""></stim_listA>",is challenging,,,,,,
null,"<div style=""font-size:60px;"">+</div>",,html-keyboard-response,290,1636662,0.0-17.0-0.11,7681,List2A,white,man,,,,null,,,,,,,,,
null,"<img src=""stim_listA/touch7.gif""style=""height:400px;""></stim_listA>",,html-keyboard-response,291,1638668,0.0-17.0-1.11,7681,List2A,white,man,,,,null,,,,,,,,,
null,is touching,,html-keyboard-response,292,1640670,0.0-17.0-2.11,7681,List2A,white,man,,,,null,,,,,,,,,
19185.3,,,survey-text,293,1659859,0.0-17.0-3.11,7681,List2A,white,man,,,,,"{""Q0"":""Kate is touching Jane""}","<img src=""stim_listA/touch7.gif""style=""height:400px;""></stim_listA>",is touching,,,,,,
null,"<div style=""font-size:60px;"">+</div>",,html-keyboard-response,294,1660361,0.0-17.0-0.12,7681,List2A,white,man,,,,null,,,,,,,,,
null,"<img src=""stim_listA/kiss4.gif""style=""height:400px;""></stim_listA>",,html-keyboard-response,295,1662363,0.0-17.0-1.12,7681,List2A,white,man,,,,null,,,,,,,,,
null,is being kissed by,,html-keyboard-response,296,1664368,0.0-17.0-2.12,7681,List2A,white,man,,,,null,,,,,,,,,
14871.3,,,survey-text,297,1679243,0.0-17.0-3.12,7681,List2A,white,man,,,,,"{""Q0"":""Kate is being kissed by Mike""}","<img src=""stim_listA/kiss4.gif""style=""height:400px;""></stim_listA>",is being kissed by,,,,,,
null,"<div style=""font-size:60px;"">+</div>",,html-keyboard-response,298,1679745,0.0-17.0-0.13,7681,List2A,white,man,,,,null,,,,,,,,,
null,"<img src=""stim_listA/greet3.gif""style=""height:400px;""></stim_listA>",,html-keyboard-response,299,1681746,0.0-17.0-1.13,7681,List2A,white,man,,,,null,,,,,,,,,
null,is greeting,,html-keyboard-response,300,1683751,0.0-17.0-2.13,7681,List2A,white,man,,,,null,,,,,,,,,
10584,,,survey-text,301,1694338,0.0-17.0-3.13,7681,List2A,white,man,,,,,"{""Q0"":""Beth is greeting Mike""}","<img src=""stim_listA/greet3.gif""style=""height:400px;""></stim_listA>",is greeting,,,,,,
null,"<div style=""font-size:60px;"">+</div>",,html-keyboard-response,302,1694841,0.0-17.0-0.14,7681,List2A,white,man,,,,null,,,,,,,,,
null,"<img src=""stim_listA/kiss8.gif""style=""height:400px;""></stim_listA>",,html-keyboard-response,303,1696845,0.0-17.0-1.14,7681,List2A,white,man,,,,null,,,,,,,,,
null,is being kissed by,,html-keyboard-response,304,1698846,0.0-17.0-2.14,7681,List2A,white,man,,,,null,,,,,,,,,
13803.2,,,survey-text,305,1712653,0.0-17.0-3.14,7681,List2A,white,man,,,,,"{""Q0"":""Kate is being kissed by Jane""}","<img src=""stim_listA/kiss8.gif""style=""height:400px;""></stim_listA>",is being kissed by,,,,,,
null,"<div style=""font-size:60px;"">+</div>",,html-keyboard-response,306,1713154,0.0-17.0-0.15,7681,List2A,white,man,,,,null,,,,,,,,,
null,"<img src=""stim_listA/shout4.gif""style=""height:400px;""></stim_listA>",,html-keyboard-response,307,1715156,0.0-17.0-1.15,7681,List2A,white,man,,,,null,,,,,,,,,
null,is being shouted at by,,html-keyboard-response,308,1717160,0.0-17.0-2.15,7681,List2A,white,man,,,,null,,,,,,,,,
14535.2,,,survey-text,309,1731699,0.0-17.0-3.15,7681,List2A,white,man,,,,,"{""Q0"":""Mike is being shouted at by Kate""}","<img src=""stim_listA/shout4.gif""style=""height:400px;""></stim_listA>",is being shouted at by,,,,,,
null,"<div style=""font-size:60px;"">+</div>",,html-keyboard-response,310,1732200,0.0-17.0-0.16,7681,List2A,white,man,,,,null,,,,,,,,,
null,"<img src=""stim_listA/oppose1.gif""style=""height:400px;""></stim_listA>",,html-keyboard-response,311,1734202,0.0-17.0-1.16,7681,List2A,white,man,,,,null,,,,,,,,,
null,is opposing,,html-keyboard-response,312,1736204,0.0-17.0-2.16,7681,List2A,white,man,,,,null,,,,,,,,,
13479.9,,,survey-text,313,1749687,0.0-17.0-3.16,7681,List2A,white,man,,,,,"{""Q0"":""Jane is opposing Dave""}","<img src=""stim_listA/oppose1.gif""style=""height:400px;""></stim_listA>",is opposing,,,,,,
null,"<div style=""font-size:60px;"">+</div>",,html-keyboard-response,314,1750190,0.0-17.0-0.17,7681,List2A,white,man,,,,null,,,,,,,,,
null,"<img src=""stim_listA/oppose3.gif""style=""height:400px;""></stim_listA>",,html-keyboard-response,315,1752196,0.0-17.0-1.17,7681,List2A,white,man,,,,null,,,,,,,,,
null,is opposing,,html-keyboard-response,316,1754198,0.0-17.0-2.17,7681,List2A,white,man,,,,null,,,,,,,,,
12469.5,,,survey-text,317,1766671,0.0-17.0-3.17,7681,List2A,white,man,,,,,"{""Q0"":""Mike is opposing Kate""}","<img src=""stim_listA/oppose3.gif""style=""height:400px;""></stim_listA>",is opposing,,,,,,
null,"<div style=""font-size:60px;"">+</div>",,html-keyboard-response,318,1767172,0.0-17.0-0.18,7681,List2A,white,man,,,,null,,,,,,,,,
null,"<img src=""stim_listA/challenge8.gif""style=""height:400px;""></stim_listA>",,html-keyboard-response,319,1769174,0.0-17.0-1.18,7681,List2A,white,man,,,,null,,,,,,,,,
null,is being challenged by,,html-keyboard-response,320,1771179,0.0-17.0-2.18,7681,List2A,white,man,,,,null,,,,,,,,,
21167.6,,,survey-text,321,1792350,0.0-17.0-3.18,7681,List2A,white,man,,,,,"{""Q0"":""Ruth is being opposed by Kate""}","<img src=""stim_listA/challenge8.gif""style=""height:400px;""></stim_listA>",is being challenged by,,,,,,
null,"<div style=""font-size:60px;"">+</div>",,html-keyboard-response,322,1792852,0.0-17.0-0.19,7681,List2A,white,man,,,,null,,,,,,,,,
null,"<img src=""stim_listA/copy4.gif""style=""height:400px;""></stim_listA>",,html-keyboard-response,323,1794854,0.0-17.0-1.19,7681,List2A,white,man,,,,null,,,,,,,,,
null,is being copied by,,html-keyboard-response,324,1796856,0.0-17.0-2.19,7681,List2A,white,man,,,,null,,,,,,,,,
11935,,,survey-text,325,1808794,0.0-17.0-3.19,7681,List2A,white,man,,,,,"{""Q0"":""Fred is being copied by Kate""}","<img src=""stim_listA/copy4.gif""style=""height:400px;""></stim_listA>",is being copied by,,,,,,
9838.7,"<img src='img/portrait_matrix_list2.jpg' style='width:900px;height:500px;''></img><p>If you have memorised all the portraits and names and are ready to start, press Continue.</p><p><strong>Please note: Your memory of these faces will be tested 4 times during this experiment.</strong></p>",0,html-button-response,326,1818635,0.0-18.0-0.0,7681,List2A,white,man,,,,,,,,,,,,,
3462.4,"<img src=""portrait/WW2.jpg""style=""height:400px;""></img>",3,html-button-response,327,1823102,0.0-18.0-1.0,7681,List2A,white,man,,TRUE,3,,,,,,,,,,
null,CORRECT,,html-keyboard-response,328,1824606,0.0-18.0-2.0-0.0,7681,List2A,white,man,,,,null,,,,,,,,,
1945.7,"<img src=""portrait/BM1.jpg""style=""height:400px;""></img>",4,html-button-response,329,1826554,0.0-18.0-4.0,7681,List2A,white,man,,TRUE,4,,,,,,,,,,
null,CORRECT,,html-keyboard-response,330,1828064,0.0-18.0-5.0-0.0,7681,List2A,white,man,,,,null,,,,,,,,,
5205.4,"<img src=""portrait/BW1.jpg""style=""height:400px;""></img>",0,html-button-response,331,1833272,0.0-18.0-7.0,7681,List2A,white,man,,TRUE,0,,,,,,,,,,
null,CORRECT,,html-keyboard-response,332,1834776,0.0-18.0-8.0-0.0,7681,List2A,white,man,,,,null,,,,,,,,,
3433.8,"<img src=""portrait/WM2.jpg""style=""height:400px;""></img>",7,html-button-response,333,1838212,0.0-18.0-10.0,7681,List2A,white,man,,TRUE,7,,,,,,,,,,
null,CORRECT,,html-keyboard-response,334,1839722,0.0-18.0-11.0-0.0,7681,List2A,white,man,,,,null,,,,,,,,,
2234.8,"<img src=""portrait/WM1.jpg""style=""height:400px;""></img>",6,html-button-response,335,1841959,0.0-18.0-13.0,7681,List2A,white,man,,TRUE,6,,,,,,,,,,
null,CORRECT,,html-keyboard-response,336,1843464,0.0-18.0-14.0-0.0,7681,List2A,white,man,,,,null,,,,,,,,,
2919.8,"<img src=""portrait/BM2.jpg""style=""height:400px;""></img>",5,html-button-response,337,1846386,0.0-18.0-16.0,7681,List2A,white,man,,TRUE,5,,,,,,,,,,
null,CORRECT,,html-keyboard-response,338,1847894,0.0-18.0-17.0-0.0,7681,List2A,white,man,,,,null,,,,,,,,,
2962.3,"<img src=""portrait/WW1.jpg""style=""height:400px;""></img>",1,html-button-response,339,1850859,0.0-18.0-19.0,7681,List2A,white,man,,TRUE,1,,,,,,,,,,
null,CORRECT,,html-keyboard-response,340,1852367,0.0-18.0-20.0-0.0,7681,List2A,white,man,,,,null,,,,,,,,,
4532.2,"<img src=""portrait/BW2.jpg""style=""height:400px;""></img>",2,html-button-response,341,1856901,0.0-18.0-22.0,7681,List2A,white,man,,TRUE,2,,,,,,,,,,
null,CORRECT,,html-keyboard-response,342,1858408,0.0-18.0-23.0-0.0,7681,List2A,white,man,,,,null,,,,,,,,,
2078.6,<p>You got 8 out of 8 right first time. Press Continue.</p>,0,html-button-response,343,1860489,0.0-18.0-25.0,7681,List2A,white,man,,,,,,,,,,,,,
null,"<div style=""font-size:60px;"">+</div>",,html-keyboard-response,344,1861992,0.0-19.0-0.0,7681,List2A,white,man,,,,null,,,,,,,,,
null,"<img src=""stim_listA/touch2.gif""style=""height:400px;""></stim_listA>",,html-keyboard-response,345,1863997,0.0-19.0-1.0,7681,List2A,white,man,,,,null,,,,,,,,,
null,is being touched by,,html-keyboard-response,346,1866000,0.0-19.0-2.0,7681,List2A,white,man,,,,null,,,,,,,,,
15996,,,survey-text,347,1882000,0.0-19.0-3.0,7681,List2A,white,man,,,,,"{""Q0"":""Ruth is being touched by Luke""}","<img src=""stim_listA/touch2.gif""style=""height:400px;""></stim_listA>",is being touched by,,,,,,
null,"<div style=""font-size:60px;"">+</div>",,html-keyboard-response,348,1882502,0.0-19.0-0.1,7681,List2A,white,man,,,,null,,,,,,,,,
null,"<img src=""stim_listA/kiss1.gif""style=""height:400px;""></stim_listA>",,html-keyboard-response,349,1884508,0.0-19.0-1.1,7681,List2A,white,man,,,,null,,,,,,,,,
null,is kissing,,html-keyboard-response,350,1886512,0.0-19.0-2.1,7681,List2A,white,man,,,,null,,,,,,,,,
10137.2,,,survey-text,351,1896652,0.0-19.0-3.1,7681,List2A,white,man,,,,,"{""Q0"":""Ruth is kissing Luke""}","<img src=""stim_listA/kiss1.gif""style=""height:400px;""></stim_listA>",is kissing,,,,,,
null,"<div style=""font-size:60px;"">+</div>",,html-keyboard-response,352,1897153,0.0-19.0-0.2,7681,List2A,white,man,,,,null,,,,,,,,,
null,"<img src=""stim_listA/copy6.gif""style=""height:400px;""></stim_listA>",,html-keyboard-response,353,1899155,0.0-19.0-1.2,7681,List2A,white,man,,,,null,,,,,,,,,
null,is being copied by,,html-keyboard-response,354,1901157,0.0-19.0-2.2,7681,List2A,white,man,,,,null,,,,,,,,,
14251.2,,,survey-text,355,1915411,0.0-19.0-3.2,7681,List2A,white,man,,,,,"{""Q0"":""Luke is being copied by Mike""}","<img src=""stim_listA/copy6.gif""style=""height:400px;""></stim_listA>",is being copied by,,,,,,
null,"<div style=""font-size:60px;"">+</div>",,html-keyboard-response,356,1915913,0.0-19.0-0.3,7681,List2A,white,man,,,,null,,,,,,,,,
null,"<img src=""stim_listA/greet1.gif""style=""height:400px;""></stim_listA>",,html-keyboard-response,357,1917918,0.0-19.0-1.3,7681,List2A,white,man,,,,null,,,,,,,,,
null,is greeting,,html-keyboard-response,358,1919919,0.0-19.0-2.3,7681,List2A,white,man,,,,null,,,,,,,,,
15496.4,,,survey-text,359,1935419,0.0-19.0-3.3,7681,List2A,white,man,,,,,"{""Q0"":""Ruth is greeting Dave""}","<img src=""stim_listA/greet1.gif""style=""height:400px;""></stim_listA>",is greeting,,,,,,
null,"<div style=""font-size:60px;"">+</div>",,html-keyboard-response,360,1935920,0.0-19.0-0.4,7681,List2A,white,man,,,,null,,,,,,,,,
null,"<img src=""stim_listA/challenge7.gif""style=""height:400px;""></stim_listA>",,html-keyboard-response,361,1937927,0.0-19.0-1.4,7681,List2A,white,man,,,,null,,,,,,,,,
null,is challenging,,html-keyboard-response,362,1939929,0.0-19.0-2.4,7681,List2A,white,man,,,,null,,,,,,,,,
13200.2,,,survey-text,363,1953134,0.0-19.0-3.4,7681,List2A,white,man,,,,,"{""Q0"":""Jane is challenging Beth""}","<img src=""stim_listA/challenge7.gif""style=""height:400px;""></stim_listA>",is challenging,,,,,,
null,"<div style=""font-size:60px;"">+</div>",,html-keyboard-response,364,1953636,0.0-19.0-0.5,7681,List2A,white,man,,,,null,,,,,,,,,
null,"<img src=""stim_listA/oppose6.gif""style=""height:400px;""></stim_listA>",,html-keyboard-response,365,1955642,0.0-19.0-1.5,7681,List2A,white,man,,,,null,,,,,,,,,
null,is being opposed by,,html-keyboard-response,366,1957643,0.0-19.0-2.5,7681,List2A,white,man,,,,null,,,,,,,,,
21330.7,,,survey-text,367,1978978,0.0-19.0-3.5,7681,List2A,white,man,,,,,"{""Q0"":""Luke is being challenged by Fred""}","<img src=""stim_listA/oppose6.gif""style=""height:400px;""></stim_listA>",is being opposed by,,,,,,
null,"<div style=""font-size:60px;"">+</div>",,html-keyboard-response,368,1979480,0.0-19.0-0.6,7681,List2A,white,man,,,,null,,,,,,,,,
null,"<img src=""stim_listA/look1.gif""style=""height:400px;""></stim_listA>",,html-keyboard-response,369,1981487,0.0-19.0-1.6,7681,List2A,white,man,,,,null,,,,,,,,,
null,is looking at,,html-keyboard-response,370,1983488,0.0-19.0-2.6,7681,List2A,white,man,,,,null,,,,,,,,,
12646.1,,,survey-text,371,1996138,0.0-19.0-3.6,7681,List2A,white,man,,,,,"{""Q0"":""Ruth is looking at Luke""}","<img src=""stim_listA/look1.gif""style=""height:400px;""></stim_listA>",is looking at,,,,,,
null,"<div style=""font-size:60px;"">+</div>",,html-keyboard-response,372,1996640,0.0-19.0-0.7,7681,List2A,white,man,,,,null,,,,,,,,,
null,"<img src=""stim_listA/kiss2.gif""style=""height:400px;""></stim_listA>",,html-keyboard-response,373,1998646,0.0-19.0-1.7,7681,List2A,white,man,,,,null,,,,,,,,,
null,is being kissed by,,html-keyboard-response,374,2000647,0.0-19.0-2.7,7681,List2A,white,man,,,,null,,,,,,,,,
14080.8,,,survey-text,375,2014732,0.0-19.0-3.7,7681,List2A,white,man,,,,,"{""Q0"":""Jane is being kissed by Dave""}","<img src=""stim_listA/kiss2.gif""style=""height:400px;""></stim_listA>",is being kissed by,,,,,,
null,"<div style=""font-size:60px;"">+</div>",,html-keyboard-response,376,2015233,0.0-19.0-0.8,7681,List2A,white,man,,,,null,,,,,,,,,
null,"<img src=""stim_listA/kiss5.gif""style=""height:400px;""></stim_listA>",,html-keyboard-response,377,2017236,0.0-19.0-1.8,7681,List2A,white,man,,,,null,,,,,,,,,
null,is kissing,,html-keyboard-response,378,2019237,0.0-19.0-2.8,7681,List2A,white,man,,,,null,,,,,,,,,
13448,,,survey-text,379,2032693,0.0-19.0-3.8,7681,List2A,white,man,,,,,"{""Q0"":""Fred is kissing Dave""}","<img src=""stim_listA/kiss5.gif""style=""height:400px;""></stim_listA>",is kissing,,,,,,
null,"<div style=""font-size:60px;"">+</div>",,html-keyboard-response,380,2033195,0.0-19.0-0.9,7681,List2A,white,man,,,,null,,,,,,,,,
null,"<img src=""stim_listA/challenge5.gif""style=""height:400px;""></stim_listA>",,html-keyboard-response,381,2035198,0.0-19.0-1.9,7681,List2A,white,man,,,,null,,,,,,,,,
null,is challenging,,html-keyboard-response,382,2037201,0.0-19.0-2.9,7681,List2A,white,man,,,,null,,,,,,,,,
14597.1,,,survey-text,383,2051805,0.0-19.0-3.9,7681,List2A,white,man,,,,,"{""Q0"":""Dave is challenging Fred""}","<img src=""stim_listA/challenge5.gif""style=""height:400px;""></stim_listA>",is challenging,,,,,,
null,"<div style=""font-size:60px;"">+</div>",,html-keyboard-response,384,2052308,0.0-19.0-0.10,7681,List2A,white,man,,,,null,,,,,,,,,
null,"<img src=""stim_listA/copy1.gif""style=""height:400px;""></stim_listA>",,html-keyboard-response,385,2054315,0.0-19.0-1.10,7681,List2A,white,man,,,,null,,,,,,,,,
null,is copying,,html-keyboard-response,386,2056320,0.0-19.0-2.10,7681,List2A,white,man,,,,null,,,,,,,,,
16066,,,survey-text,387,2072392,0.0-19.0-3.10,7681,List2A,white,man,,,,,"{""Q0"":""Ruth is copying Dave""}","<img src=""stim_listA/copy1.gif""style=""height:400px;""></stim_listA>",is copying,,,,,,
null,"<div style=""font-size:60px;"">+</div>",,html-keyboard-response,388,2072894,0.0-19.0-0.11,7681,List2A,white,man,,,,null,,,,,,,,,
null,"<img src=""stim_listA/hug7.gif""style=""height:400px;""></stim_listA>",,html-keyboard-response,389,2074900,0.0-19.0-1.11,7681,List2A,white,man,,,,null,,,,,,,,,
null,is hugging,,html-keyboard-response,390,2076904,0.0-19.0-2.11,7681,List2A,white,man,,,,null,,,,,,,,,
11706.4,,,survey-text,391,2088613,0.0-19.0-3.11,7681,List2A,white,man,,,,,"{""Q0"":""Beth is hugging Ruth""}","<img src=""stim_listA/hug7.gif""style=""height:400px;""></stim_listA>",is hugging,,,,,,
null,"<div style=""font-size:60px;"">+</div>",,html-keyboard-response,392,2089115,0.0-19.0-0.12,7681,List2A,white,man,,,,null,,,,,,,,,
null,"<img src=""stim_listA/challenge3.gif""style=""height:400px;""></stim_listA>",,html-keyboard-response,393,2091117,0.0-19.0-1.12,7681,List2A,white,man,,,,null,,,,,,,,,
null,is challenging,,html-keyboard-response,394,2093118,0.0-19.0-2.12,7681,List2A,white,man,,,,null,,,,,,,,,
11786.2,,,survey-text,395,2104907,0.0-19.0-3.12,7681,List2A,white,man,,,,,"{""Q0"":""Mike is challenging Beth""}","<img src=""stim_listA/challenge3.gif""style=""height:400px;""></stim_listA>",is challenging,,,,,,
null,"<div style=""font-size:60px;"">+</div>",,html-keyboard-response,396,2105409,0.0-19.0-0.13,7681,List2A,white,man,,,,null,,,,,,,,,
null,"<img src=""stim_listA/greet5.gif""style=""height:400px;""></stim_listA>",,html-keyboard-response,397,2107412,0.0-19.0-1.13,7681,List2A,white,man,,,,null,,,,,,,,,
null,is greeting,,html-keyboard-response,398,2109412,0.0-19.0-2.13,7681,List2A,white,man,,,,null,,,,,,,,,
13066.8,,,survey-text,399,2122482,0.0-19.0-3.13,7681,List2A,white,man,,,,,"{""Q0"":""Dave is greeting Fred""}","<img src=""stim_listA/greet5.gif""style=""height:400px;""></stim_listA>",is greeting,,,,,,
null,"<div style=""font-size:60px;"">+</div>",,html-keyboard-response,400,2122984,0.0-19.0-0.14,7681,List2A,white,man,,,,null,,,,,,,,,
null,"<img src=""stim_listA/oppose5.gif""style=""height:400px;""></stim_listA>",,html-keyboard-response,401,2124989,0.0-19.0-1.14,7681,List2A,white,man,,,,null,,,,,,,,,
null,is opposing,,html-keyboard-response,402,2126990,0.0-19.0-2.14,7681,List2A,white,man,,,,null,,,,,,,,,
12759.1,,,survey-text,403,2139752,0.0-19.0-3.14,7681,List2A,white,man,,,,,"{""Q0"":""Mike is opposing Dave""}","<img src=""stim_listA/oppose5.gif""style=""height:400px;""></stim_listA>",is opposing,,,,,,
null,"<div style=""font-size:60px;"">+</div>",,html-keyboard-response,404,2140254,0.0-19.0-0.15,7681,List2A,white,man,,,,null,,,,,,,,,
null,"<img src=""stim_listA/kiss7.gif""style=""height:400px;""></stim_listA>",,html-keyboard-response,405,2142260,0.0-19.0-1.15,7681,List2A,white,man,,,,null,,,,,,,,,
null,is kissing,,html-keyboard-response,406,2144261,0.0-19.0-2.15,7681,List2A,white,man,,,,null,,,,,,,,,
9355.2,,,survey-text,407,2153620,0.0-19.0-3.15,7681,List2A,white,man,,,,,"{""Q0"":""Beth is kissing Ruth""}","<img src=""stim_listA/kiss7.gif""style=""height:400px;""></stim_listA>",is kissing,,,,,,
null,"<div style=""font-size:60px;"">+</div>",,html-keyboard-response,408,2154121,0.0-19.0-0.16,7681,List2A,white,man,,,,null,,,,,,,,,
null,"<img src=""stim_listA/copy5.gif""style=""height:400px;""></stim_listA>",,html-keyboard-response,409,2156123,0.0-19.0-1.16,7681,List2A,white,man,,,,null,,,,,,,,,
null,is copying,,html-keyboard-response,410,2158125,0.0-19.0-2.16,7681,List2A,white,man,,,,null,,,,,,,,,
17650,,,survey-text,411,2175778,0.0-19.0-3.16,7681,List2A,white,man,,,,,"{""Q0"":""Dave is copying Fred""}","<img src=""stim_listA/copy5.gif""style=""height:400px;""></stim_listA>",is copying,,,,,,
null,"<div style=""font-size:60px;"">+</div>",,html-keyboard-response,412,2176280,0.0-19.0-0.17,7681,List2A,white,man,,,,null,,,,,,,,,
null,"<img src=""stim_listA/hug3.gif""style=""height:400px;""></stim_listA>",,html-keyboard-response,413,2178286,0.0-19.0-1.17,7681,List2A,white,man,,,,null,,,,,,,,,
null,is hugging,,html-keyboard-response,414,2180288,0.0-19.0-2.17,7681,List2A,white,man,,,,null,,,,,,,,,
11654.8,,,survey-text,415,2191946,0.0-19.0-3.17,7681,List2A,white,man,,,,,"{""Q0"":""Beth is hugging Fred""}","<img src=""stim_listA/hug3.gif""style=""height:400px;""></stim_listA>",is hugging,,,,,,
null,"<div style=""font-size:60px;"">+</div>",,html-keyboard-response,416,2192448,0.0-19.0-0.18,7681,List2A,white,man,,,,null,,,,,,,,,
null,"<img src=""stim_listA/shout2.gif""style=""height:400px;""></stim_listA>",,html-keyboard-response,417,2194451,0.0-19.0-1.18,7681,List2A,white,man,,,,null,,,,,,,,,
null,is being shouted at by,,html-keyboard-response,418,2196456,0.0-19.0-2.18,7681,List2A,white,man,,,,null,,,,,,,,,
18571.5,,,survey-text,419,2215031,0.0-19.0-3.18,7681,List2A,white,man,,,,,"{""Q0"":""Jane is being shouted at by Dave""}","<img src=""stim_listA/shout2.gif""style=""height:400px;""></stim_listA>",is being shouted at by,,,,,,
null,"<div style=""font-size:60px;"">+</div>",,html-keyboard-response,420,2215532,0.0-19.0-0.19,7681,List2A,white,man,,,,null,,,,,,,,,
null,"<img src=""stim_listA/oppose7.gif""style=""height:400px;""></stim_listA>",,html-keyboard-response,421,2217537,0.0-19.0-1.19,7681,List2A,white,man,,,,null,,,,,,,,,
null,is opposing,,html-keyboard-response,422,2219539,0.0-19.0-2.19,7681,List2A,white,man,,,,null,,,,,,,,,
11065.5,,,survey-text,423,2230608,0.0-19.0-3.19,7681,List2A,white,man,,,,,"{""Q0"":""Kate is opposing Jane""}","<img src=""stim_listA/oppose7.gif""style=""height:400px;""></stim_listA>",is opposing,,,,,,
2807.2,<p>Thank you for completing that task.</p><p>The final part of this session is a questionnaire that will take about 4 minutes.</p><p>Press Continue.</p>,0,html-button-response,424,2233418,0.0-20.0,7681,List2A,white,man,,,,,,,,,,,,,
35547.2,,,survey-text,425,2269974,0.0-21.0,7681,List2A,white,man,,,,,"{""Q0"":""63"",""Q1"":""English"",""Q2"":""English"",""Q3"":""United States"",""Q4"":""American"",""Q5"":""White"",""Q6"":""Male""}",,,demographics,,,,,
3376.6,<p>Have you lived in the USA for the last 5 years or more?</p>,0,html-button-response,426,2273355,0.0-22.0,7681,List2A,white,man,,,,,,,,fiveyears,,,,,
2222.7,<p>Move the slider to show the extent to which you agree with the following statements.</p>,0,html-button-response,427,2276582,0.0-23.0,7681,List2A,white,man,,,,,,,,,,,,,
5908.8,,,html-slider-response,428,2283499,0.0-24.0-0.0-0.0,7681,List2A,white,man,,,,,,,,survey_gender,85,,,It is not always easy for people to know what I am thinking.,filler
6520.6,,,html-slider-response,429,2290022,0.0-24.0-0.0-0.1,7681,List2A,white,man,,,,,,,,survey_gender,48,,,It is pleasant to be my gender.,pleasant
6426.6,,,html-slider-response,430,2296451,0.0-24.0-0.0-0.2,7681,List2A,white,man,,,,,,,,survey_gender,51,,,Most of the friends in my life are very similar to me.,filler
3776.6,,,html-slider-response,431,2300231,0.0-24.0-0.0-0.3,7681,List2A,white,man,,,,,,,,survey_gender,31,,,I feel a bond with my friends.,filler
4202.8,,,html-slider-response,432,2304437,0.0-24.0-0.0-0.4,7681,List2A,white,man,,,,,,,,survey_gender,67,,,I consider myself a highly empathetic person.,filler
3992.5,,,html-slider-response,433,2308432,0.0-24.0-0.0-0.5,7681,List2A,white,man,,,,,,,,survey_gender,67,,,My friends have a lot in common with each other.,filler
3855.3,,,html-slider-response,434,2312291,0.0-24.0-0.0-0.6,7681,List2A,white,man,,,,,,,,survey_gender,33,,,I feel a bond with my gender.,bond
3440.3,,,html-slider-response,435,2315733,0.0-24.0-0.0-0.7,7681,List2A,white,man,,,,,,,,survey_gender,72,,,Routine is not important to me.,filler
2968.9,,,html-slider-response,436,2318704,0.0-24.0-0.0-0.8,7681,List2A,white,man,,,,,,,,survey_gender,33,,,My friends understand me.,filler
3335.6,,,html-slider-response,437,2322042,0.0-24.0-0.0-0.9,7681,List2A,white,man,,,,,,,,survey_gender,83,,,I am glad to have the friends that I have.,filler
5987.1,,,html-slider-response,438,2328031,0.0-24.0-0.0-0.10,7681,List2A,white,man,,,,,,,,survey_gender,21,,,I think that my gender has a lot to be proud of.,proud
4425,,,html-slider-response,439,2332459,0.0-24.0-0.0-0.11,7681,List2A,white,man,,,,,,,,survey_gender,35,,,I feel solidarity with my friends.,filler
7726.3,,,html-slider-response,440,2340188,0.0-24.0-0.0-0.12,7681,List2A,white,man,,,,,,,,survey_gender,25,,,I have a lot in common with my friends.,filler
3376.4,,,html-slider-response,441,2343567,0.0-24.0-0.0-0.13,7681,List2A,white,man,,,,,,,,survey_gender,31,,,I am glad to be my gender.,glad
3927.9,,,html-slider-response,442,2347497,0.0-24.0-0.0-0.14,7681,List2A,white,man,,,,,,,,survey_gender,25,,,I am similar to the average person of my gender.,similar
4632.7,,,html-slider-response,443,2352133,0.0-24.0-0.0-0.15,7681,List2A,white,man,,,,,,,,survey_gender,28,,,I would say I am an animal person.,filler
3937.4,,,html-slider-response,444,2356072,0.0-24.0-0.0-0.16,7681,List2A,white,man,,,,,,,,survey_gender,84,,,Being around my friends gives me a good feeling.,filler
5201.8,,,html-slider-response,445,2361276,0.0-24.0-0.0-0.17,7681,List2A,white,man,,,,,,,,survey_gender,81,,,Family is not more important to me than friendship.,filler
3545.3,,,html-slider-response,446,2364824,0.0-24.0-0.0-0.18,7681,List2A,white,man,,,,,,,,survey_gender,26,,,Being my gender gives me a good feeling.,feeling
5452.8,,,html-slider-response,447,2370280,0.0-24.0-0.0-0.19,7681,List2A,white,man,,,,,,,,survey_gender,73,,,Being my gender is an important part of how I see myself.,important
5105.4,,,html-slider-response,448,2375388,0.0-24.0-0.0-0.20,7681,List2A,white,man,,,,,,,,survey_gender,76,,,People of my gender are very similar to each other.,verysimilar
4368.4,,,html-slider-response,449,2379759,0.0-24.0-0.0-0.21,7681,List2A,white,man,,,,,,,,survey_gender,74,,,The fact that I am my gender is an important part of my identity.,identity
3255.7,,,html-slider-response,450,2383017,0.0-24.0-0.0-0.22,7681,List2A,white,man,,,,,,,,survey_gender,26,,,I feel committed to my gender.,committed
3527.4,,,html-slider-response,451,2386548,0.0-24.0-0.0-0.23,7681,List2A,white,man,,,,,,,,survey_gender,83,,,I often think about my actions.,filler
6489.5,,,html-slider-response,452,2393040,0.0-24.0-0.0-0.24,7681,List2A,white,man,,,,,,,,survey_gender,73,,,People of my gender have a lot in common with each other.,common
5553.3,,,html-slider-response,453,2398596,0.0-24.0-0.0-0.25,7681,List2A,white,man,,,,,,,,survey_gender,18,,,I often think about the fact that I am my gender.,often
3203.7,,,html-slider-response,454,2401802,0.0-24.0-0.0-0.26,7681,List2A,white,man,,,,,,,,survey_gender,23,,,I feel solidarity with my gender.,solidarity
3609.3,,,html-slider-response,455,2405413,0.0-24.0-0.0-0.27,7681,List2A,white,man,,,,,,,,survey_gender,11,,,I have a lot in common with the average person of my gender.,average
4216.4,,,html-slider-response,456,2409632,0.0-24.0-1.0-0.0,7681,List2A,white,man,,,,,,,,survey_race,70,,,It is pleasant to be my race.,pleasant
3696,,,html-slider-response,457,2413331,0.0-24.0-1.0-0.1,7681,List2A,white,man,,,,,,,,survey_race,78,,,I often think about the fact that I am my age.,filler
3158.7,,,html-slider-response,458,2416493,0.0-24.0-1.0-0.2,7681,List2A,white,man,,,,,,,,survey_race,23,,,I am glad to be my age.,filler
3704.3,,,html-slider-response,459,2420200,0.0-24.0-1.0-0.3,7681,List2A,white,man,,,,,,,,survey_race,24,,,I feel committed to my race.,committed
3024.4,,,html-slider-response,460,2423226,0.0-24.0-1.0-0.4,7681,List2A,white,man,,,,,,,,survey_race,22,,,I feel solidarity with my race.,solidarity
4056.8,,,html-slider-response,461,2427285,0.0-24.0-1.0-0.5,7681,List2A,white,man,,,,,,,,survey_race,83,,,I feel solidarity with people the same age as me.,filler
3232.4,,,html-slider-response,462,2430520,0.0-24.0-1.0-0.6,7681,List2A,white,man,,,,,,,,survey_race,26,,,I am glad to be my race.,glad
3528.6,,,html-slider-response,463,2434052,0.0-24.0-1.0-0.7,7681,List2A,white,man,,,,,,,,survey_race,80,,,People of my race have a lot in common with each other.,common
3283.8,,,html-slider-response,464,2437337,0.0-24.0-1.0-0.8,7681,List2A,white,man,,,,,,,,survey_race,24,,,Being my race is an important part of how I see myself.,important
3728.1,,,html-slider-response,465,2441068,0.0-24.0-1.0-0.9,7681,List2A,white,man,,,,,,,,survey_race,68,,,People of my race are very similar to each other.,verysimilar
3072.4,,,html-slider-response,466,2444143,0.0-24.0-1.0-0.10,7681,List2A,white,man,,,,,,,,survey_race,24,,,Being my race gives me a good feeling.,feeling
3560.5,,,html-slider-response,467,2447706,0.0-24.0-1.0-0.11,7681,List2A,white,man,,,,,,,,survey_race,81,,,"The older I get, the wiser I feel.",filler
3143.9,,,html-slider-response,468,2450852,0.0-24.0-1.0-0.12,7681,List2A,white,man,,,,,,,,survey_race,46,,,I consider myself an extrovert.,filler
4865.1,,,html-slider-response,469,2455720,0.0-24.0-1.0-0.13,7681,List2A,white,man,,,,,,,,survey_race,15,,,My age is not an important part of who I am.,filler
4953,,,html-slider-response,470,2460676,0.0-24.0-1.0-0.14,7681,List2A,white,man,,,,,,,,survey_race,25,,,I have a lot in common with people of a similar age to me.,filler
4207.8,,,html-slider-response,471,2464887,0.0-24.0-1.0-0.15,7681,List2A,white,man,,,,,,,,survey_race,83,,,I consider myself an introvert.,filler
3868.7,,,html-slider-response,472,2468758,0.0-24.0-1.0-0.16,7681,List2A,white,man,,,,,,,,survey_race,16,,,Getting older does not worry me.,filler
4649.3,,,html-slider-response,473,2473411,0.0-24.0-1.0-0.17,7681,List2A,white,man,,,,,,,,survey_race,13,,,I am similar to the average person of my race.,similar
3804.2,,,html-slider-response,474,2477218,0.0-24.0-1.0-0.18,7681,List2A,white,man,,,,,,,,survey_race,12,,,I often think about the fact that I am my race.,often
3916.3,,,html-slider-response,475,2481137,0.0-24.0-1.0-0.19,7681,List2A,white,man,,,,,,,,survey_race,16,,,Being my age gives me a good feeling.,filler
3836.6,,,html-slider-response,476,2484976,0.0-24.0-1.0-0.20,7681,List2A,white,man,,,,,,,,survey_race,12,,,I have a lot in common with the average person of my race.,average
3360.1,,,html-slider-response,477,2488339,0.0-24.0-1.0-0.21,7681,List2A,white,man,,,,,,,,survey_race,12,,,I am glad to be the age I am.,filler
3327.3,,,html-slider-response,478,2491669,0.0-24.0-1.0-0.22,7681,List2A,white,man,,,,,,,,survey_race,13,,,I think that my race has a lot to be proud of.,proud
4593.6,,,html-slider-response,479,2496264,0.0-24.0-1.0-0.23,7681,List2A,white,man,,,,,,,,survey_race,15,,,I enjoy being in large groups.,filler
4193,,,html-slider-response,480,2500460,0.0-24.0-1.0-0.24,7681,List2A,white,man,,,,,,,,survey_race,83,,,I feel a bond with people the same age as me.,filler
3615.2,,,html-slider-response,481,2504078,0.0-24.0-1.0-0.25,7681,List2A,white,man,,,,,,,,survey_race,17,,,I feel a bond with my race.,bond
4906,,,html-slider-response,482,2508986,0.0-24.0-1.0-0.26,7681,List2A,white,man,,,,,,,,survey_race,9,,,The fact that I am my race is an important part of my identity.,identity
3736.9,,,html-slider-response,483,2512725,0.0-24.0-1.0-0.27,7681,List2A,white,man,,,,,,,,survey_race,81,,,People my age have a lot in common with each other.,filler
9616.6,,,survey-text,484,2522346,0.0-25.0,7681,List2A,white,man,,,,,"{""Q0"":""ccc""}",,,worker_id,,,,,
4849.7,,,external-html,485,2527437,0.0-26.0,7681,List2A,white,man,debrief.html,,,,,,,,,,,,
