rt,stimulus,button_pressed,trial_type,trial_index,time_elapsed,internal_node_id,subject,list,ppt_race,ppt_gender,url,first_guess,correct,key_press,responses,image_type,phrase_type,test_part,response,stimulus1,stimulus2,question_type,survey_item
3910,Welcome to the experiment. Press Continue to begin.,0,html-button-response,0,3914,0.0-0.0,76831,List1A,black,man,,,,,,,,,,,,,
10421,,,external-html,1,17169,0.0-1.0,76831,List1A,black,man,consent.html,,,,,,,,,,,,
8664,"<p>On the next page, you will see portraits of 8 people and their names.</p><p>Your first task is to take a few minutes to memorise the names of these people.</p><p>You will have to recall their names during the rest of the experiment, so it is</p><p>essential that you try to memorise these people and their names as best as you can.</p><br><p><strong>You will then be tested on your memory of these names and portraits.</strong></p><br><p>The experiment will start after you have completed this memory test.</p><br><p>Ready?</p>",0,html-button-response,2,25835,0.0-2.0,76831,List1A,black,man,,,,,,,,,,,,,
36773,"<img src='img/portrait_matrix_list1.jpg' style='width:900px;height:500px;''></img><p>If you have memorised all the portraits and names and are ready to start, press Continue.</p><p><strong>Please note: Your memory of these faces will be tested 4 times during this experiment.</strong></p>",0,html-button-response,3,63621,0.0-3.0-0.0,76831,List1A,black,man,,,,,,,,,,,,,
17421,"<img src=""portrait/WW2.jpg""style=""height:400px;""></img>",3,html-button-response,4,82060,0.0-3.0-1.0,76831,List1A,black,man,,TRUE,3,,,,,,,,,,
null,CORRECT,,html-keyboard-response,5,83584,0.0-3.0-2.0-0.0,76831,List1A,black,man,,,,null,,,,,,,,,
4301,"<img src=""portrait/BM1.jpg""style=""height:400px;""></img>",4,html-button-response,6,87888,0.0-3.0-4.0,76831,List1A,black,man,,TRUE,4,,,,,,,,,,
null,CORRECT,,html-keyboard-response,7,89408,0.0-3.0-5.0-0.0,76831,List1A,black,man,,,,null,,,,,,,,,
7424,"<img src=""portrait/WM2.jpg""style=""height:400px;""></img>",7,html-button-response,8,96834,0.0-3.0-7.0,76831,List1A,black,man,,TRUE,7,,,,,,,,,,
null,CORRECT,,html-keyboard-response,9,98351,0.0-3.0-8.0-0.0,76831,List1A,black,man,,,,null,,,,,,,,,
5459,"<img src=""portrait/BM2.jpg""style=""height:400px;""></img>",5,html-button-response,10,103812,0.0-3.0-10.0,76831,List1A,black,man,,TRUE,5,,,,,,,,,,
null,CORRECT,,html-keyboard-response,11,105340,0.0-3.0-11.0-0.0,76831,List1A,black,man,,,,null,,,,,,,,,
5548,"<img src=""portrait/BW1.jpg""style=""height:400px;""></img>",0,html-button-response,12,110890,0.0-3.0-13.0,76831,List1A,black,man,,TRUE,0,,,,,,,,,,
null,CORRECT,,html-keyboard-response,13,112408,0.0-3.0-14.0-0.0,76831,List1A,black,man,,,,null,,,,,,,,,
4573,"<img src=""portrait/WW1.jpg""style=""height:400px;""></img>",1,html-button-response,14,116983,0.0-3.0-16.0,76831,List1A,black,man,,TRUE,1,,,,,,,,,,
null,CORRECT,,html-keyboard-response,15,118513,0.0-3.0-17.0-0.0,76831,List1A,black,man,,,,null,,,,,,,,,
3650,"<img src=""portrait/BW2.jpg""style=""height:400px;""></img>",2,html-button-response,16,122166,0.0-3.0-19.0,76831,List1A,black,man,,TRUE,2,,,,,,,,,,
null,CORRECT,,html-keyboard-response,17,123687,0.0-3.0-20.0-0.0,76831,List1A,black,man,,,,null,,,,,,,,,
5335,"<img src=""portrait/WM1.jpg""style=""height:400px;""></img>",6,html-button-response,18,129024,0.0-3.0-22.0,76831,List1A,black,man,,TRUE,6,,,,,,,,,,
null,CORRECT,,html-keyboard-response,19,130551,0.0-3.0-23.0-0.0,76831,List1A,black,man,,,,null,,,,,,,,,
2040,<p>You got 8 out of 8 right first time. Press Continue.</p>,0,html-button-response,20,132595,0.0-3.0-25.0,76831,List1A,black,man,,,,,,,,,,,,,
8383,"<p>In this experiment, you will view photographs of the people from the memory game interacting.</p><p>By using the <strong>exact</strong> phrase given <i>after</i> the photograph appears and recalling the correct names of the people in the photographs, form a sentence describing the interaction. You do not need to capitalise names.</p><p>Type your answer in the space provided. Please complete every sentence before moving onto the next trial.</p><p>You will only have a few seconds to memorise each given photograph and phrase before you can respond, so try your best to focus.</p><p>An example is given below. Press 'Continue' when you are ready.</p><img src='img/speaking_example.jpg' style='width:800px;height:460px;''></img>",0,html-button-response,21,141998,0.0-4.0,76831,List1A,black,man,,,,,,,,,,,,,
3652,"<p>Before the experiment starts, you will watch two example trials. Press 'Continue'.</p>",0,html-button-response,22,146665,0.0-5.0,76831,List1A,black,man,,,,,,,,,,,,,
null,<img src='img/play_eg.gif' style='height:400px;''></img>,,html-keyboard-response,23,149682,0.0-6.0,76831,List1A,black,man,,,,null,,,,,,,,,
null,<p>is playing with</p>,,html-keyboard-response,24,151697,0.0-7.0,76831,List1A,black,man,,,,null,,,,,,,,,
9588,<p><b>Answer:</b> kate is playing with beth</p>,0,html-button-response,25,161288,0.0-8.0,76831,List1A,black,man,,,,,,,,,,,,,
null,<img src='img/dance_eg.gif' style='height:400px;''></img>,,html-keyboard-response,26,164293,0.0-9.0,76831,List1A,black,man,,,,null,,,,,,,,,
null,<p>is being entertained by</p>,,html-keyboard-response,27,166302,0.0-10.0,76831,List1A,black,man,,,,null,,,,,,,,,
81419,<p><b>Answer:</b> luke is being entertained by dave</p>,0,html-button-response,28,247722,0.0-11.0,76831,List1A,black,man,,,,,,,,,,,,,
4519,"<p>Ready to start the experiment?</p><br><p><strong>Remember to describe the picture using a full sentence,</strong></p><p><strong>that combines the names of the people with the <i>exact</i> phrase given.</strong></p><p><strong>To receive full payment you must do this correctly.</strong></p><p><strong> You do not need to capitalise names or use punctuation.</strong></p><br><p>Press 'Continue' to begin.</p>",0,html-button-response,29,253259,0.0-12.0,76831,List1A,black,man,,,,,,,,,,,,,
null,"<div style=""font-size:60px;"">+</div>",,html-keyboard-response,30,254778,0.0-13.0-0.0,76831,List1A,black,man,,,,null,,,,,,,,,
null,"<img src=""stim_listA/look5.gif""style=""height:400px;""></stim_listA>",,html-keyboard-response,31,256791,0.0-13.0-1.0,76831,List1A,black,man,,,,null,,,,,,,,,
null,is looking at,,html-keyboard-response,32,258806,0.0-13.0-2.0,76831,List1A,black,man,,,,null,,,,,,,,,
11194,,,survey-text,33,270036,0.0-13.0-3.0,76831,List1A,black,man,,,,,"{""Q0"":""luke is looking at fred""}","<img src=""stim_listA/look5.gif""style=""height:400px;""></stim_listA>",is looking at,,,,,,
null,"<div style=""font-size:60px;"">+</div>",,html-keyboard-response,34,270550,0.0-13.0-0.1,76831,List1A,black,man,,,,null,,,,,,,,,
null,"<img src=""stim_listA/hug1.gif""style=""height:400px;""></stim_listA>",,html-keyboard-response,35,272554,0.0-13.0-1.1,76831,List1A,black,man,,,,null,,,,,,,,,
null,is hugging,,html-keyboard-response,36,274562,0.0-13.0-2.1,76831,List1A,black,man,,,,null,,,,,,,,,
9975,,,survey-text,37,284544,0.0-13.0-3.1,76831,List1A,black,man,,,,,"{""Q0"":""beth is hugging fred""}","<img src=""stim_listA/hug1.gif""style=""height:400px;""></stim_listA>",is hugging,,,,,,
null,"<div style=""font-size:60px;"">+</div>",,html-keyboard-response,38,285051,0.0-13.0-0.2,76831,List1A,black,man,,,,null,,,,,,,,,
null,"<img src=""stim_listA/challenge2.gif""style=""height:400px;""></stim_listA>",,html-keyboard-response,39,287067,0.0-13.0-1.2,76831,List1A,black,man,,,,null,,,,,,,,,
null,is being challenged by,,html-keyboard-response,40,289084,0.0-13.0-2.2,76831,List1A,black,man,,,,null,,,,,,,,,
47636,,,survey-text,41,336726,0.0-13.0-3.2,76831,List1A,black,man,,,,,"{""Q0"":""kate is challenging fred""}","<img src=""stim_listA/challenge2.gif""style=""height:400px;""></stim_listA>",is being challenged by,,,,,,
null,"<div style=""font-size:60px;"">+</div>",,html-keyboard-response,42,337237,0.0-13.0-0.3,76831,List1A,black,man,,,,null,,,,,,,,,
null,"<img src=""stim_listA/hug5.gif""style=""height:400px;""></stim_listA>",,html-keyboard-response,43,339241,0.0-13.0-1.3,76831,List1A,black,man,,,,null,,,,,,,,,
null,is hugging,,html-keyboard-response,44,341244,0.0-13.0-2.3,76831,List1A,black,man,,,,null,,,,,,,,,
11247,,,survey-text,45,352495,0.0-13.0-3.3,76831,List1A,black,man,,,,,"{""Q0"":""luke is hugging fred""}","<img src=""stim_listA/hug5.gif""style=""height:400px;""></stim_listA>",is hugging,,,,,,
null,"<div style=""font-size:60px;"">+</div>",,html-keyboard-response,46,353006,0.0-13.0-0.4,76831,List1A,black,man,,,,null,,,,,,,,,
null,"<img src=""stim_listA/look4.gif""style=""height:400px;""></stim_listA>",,html-keyboard-response,47,355010,0.0-13.0-1.4,76831,List1A,black,man,,,,null,,,,,,,,,
null,is being looked at by,,html-keyboard-response,48,357015,0.0-13.0-2.4,76831,List1A,black,man,,,,null,,,,,,,,,
18566,,,survey-text,49,375584,0.0-13.0-3.4,76831,List1A,black,man,,,,,"{""Q0"":""jane is being looked at by dave""}","<img src=""stim_listA/look4.gif""style=""height:400px;""></stim_listA>",is being looked at by,,,,,,
null,"<div style=""font-size:60px;"">+</div>",,html-keyboard-response,50,376095,0.0-13.0-0.5,76831,List1A,black,man,,,,null,,,,,,,,,
null,"<img src=""stim_listA/shout1.gif""style=""height:400px;""></stim_listA>",,html-keyboard-response,51,378098,0.0-13.0-1.5,76831,List1A,black,man,,,,null,,,,,,,,,
null,is shouting at,,html-keyboard-response,52,380111,0.0-13.0-2.5,76831,List1A,black,man,,,,null,,,,,,,,,
13037,,,survey-text,53,393153,0.0-13.0-3.5,76831,List1A,black,man,,,,,"{""Q0"":""beth is shouting at fred""}","<img src=""stim_listA/shout1.gif""style=""height:400px;""></stim_listA>",is shouting at,,,,,,
null,"<div style=""font-size:60px;"">+</div>",,html-keyboard-response,54,393654,0.0-13.0-0.6,76831,List1A,black,man,,,,null,,,,,,,,,
null,"<img src=""stim_listA/challenge4.gif""style=""height:400px;""></stim_listA>",,html-keyboard-response,55,395657,0.0-13.0-1.6,76831,List1A,black,man,,,,null,,,,,,,,,
null,is being challenged by,,html-keyboard-response,56,397665,0.0-13.0-2.6,76831,List1A,black,man,,,,null,,,,,,,,,
21751,,,survey-text,57,419420,0.0-13.0-3.6,76831,List1A,black,man,,,,,"{""Q0"":""jane is being challenged by luke""}","<img src=""stim_listA/challenge4.gif""style=""height:400px;""></stim_listA>",is being challenged by,,,,,,
null,"<div style=""font-size:60px;"">+</div>",,html-keyboard-response,58,419934,0.0-13.0-0.7,76831,List1A,black,man,,,,null,,,,,,,,,
null,"<img src=""stim_listA/oppose6.gif""style=""height:400px;""></stim_listA>",,html-keyboard-response,59,421938,0.0-13.0-1.7,76831,List1A,black,man,,,,null,,,,,,,,,
null,is being opposed by,,html-keyboard-response,60,423945,0.0-13.0-2.7,76831,List1A,black,man,,,,null,,,,,,,,,
14166,,,survey-text,61,438116,0.0-13.0-3.7,76831,List1A,black,man,,,,,"{""Q0"":""fred is being opposed by luke""}","<img src=""stim_listA/oppose6.gif""style=""height:400px;""></stim_listA>",is being opposed by,,,,,,
null,"<div style=""font-size:60px;"">+</div>",,html-keyboard-response,62,438630,0.0-13.0-0.8,76831,List1A,black,man,,,,null,,,,,,,,,
null,"<img src=""stim_listA/look1.gif""style=""height:400px;""></stim_listA>",,html-keyboard-response,63,440647,0.0-13.0-1.8,76831,List1A,black,man,,,,null,,,,,,,,,
null,is looking at,,html-keyboard-response,64,442656,0.0-13.0-2.8,76831,List1A,black,man,,,,null,,,,,,,,,
11218,,,survey-text,65,453879,0.0-13.0-3.8,76831,List1A,black,man,,,,,"{""Q0"":""beth is looking at fred""}","<img src=""stim_listA/look1.gif""style=""height:400px;""></stim_listA>",is looking at,,,,,,
null,"<div style=""font-size:60px;"">+</div>",,html-keyboard-response,66,454382,0.0-13.0-0.9,76831,List1A,black,man,,,,null,,,,,,,,,
null,"<img src=""stim_listA/look7.gif""style=""height:400px;""></stim_listA>",,html-keyboard-response,67,456387,0.0-13.0-1.9,76831,List1A,black,man,,,,null,,,,,,,,,
null,is looking at,,html-keyboard-response,68,458399,0.0-13.0-2.9,76831,List1A,black,man,,,,null,,,,,,,,,
9922,,,survey-text,69,468325,0.0-13.0-3.9,76831,List1A,black,man,,,,,"{""Q0"":""beth is looking at ruth""}","<img src=""stim_listA/look7.gif""style=""height:400px;""></stim_listA>",is looking at,,,,,,
null,"<div style=""font-size:60px;"">+</div>",,html-keyboard-response,70,468838,0.0-13.0-0.10,76831,List1A,black,man,,,,null,,,,,,,,,
null,"<img src=""stim_listA/kiss3.gif""style=""height:400px;""></stim_listA>",,html-keyboard-response,71,470853,0.0-13.0-1.10,76831,List1A,black,man,,,,null,,,,,,,,,
null,is kissing,,html-keyboard-response,72,472854,0.0-13.0-2.10,76831,List1A,black,man,,,,null,,,,,,,,,
11793,,,survey-text,73,484651,0.0-13.0-3.10,76831,List1A,black,man,,,,,"{""Q0"":""luke is kissing ruth""}","<img src=""stim_listA/kiss3.gif""style=""height:400px;""></stim_listA>",is kissing,,,,,,
null,"<div style=""font-size:60px;"">+</div>",,html-keyboard-response,74,485156,0.0-13.0-0.11,76831,List1A,black,man,,,,null,,,,,,,,,
null,"<img src=""stim_listA/touch3.gif""style=""height:400px;""></stim_listA>",,html-keyboard-response,75,487161,0.0-13.0-1.11,76831,List1A,black,man,,,,null,,,,,,,,,
null,is touching,,html-keyboard-response,76,489168,0.0-13.0-2.11,76831,List1A,black,man,,,,null,,,,,,,,,
11892,,,survey-text,77,501065,0.0-13.0-3.11,76831,List1A,black,man,,,,,"{""Q0"":""dave is touching jane""}","<img src=""stim_listA/touch3.gif""style=""height:400px;""></stim_listA>",is touching,,,,,,
null,"<div style=""font-size:60px;"">+</div>",,html-keyboard-response,78,501576,0.0-13.0-0.12,76831,List1A,black,man,,,,null,,,,,,,,,
null,"<img src=""stim_listA/challenge6.gif""style=""height:400px;""></stim_listA>",,html-keyboard-response,79,503579,0.0-13.0-1.12,76831,List1A,black,man,,,,null,,,,,,,,,
null,is being challenged by,,html-keyboard-response,80,505590,0.0-13.0-2.12,76831,List1A,black,man,,,,null,,,,,,,,,
16754,,,survey-text,81,522366,0.0-13.0-3.12,76831,List1A,black,man,,,,,"{""Q0"":""fred is be challenged by dave""}","<img src=""stim_listA/challenge6.gif""style=""height:400px;""></stim_listA>",is being challenged by,,,,,,
null,"<div style=""font-size:60px;"">+</div>",,html-keyboard-response,82,522875,0.0-13.0-0.13,76831,List1A,black,man,,,,null,,,,,,,,,
null,"<img src=""stim_listA/hug6.gif""style=""height:400px;""></stim_listA>",,html-keyboard-response,83,524882,0.0-13.0-1.13,76831,List1A,black,man,,,,null,,,,,,,,,
null,is being hugged by,,html-keyboard-response,84,526897,0.0-13.0-2.13,76831,List1A,black,man,,,,null,,,,,,,,,
11073,,,survey-text,85,537977,0.0-13.0-3.13,76831,List1A,black,man,,,,,"{""Q0"":""mike is being hugged by dave""}","<img src=""stim_listA/hug6.gif""style=""height:400px;""></stim_listA>",is being hugged by,,,,,,
null,"<div style=""font-size:60px;"">+</div>",,html-keyboard-response,86,538486,0.0-13.0-0.14,76831,List1A,black,man,,,,null,,,,,,,,,
null,"<img src=""stim_listA/greet7.gif""style=""height:400px;""></stim_listA>",,html-keyboard-response,87,540490,0.0-13.0-1.14,76831,List1A,black,man,,,,null,,,,,,,,,
null,is greeting,,html-keyboard-response,88,542499,0.0-13.0-2.14,76831,List1A,black,man,,,,null,,,,,,,,,
23260,,,survey-text,89,565763,0.0-13.0-3.14,76831,List1A,black,man,,,,,"{""Q0"":""kate is challenging jane""}","<img src=""stim_listA/greet7.gif""style=""height:400px;""></stim_listA>",is greeting,,,,,,
null,"<div style=""font-size:60px;"">+</div>",,html-keyboard-response,90,566265,0.0-13.0-0.15,76831,List1A,black,man,,,,null,,,,,,,,,
null,"<img src=""stim_listA/oppose5.gif""style=""height:400px;""></stim_listA>",,html-keyboard-response,91,568269,0.0-13.0-1.15,76831,List1A,black,man,,,,null,,,,,,,,,
null,is opposing,,html-keyboard-response,92,570271,0.0-13.0-2.15,76831,List1A,black,man,,,,null,,,,,,,,,
14470,,,survey-text,93,584747,0.0-13.0-3.15,76831,List1A,black,man,,,,,"{""Q0"":""mike is opposing dave""}","<img src=""stim_listA/oppose5.gif""style=""height:400px;""></stim_listA>",is opposing,,,,,,
null,"<div style=""font-size:60px;"">+</div>",,html-keyboard-response,94,585264,0.0-13.0-0.16,76831,List1A,black,man,,,,null,,,,,,,,,
null,"<img src=""stim_listA/oppose3.gif""style=""height:400px;""></stim_listA>",,html-keyboard-response,95,587270,0.0-13.0-1.16,76831,List1A,black,man,,,,null,,,,,,,,,
null,is opposing,,html-keyboard-response,96,589284,0.0-13.0-2.16,76831,List1A,black,man,,,,null,,,,,,,,,
7890,,,survey-text,97,597179,0.0-13.0-3.16,76831,List1A,black,man,,,,,"{""Q0"":""dave is opposing jane""}","<img src=""stim_listA/oppose3.gif""style=""height:400px;""></stim_listA>",is opposing,,,,,,
null,"<div style=""font-size:60px;"">+</div>",,html-keyboard-response,98,597687,0.0-13.0-0.17,76831,List1A,black,man,,,,null,,,,,,,,,
null,"<img src=""stim_listA/greet6.gif""style=""height:400px;""></stim_listA>",,html-keyboard-response,99,599694,0.0-13.0-1.17,76831,List1A,black,man,,,,null,,,,,,,,,
null,is being greeted by,,html-keyboard-response,100,601711,0.0-13.0-2.17,76831,List1A,black,man,,,,null,,,,,,,,,
14254,,,survey-text,101,615970,0.0-13.0-3.17,76831,List1A,black,man,,,,,"{""Q0"":""dave is being greeted by fred""}","<img src=""stim_listA/greet6.gif""style=""height:400px;""></stim_listA>",is being greeted by,,,,,,
null,"<div style=""font-size:60px;"">+</div>",,html-keyboard-response,102,616476,0.0-13.0-0.18,76831,List1A,black,man,,,,null,,,,,,,,,
null,"<img src=""stim_listA/hug2.gif""style=""height:400px;""></stim_listA>",,html-keyboard-response,103,618480,0.0-13.0-1.18,76831,List1A,black,man,,,,null,,,,,,,,,
null,is being hugged by,,html-keyboard-response,104,620485,0.0-13.0-2.18,76831,List1A,black,man,,,,null,,,,,,,,,
12283,,,survey-text,105,632771,0.0-13.0-3.18,76831,List1A,black,man,,,,,"{""Q0"":""mike is being hugged by mike""}","<img src=""stim_listA/hug2.gif""style=""height:400px;""></stim_listA>",is being hugged by,,,,,,
null,"<div style=""font-size:60px;"">+</div>",,html-keyboard-response,106,633276,0.0-13.0-0.19,76831,List1A,black,man,,,,null,,,,,,,,,
null,"<img src=""stim_listA/seduce7.gif""style=""height:400px;""></stim_listA>",,html-keyboard-response,107,635279,0.0-13.0-1.19,76831,List1A,black,man,,,,null,,,,,,,,,
null,is seducing,,html-keyboard-response,108,637287,0.0-13.0-2.19,76831,List1A,black,man,,,,null,,,,,,,,,
13954,,,survey-text,109,651246,0.0-13.0-3.19,76831,List1A,black,man,,,,,"{""Q0"":""jane is seducing beth""}","<img src=""stim_listA/seduce7.gif""style=""height:400px;""></stim_listA>",is seducing,,,,,,
16567,"<img src='img/portrait_matrix_list1.jpg' style='width:900px;height:500px;''></img><p>If you have memorised all the portraits and names and are ready to start, press Continue.</p><p><strong>Please note: Your memory of these faces will be tested 4 times during this experiment.</strong></p>",0,html-button-response,110,667816,0.0-14.0-0.0,76831,List1A,black,man,,,,,,,,,,,,,
2804,"<img src=""portrait/WM2.jpg""style=""height:400px;""></img>",7,html-button-response,111,671631,0.0-14.0-1.0,76831,List1A,black,man,,TRUE,7,,,,,,,,,,
null,CORRECT,,html-keyboard-response,112,673149,0.0-14.0-2.0-0.0,76831,List1A,black,man,,,,null,,,,,,,,,
2821,"<img src=""portrait/BW2.jpg""style=""height:400px;""></img>",2,html-button-response,113,675973,0.0-14.0-4.0,76831,List1A,black,man,,TRUE,2,,,,,,,,,,
null,CORRECT,,html-keyboard-response,114,677489,0.0-14.0-5.0-0.0,76831,List1A,black,man,,,,null,,,,,,,,,
2441,"<img src=""portrait/WW1.jpg""style=""height:400px;""></img>",1,html-button-response,115,679932,0.0-14.0-7.0,76831,List1A,black,man,,TRUE,1,,,,,,,,,,
null,CORRECT,,html-keyboard-response,116,681457,0.0-14.0-8.0-0.0,76831,List1A,black,man,,,,null,,,,,,,,,
2515,"<img src=""portrait/BW1.jpg""style=""height:400px;""></img>",0,html-button-response,117,683975,0.0-14.0-10.0,76831,List1A,black,man,,TRUE,0,,,,,,,,,,
null,CORRECT,,html-keyboard-response,118,685490,0.0-14.0-11.0-0.0,76831,List1A,black,man,,,,null,,,,,,,,,
3420,"<img src=""portrait/WW2.jpg""style=""height:400px;""></img>",3,html-button-response,119,688914,0.0-14.0-13.0,76831,List1A,black,man,,TRUE,3,,,,,,,,,,
null,CORRECT,,html-keyboard-response,120,690441,0.0-14.0-14.0-0.0,76831,List1A,black,man,,,,null,,,,,,,,,
3444,"<img src=""portrait/BM2.jpg""style=""height:400px;""></img>",5,html-button-response,121,693888,0.0-14.0-16.0,76831,List1A,black,man,,TRUE,5,,,,,,,,,,
null,CORRECT,,html-keyboard-response,122,695403,0.0-14.0-17.0-0.0,76831,List1A,black,man,,,,null,,,,,,,,,
2161,"<img src=""portrait/BM1.jpg""style=""height:400px;""></img>",4,html-button-response,123,697566,0.0-14.0-19.0,76831,List1A,black,man,,TRUE,4,,,,,,,,,,
null,CORRECT,,html-keyboard-response,124,699084,0.0-14.0-20.0-0.0,76831,List1A,black,man,,,,null,,,,,,,,,
3315,"<img src=""portrait/WM1.jpg""style=""height:400px;""></img>",6,html-button-response,125,702401,0.0-14.0-22.0,76831,List1A,black,man,,TRUE,6,,,,,,,,,,
null,CORRECT,,html-keyboard-response,126,703916,0.0-14.0-23.0-0.0,76831,List1A,black,man,,,,null,,,,,,,,,
2349,<p>You got 8 out of 8 right first time. Press Continue.</p>,0,html-button-response,127,706267,0.0-14.0-25.0,76831,List1A,black,man,,,,,,,,,,,,,
null,"<div style=""font-size:60px;"">+</div>",,html-keyboard-response,128,707791,0.0-15.0-0.0,76831,List1A,black,man,,,,null,,,,,,,,,
null,"<img src=""stim_listA/look6.gif""style=""height:400px;""></stim_listA>",,html-keyboard-response,129,709796,0.0-15.0-1.0,76831,List1A,black,man,,,,null,,,,,,,,,
null,is being looked at by,,html-keyboard-response,130,711812,0.0-15.0-2.0,76831,List1A,black,man,,,,null,,,,,,,,,
14768,,,survey-text,131,726585,0.0-15.0-3.0,76831,List1A,black,man,,,,,"{""Q0"":""dave is being looked by mike""}","<img src=""stim_listA/look6.gif""style=""height:400px;""></stim_listA>",is being looked at by,,,,,,
null,"<div style=""font-size:60px;"">+</div>",,html-keyboard-response,132,727094,0.0-15.0-0.1,76831,List1A,black,man,,,,null,,,,,,,,,
null,"<img src=""stim_listA/copy8.gif""style=""height:400px;""></stim_listA>",,html-keyboard-response,133,729108,0.0-15.0-1.1,76831,List1A,black,man,,,,null,,,,,,,,,
null,is being copied by,,html-keyboard-response,134,731122,0.0-15.0-2.1,76831,List1A,black,man,,,,null,,,,,,,,,
9636,,,survey-text,135,740761,0.0-15.0-3.1,76831,List1A,black,man,,,,,"{""Q0"":""jane is being copied by beth""}","<img src=""stim_listA/copy8.gif""style=""height:400px;""></stim_listA>",is being copied by,,,,,,
null,"<div style=""font-size:60px;"">+</div>",,html-keyboard-response,136,741275,0.0-15.0-0.2,76831,List1A,black,man,,,,null,,,,,,,,,
null,"<img src=""stim_listA/touch7.gif""style=""height:400px;""></stim_listA>",,html-keyboard-response,137,743277,0.0-15.0-1.2,76831,List1A,black,man,,,,null,,,,,,,,,
null,is touching,,html-keyboard-response,138,745290,0.0-15.0-2.2,76831,List1A,black,man,,,,null,,,,,,,,,
23100,,,survey-text,139,768393,0.0-15.0-3.2,76831,List1A,black,man,,,,,"{""Q0"":""jane is being touched by kate""}","<img src=""stim_listA/touch7.gif""style=""height:400px;""></stim_listA>",is touching,,,,,,
null,"<div style=""font-size:60px;"">+</div>",,html-keyboard-response,140,768908,0.0-15.0-0.3,76831,List1A,black,man,,,,null,,,,,,,,,
null,"<img src=""stim_listA/shout4.gif""style=""height:400px;""></stim_listA>",,html-keyboard-response,141,770911,0.0-15.0-1.3,76831,List1A,black,man,,,,null,,,,,,,,,
null,is being shouted at by,,html-keyboard-response,142,772915,0.0-15.0-2.3,76831,List1A,black,man,,,,null,,,,,,,,,
12154,,,survey-text,143,785074,0.0-15.0-3.3,76831,List1A,black,man,,,,,"{""Q0"":""dave is being shouted at by jane""}","<img src=""stim_listA/shout4.gif""style=""height:400px;""></stim_listA>",is being shouted at by,,,,,,
null,"<div style=""font-size:60px;"">+</div>",,html-keyboard-response,144,785575,0.0-15.0-0.4,76831,List1A,black,man,,,,null,,,,,,,,,
null,"<img src=""stim_listA/oppose7.gif""style=""height:400px;""></stim_listA>",,html-keyboard-response,145,787579,0.0-15.0-1.4,76831,List1A,black,man,,,,null,,,,,,,,,
null,is opposing,,html-keyboard-response,146,789589,0.0-15.0-2.4,76831,List1A,black,man,,,,null,,,,,,,,,
20911,,,survey-text,147,810504,0.0-15.0-3.4,76831,List1A,black,man,,,,,"{""Q0"":""fred is opposing jane""}","<img src=""stim_listA/oppose7.gif""style=""height:400px;""></stim_listA>",is opposing,,,,,,
null,"<div style=""font-size:60px;"">+</div>",,html-keyboard-response,148,811005,0.0-15.0-0.5,76831,List1A,black,man,,,,null,,,,,,,,,
null,"<img src=""stim_listA/touch6.gif""style=""height:400px;""></stim_listA>",,html-keyboard-response,149,813009,0.0-15.0-1.5,76831,List1A,black,man,,,,null,,,,,,,,,
null,is being touched by,,html-keyboard-response,150,815013,0.0-15.0-2.5,76831,List1A,black,man,,,,null,,,,,,,,,
16234,,,survey-text,151,831252,0.0-15.0-3.5,76831,List1A,black,man,,,,,"{""Q0"":""fred is being touched by luke""}","<img src=""stim_listA/touch6.gif""style=""height:400px;""></stim_listA>",is being touched by,,,,,,
null,"<div style=""font-size:60px;"">+</div>",,html-keyboard-response,152,831754,0.0-15.0-0.6,76831,List1A,black,man,,,,null,,,,,,,,,
null,"<img src=""stim_listA/seduce2.gif""style=""height:400px;""></stim_listA>",,html-keyboard-response,153,833758,0.0-15.0-1.6,76831,List1A,black,man,,,,null,,,,,,,,,
null,is being seduced by,,html-keyboard-response,154,835770,0.0-15.0-2.6,76831,List1A,black,man,,,,null,,,,,,,,,
14426,,,survey-text,155,850200,0.0-15.0-3.6,76831,List1A,black,man,,,,,"{""Q0"":""beth is being seduced by mike""}","<img src=""stim_listA/seduce2.gif""style=""height:400px;""></stim_listA>",is being seduced by,,,,,,
null,"<div style=""font-size:60px;"">+</div>",,html-keyboard-response,156,850709,0.0-15.0-0.7,76831,List1A,black,man,,,,null,,,,,,,,,
null,"<img src=""stim_listA/kiss7.gif""style=""height:400px;""></stim_listA>",,html-keyboard-response,157,852712,0.0-15.0-1.7,76831,List1A,black,man,,,,null,,,,,,,,,
null,is kissing,,html-keyboard-response,158,854722,0.0-15.0-2.7,76831,List1A,black,man,,,,null,,,,,,,,,
5241,,,survey-text,159,859968,0.0-15.0-3.7,76831,List1A,black,man,,,,,"{""Q0"":""ruth is kissing beth""}","<img src=""stim_listA/kiss7.gif""style=""height:400px;""></stim_listA>",is kissing,,,,,,
null,"<div style=""font-size:60px;"">+</div>",,html-keyboard-response,160,860475,0.0-15.0-0.8,76831,List1A,black,man,,,,null,,,,,,,,,
null,"<img src=""stim_listA/shout8.gif""style=""height:400px;""></stim_listA>",,html-keyboard-response,161,862478,0.0-15.0-1.8,76831,List1A,black,man,,,,null,,,,,,,,,
null,is being shouted at by,,html-keyboard-response,162,864486,0.0-15.0-2.8,76831,List1A,black,man,,,,null,,,,,,,,,
18990,,,survey-text,163,883481,0.0-15.0-3.8,76831,List1A,black,man,,,,,"{""Q0"":""jane is being shouted at by kate""}","<img src=""stim_listA/shout8.gif""style=""height:400px;""></stim_listA>",is being shouted at by,,,,,,
null,"<div style=""font-size:60px;"">+</div>",,html-keyboard-response,164,883995,0.0-15.0-0.9,76831,List1A,black,man,,,,null,,,,,,,,,
null,"<img src=""stim_listA/kiss5.gif""style=""height:400px;""></stim_listA>",,html-keyboard-response,165,886008,0.0-15.0-1.9,76831,List1A,black,man,,,,null,,,,,,,,,
null,is kissing,,html-keyboard-response,166,888014,0.0-15.0-2.9,76831,List1A,black,man,,,,null,,,,,,,,,
8394,,,survey-text,167,896413,0.0-15.0-3.9,76831,List1A,black,man,,,,,"{""Q0"":""luke is kissing fred""}","<img src=""stim_listA/kiss5.gif""style=""height:400px;""></stim_listA>",is kissing,,,,,,
null,"<div style=""font-size:60px;"">+</div>",,html-keyboard-response,168,896916,0.0-15.0-0.10,76831,List1A,black,man,,,,null,,,,,,,,,
null,"<img src=""stim_listA/look3.gif""style=""height:400px;""></stim_listA>",,html-keyboard-response,169,898932,0.0-15.0-1.10,76831,List1A,black,man,,,,null,,,,,,,,,
null,is looking at,,html-keyboard-response,170,900939,0.0-15.0-2.10,76831,List1A,black,man,,,,null,,,,,,,,,
10199,,,survey-text,171,911145,0.0-15.0-3.10,76831,List1A,black,man,,,,,"{""Q0"":""ruth is looking at luke""}","<img src=""stim_listA/look3.gif""style=""height:400px;""></stim_listA>",is looking at,,,,,,
null,"<div style=""font-size:60px;"">+</div>",,html-keyboard-response,172,911655,0.0-15.0-0.11,76831,List1A,black,man,,,,null,,,,,,,,,
null,"<img src=""stim_listA/seduce8.gif""style=""height:400px;""></stim_listA>",,html-keyboard-response,173,913663,0.0-15.0-1.11,76831,List1A,black,man,,,,null,,,,,,,,,
null,is being seduced by,,html-keyboard-response,174,915672,0.0-15.0-2.11,76831,List1A,black,man,,,,null,,,,,,,,,
11727,,,survey-text,175,927405,0.0-15.0-3.11,76831,List1A,black,man,,,,,"{""Q0"":""kate is being seduced by ruth""}","<img src=""stim_listA/seduce8.gif""style=""height:400px;""></stim_listA>",is being seduced by,,,,,,
null,"<div style=""font-size:60px;"">+</div>",,html-keyboard-response,176,927907,0.0-15.0-0.12,76831,List1A,black,man,,,,null,,,,,,,,,
null,"<img src=""stim_listA/copy6.gif""style=""height:400px;""></stim_listA>",,html-keyboard-response,177,929911,0.0-15.0-1.12,76831,List1A,black,man,,,,null,,,,,,,,,
null,is being copied by,,html-keyboard-response,178,931926,0.0-15.0-2.12,76831,List1A,black,man,,,,null,,,,,,,,,
12255,,,survey-text,179,944188,0.0-15.0-3.12,76831,List1A,black,man,,,,,"{""Q0"":""dave is being copied by fred""}","<img src=""stim_listA/copy6.gif""style=""height:400px;""></stim_listA>",is being copied by,,,,,,
null,"<div style=""font-size:60px;"">+</div>",,html-keyboard-response,180,944703,0.0-15.0-0.13,76831,List1A,black,man,,,,null,,,,,,,,,
null,"<img src=""stim_listA/oppose2.gif""style=""height:400px;""></stim_listA>",,html-keyboard-response,181,946722,0.0-15.0-1.13,76831,List1A,black,man,,,,null,,,,,,,,,
null,is being opposed by,,html-keyboard-response,182,948724,0.0-15.0-2.13,76831,List1A,black,man,,,,null,,,,,,,,,
11884,,,survey-text,183,960613,0.0-15.0-3.13,76831,List1A,black,man,,,,,"{""Q0"":""beth is being opposed by fred""}","<img src=""stim_listA/oppose2.gif""style=""height:400px;""></stim_listA>",is being opposed by,,,,,,
null,"<div style=""font-size:60px;"">+</div>",,html-keyboard-response,184,961121,0.0-15.0-0.14,76831,List1A,black,man,,,,null,,,,,,,,,
null,"<img src=""stim_listA/kiss4.gif""style=""height:400px;""></stim_listA>",,html-keyboard-response,185,963125,0.0-15.0-1.14,76831,List1A,black,man,,,,null,,,,,,,,,
null,is being kissed by,,html-keyboard-response,186,965137,0.0-15.0-2.14,76831,List1A,black,man,,,,null,,,,,,,,,
10644,,,survey-text,187,975787,0.0-15.0-3.14,76831,List1A,black,man,,,,,"{""Q0"":""jane is kissing dave""}","<img src=""stim_listA/kiss4.gif""style=""height:400px;""></stim_listA>",is being kissed by,,,,,,
null,"<div style=""font-size:60px;"">+</div>",,html-keyboard-response,188,976295,0.0-15.0-0.15,76831,List1A,black,man,,,,null,,,,,,,,,
null,"<img src=""stim_listA/look8.gif""style=""height:400px;""></stim_listA>",,html-keyboard-response,189,978300,0.0-15.0-1.15,76831,List1A,black,man,,,,null,,,,,,,,,
null,is being looked at by,,html-keyboard-response,190,980310,0.0-15.0-2.15,76831,List1A,black,man,,,,null,,,,,,,,,
12239,,,survey-text,191,992554,0.0-15.0-3.15,76831,List1A,black,man,,,,,"{""Q0"":""jane is being looked at by kate""}","<img src=""stim_listA/look8.gif""style=""height:400px;""></stim_listA>",is being looked at by,,,,,,
null,"<div style=""font-size:60px;"">+</div>",,html-keyboard-response,192,993070,0.0-15.0-0.16,76831,List1A,black,man,,,,null,,,,,,,,,
null,"<img src=""stim_listA/kiss2.gif""style=""height:400px;""></stim_listA>",,html-keyboard-response,193,995076,0.0-15.0-1.16,76831,List1A,black,man,,,,null,,,,,,,,,
null,is being kissed by,,html-keyboard-response,194,997089,0.0-15.0-2.16,76831,List1A,black,man,,,,null,,,,,,,,,
11575,,,survey-text,195,1008670,0.0-15.0-3.16,76831,List1A,black,man,,,,,"{""Q0"":""kate is being kissed by mike""}","<img src=""stim_listA/kiss2.gif""style=""height:400px;""></stim_listA>",is being kissed by,,,,,,
null,"<div style=""font-size:60px;"">+</div>",,html-keyboard-response,196,1009175,0.0-15.0-0.17,76831,List1A,black,man,,,,null,,,,,,,,,
null,"<img src=""stim_listA/challenge8.gif""style=""height:400px;""></stim_listA>",,html-keyboard-response,197,1011177,0.0-15.0-1.17,76831,List1A,black,man,,,,null,,,,,,,,,
null,is being challenged by,,html-keyboard-response,198,1013186,0.0-15.0-2.17,76831,List1A,black,man,,,,null,,,,,,,,,
19422,,,survey-text,199,1032620,0.0-15.0-3.17,76831,List1A,black,man,,,,,"{""Q0"":""jane is being challenging beth""}","<img src=""stim_listA/challenge8.gif""style=""height:400px;""></stim_listA>",is being challenged by,,,,,,
null,"<div style=""font-size:60px;"">+</div>",,html-keyboard-response,200,1033122,0.0-15.0-0.18,76831,List1A,black,man,,,,null,,,,,,,,,
null,"<img src=""stim_listA/copy3.gif""style=""height:400px;""></stim_listA>",,html-keyboard-response,201,1035131,0.0-15.0-1.18,76831,List1A,black,man,,,,null,,,,,,,,,
null,is copying,,html-keyboard-response,202,1037142,0.0-15.0-2.18,76831,List1A,black,man,,,,null,,,,,,,,,
9324,,,survey-text,203,1046471,0.0-15.0-3.18,76831,List1A,black,man,,,,,"{""Q0"":""ruth is copying dave""}","<img src=""stim_listA/copy3.gif""style=""height:400px;""></stim_listA>",is copying,,,,,,
null,"<div style=""font-size:60px;"">+</div>",,html-keyboard-response,204,1046974,0.0-15.0-0.19,76831,List1A,black,man,,,,null,,,,,,,,,
null,"<img src=""stim_listA/shout2.gif""style=""height:400px;""></stim_listA>",,html-keyboard-response,205,1048977,0.0-15.0-1.19,76831,List1A,black,man,,,,null,,,,,,,,,
null,is being shouted at by,,html-keyboard-response,206,1050987,0.0-15.0-2.19,76831,List1A,black,man,,,,null,,,,,,,,,
19540,,,survey-text,207,1070530,0.0-15.0-3.19,76831,List1A,black,man,,,,,"{""Q0"":""kate is being shout at by mike""}","<img src=""stim_listA/shout2.gif""style=""height:400px;""></stim_listA>",is being shouted at by,,,,,,
3808,"<img src='img/portrait_matrix_list1.jpg' style='width:900px;height:500px;''></img><p>If you have memorised all the portraits and names and are ready to start, press Continue.</p><p><strong>Please note: Your memory of these faces will be tested 4 times during this experiment.</strong></p>",0,html-button-response,208,1074341,0.0-16.0-0.0,76831,List1A,black,man,,,,,,,,,,,,,
2699,"<img src=""portrait/WW1.jpg""style=""height:400px;""></img>",1,html-button-response,209,1078044,0.0-16.0-1.0,76831,List1A,black,man,,TRUE,1,,,,,,,,,,
null,CORRECT,,html-keyboard-response,210,1079570,0.0-16.0-2.0-0.0,76831,List1A,black,man,,,,null,,,,,,,,,
2793,"<img src=""portrait/BM2.jpg""style=""height:400px;""></img>",5,html-button-response,211,1082365,0.0-16.0-4.0,76831,List1A,black,man,,TRUE,5,,,,,,,,,,
null,CORRECT,,html-keyboard-response,212,1083879,0.0-16.0-5.0-0.0,76831,List1A,black,man,,,,null,,,,,,,,,
2610,"<img src=""portrait/BW2.jpg""style=""height:400px;""></img>",2,html-button-response,213,1086492,0.0-16.0-7.0,76831,List1A,black,man,,TRUE,2,,,,,,,,,,
null,CORRECT,,html-keyboard-response,214,1088006,0.0-16.0-8.0-0.0,76831,List1A,black,man,,,,null,,,,,,,,,
2926,"<img src=""portrait/WM1.jpg""style=""height:400px;""></img>",6,html-button-response,215,1090935,0.0-16.0-10.0,76831,List1A,black,man,,TRUE,6,,,,,,,,,,
null,CORRECT,,html-keyboard-response,216,1092458,0.0-16.0-11.0-0.0,76831,List1A,black,man,,,,null,,,,,,,,,
3150,"<img src=""portrait/BW1.jpg""style=""height:400px;""></img>",0,html-button-response,217,1095611,0.0-16.0-13.0,76831,List1A,black,man,,TRUE,0,,,,,,,,,,
null,CORRECT,,html-keyboard-response,218,1097124,0.0-16.0-14.0-0.0,76831,List1A,black,man,,,,null,,,,,,,,,
2003,"<img src=""portrait/BM1.jpg""style=""height:400px;""></img>",4,html-button-response,219,1099130,0.0-16.0-16.0,76831,List1A,black,man,,TRUE,4,,,,,,,,,,
null,CORRECT,,html-keyboard-response,220,1100646,0.0-16.0-17.0-0.0,76831,List1A,black,man,,,,null,,,,,,,,,
3266,"<img src=""portrait/WW2.jpg""style=""height:400px;""></img>",3,html-button-response,221,1103914,0.0-16.0-19.0,76831,List1A,black,man,,TRUE,3,,,,,,,,,,
null,CORRECT,,html-keyboard-response,222,1105431,0.0-16.0-20.0-0.0,76831,List1A,black,man,,,,null,,,,,,,,,
2036,"<img src=""portrait/WM2.jpg""style=""height:400px;""></img>",7,html-button-response,223,1107469,0.0-16.0-22.0,76831,List1A,black,man,,TRUE,7,,,,,,,,,,
null,CORRECT,,html-keyboard-response,224,1108980,0.0-16.0-23.0-0.0,76831,List1A,black,man,,,,null,,,,,,,,,
1681,<p>You got 8 out of 8 right first time. Press Continue.</p>,0,html-button-response,225,1110664,0.0-16.0-25.0,76831,List1A,black,man,,,,,,,,,,,,,
null,"<div style=""font-size:60px;"">+</div>",,html-keyboard-response,226,1112177,0.0-17.0-0.0,76831,List1A,black,man,,,,null,,,,,,,,,
null,"<img src=""stim_listA/greet4.gif""style=""height:400px;""></stim_listA>",,html-keyboard-response,227,1114182,0.0-17.0-1.0,76831,List1A,black,man,,,,null,,,,,,,,,
null,is being greeted by,,html-keyboard-response,228,1116191,0.0-17.0-2.0,76831,List1A,black,man,,,,null,,,,,,,,,
13326,,,survey-text,229,1129522,0.0-17.0-3.0,76831,List1A,black,man,,,,,"{""Q0"":""jane is being greeted by luke""}","<img src=""stim_listA/greet4.gif""style=""height:400px;""></stim_listA>",is being greeted by,,,,,,
null,"<div style=""font-size:60px;"">+</div>",,html-keyboard-response,230,1130031,0.0-17.0-0.1,76831,List1A,black,man,,,,null,,,,,,,,,
null,"<img src=""stim_listA/oppose4.gif""style=""height:400px;""></stim_listA>",,html-keyboard-response,231,1132038,0.0-17.0-1.1,76831,List1A,black,man,,,,null,,,,,,,,,
null,is being opposed by,,html-keyboard-response,232,1134045,0.0-17.0-2.1,76831,List1A,black,man,,,,null,,,,,,,,,
13254,,,survey-text,233,1147304,0.0-17.0-3.1,76831,List1A,black,man,,,,,"{""Q0"":""ruth is being opposed by luke""}","<img src=""stim_listA/oppose4.gif""style=""height:400px;""></stim_listA>",is being opposed by,,,,,,
null,"<div style=""font-size:60px;"">+</div>",,html-keyboard-response,234,1147821,0.0-17.0-0.2,76831,List1A,black,man,,,,null,,,,,,,,,
null,"<img src=""stim_listA/kiss8.gif""style=""height:400px;""></stim_listA>",,html-keyboard-response,235,1149830,0.0-17.0-1.2,76831,List1A,black,man,,,,null,,,,,,,,,
null,is being kissed by,,html-keyboard-response,236,1151838,0.0-17.0-2.2,76831,List1A,black,man,,,,null,,,,,,,,,
21263,,,survey-text,237,1173111,0.0-17.0-3.2,76831,List1A,black,man,,,,,"{""Q0"":""kate is being kissed by jane""}","<img src=""stim_listA/kiss8.gif""style=""height:400px;""></stim_listA>",is being kissed by,,,,,,
null,"<div style=""font-size:60px;"">+</div>",,html-keyboard-response,238,1173627,0.0-17.0-0.3,76831,List1A,black,man,,,,null,,,,,,,,,
null,"<img src=""stim_listA/hug3.gif""style=""height:400px;""></stim_listA>",,html-keyboard-response,239,1175632,0.0-17.0-1.3,76831,List1A,black,man,,,,null,,,,,,,,,
null,is hugging,,html-keyboard-response,240,1177641,0.0-17.0-2.3,76831,List1A,black,man,,,,null,,,,,,,,,
15299,,,survey-text,241,1192944,0.0-17.0-3.3,76831,List1A,black,man,,,,,"{""Q0"":""luke is hugging ruth""}","<img src=""stim_listA/hug3.gif""style=""height:400px;""></stim_listA>",is hugging,,,,,,
null,"<div style=""font-size:60px;"">+</div>",,html-keyboard-response,242,1193455,0.0-17.0-0.4,76831,List1A,black,man,,,,null,,,,,,,,,
null,"<img src=""stim_listA/greet1.gif""style=""height:400px;""></stim_listA>",,html-keyboard-response,243,1195465,0.0-17.0-1.4,76831,List1A,black,man,,,,null,,,,,,,,,
null,is greeting,,html-keyboard-response,244,1197471,0.0-17.0-2.4,76831,List1A,black,man,,,,null,,,,,,,,,
6515,,,survey-text,245,1203991,0.0-17.0-3.4,76831,List1A,black,man,,,,,"{""Q0"":""beth is greeting mike""}","<img src=""stim_listA/greet1.gif""style=""height:400px;""></stim_listA>",is greeting,,,,,,
null,"<div style=""font-size:60px;"">+</div>",,html-keyboard-response,246,1204496,0.0-17.0-0.5,76831,List1A,black,man,,,,null,,,,,,,,,
null,"<img src=""stim_listA/seduce5.gif""style=""height:400px;""></stim_listA>",,html-keyboard-response,247,1206501,0.0-17.0-1.5,76831,List1A,black,man,,,,null,,,,,,,,,
null,is seducing,,html-keyboard-response,248,1208504,0.0-17.0-2.5,76831,List1A,black,man,,,,null,,,,,,,,,
8584,,,survey-text,249,1217094,0.0-17.0-3.5,76831,List1A,black,man,,,,,"{""Q0"":""fred is seducing dave""}","<img src=""stim_listA/seduce5.gif""style=""height:400px;""></stim_listA>",is seducing,,,,,,
null,"<div style=""font-size:60px;"">+</div>",,html-keyboard-response,250,1217611,0.0-17.0-0.6,76831,List1A,black,man,,,,null,,,,,,,,,
null,"<img src=""stim_listA/touch4.gif""style=""height:400px;""></stim_listA>",,html-keyboard-response,251,1219629,0.0-17.0-1.6,76831,List1A,black,man,,,,null,,,,,,,,,
null,is being touched by,,html-keyboard-response,252,1221636,0.0-17.0-2.6,76831,List1A,black,man,,,,null,,,,,,,,,
11666,,,survey-text,253,1233307,0.0-17.0-3.6,76831,List1A,black,man,,,,,"{""Q0"":""ruth is being touched by luke""}","<img src=""stim_listA/touch4.gif""style=""height:400px;""></stim_listA>",is being touched by,,,,,,
null,"<div style=""font-size:60px;"">+</div>",,html-keyboard-response,254,1233816,0.0-17.0-0.7,76831,List1A,black,man,,,,null,,,,,,,,,
null,"<img src=""stim_listA/shout6.gif""style=""height:400px;""></stim_listA>",,html-keyboard-response,255,1235820,0.0-17.0-1.7,76831,List1A,black,man,,,,null,,,,,,,,,
null,is being shouted at by,,html-keyboard-response,256,1237831,0.0-17.0-2.7,76831,List1A,black,man,,,,null,,,,,,,,,
10826,,,survey-text,257,1248662,0.0-17.0-3.7,76831,List1A,black,man,,,,,"{""Q0"":""dave is being shouted at by mike""}","<img src=""stim_listA/shout6.gif""style=""height:400px;""></stim_listA>",is being shouted at by,,,,,,
null,"<div style=""font-size:60px;"">+</div>",,html-keyboard-response,258,1249164,0.0-17.0-0.8,76831,List1A,black,man,,,,null,,,,,,,,,
null,"<img src=""stim_listA/seduce6.gif""style=""height:400px;""></stim_listA>",,html-keyboard-response,259,1251168,0.0-17.0-1.8,76831,List1A,black,man,,,,null,,,,,,,,,
null,is being seduced by,,html-keyboard-response,260,1253176,0.0-17.0-2.8,76831,List1A,black,man,,,,null,,,,,,,,,
17647,,,survey-text,261,1270828,0.0-17.0-3.8,76831,List1A,black,man,,,,,"{""Q0"":""mike is being seduced by luke""}","<img src=""stim_listA/seduce6.gif""style=""height:400px;""></stim_listA>",is being seduced by,,,,,,
null,"<div style=""font-size:60px;"">+</div>",,html-keyboard-response,262,1271337,0.0-17.0-0.9,76831,List1A,black,man,,,,null,,,,,,,,,
null,"<img src=""stim_listA/challenge3.gif""style=""height:400px;""></stim_listA>",,html-keyboard-response,263,1273344,0.0-17.0-1.9,76831,List1A,black,man,,,,null,,,,,,,,,
null,is challenging,,html-keyboard-response,264,1275352,0.0-17.0-2.9,76831,List1A,black,man,,,,null,,,,,,,,,
14835,,,survey-text,265,1290193,0.0-17.0-3.9,76831,List1A,black,man,,,,,"{""Q0"":""ruth is challenging dave""}","<img src=""stim_listA/challenge3.gif""style=""height:400px;""></stim_listA>",is challenging,,,,,,
null,"<div style=""font-size:60px;"">+</div>",,html-keyboard-response,266,1290709,0.0-17.0-0.10,76831,List1A,black,man,,,,null,,,,,,,,,
null,"<img src=""stim_listA/touch8.gif""style=""height:400px;""></stim_listA>",,html-keyboard-response,267,1292716,0.0-17.0-1.10,76831,List1A,black,man,,,,null,,,,,,,,,
null,is being touched by,,html-keyboard-response,268,1294722,0.0-17.0-2.10,76831,List1A,black,man,,,,null,,,,,,,,,
12984,,,survey-text,269,1307711,0.0-17.0-3.10,76831,List1A,black,man,,,,,"{""Q0"":""ruth is being touched by beth""}","<img src=""stim_listA/touch8.gif""style=""height:400px;""></stim_listA>",is being touched by,,,,,,
null,"<div style=""font-size:60px;"">+</div>",,html-keyboard-response,270,1308215,0.0-17.0-0.11,76831,List1A,black,man,,,,null,,,,,,,,,
null,"<img src=""stim_listA/copy2.gif""style=""height:400px;""></stim_listA>",,html-keyboard-response,271,1310230,0.0-17.0-1.11,76831,List1A,black,man,,,,null,,,,,,,,,
null,is being copied by,,html-keyboard-response,272,1312237,0.0-17.0-2.11,76831,List1A,black,man,,,,null,,,,,,,,,
14080,,,survey-text,273,1326322,0.0-17.0-3.11,76831,List1A,black,man,,,,,"{""Q0"":""fred is copying kate""}","<img src=""stim_listA/copy2.gif""style=""height:400px;""></stim_listA>",is being copied by,,,,,,
null,"<div style=""font-size:60px;"">+</div>",,html-keyboard-response,274,1326839,0.0-17.0-0.12,76831,List1A,black,man,,,,null,,,,,,,,,
null,"<img src=""stim_listA/shout5.gif""style=""height:400px;""></stim_listA>",,html-keyboard-response,275,1328842,0.0-17.0-1.12,76831,List1A,black,man,,,,null,,,,,,,,,
null,is shouting at,,html-keyboard-response,276,1330855,0.0-17.0-2.12,76831,List1A,black,man,,,,null,,,,,,,,,
10597,,,survey-text,277,1341458,0.0-17.0-3.12,76831,List1A,black,man,,,,,"{""Q0"":""luke is shouting at fred""}","<img src=""stim_listA/shout5.gif""style=""height:400px;""></stim_listA>",is shouting at,,,,,,
null,"<div style=""font-size:60px;"">+</div>",,html-keyboard-response,278,1341973,0.0-17.0-0.13,76831,List1A,black,man,,,,null,,,,,,,,,
null,"<img src=""stim_listA/seduce4.gif""style=""height:400px;""></stim_listA>",,html-keyboard-response,279,1343977,0.0-17.0-1.13,76831,List1A,black,man,,,,null,,,,,,,,,
null,is being seduced by,,html-keyboard-response,280,1345987,0.0-17.0-2.13,76831,List1A,black,man,,,,null,,,,,,,,,
11165,,,survey-text,281,1357157,0.0-17.0-3.13,76831,List1A,black,man,,,,,"{""Q0"":""ruth is being seduced by dave""}","<img src=""stim_listA/seduce4.gif""style=""height:400px;""></stim_listA>",is being seduced by,,,,,,
null,"<div style=""font-size:60px;"">+</div>",,html-keyboard-response,282,1357670,0.0-17.0-0.14,76831,List1A,black,man,,,,null,,,,,,,,,
null,"<img src=""stim_listA/greet3.gif""style=""height:400px;""></stim_listA>",,html-keyboard-response,283,1359674,0.0-17.0-1.14,76831,List1A,black,man,,,,null,,,,,,,,,
null,is greeting,,html-keyboard-response,284,1361683,0.0-17.0-2.14,76831,List1A,black,man,,,,null,,,,,,,,,
10522,,,survey-text,285,1372209,0.0-17.0-3.14,76831,List1A,black,man,,,,,"{""Q0"":""ruth is greeting dave""}","<img src=""stim_listA/greet3.gif""style=""height:400px;""></stim_listA>",is greeting,,,,,,
null,"<div style=""font-size:60px;"">+</div>",,html-keyboard-response,286,1372722,0.0-17.0-0.15,76831,List1A,black,man,,,,null,,,,,,,,,
null,"<img src=""stim_listA/oppose8.gif""style=""height:400px;""></stim_listA>",,html-keyboard-response,287,1374724,0.0-17.0-1.15,76831,List1A,black,man,,,,null,,,,,,,,,
null,is being opposed by,,html-keyboard-response,288,1376731,0.0-17.0-2.15,76831,List1A,black,man,,,,null,,,,,,,,,
9529,,,survey-text,289,1386270,0.0-17.0-3.15,76831,List1A,black,man,,,,,"{""Q0"":""ruth is being opposed by beth""}","<img src=""stim_listA/oppose8.gif""style=""height:400px;""></stim_listA>",is being opposed by,,,,,,
null,"<div style=""font-size:60px;"">+</div>",,html-keyboard-response,290,1386778,0.0-17.0-0.16,76831,List1A,black,man,,,,null,,,,,,,,,
null,"<img src=""stim_listA/greet5.gif""style=""height:400px;""></stim_listA>",,html-keyboard-response,291,1388787,0.0-17.0-1.16,76831,List1A,black,man,,,,null,,,,,,,,,
null,is greeting,,html-keyboard-response,292,1390792,0.0-17.0-2.16,76831,List1A,black,man,,,,null,,,,,,,,,
8548,,,survey-text,293,1399343,0.0-17.0-3.16,76831,List1A,black,man,,,,,"{""Q0"":""luke is greeting mike""}","<img src=""stim_listA/greet5.gif""style=""height:400px;""></stim_listA>",is greeting,,,,,,
null,"<div style=""font-size:60px;"">+</div>",,html-keyboard-response,294,1399858,0.0-17.0-0.17,76831,List1A,black,man,,,,null,,,,,,,,,
null,"<img src=""stim_listA/touch1.gif""style=""height:400px;""></stim_listA>",,html-keyboard-response,295,1401862,0.0-17.0-1.17,76831,List1A,black,man,,,,null,,,,,,,,,
null,is touching,,html-keyboard-response,296,1403876,0.0-17.0-2.17,76831,List1A,black,man,,,,null,,,,,,,,,
16227,,,survey-text,297,1420107,0.0-17.0-3.17,76831,List1A,black,man,,,,,"{""Q0"":"" mike is touching kate""}","<img src=""stim_listA/touch1.gif""style=""height:400px;""></stim_listA>",is touching,,,,,,
null,"<div style=""font-size:60px;"">+</div>",,html-keyboard-response,298,1420611,0.0-17.0-0.18,76831,List1A,black,man,,,,null,,,,,,,,,
null,"<img src=""stim_listA/copy4.gif""style=""height:400px;""></stim_listA>",,html-keyboard-response,299,1422615,0.0-17.0-1.18,76831,List1A,black,man,,,,null,,,,,,,,,
null,is being copied by,,html-keyboard-response,300,1424630,0.0-17.0-2.18,76831,List1A,black,man,,,,null,,,,,,,,,
11763,,,survey-text,301,1436396,0.0-17.0-3.18,76831,List1A,black,man,,,,,"{""Q0"":""jane is being copied by luke""}","<img src=""stim_listA/copy4.gif""style=""height:400px;""></stim_listA>",is being copied by,,,,,,
null,"<div style=""font-size:60px;"">+</div>",,html-keyboard-response,302,1436899,0.0-17.0-0.19,76831,List1A,black,man,,,,null,,,,,,,,,
null,"<img src=""stim_listA/hug7.gif""style=""height:400px;""></stim_listA>",,html-keyboard-response,303,1438902,0.0-17.0-1.19,76831,List1A,black,man,,,,null,,,,,,,,,
null,is hugging,,html-keyboard-response,304,1440902,0.0-17.0-2.19,76831,List1A,black,man,,,,null,,,,,,,,,
12267,,,survey-text,305,1453175,0.0-17.0-3.19,76831,List1A,black,man,,,,,"{""Q0"":""ruth is hugging beth""}","<img src=""stim_listA/hug7.gif""style=""height:400px;""></stim_listA>",is hugging,,,,,,
3830,"<img src='img/portrait_matrix_list1.jpg' style='width:900px;height:500px;''></img><p>If you have memorised all the portraits and names and are ready to start, press Continue.</p><p><strong>Please note: Your memory of these faces will be tested 4 times during this experiment.</strong></p>",0,html-button-response,306,1457008,0.0-18.0-0.0,76831,List1A,black,man,,,,,,,,,,,,,
2848,"<img src=""portrait/WW2.jpg""style=""height:400px;""></img>",3,html-button-response,307,1460866,0.0-18.0-1.0,76831,List1A,black,man,,TRUE,3,,,,,,,,,,
null,CORRECT,,html-keyboard-response,308,1462386,0.0-18.0-2.0-0.0,76831,List1A,black,man,,,,null,,,,,,,,,
3577,"<img src=""portrait/BM1.jpg""style=""height:400px;""></img>",4,html-button-response,309,1465965,0.0-18.0-4.0,76831,List1A,black,man,,TRUE,4,,,,,,,,,,
null,CORRECT,,html-keyboard-response,310,1467486,0.0-18.0-5.0-0.0,76831,List1A,black,man,,,,null,,,,,,,,,
5569,"<img src=""portrait/BM2.jpg""style=""height:400px;""></img>",5,html-button-response,311,1473058,0.0-18.0-7.0,76831,List1A,black,man,,TRUE,5,,,,,,,,,,
null,CORRECT,,html-keyboard-response,312,1474579,0.0-18.0-8.0-0.0,76831,List1A,black,man,,,,null,,,,,,,,,
2263,"<img src=""portrait/WM2.jpg""style=""height:400px;""></img>",7,html-button-response,313,1476846,0.0-18.0-10.0,76831,List1A,black,man,,TRUE,7,,,,,,,,,,
null,CORRECT,,html-keyboard-response,314,1478364,0.0-18.0-11.0-0.0,76831,List1A,black,man,,,,null,,,,,,,,,
2078,"<img src=""portrait/BW1.jpg""style=""height:400px;""></img>",0,html-button-response,315,1480444,0.0-18.0-13.0,76831,List1A,black,man,,TRUE,0,,,,,,,,,,
null,CORRECT,,html-keyboard-response,316,1481963,0.0-18.0-14.0-0.0,76831,List1A,black,man,,,,null,,,,,,,,,
3123,"<img src=""portrait/WM1.jpg""style=""height:400px;""></img>",6,html-button-response,317,1485088,0.0-18.0-16.0,76831,List1A,black,man,,TRUE,6,,,,,,,,,,
null,CORRECT,,html-keyboard-response,318,1486613,0.0-18.0-17.0-0.0,76831,List1A,black,man,,,,null,,,,,,,,,
2642,"<img src=""portrait/BW2.jpg""style=""height:400px;""></img>",2,html-button-response,319,1489257,0.0-18.0-19.0,76831,List1A,black,man,,TRUE,2,,,,,,,,,,
null,CORRECT,,html-keyboard-response,320,1490780,0.0-18.0-20.0-0.0,76831,List1A,black,man,,,,null,,,,,,,,,
4323,"<img src=""portrait/WW1.jpg""style=""height:400px;""></img>",1,html-button-response,321,1495105,0.0-18.0-22.0,76831,List1A,black,man,,TRUE,1,,,,,,,,,,
null,CORRECT,,html-keyboard-response,322,1496623,0.0-18.0-23.0-0.0,76831,List1A,black,man,,,,null,,,,,,,,,
1859,<p>You got 8 out of 8 right first time. Press Continue.</p>,0,html-button-response,323,1498485,0.0-18.0-25.0,76831,List1A,black,man,,,,,,,,,,,,,
null,"<div style=""font-size:60px;"">+</div>",,html-keyboard-response,324,1500011,0.0-19.0-0.0,76831,List1A,black,man,,,,null,,,,,,,,,
null,"<img src=""stim_listA/oppose1.gif""style=""height:400px;""></stim_listA>",,html-keyboard-response,325,1502017,0.0-19.0-1.0,76831,List1A,black,man,,,,null,,,,,,,,,
null,is opposing,,html-keyboard-response,326,1504019,0.0-19.0-2.0,76831,List1A,black,man,,,,null,,,,,,,,,
10352,,,survey-text,327,1514376,0.0-19.0-3.0,76831,List1A,black,man,,,,,"{""Q0"":""mike is opposing kate""}","<img src=""stim_listA/oppose1.gif""style=""height:400px;""></stim_listA>",is opposing,,,,,,
null,"<div style=""font-size:60px;"">+</div>",,html-keyboard-response,328,1514891,0.0-19.0-0.1,76831,List1A,black,man,,,,null,,,,,,,,,
null,"<img src=""stim_listA/kiss6.gif""style=""height:400px;""></stim_listA>",,html-keyboard-response,329,1516898,0.0-19.0-1.1,76831,List1A,black,man,,,,null,,,,,,,,,
null,is being kissed by,,html-keyboard-response,330,1518904,0.0-19.0-2.1,76831,List1A,black,man,,,,null,,,,,,,,,
13547,,,survey-text,331,1532456,0.0-19.0-3.1,76831,List1A,black,man,,,,,"{""Q0"":""mike is being kissed by dave""}","<img src=""stim_listA/kiss6.gif""style=""height:400px;""></stim_listA>",is being kissed by,,,,,,
null,"<div style=""font-size:60px;"">+</div>",,html-keyboard-response,332,1532962,0.0-19.0-0.2,76831,List1A,black,man,,,,null,,,,,,,,,
null,"<img src=""stim_listA/greet2.gif""style=""height:400px;""></stim_listA>",,html-keyboard-response,333,1534967,0.0-19.0-1.2,76831,List1A,black,man,,,,null,,,,,,,,,
null,is being greeted by,,html-keyboard-response,334,1536975,0.0-19.0-2.2,76831,List1A,black,man,,,,null,,,,,,,,,
15677,,,survey-text,335,1552662,0.0-19.0-3.2,76831,List1A,black,man,,,,,"{""Q0"":""fred is being greeted by kate""}","<img src=""stim_listA/greet2.gif""style=""height:400px;""></stim_listA>",is being greeted by,,,,,,
null,"<div style=""font-size:60px;"">+</div>",,html-keyboard-response,336,1553175,0.0-19.0-0.3,76831,List1A,black,man,,,,null,,,,,,,,,
null,"<img src=""stim_listA/touch2.gif""style=""height:400px;""></stim_listA>",,html-keyboard-response,337,1555180,0.0-19.0-1.3,76831,List1A,black,man,,,,null,,,,,,,,,
null,is being touched by,,html-keyboard-response,338,1557190,0.0-19.0-2.3,76831,List1A,black,man,,,,null,,,,,,,,,
11700,,,survey-text,339,1568896,0.0-19.0-3.3,76831,List1A,black,man,,,,,"{""Q0"":""fred is being touched by beth""}","<img src=""stim_listA/touch2.gif""style=""height:400px;""></stim_listA>",is being touched by,,,,,,
null,"<div style=""font-size:60px;"">+</div>",,html-keyboard-response,340,1569399,0.0-19.0-0.4,76831,List1A,black,man,,,,null,,,,,,,,,
null,"<img src=""stim_listA/copy1.gif""style=""height:400px;""></stim_listA>",,html-keyboard-response,341,1571420,0.0-19.0-1.4,76831,List1A,black,man,,,,null,,,,,,,,,
null,is copying,,html-keyboard-response,342,1573426,0.0-19.0-2.4,76831,List1A,black,man,,,,null,,,,,,,,,
8273,,,survey-text,343,1581704,0.0-19.0-3.4,76831,List1A,black,man,,,,,"{""Q0"":""beth is copying mike""}","<img src=""stim_listA/copy1.gif""style=""height:400px;""></stim_listA>",is copying,,,,,,
null,"<div style=""font-size:60px;"">+</div>",,html-keyboard-response,344,1582206,0.0-19.0-0.5,76831,List1A,black,man,,,,null,,,,,,,,,
null,"<img src=""stim_listA/hug8.gif""style=""height:400px;""></stim_listA>",,html-keyboard-response,345,1584215,0.0-19.0-1.5,76831,List1A,black,man,,,,null,,,,,,,,,
null,is being hugged by,,html-keyboard-response,346,1586222,0.0-19.0-2.5,76831,List1A,black,man,,,,null,,,,,,,,,
15862,,,survey-text,347,1602089,0.0-19.0-3.5,76831,List1A,black,man,,,,,"{""Q0"":""jane is being hugged by kate""}","<img src=""stim_listA/hug8.gif""style=""height:400px;""></stim_listA>",is being hugged by,,,,,,
null,"<div style=""font-size:60px;"">+</div>",,html-keyboard-response,348,1602605,0.0-19.0-0.6,76831,List1A,black,man,,,,null,,,,,,,,,
null,"<img src=""stim_listA/challenge7.gif""style=""height:400px;""></stim_listA>",,html-keyboard-response,349,1604613,0.0-19.0-1.6,76831,List1A,black,man,,,,null,,,,,,,,,
null,is challenging,,html-keyboard-response,350,1606616,0.0-19.0-2.6,76831,List1A,black,man,,,,null,,,,,,,,,
12431,,,survey-text,351,1619051,0.0-19.0-3.6,76831,List1A,black,man,,,,,"{""Q0"":""kate is challenging ruth""}","<img src=""stim_listA/challenge7.gif""style=""height:400px;""></stim_listA>",is challenging,,,,,,
null,"<div style=""font-size:60px;"">+</div>",,html-keyboard-response,352,1619562,0.0-19.0-0.7,76831,List1A,black,man,,,,null,,,,,,,,,
null,"<img src=""stim_listA/hug4.gif""style=""height:400px;""></stim_listA>",,html-keyboard-response,353,1621569,0.0-19.0-1.7,76831,List1A,black,man,,,,null,,,,,,,,,
null,is being hugged by,,html-keyboard-response,354,1623570,0.0-19.0-2.7,76831,List1A,black,man,,,,null,,,,,,,,,
15209,,,survey-text,355,1638783,0.0-19.0-3.7,76831,List1A,black,man,,,,,"{""Q0"":""jane is being hugged by dave""}","<img src=""stim_listA/hug4.gif""style=""height:400px;""></stim_listA>",is being hugged by,,,,,,
null,"<div style=""font-size:60px;"">+</div>",,html-keyboard-response,356,1639289,0.0-19.0-0.8,76831,List1A,black,man,,,,null,,,,,,,,,
null,"<img src=""stim_listA/seduce1.gif""style=""height:400px;""></stim_listA>",,html-keyboard-response,357,1641292,0.0-19.0-1.8,76831,List1A,black,man,,,,null,,,,,,,,,
null,is seducing,,html-keyboard-response,358,1643301,0.0-19.0-2.8,76831,List1A,black,man,,,,null,,,,,,,,,
15037,,,survey-text,359,1658343,0.0-19.0-3.8,76831,List1A,black,man,,,,,"{""Q0"":""fred is seducing kate""}","<img src=""stim_listA/seduce1.gif""style=""height:400px;""></stim_listA>",is seducing,,,,,,
null,"<div style=""font-size:60px;"">+</div>",,html-keyboard-response,360,1658854,0.0-19.0-0.9,76831,List1A,black,man,,,,null,,,,,,,,,
null,"<img src=""stim_listA/challenge5.gif""style=""height:400px;""></stim_listA>",,html-keyboard-response,361,1660862,0.0-19.0-1.9,76831,List1A,black,man,,,,null,,,,,,,,,
null,is challenging,,html-keyboard-response,362,1662869,0.0-19.0-2.9,76831,List1A,black,man,,,,null,,,,,,,,,
9393,,,survey-text,363,1672270,0.0-19.0-3.9,76831,List1A,black,man,,,,,"{""Q0"":""mike is challenging luke""}","<img src=""stim_listA/challenge5.gif""style=""height:400px;""></stim_listA>",is challenging,,,,,,
null,"<div style=""font-size:60px;"">+</div>",,html-keyboard-response,364,1672779,0.0-19.0-0.10,76831,List1A,black,man,,,,null,,,,,,,,,
null,"<img src=""stim_listA/copy7.gif""style=""height:400px;""></stim_listA>",,html-keyboard-response,365,1674783,0.0-19.0-1.10,76831,List1A,black,man,,,,null,,,,,,,,,
null,is copying,,html-keyboard-response,366,1676797,0.0-19.0-2.10,76831,List1A,black,man,,,,null,,,,,,,,,
10408,,,survey-text,367,1687209,0.0-19.0-3.10,76831,List1A,black,man,,,,,"{""Q0"":""ruth is copying kate""}","<img src=""stim_listA/copy7.gif""style=""height:400px;""></stim_listA>",is copying,,,,,,
null,"<div style=""font-size:60px;"">+</div>",,html-keyboard-response,368,1687726,0.0-19.0-0.11,76831,List1A,black,man,,,,null,,,,,,,,,
null,"<img src=""stim_listA/shout3.gif""style=""height:400px;""></stim_listA>",,html-keyboard-response,369,1689730,0.0-19.0-1.11,76831,List1A,black,man,,,,null,,,,,,,,,
null,is shouting at,,html-keyboard-response,370,1691740,0.0-19.0-2.11,76831,List1A,black,man,,,,null,,,,,,,,,
9478,,,survey-text,371,1701222,0.0-19.0-3.11,76831,List1A,black,man,,,,,"{""Q0"":""ruth is shouting at luke""}","<img src=""stim_listA/shout3.gif""style=""height:400px;""></stim_listA>",is shouting at,,,,,,
null,"<div style=""font-size:60px;"">+</div>",,html-keyboard-response,372,1701724,0.0-19.0-0.12,76831,List1A,black,man,,,,null,,,,,,,,,
null,"<img src=""stim_listA/kiss1.gif""style=""height:400px;""></stim_listA>",,html-keyboard-response,373,1703734,0.0-19.0-1.12,76831,List1A,black,man,,,,null,,,,,,,,,
null,is kissing,,html-keyboard-response,374,1705739,0.0-19.0-2.12,76831,List1A,black,man,,,,null,,,,,,,,,
6191,,,survey-text,375,1711934,0.0-19.0-3.12,76831,List1A,black,man,,,,,"{""Q0"":""fred is kissing beth""}","<img src=""stim_listA/kiss1.gif""style=""height:400px;""></stim_listA>",is kissing,,,,,,
null,"<div style=""font-size:60px;"">+</div>",,html-keyboard-response,376,1712451,0.0-19.0-0.13,76831,List1A,black,man,,,,null,,,,,,,,,
null,"<img src=""stim_listA/copy5.gif""style=""height:400px;""></stim_listA>",,html-keyboard-response,377,1714455,0.0-19.0-1.13,76831,List1A,black,man,,,,null,,,,,,,,,
null,is copying,,html-keyboard-response,378,1716457,0.0-19.0-2.13,76831,List1A,black,man,,,,null,,,,,,,,,
9482,,,survey-text,379,1725944,0.0-19.0-3.13,76831,List1A,black,man,,,,,"{""Q0"":""luke is copying mike""}","<img src=""stim_listA/copy5.gif""style=""height:400px;""></stim_listA>",is copying,,,,,,
null,"<div style=""font-size:60px;"">+</div>",,html-keyboard-response,380,1726446,0.0-19.0-0.14,76831,List1A,black,man,,,,null,,,,,,,,,
null,"<img src=""stim_listA/touch5.gif""style=""height:400px;""></stim_listA>",,html-keyboard-response,381,1728450,0.0-19.0-1.14,76831,List1A,black,man,,,,null,,,,,,,,,
null,is touching,,html-keyboard-response,382,1730458,0.0-19.0-2.14,76831,List1A,black,man,,,,null,,,,,,,,,
13624,,,survey-text,383,1744087,0.0-19.0-3.14,76831,List1A,black,man,,,,,"{""Q0"":""dave is touching mike""}","<img src=""stim_listA/touch5.gif""style=""height:400px;""></stim_listA>",is touching,,,,,,
null,"<div style=""font-size:60px;"">+</div>",,html-keyboard-response,384,1744598,0.0-19.0-0.15,76831,List1A,black,man,,,,null,,,,,,,,,
null,"<img src=""stim_listA/shout7.gif""style=""height:400px;""></stim_listA>",,html-keyboard-response,385,1746605,0.0-19.0-1.15,76831,List1A,black,man,,,,null,,,,,,,,,
null,is shouting at,,html-keyboard-response,386,1748614,0.0-19.0-2.15,76831,List1A,black,man,,,,null,,,,,,,,,
21390,,,survey-text,387,1770009,0.0-19.0-3.15,76831,List1A,black,man,,,,,"{""Q0"":""dave is touching ruth""}","<img src=""stim_listA/shout7.gif""style=""height:400px;""></stim_listA>",is shouting at,,,,,,
null,"<div style=""font-size:60px;"">+</div>",,html-keyboard-response,388,1770512,0.0-19.0-0.16,76831,List1A,black,man,,,,null,,,,,,,,,
null,"<img src=""stim_listA/look2.gif""style=""height:400px;""></stim_listA>",,html-keyboard-response,389,1772521,0.0-19.0-1.16,76831,List1A,black,man,,,,null,,,,,,,,,
null,is being looked at by,,html-keyboard-response,390,1774525,0.0-19.0-2.16,76831,List1A,black,man,,,,null,,,,,,,,,
8717,,,survey-text,391,1783276,0.0-19.0-3.16,76831,List1A,black,man,,,,,"{""Q0"":""kate is being looked at by mike""}","<img src=""stim_listA/look2.gif""style=""height:400px;""></stim_listA>",is being looked at by,,,,,,
null,"<div style=""font-size:60px;"">+</div>",,html-keyboard-response,392,1783793,0.0-19.0-0.17,76831,List1A,black,man,,,,null,,,,,,,,,
null,"<img src=""stim_listA/seduce3.gif""style=""height:400px;""></stim_listA>",,html-keyboard-response,393,1785810,0.0-19.0-1.17,76831,List1A,black,man,,,,null,,,,,,,,,
null,is seducing,,html-keyboard-response,394,1787812,0.0-19.0-2.17,76831,List1A,black,man,,,,null,,,,,,,,,
11691,,,survey-text,395,1799508,0.0-19.0-3.17,76831,List1A,black,man,,,,,"{""Q0"":""jane is seducing luke""}","<img src=""stim_listA/seduce3.gif""style=""height:400px;""></stim_listA>",is seducing,,,,,,
null,"<div style=""font-size:60px;"">+</div>",,html-keyboard-response,396,1800018,0.0-19.0-0.18,76831,List1A,black,man,,,,null,,,,,,,,,
null,"<img src=""stim_listA/greet8.gif""style=""height:400px;""></stim_listA>",,html-keyboard-response,397,1802022,0.0-19.0-1.18,76831,List1A,black,man,,,,null,,,,,,,,,
null,is being greeted by,,html-keyboard-response,398,1804037,0.0-19.0-2.18,76831,List1A,black,man,,,,null,,,,,,,,,
12436,,,survey-text,399,1816479,0.0-19.0-3.18,76831,List1A,black,man,,,,,"{""Q0"":""jane is being greeted by beth""}","<img src=""stim_listA/greet8.gif""style=""height:400px;""></stim_listA>",is being greeted by,,,,,,
null,"<div style=""font-size:60px;"">+</div>",,html-keyboard-response,400,1816990,0.0-19.0-0.19,76831,List1A,black,man,,,,null,,,,,,,,,
null,"<img src=""stim_listA/challenge1.gif""style=""height:400px;""></stim_listA>",,html-keyboard-response,401,1819000,0.0-19.0-1.19,76831,List1A,black,man,,,,null,,,,,,,,,
null,is challenging,,html-keyboard-response,402,1821012,0.0-19.0-2.19,76831,List1A,black,man,,,,null,,,,,,,,,
7531,,,survey-text,403,1828549,0.0-19.0-3.19,76831,List1A,black,man,,,,,"{""Q0"":""beth is challenging mike""}","<img src=""stim_listA/challenge1.gif""style=""height:400px;""></stim_listA>",is challenging,,,,,,
2131,<p>Thank you for completing that task.</p><p>The final part of this session is a questionnaire that will take about 4 minutes.</p><p>Press Continue.</p>,0,html-button-response,404,1830683,0.0-20.0,76831,List1A,black,man,,,,,,,,,,,,,
102734,,,survey-text,405,1934436,0.0-21.0,76831,List1A,black,man,,,,,"{""Q0"":""39"",""Q1"":""english"",""Q2"":""english"",""Q3"":""united state"",""Q4"":""united state"",""Q5"":""black american"",""Q6"":""male""}",,,demographics,,,,,
3078,<p>Have you lived in the USA for the last 5 years or more?</p>,0,html-button-response,406,1937518,0.0-22.0,76831,List1A,black,man,,,,,,,,fiveyears,,,,,
1951,<p>Move the slider to show the extent to which you agree with the following statements.</p>,0,html-button-response,407,1940481,0.0-23.0,76831,List1A,black,man,,,,,,,,,,,,,
5389,,,html-slider-response,408,1947235,0.0-24.0-0.0-0.0,76831,List1A,black,man,,,,,,,,survey_race,71,,,I consider myself an extrovert.,filler
6582,,,html-slider-response,409,1953820,0.0-24.0-0.0-0.1,76831,List1A,black,man,,,,,,,,survey_race,57,,,I feel solidarity with people the same age as me.,filler
4434,,,html-slider-response,410,1958258,0.0-24.0-0.0-0.2,76831,List1A,black,man,,,,,,,,survey_race,64,,,I am glad to be the age I am.,filler
6248,,,html-slider-response,411,1964509,0.0-24.0-0.0-0.3,76831,List1A,black,man,,,,,,,,survey_race,80,,,I think that my race has a lot to be proud of.,proud
6639,,,html-slider-response,412,1971152,0.0-24.0-0.0-0.4,76831,List1A,black,man,,,,,,,,survey_race,82,,,I am glad to be my age.,filler
5432,,,html-slider-response,413,1976588,0.0-24.0-0.0-0.5,76831,List1A,black,man,,,,,,,,survey_race,74,,,It is pleasant to be my race.,pleasant
6248,,,html-slider-response,414,1982839,0.0-24.0-0.0-0.6,76831,List1A,black,man,,,,,,,,survey_race,77,,,I am glad to be my race.,glad
4867,,,html-slider-response,415,1987709,0.0-24.0-0.0-0.7,76831,List1A,black,man,,,,,,,,survey_race,94,,,Getting older does not worry me.,filler
5740,,,html-slider-response,416,1993453,0.0-24.0-0.0-0.8,76831,List1A,black,man,,,,,,,,survey_race,83,,,I feel a bond with my race.,bond
5935,,,html-slider-response,417,1999392,0.0-24.0-0.0-0.9,76831,List1A,black,man,,,,,,,,survey_race,0,,,I consider myself an introvert.,filler
4707,,,html-slider-response,418,2004103,0.0-24.0-0.0-0.10,76831,List1A,black,man,,,,,,,,survey_race,72,,,I have a lot in common with the average person of my race.,average
5447,,,html-slider-response,419,2009554,0.0-24.0-0.0-0.11,76831,List1A,black,man,,,,,,,,survey_race,73,,,People of my race have a lot in common with each other.,common
7413,,,html-slider-response,420,2016970,0.0-24.0-0.0-0.12,76831,List1A,black,man,,,,,,,,survey_race,73,,,Being my race is an important part of how I see myself.,important
7285,,,html-slider-response,421,2024259,0.0-24.0-0.0-0.13,76831,List1A,black,man,,,,,,,,survey_race,64,,,I enjoy being in large groups.,filler
8397,,,html-slider-response,422,2032659,0.0-24.0-0.0-0.14,76831,List1A,black,man,,,,,,,,survey_race,69,,,I often think about the fact that I am my race.,often
5046,,,html-slider-response,423,2037709,0.0-24.0-0.0-0.15,76831,List1A,black,man,,,,,,,,survey_race,99,,,"The older I get, the wiser I feel.",filler
4842,,,html-slider-response,424,2042553,0.0-24.0-0.0-0.16,76831,List1A,black,man,,,,,,,,survey_race,82,,,I am similar to the average person of my race.,similar
6822,,,html-slider-response,425,2049379,0.0-24.0-0.0-0.17,76831,List1A,black,man,,,,,,,,survey_race,78,,,I feel a bond with people the same age as me.,filler
3381,,,html-slider-response,426,2052763,0.0-24.0-0.0-0.18,76831,List1A,black,man,,,,,,,,survey_race,78,,,I feel committed to my race.,committed
6105,,,html-slider-response,427,2058869,0.0-24.0-0.0-0.19,76831,List1A,black,man,,,,,,,,survey_race,98,,,Being my race gives me a good feeling.,feeling
6127,,,html-slider-response,428,2065000,0.0-24.0-0.0-0.20,76831,List1A,black,man,,,,,,,,survey_race,89,,,My age is not an important part of who I am.,filler
8203,,,html-slider-response,429,2073207,0.0-24.0-0.0-0.21,76831,List1A,black,man,,,,,,,,survey_race,87,,,The fact that I am my race is an important part of my identity.,identity
6567,,,html-slider-response,430,2079778,0.0-24.0-0.0-0.22,76831,List1A,black,man,,,,,,,,survey_race,100,,,I often think about the fact that I am my age.,filler
8188,,,html-slider-response,431,2087970,0.0-24.0-0.0-0.23,76831,List1A,black,man,,,,,,,,survey_race,49,,,People my age have a lot in common with each other.,filler
3290,,,html-slider-response,432,2091264,0.0-24.0-0.0-0.24,76831,List1A,black,man,,,,,,,,survey_race,52,,,I feel solidarity with my race.,solidarity
5098,,,html-slider-response,433,2096365,0.0-24.0-0.0-0.25,76831,List1A,black,man,,,,,,,,survey_race,90,,,I have a lot in common with people of a similar age to me.,filler
6118,,,html-slider-response,434,2102485,0.0-24.0-0.0-0.26,76831,List1A,black,man,,,,,,,,survey_race,82,,,People of my race are very similar to each other.,verysimilar
4973,,,html-slider-response,435,2107462,0.0-24.0-0.0-0.27,76831,List1A,black,man,,,,,,,,survey_race,85,,,Being my age gives me a good feeling.,filler
4280,,,html-slider-response,436,2111746,0.0-24.0-1.0-0.0,76831,List1A,black,man,,,,,,,,survey_gender,96,,,I feel committed to my gender.,committed
4112,,,html-slider-response,437,2115861,0.0-24.0-1.0-0.1,76831,List1A,black,man,,,,,,,,survey_gender,96,,,People of my gender have a lot in common with each other.,common
6557,,,html-slider-response,438,2122422,0.0-24.0-1.0-0.2,76831,List1A,black,man,,,,,,,,survey_gender,91,,,It is not always easy for people to know what I am thinking.,filler
6967,,,html-slider-response,439,2129392,0.0-24.0-1.0-0.3,76831,List1A,black,man,,,,,,,,survey_gender,93,,,People of my gender are very similar to each other.,verysimilar
7113,,,html-slider-response,440,2136509,0.0-24.0-1.0-0.4,76831,List1A,black,man,,,,,,,,survey_gender,45,,,I would say I am an animal person.,filler
3395,,,html-slider-response,441,2139907,0.0-24.0-1.0-0.5,76831,List1A,black,man,,,,,,,,survey_gender,97,,,I am glad to be my gender.,glad
3921,,,html-slider-response,442,2143830,0.0-24.0-1.0-0.6,76831,List1A,black,man,,,,,,,,survey_gender,90,,,I feel solidarity with my gender.,solidarity
4892,,,html-slider-response,443,2148725,0.0-24.0-1.0-0.7,76831,List1A,black,man,,,,,,,,survey_gender,91,,,The fact that I am my gender is an important part of my identity.,identity
4426,,,html-slider-response,444,2153154,0.0-24.0-1.0-0.8,76831,List1A,black,man,,,,,,,,survey_gender,79,,,I often think about the fact that I am my gender.,often
7577,,,html-slider-response,445,2160735,0.0-24.0-1.0-0.9,76831,List1A,black,man,,,,,,,,survey_gender,47,,,I feel a bond with my gender.,bond
5542,,,html-slider-response,446,2166280,0.0-24.0-1.0-0.10,76831,List1A,black,man,,,,,,,,survey_gender,100,,,Family is not more important to me than friendship.,filler
7312,,,html-slider-response,447,2173596,0.0-24.0-1.0-0.11,76831,List1A,black,man,,,,,,,,survey_gender,20,,,Most of the friends in my life are very similar to me.,filler
4509,,,html-slider-response,448,2178107,0.0-24.0-1.0-0.12,76831,List1A,black,man,,,,,,,,survey_gender,66,,,My friends understand me.,filler
4975,,,html-slider-response,449,2183086,0.0-24.0-1.0-0.13,76831,List1A,black,man,,,,,,,,survey_gender,18,,,I have a lot in common with my friends.,filler
5960,,,html-slider-response,450,2189048,0.0-24.0-1.0-0.14,76831,List1A,black,man,,,,,,,,survey_gender,56,,,My friends have a lot in common with each other.,filler
6283,,,html-slider-response,451,2195336,0.0-24.0-1.0-0.15,76831,List1A,black,man,,,,,,,,survey_gender,93,,,Being my gender is an important part of how I see myself.,important
6688,,,html-slider-response,452,2202028,0.0-24.0-1.0-0.16,76831,List1A,black,man,,,,,,,,survey_gender,85,,,I consider myself a highly empathetic person.,filler
5778,,,html-slider-response,453,2207810,0.0-24.0-1.0-0.17,76831,List1A,black,man,,,,,,,,survey_gender,11,,,Routine is not important to me.,filler
4316,,,html-slider-response,454,2212130,0.0-24.0-1.0-0.18,76831,List1A,black,man,,,,,,,,survey_gender,85,,,Being around my friends gives me a good feeling.,filler
8552,,,html-slider-response,455,2220685,0.0-24.0-1.0-0.19,76831,List1A,black,man,,,,,,,,survey_gender,89,,,I often think about my actions.,filler
4580,,,html-slider-response,456,2225269,0.0-24.0-1.0-0.20,76831,List1A,black,man,,,,,,,,survey_gender,87,,,I think that my gender has a lot to be proud of.,proud
5729,,,html-slider-response,457,2231000,0.0-24.0-1.0-0.21,76831,List1A,black,man,,,,,,,,survey_gender,83,,,I feel solidarity with my friends.,filler
7438,,,html-slider-response,458,2238442,0.0-24.0-1.0-0.22,76831,List1A,black,man,,,,,,,,survey_gender,78,,,Being my gender gives me a good feeling.,feeling
6642,,,html-slider-response,459,2245087,0.0-24.0-1.0-0.23,76831,List1A,black,man,,,,,,,,survey_gender,82,,,I have a lot in common with the average person of my gender.,average
4376,,,html-slider-response,460,2249467,0.0-24.0-1.0-0.24,76831,List1A,black,man,,,,,,,,survey_gender,83,,,It is pleasant to be my gender.,pleasant
4456,,,html-slider-response,461,2253926,0.0-24.0-1.0-0.25,76831,List1A,black,man,,,,,,,,survey_gender,83,,,I feel a bond with my friends.,filler
4697,,,html-slider-response,462,2258626,0.0-24.0-1.0-0.26,76831,List1A,black,man,,,,,,,,survey_gender,81,,,I am similar to the average person of my gender.,similar
4800,,,html-slider-response,463,2263428,0.0-24.0-1.0-0.27,76831,List1A,black,man,,,,,,,,survey_gender,83,,,I am glad to have the friends that I have.,filler
9250,,,survey-text,464,2272684,0.0-25.0,76831,List1A,black,man,,,,,"{""Q0"":""ccc""}",,,worker_id,,,,,
2298,,,external-html,465,2276787,0.0-26.0,76831,List1A,black,man,debrief.html,,,,,,,,,,,,
