"rt","stimulus","button_pressed","trial_type","trial_index","time_elapsed","internal_node_id","subject","list","ppt_race","ppt_gender","url","first_guess","correct","key_press","responses","image_type","phrase_type","test_part","response","stimulus1","stimulus2","question_type","survey_item"
"1578.7000000178814","Welcome to the experiment. Press Continue to begin.","0","html-button-response","0","1584","0.0-0.0","77503","List2A","white","man","","","","","","","","","","","","",""
"14052.90000000596","","","external-html","1","16793","0.0-1.0","77503","List2A","white","man","consent.html","","","","","","","","","","","",""
"25088.80000001192","<p>On the next page, you will see portraits of 8 people and their names.</p><p>Your first task is to take a few minutes to memorise the names of these people.</p><p>You will have to recall their names during the rest of the experiment, so it is</p><p>essential that you try to memorise these people and their names as best as you can.</p><br><p><strong>You will then be tested on your memory of these names and portraits.</strong></p><br><p>The experiment will start after you have completed this memory test.</p><br><p>Ready?</p>","0","html-button-response","2","41883","0.0-2.0","77503","List2A","white","man","","","","","","","","","","","","",""
"81324.59999999404","<img src='img/portrait_matrix_list2.jpg' style='width:900px;height:500px;''></img><p>If you have memorised all the portraits and names and are ready to start, press Continue.</p><p><strong>Please note: Your memory of these faces will be tested 4 times during this experiment.</strong></p>","0","html-button-response","3","124218","0.0-3.0-0.0","77503","List2A","white","man","","","","","","","","","","","","",""
"14129.09999999404","<img src=""portrait/BM1.jpg""style=""height:400px;""></img>","4","html-button-response","4","139360","0.0-3.0-1.0","77503","List2A","white","man","","true","4","","","","","","","","","",""
"null","CORRECT","","html-keyboard-response","5","140871","0.0-3.0-2.0-0.0","77503","List2A","white","man","","","","null","","","","","","","","",""
"5978.9000000059605","<img src=""portrait/BW2.jpg""style=""height:400px;""></img>","2","html-button-response","6","146852","0.0-3.0-4.0","77503","List2A","white","man","","true","2","","","","","","","","","",""
"null","CORRECT","","html-keyboard-response","7","148358","0.0-3.0-5.0-0.0","77503","List2A","white","man","","","","null","","","","","","","","",""
"3124.2999999821186","<img src=""portrait/WW2.jpg""style=""height:400px;""></img>","3","html-button-response","8","151484","0.0-3.0-7.0","77503","List2A","white","man","","true","3","","","","","","","","","",""
"null","CORRECT","","html-keyboard-response","9","153001","0.0-3.0-8.0-0.0","77503","List2A","white","man","","","","null","","","","","","","","",""
"4419.699999988079","<img src=""portrait/WW1.jpg""style=""height:400px;""></img>","1","html-button-response","10","157422","0.0-3.0-10.0","77503","List2A","white","man","","true","1","","","","","","","","","",""
"null","CORRECT","","html-keyboard-response","11","158924","0.0-3.0-11.0-0.0","77503","List2A","white","man","","","","null","","","","","","","","",""
"2605.899999976158","<img src=""portrait/WM2.jpg""style=""height:400px;""></img>","7","html-button-response","12","161530","0.0-3.0-13.0","77503","List2A","white","man","","true","7","","","","","","","","","",""
"null","CORRECT","","html-keyboard-response","13","163033","0.0-3.0-14.0-0.0","77503","List2A","white","man","","","","null","","","","","","","","",""
"3449.300000011921","<img src=""portrait/BW1.jpg""style=""height:400px;""></img>","0","html-button-response","14","166484","0.0-3.0-16.0","77503","List2A","white","man","","true","0","","","","","","","","","",""
"null","CORRECT","","html-keyboard-response","15","167986","0.0-3.0-17.0-0.0","77503","List2A","white","man","","","","null","","","","","","","","",""
"2496.7999999821186","<img src=""portrait/BM2.jpg""style=""height:400px;""></img>","5","html-button-response","16","170484","0.0-3.0-19.0","77503","List2A","white","man","","true","5","","","","","","","","","",""
"null","CORRECT","","html-keyboard-response","17","171986","0.0-3.0-20.0-0.0","77503","List2A","white","man","","","","null","","","","","","","","",""
"2395.300000011921","<img src=""portrait/WM1.jpg""style=""height:400px;""></img>","6","html-button-response","18","174382","0.0-3.0-22.0","77503","List2A","white","man","","true","6","","","","","","","","","",""
"null","CORRECT","","html-keyboard-response","19","175888","0.0-3.0-23.0-0.0","77503","List2A","white","man","","","","null","","","","","","","","",""
"2329","<p>You got 8 out of 8 right first time. Press Continue.</p>","0","html-button-response","20","178218","0.0-3.0-25.0","77503","List2A","white","man","","","","","","","","","","","","",""
"76602.90000000596","<p>In this experiment, you will view photographs of the people from the memory game interacting.</p><p>By using the <strong>exact</strong> phrase given <i>after</i> the photograph appears and recalling the correct names of the people in the photographs, form a sentence describing the interaction. You do not need to capitalise names.</p><p>Type your answer in the space provided. Please complete every sentence before moving onto the next trial.</p><p>You will only have a few seconds to memorise each given photograph and phrase before you can respond, so try your best to focus.</p><p>An example is given below. Press 'Continue' when you are ready.</p><img src='img/speaking_example.jpg' style='width:800px;height:460px;''></img>","0","html-button-response","21","255834","0.0-4.0","77503","List2A","white","man","","","","","","","","","","","","",""
"5305.5999999940395","<p>Before the experiment starts, you will watch two example trials. Press 'Continue'.</p>","0","html-button-response","22","262154","0.0-5.0","77503","List2A","white","man","","","","","","","","","","","","",""
"null","<img src='img/play_eg.gif' style='height:400px;''></img>","","html-keyboard-response","23","265170","0.0-6.0","77503","List2A","white","man","","","","null","","","","","","","","",""
"null","<p>is playing with</p>","","html-keyboard-response","24","267184","0.0-7.0","77503","List2A","white","man","","","","null","","","","","","","","",""
"3781","<p><b>Answer:</b> jane is playing with ruth</p>","0","html-button-response","25","270966","0.0-8.0","77503","List2A","white","man","","","","","","","","","","","","",""
"null","<img src='img/dance_eg.gif' style='height:400px;''></img>","","html-keyboard-response","26","273996","0.0-9.0","77503","List2A","white","man","","","","null","","","","","","","","",""
"null","<p>is being entertained by</p>","","html-keyboard-response","27","276003","0.0-10.0","77503","List2A","white","man","","","","null","","","","","","","","",""
"3400","<p><b>Answer:</b> fred is being entertained by mike</p>","0","html-button-response","28","279404","0.0-11.0","77503","List2A","white","man","","","","","","","","","","","","",""
"10939.199999988079","<p>Ready to start the experiment?</p><br><p><strong>Remember to describe the picture using a full sentence,</strong></p><p><strong>that combines the names of the people with the <i>exact</i> phrase given.</strong></p><p><strong>To receive full payment you must do this correctly.</strong></p><p><strong> You do not need to capitalise names or use punctuation.</strong></p><br><p>Press 'Continue' to begin.</p>","0","html-button-response","29","291356","0.0-12.0","77503","List2A","white","man","","","","","","","","","","","","",""
"null","<div style=""font-size:60px;"">+</div>","","html-keyboard-response","30","292881","0.0-13.0-0.0","77503","List2A","white","man","","","","null","","","","","","","","",""
"null","<img src=""stim_listA/hug1.gif""style=""height:400px;""></stim_listA>","","html-keyboard-response","31","294898","0.0-13.0-1.0","77503","List2A","white","man","","","","null","","","","","","","","",""
"null","is hugging","","html-keyboard-response","32","296903","0.0-13.0-2.0","77503","List2A","white","man","","","","null","","","","","","","","",""
"11355.100000023842","","","survey-text","33","308267","0.0-13.0-3.0","77503","List2A","white","man","","","","","{""Q0"":""luke is hugging jane""}","<img src=""stim_listA/hug1.gif""style=""height:400px;""></stim_listA>","is hugging","","","","","",""
"null","<div style=""font-size:60px;"">+</div>","","html-keyboard-response","34","308781","0.0-13.0-0.1","77503","List2A","white","man","","","","null","","","","","","","","",""
"null","<img src=""stim_listA/shout5.gif""style=""height:400px;""></stim_listA>","","html-keyboard-response","35","310783","0.0-13.0-1.1","77503","List2A","white","man","","","","null","","","","","","","","",""
"null","is shouting at","","html-keyboard-response","36","312787","0.0-13.0-2.1","77503","List2A","white","man","","","","null","","","","","","","","",""
"11328.699999988079","","","survey-text","37","324119","0.0-13.0-3.1","77503","List2A","white","man","","","","","{""Q0"":""luke is shouting at fred""}","<img src=""stim_listA/shout5.gif""style=""height:400px;""></stim_listA>","is shouting at","","","","","",""
"null","<div style=""font-size:60px;"">+</div>","","html-keyboard-response","38","324621","0.0-13.0-0.2","77503","List2A","white","man","","","","null","","","","","","","","",""
"null","<img src=""stim_listA/touch4.gif""style=""height:400px;""></stim_listA>","","html-keyboard-response","39","326639","0.0-13.0-1.2","77503","List2A","white","man","","","","null","","","","","","","","",""
"null","is being touched by","","html-keyboard-response","40","328653","0.0-13.0-2.2","77503","List2A","white","man","","","","null","","","","","","","","",""
"25531.09999999404","","","survey-text","41","354187","0.0-13.0-3.2","77503","List2A","white","man","","","","","{""Q0"":""fred is hold mary""}","<img src=""stim_listA/touch4.gif""style=""height:400px;""></stim_listA>","is being touched by","","","","","",""
"null","<div style=""font-size:60px;"">+</div>","","html-keyboard-response","42","354702","0.0-13.0-0.3","77503","List2A","white","man","","","","null","","","","","","","","",""
"null","<img src=""stim_listA/oppose7.gif""style=""height:400px;""></stim_listA>","","html-keyboard-response","43","356710","0.0-13.0-1.3","77503","List2A","white","man","","","","null","","","","","","","","",""
"null","is opposing","","html-keyboard-response","44","358713","0.0-13.0-2.3","77503","List2A","white","man","","","","null","","","","","","","","",""
"18695.80000001192","","","survey-text","45","377414","0.0-13.0-3.3","77503","List2A","white","man","","","","","{""Q0"":""jane is fighting beth""}","<img src=""stim_listA/oppose7.gif""style=""height:400px;""></stim_listA>","is opposing","","","","","",""
"null","<div style=""font-size:60px;"">+</div>","","html-keyboard-response","46","377922","0.0-13.0-0.4","77503","List2A","white","man","","","","null","","","","","","","","",""
"null","<img src=""stim_listA/touch1.gif""style=""height:400px;""></stim_listA>","","html-keyboard-response","47","379933","0.0-13.0-1.4","77503","List2A","white","man","","","","null","","","","","","","","",""
"null","is touching","","html-keyboard-response","48","381948","0.0-13.0-2.4","77503","List2A","white","man","","","","null","","","","","","","","",""
"8183.9000000059605","","","survey-text","49","390135","0.0-13.0-3.4","77503","List2A","white","man","","","","","{""Q0"":""jane is touching fred""}","<img src=""stim_listA/touch1.gif""style=""height:400px;""></stim_listA>","is touching","","","","","",""
"null","<div style=""font-size:60px;"">+</div>","","html-keyboard-response","50","390637","0.0-13.0-0.5","77503","List2A","white","man","","","","null","","","","","","","","",""
"null","<img src=""stim_listA/hug7.gif""style=""height:400px;""></stim_listA>","","html-keyboard-response","51","392649","0.0-13.0-1.5","77503","List2A","white","man","","","","null","","","","","","","","",""
"null","is hugging","","html-keyboard-response","52","394659","0.0-13.0-2.5","77503","List2A","white","man","","","","null","","","","","","","","",""
"8899.199999988079","","","survey-text","53","403561","0.0-13.0-3.5","77503","List2A","white","man","","","","","{""Q0"":""jane is hugging beth""}","<img src=""stim_listA/hug7.gif""style=""height:400px;""></stim_listA>","is hugging","","","","","",""
"null","<div style=""font-size:60px;"">+</div>","","html-keyboard-response","54","404076","0.0-13.0-0.6","77503","List2A","white","man","","","","null","","","","","","","","",""
"null","<img src=""stim_listA/seduce1.gif""style=""height:400px;""></stim_listA>","","html-keyboard-response","55","406085","0.0-13.0-1.6","77503","List2A","white","man","","","","null","","","","","","","","",""
"null","is seducing","","html-keyboard-response","56","408095","0.0-13.0-2.6","77503","List2A","white","man","","","","null","","","","","","","","",""
"7434.0999999940395","","","survey-text","57","415532","0.0-13.0-3.6","77503","List2A","white","man","","","","","{""Q0"":""luke is seducing jane""}","<img src=""stim_listA/seduce1.gif""style=""height:400px;""></stim_listA>","is seducing","","","","","",""
"null","<div style=""font-size:60px;"">+</div>","","html-keyboard-response","58","416047","0.0-13.0-0.7","77503","List2A","white","man","","","","null","","","","","","","","",""
"null","<img src=""stim_listA/oppose5.gif""style=""height:400px;""></stim_listA>","","html-keyboard-response","59","418063","0.0-13.0-1.7","77503","List2A","white","man","","","","null","","","","","","","","",""
"null","is opposing","","html-keyboard-response","60","420072","0.0-13.0-2.7","77503","List2A","white","man","","","","null","","","","","","","","",""
"14914.800000011921","","","survey-text","61","434995","0.0-13.0-3.7","77503","List2A","white","man","","","","","{""Q0"":""dave is fighting dave""}","<img src=""stim_listA/oppose5.gif""style=""height:400px;""></stim_listA>","is opposing","","","","","",""
"null","<div style=""font-size:60px;"">+</div>","","html-keyboard-response","62","435502","0.0-13.0-0.8","77503","List2A","white","man","","","","null","","","","","","","","",""
"null","<img src=""stim_listA/copy8.gif""style=""height:400px;""></stim_listA>","","html-keyboard-response","63","437507","0.0-13.0-1.8","77503","List2A","white","man","","","","null","","","","","","","","",""
"null","is being copied by","","html-keyboard-response","64","439521","0.0-13.0-2.8","77503","List2A","white","man","","","","null","","","","","","","","",""
"23999.90000000596","","","survey-text","65","463525","0.0-13.0-3.8","77503","List2A","white","man","","","","","{""Q0"":""jane is seducing mary""}","<img src=""stim_listA/copy8.gif""style=""height:400px;""></stim_listA>","is being copied by","","","","","",""
"null","<div style=""font-size:60px;"">+</div>","","html-keyboard-response","66","464040","0.0-13.0-0.9","77503","List2A","white","man","","","","null","","","","","","","","",""
"null","<img src=""stim_listA/kiss1.gif""style=""height:400px;""></stim_listA>","","html-keyboard-response","67","466052","0.0-13.0-1.9","77503","List2A","white","man","","","","null","","","","","","","","",""
"null","is kissing","","html-keyboard-response","68","468070","0.0-13.0-2.9","77503","List2A","white","man","","","","null","","","","","","","","",""
"5527.5","","","survey-text","69","473601","0.0-13.0-3.9","77503","List2A","white","man","","","","","{""Q0"":""luke is kissing jane""}","<img src=""stim_listA/kiss1.gif""style=""height:400px;""></stim_listA>","is kissing","","","","","",""
"null","<div style=""font-size:60px;"">+</div>","","html-keyboard-response","70","474108","0.0-13.0-0.10","77503","List2A","white","man","","","","null","","","","","","","","",""
"null","<img src=""stim_listA/kiss7.gif""style=""height:400px;""></stim_listA>","","html-keyboard-response","71","476121","0.0-13.0-1.10","77503","List2A","white","man","","","","null","","","","","","","","",""
"null","is kissing","","html-keyboard-response","72","478135","0.0-13.0-2.10","77503","List2A","white","man","","","","null","","","","","","","","",""
"6338.0999999940395","","","survey-text","73","484476","0.0-13.0-3.10","77503","List2A","white","man","","","","","{""Q0"":""jane is kissing beth""}","<img src=""stim_listA/kiss7.gif""style=""height:400px;""></stim_listA>","is kissing","","","","","",""
"null","<div style=""font-size:60px;"">+</div>","","html-keyboard-response","74","484992","0.0-13.0-0.11","77503","List2A","white","man","","","","null","","","","","","","","",""
"null","<img src=""stim_listA/look4.gif""style=""height:400px;""></stim_listA>","","html-keyboard-response","75","486997","0.0-13.0-1.11","77503","List2A","white","man","","","","null","","","","","","","","",""
"null","is being looked at by","","html-keyboard-response","76","489005","0.0-13.0-2.11","77503","List2A","white","man","","","","null","","","","","","","","",""
"18037.90000000596","","","survey-text","77","507045","0.0-13.0-3.11","77503","List2A","white","man","","","","","{""Q0"":""mike is kissing kate""}","<img src=""stim_listA/look4.gif""style=""height:400px;""></stim_listA>","is being looked at by","","","","","",""
"null","<div style=""font-size:60px;"">+</div>","","html-keyboard-response","78","507553","0.0-13.0-0.12","77503","List2A","white","man","","","","null","","","","","","","","",""
"null","<img src=""stim_listA/greet6.gif""style=""height:400px;""></stim_listA>","","html-keyboard-response","79","509570","0.0-13.0-1.12","77503","List2A","white","man","","","","null","","","","","","","","",""
"null","is being greeted by","","html-keyboard-response","80","511572","0.0-13.0-2.12","77503","List2A","white","man","","","","null","","","","","","","","",""
"15922.300000011921","","","survey-text","81","527498","0.0-13.0-3.12","77503","List2A","white","man","","","","","{""Q0"":""mike is being greeted by luke""}","<img src=""stim_listA/greet6.gif""style=""height:400px;""></stim_listA>","is being greeted by","","","","","",""
"null","<div style=""font-size:60px;"">+</div>","","html-keyboard-response","82","528005","0.0-13.0-0.13","77503","List2A","white","man","","","","null","","","","","","","","",""
"null","<img src=""stim_listA/challenge8.gif""style=""height:400px;""></stim_listA>","","html-keyboard-response","83","530009","0.0-13.0-1.13","77503","List2A","white","man","","","","null","","","","","","","","",""
"null","is being challenged by","","html-keyboard-response","84","532011","0.0-13.0-2.13","77503","List2A","white","man","","","","null","","","","","","","","",""
"11123.800000011921","","","survey-text","85","543138","0.0-13.0-3.13","77503","List2A","white","man","","","","","{""Q0"":""jane is being challenged by kate""}","<img src=""stim_listA/challenge8.gif""style=""height:400px;""></stim_listA>","is being challenged by","","","","","",""
"null","<div style=""font-size:60px;"">+</div>","","html-keyboard-response","86","543648","0.0-13.0-0.14","77503","List2A","white","man","","","","null","","","","","","","","",""
"null","<img src=""stim_listA/seduce8.gif""style=""height:400px;""></stim_listA>","","html-keyboard-response","87","545651","0.0-13.0-1.14","77503","List2A","white","man","","","","null","","","","","","","","",""
"null","is being seduced by","","html-keyboard-response","88","547654","0.0-13.0-2.14","77503","List2A","white","man","","","","null","","","","","","","","",""
"28226.90000000596","","","survey-text","89","575889","0.0-13.0-3.14","77503","List2A","white","man","","","","","{""Q0"":""beth is being seduced by ruth""}","<img src=""stim_listA/seduce8.gif""style=""height:400px;""></stim_listA>","is being seduced by","","","","","",""
"null","<div style=""font-size:60px;"">+</div>","","html-keyboard-response","90","576400","0.0-13.0-0.15","77503","List2A","white","man","","","","null","","","","","","","","",""
"null","<img src=""stim_listA/shout2.gif""style=""height:400px;""></stim_listA>","","html-keyboard-response","91","578403","0.0-13.0-1.15","77503","List2A","white","man","","","","null","","","","","","","","",""
"null","is being shouted at by","","html-keyboard-response","92","580409","0.0-13.0-2.15","77503","List2A","white","man","","","","null","","","","","","","","",""
"14801.90000000596","","","survey-text","93","595215","0.0-13.0-3.15","77503","List2A","white","man","","","","","{""Q0"":""dave is shouting at ruth""}","<img src=""stim_listA/shout2.gif""style=""height:400px;""></stim_listA>","is being shouted at by","","","","","",""
"null","<div style=""font-size:60px;"">+</div>","","html-keyboard-response","94","595731","0.0-13.0-0.16","77503","List2A","white","man","","","","null","","","","","","","","",""
"null","<img src=""stim_listA/shout8.gif""style=""height:400px;""></stim_listA>","","html-keyboard-response","95","597734","0.0-13.0-1.16","77503","List2A","white","man","","","","null","","","","","","","","",""
"null","is being shouted at by","","html-keyboard-response","96","599736","0.0-13.0-2.16","77503","List2A","white","man","","","","null","","","","","","","","",""
"9686.700000017881","","","survey-text","97","609429","0.0-13.0-3.16","77503","List2A","white","man","","","","","{""Q0"":""ruth is shouting at kate""}","<img src=""stim_listA/shout8.gif""style=""height:400px;""></stim_listA>","is being shouted at by","","","","","",""
"null","<div style=""font-size:60px;"">+</div>","","html-keyboard-response","98","609934","0.0-13.0-0.17","77503","List2A","white","man","","","","null","","","","","","","","",""
"null","<img src=""stim_listA/copy2.gif""style=""height:400px;""></stim_listA>","","html-keyboard-response","99","611947","0.0-13.0-1.17","77503","List2A","white","man","","","","null","","","","","","","","",""
"null","is being copied by","","html-keyboard-response","100","613958","0.0-13.0-2.17","77503","List2A","white","man","","","","null","","","","","","","","",""
"18824.19999998808","","","survey-text","101","632785","0.0-13.0-3.17","77503","List2A","white","man","","","","","{""Q0"":""luke is hugging kate""}","<img src=""stim_listA/copy2.gif""style=""height:400px;""></stim_listA>","is being copied by","","","","","",""
"null","<div style=""font-size:60px;"">+</div>","","html-keyboard-response","102","633295","0.0-13.0-0.18","77503","List2A","white","man","","","","null","","","","","","","","",""
"null","<img src=""stim_listA/oppose3.gif""style=""height:400px;""></stim_listA>","","html-keyboard-response","103","635300","0.0-13.0-1.18","77503","List2A","white","man","","","","null","","","","","","","","",""
"null","is opposing","","html-keyboard-response","104","637316","0.0-13.0-2.18","77503","List2A","white","man","","","","null","","","","","","","","",""
"30679.399999976158","","","survey-text","105","667999","0.0-13.0-3.18","77503","List2A","white","man","","","","","{""Q0"":""fred is opposing ruth""}","<img src=""stim_listA/oppose3.gif""style=""height:400px;""></stim_listA>","is opposing","","","","","",""
"null","<div style=""font-size:60px;"">+</div>","","html-keyboard-response","106","668503","0.0-13.0-0.19","77503","List2A","white","man","","","","null","","","","","","","","",""
"null","<img src=""stim_listA/touch3.gif""style=""height:400px;""></stim_listA>","","html-keyboard-response","107","670519","0.0-13.0-1.19","77503","List2A","white","man","","","","null","","","","","","","","",""
"null","is touching","","html-keyboard-response","108","672531","0.0-13.0-2.19","77503","List2A","white","man","","","","null","","","","","","","","",""
"16059","","","survey-text","109","688593","0.0-13.0-3.19","77503","List2A","white","man","","","","","{""Q0"":""fred is touching kate""}","<img src=""stim_listA/touch3.gif""style=""height:400px;""></stim_listA>","is touching","","","","","",""
"50439.10000002384","<img src='img/portrait_matrix_list2.jpg' style='width:900px;height:500px;''></img><p>If you have memorised all the portraits and names and are ready to start, press Continue.</p><p><strong>Please note: Your memory of these faces will be tested 4 times during this experiment.</strong></p>","0","html-button-response","110","739037","0.0-14.0-0.0","77503","List2A","white","man","","","","","","","","","","","","",""
"3000.199999988079","<img src=""portrait/WW2.jpg""style=""height:400px;""></img>","3","html-button-response","111","743053","0.0-14.0-1.0","77503","List2A","white","man","","true","3","","","","","","","","","",""
"null","CORRECT","","html-keyboard-response","112","744557","0.0-14.0-2.0-0.0","77503","List2A","white","man","","","","null","","","","","","","","",""
"2211.9000000059605","<img src=""portrait/BW1.jpg""style=""height:400px;""></img>","0","html-button-response","113","746771","0.0-14.0-4.0","77503","List2A","white","man","","true","0","","","","","","","","","",""
"null","CORRECT","","html-keyboard-response","114","748274","0.0-14.0-5.0-0.0","77503","List2A","white","man","","","","null","","","","","","","","",""
"1871.7999999821186","<img src=""portrait/BW2.jpg""style=""height:400px;""></img>","2","html-button-response","115","750147","0.0-14.0-7.0","77503","List2A","white","man","","true","2","","","","","","","","","",""
"null","CORRECT","","html-keyboard-response","116","751650","0.0-14.0-8.0-0.0","77503","List2A","white","man","","","","null","","","","","","","","",""
"4697.600000023842","<img src=""portrait/WW1.jpg""style=""height:400px;""></img>","3","html-button-response","117","756349","0.0-14.0-10.0","77503","List2A","white","man","","true","1","","","","","","","","","",""
"3562.0999999940395","<img src=""portrait/WW1.jpg""style=""height:400px;""></img>","1","html-button-response","118","760919","0.0-14.0-12.0-0.0","77503","List2A","white","man","","false","1","","","","","","","","","",""
"null","CORRECT","","html-keyboard-response","119","762423","0.0-14.0-12.0-1.0-0.0","77503","List2A","white","man","","","","null","","","","","","","","",""
"1768.199999988079","<img src=""portrait/WM2.jpg""style=""height:400px;""></img>","4","html-button-response","120","764193","0.0-14.0-13.0","77503","List2A","white","man","","true","7","","","","","","","","","",""
"2005.300000011921","<img src=""portrait/WM2.jpg""style=""height:400px;""></img>","4","html-button-response","121","767201","0.0-14.0-15.0-0.0","77503","List2A","white","man","","false","7","","","","","","","","","",""
"null","INCORRECT","","html-keyboard-response","122","768705","0.0-14.0-15.0-2.0-0.0","77503","List2A","white","man","","","","null","","","","","","","","",""
"1603","<img src=""portrait/BM1.jpg""style=""height:400px;""></img>","7","html-button-response","123","770309","0.0-14.0-16.0","77503","List2A","white","man","","true","4","","","","","","","","","",""
"4443.200000017881","<img src=""portrait/BM1.jpg""style=""height:400px;""></img>","4","html-button-response","124","775755","0.0-14.0-18.0-0.0","77503","List2A","white","man","","false","4","","","","","","","","","",""
"null","CORRECT","","html-keyboard-response","125","777276","0.0-14.0-18.0-1.0-0.0","77503","List2A","white","man","","","","null","","","","","","","","",""
"2257.0999999940395","<img src=""portrait/WM1.jpg""style=""height:400px;""></img>","6","html-button-response","126","779535","0.0-14.0-19.0","77503","List2A","white","man","","true","6","","","","","","","","","",""
"null","CORRECT","","html-keyboard-response","127","781037","0.0-14.0-20.0-0.0","77503","List2A","white","man","","","","null","","","","","","","","",""
"2310","<img src=""portrait/BM2.jpg""style=""height:400px;""></img>","5","html-button-response","128","783349","0.0-14.0-22.0","77503","List2A","white","man","","true","5","","","","","","","","","",""
"null","CORRECT","","html-keyboard-response","129","784851","0.0-14.0-23.0-0.0","77503","List2A","white","man","","","","null","","","","","","","","",""
"4075","<p>You got 5 out of 8 right first time. Press Continue.</p>","0","html-button-response","130","788927","0.0-14.0-25.0","77503","List2A","white","man","","","","","","","","","","","","",""
"4972.700000017881","As you did not score 100%, the memory game will repeat. Press Continue.","0","html-button-response","131","794903","0.0-14.0-26.0-0.0","77503","List2A","white","man","","","","","","","","","","","","",""
"5559.199999988079","<img src='img/portrait_matrix_list2.jpg' style='width:900px;height:500px;''></img><p>If you have memorised all the portraits and names and are ready to start, press Continue.</p><p><strong>Please note: Your memory of these faces will be tested 4 times during this experiment.</strong></p>","0","html-button-response","132","801469","0.0-14.1-0.1","77503","List2A","white","man","","","","","","","","","","","","",""
"1990.8999999761581","<img src=""portrait/WW2.jpg""style=""height:400px;""></img>","3","html-button-response","133","804477","0.0-14.1-1.1","77503","List2A","white","man","","true","3","","","","","","","","","",""
"null","CORRECT","","html-keyboard-response","134","805980","0.0-14.1-2.1-0.1","77503","List2A","white","man","","","","null","","","","","","","","",""
"1948","<img src=""portrait/BW1.jpg""style=""height:400px;""></img>","0","html-button-response","135","807929","0.0-14.1-4.1","77503","List2A","white","man","","true","0","","","","","","","","","",""
"null","CORRECT","","html-keyboard-response","136","809431","0.0-14.1-5.1-0.1","77503","List2A","white","man","","","","null","","","","","","","","",""
"1394.9000000059605","<img src=""portrait/BW2.jpg""style=""height:400px;""></img>","2","html-button-response","137","810827","0.0-14.1-7.1","77503","List2A","white","man","","true","2","","","","","","","","","",""
"null","CORRECT","","html-keyboard-response","138","812329","0.0-14.1-8.1-0.1","77503","List2A","white","man","","","","null","","","","","","","","",""
"1184.0999999940395","<img src=""portrait/WW1.jpg""style=""height:400px;""></img>","1","html-button-response","139","813515","0.0-14.1-10.1","77503","List2A","white","man","","true","1","","","","","","","","","",""
"null","CORRECT","","html-keyboard-response","140","815017","0.0-14.1-11.1-0.1","77503","List2A","white","man","","","","null","","","","","","","","",""
"1262.5","<img src=""portrait/WM2.jpg""style=""height:400px;""></img>","7","html-button-response","141","816281","0.0-14.1-13.1","77503","List2A","white","man","","true","7","","","","","","","","","",""
"null","CORRECT","","html-keyboard-response","142","817798","0.0-14.1-14.1-0.1","77503","List2A","white","man","","","","null","","","","","","","","",""
"1989.7000000178814","<img src=""portrait/BM1.jpg""style=""height:400px;""></img>","4","html-button-response","143","819789","0.0-14.1-16.1","77503","List2A","white","man","","true","4","","","","","","","","","",""
"null","CORRECT","","html-keyboard-response","144","821291","0.0-14.1-17.1-0.1","77503","List2A","white","man","","","","null","","","","","","","","",""
"1643.9000000059605","<img src=""portrait/WM1.jpg""style=""height:400px;""></img>","6","html-button-response","145","822937","0.0-14.1-19.1","77503","List2A","white","man","","true","6","","","","","","","","","",""
"null","CORRECT","","html-keyboard-response","146","824453","0.0-14.1-20.1-0.1","77503","List2A","white","man","","","","null","","","","","","","","",""
"4780","<img src=""portrait/BM2.jpg""style=""height:400px;""></img>","5","html-button-response","147","829235","0.0-14.1-22.1","77503","List2A","white","man","","true","5","","","","","","","","","",""
"null","CORRECT","","html-keyboard-response","148","830741","0.0-14.1-23.1-0.1","77503","List2A","white","man","","","","null","","","","","","","","",""
"1717.800000011921","<p>You got 8 out of 8 right first time. Press Continue.</p>","0","html-button-response","149","832461","0.0-14.1-25.1","77503","List2A","white","man","","","","","","","","","","","","",""
"null","<div style=""font-size:60px;"">+</div>","","html-keyboard-response","150","833969","0.0-15.0-0.0","77503","List2A","white","man","","","","null","","","","","","","","",""
"null","<img src=""stim_listA/look8.gif""style=""height:400px;""></stim_listA>","","html-keyboard-response","151","835972","0.0-15.0-1.0","77503","List2A","white","man","","","","null","","","","","","","","",""
"null","is being looked at by","","html-keyboard-response","152","837978","0.0-15.0-2.0","77503","List2A","white","man","","","","null","","","","","","","","",""
"11416.299999982119","","","survey-text","153","849397","0.0-15.0-3.0","77503","List2A","white","man","","","","","{""Q0"":""jane looked at kate""}","<img src=""stim_listA/look8.gif""style=""height:400px;""></stim_listA>","is being looked at by","","","","","",""
"null","<div style=""font-size:60px;"">+</div>","","html-keyboard-response","154","849901","0.0-15.0-0.1","77503","List2A","white","man","","","","null","","","","","","","","",""
"null","<img src=""stim_listA/challenge7.gif""style=""height:400px;""></stim_listA>","","html-keyboard-response","155","851906","0.0-15.0-1.1","77503","List2A","white","man","","","","null","","","","","","","","",""
"null","is challenging","","html-keyboard-response","156","853919","0.0-15.0-2.1","77503","List2A","white","man","","","","null","","","","","","","","",""
"8474.09999999404","","","survey-text","157","862399","0.0-15.0-3.1","77503","List2A","white","man","","","","","{""Q0"":""jane is challenging beth""}","<img src=""stim_listA/challenge7.gif""style=""height:400px;""></stim_listA>","is challenging","","","","","",""
"null","<div style=""font-size:60px;"">+</div>","","html-keyboard-response","158","862901","0.0-15.0-0.2","77503","List2A","white","man","","","","null","","","","","","","","",""
"null","<img src=""stim_listA/challenge5.gif""style=""height:400px;""></stim_listA>","","html-keyboard-response","159","864904","0.0-15.0-1.2","77503","List2A","white","man","","","","null","","","","","","","","",""
"null","is challenging","","html-keyboard-response","160","866917","0.0-15.0-2.2","77503","List2A","white","man","","","","null","","","","","","","","",""
"8814.40000000596","","","survey-text","161","875735","0.0-15.0-3.2","77503","List2A","white","man","","","","","{""Q0"":""dave is challenging fred""}","<img src=""stim_listA/challenge5.gif""style=""height:400px;""></stim_listA>","is challenging","","","","","",""
"null","<div style=""font-size:60px;"">+</div>","","html-keyboard-response","162","876237","0.0-15.0-0.3","77503","List2A","white","man","","","","null","","","","","","","","",""
"null","<img src=""stim_listA/look1.gif""style=""height:400px;""></stim_listA>","","html-keyboard-response","163","878254","0.0-15.0-1.3","77503","List2A","white","man","","","","null","","","","","","","","",""
"null","is looking at","","html-keyboard-response","164","880264","0.0-15.0-2.3","77503","List2A","white","man","","","","null","","","","","","","","",""
"8895.5","","","survey-text","165","889163","0.0-15.0-3.3","77503","List2A","white","man","","","","","{""Q0"":""luke is looking at ruth""}","<img src=""stim_listA/look1.gif""style=""height:400px;""></stim_listA>","is looking at","","","","","",""
"null","<div style=""font-size:60px;"">+</div>","","html-keyboard-response","166","889666","0.0-15.0-0.4","77503","List2A","white","man","","","","null","","","","","","","","",""
"null","<img src=""stim_listA/kiss8.gif""style=""height:400px;""></stim_listA>","","html-keyboard-response","167","891671","0.0-15.0-1.4","77503","List2A","white","man","","","","null","","","","","","","","",""
"null","is being kissed by","","html-keyboard-response","168","893684","0.0-15.0-2.4","77503","List2A","white","man","","","","null","","","","","","","","",""
"8717.5","","","survey-text","169","902405","0.0-15.0-3.4","77503","List2A","white","man","","","","","{""Q0"":""jane is kissed by kate""}","<img src=""stim_listA/kiss8.gif""style=""height:400px;""></stim_listA>","is being kissed by","","","","","",""
"null","<div style=""font-size:60px;"">+</div>","","html-keyboard-response","170","902911","0.0-15.0-0.5","77503","List2A","white","man","","","","null","","","","","","","","",""
"null","<img src=""stim_listA/touch5.gif""style=""height:400px;""></stim_listA>","","html-keyboard-response","171","904920","0.0-15.0-1.5","77503","List2A","white","man","","","","null","","","","","","","","",""
"null","is touching","","html-keyboard-response","172","906922","0.0-15.0-2.5","77503","List2A","white","man","","","","null","","","","","","","","",""
"8332.5","","","survey-text","173","915257","0.0-15.0-3.5","77503","List2A","white","man","","","","","{""Q0"":""dave is touching mike""}","<img src=""stim_listA/touch5.gif""style=""height:400px;""></stim_listA>","is touching","","","","","",""
"null","<div style=""font-size:60px;"">+</div>","","html-keyboard-response","174","915762","0.0-15.0-0.6","77503","List2A","white","man","","","","null","","","","","","","","",""
"null","<img src=""stim_listA/greet5.gif""style=""height:400px;""></stim_listA>","","html-keyboard-response","175","917764","0.0-15.0-1.6","77503","List2A","white","man","","","","null","","","","","","","","",""
"null","is greeting","","html-keyboard-response","176","919769","0.0-15.0-2.6","77503","List2A","white","man","","","","null","","","","","","","","",""
"7197.9000000059605","","","survey-text","177","926970","0.0-15.0-3.6","77503","List2A","white","man","","","","","{""Q0"":""dave is greeting fred""}","<img src=""stim_listA/greet5.gif""style=""height:400px;""></stim_listA>","is greeting","","","","","",""
"null","<div style=""font-size:60px;"">+</div>","","html-keyboard-response","178","927486","0.0-15.0-0.7","77503","List2A","white","man","","","","null","","","","","","","","",""
"null","<img src=""stim_listA/greet4.gif""style=""height:400px;""></stim_listA>","","html-keyboard-response","179","929489","0.0-15.0-1.7","77503","List2A","white","man","","","","null","","","","","","","","",""
"null","is being greeted by","","html-keyboard-response","180","931499","0.0-15.0-2.7","77503","List2A","white","man","","","","null","","","","","","","","",""
"10928.5","","","survey-text","181","942431","0.0-15.0-3.7","77503","List2A","white","man","","","","","{""Q0"":""fred is being greeted by kate""}","<img src=""stim_listA/greet4.gif""style=""height:400px;""></stim_listA>","is being greeted by","","","","","",""
"null","<div style=""font-size:60px;"">+</div>","","html-keyboard-response","182","942941","0.0-15.0-0.8","77503","List2A","white","man","","","","null","","","","","","","","",""
"null","<img src=""stim_listA/kiss3.gif""style=""height:400px;""></stim_listA>","","html-keyboard-response","183","944954","0.0-15.0-1.8","77503","List2A","white","man","","","","null","","","","","","","","",""
"null","is kissing","","html-keyboard-response","184","946956","0.0-15.0-2.8","77503","List2A","white","man","","","","null","","","","","","","","",""
"6872.299999982119","","","survey-text","185","953831","0.0-15.0-3.8","77503","List2A","white","man","","","","","{""Q0"":""beth is kissing fred""}","<img src=""stim_listA/kiss3.gif""style=""height:400px;""></stim_listA>","is kissing","","","","","",""
"null","<div style=""font-size:60px;"">+</div>","","html-keyboard-response","186","954339","0.0-15.0-0.9","77503","List2A","white","man","","","","null","","","","","","","","",""
"null","<img src=""stim_listA/challenge1.gif""style=""height:400px;""></stim_listA>","","html-keyboard-response","187","956343","0.0-15.0-1.9","77503","List2A","white","man","","","","null","","","","","","","","",""
"null","is challenging","","html-keyboard-response","188","958345","0.0-15.0-2.9","77503","List2A","white","man","","","","null","","","","","","","","",""
"7795.100000023842","","","survey-text","189","966143","0.0-15.0-3.9","77503","List2A","white","man","","","","","{""Q0"":""dave is challenging ruth""}","<img src=""stim_listA/challenge1.gif""style=""height:400px;""></stim_listA>","is challenging","","","","","",""
"null","<div style=""font-size:60px;"">+</div>","","html-keyboard-response","190","966646","0.0-15.0-0.10","77503","List2A","white","man","","","","null","","","","","","","","",""
"null","<img src=""stim_listA/challenge2.gif""style=""height:400px;""></stim_listA>","","html-keyboard-response","191","968656","0.0-15.0-1.10","77503","List2A","white","man","","","","null","","","","","","","","",""
"null","is being challenged by","","html-keyboard-response","192","970663","0.0-15.0-2.10","77503","List2A","white","man","","","","null","","","","","","","","",""
"10334.899999976158","","","survey-text","193","981004","0.0-15.0-3.10","77503","List2A","white","man","","","","","{""Q0"":""jane is challenged by luke""}","<img src=""stim_listA/challenge2.gif""style=""height:400px;""></stim_listA>","is being challenged by","","","","","",""
"null","<div style=""font-size:60px;"">+</div>","","html-keyboard-response","194","981507","0.0-15.0-0.11","77503","List2A","white","man","","","","null","","","","","","","","",""
"null","<img src=""stim_listA/greet8.gif""style=""height:400px;""></stim_listA>","","html-keyboard-response","195","983508","0.0-15.0-1.11","77503","List2A","white","man","","","","null","","","","","","","","",""
"null","is being greeted by","","html-keyboard-response","196","985512","0.0-15.0-2.11","77503","List2A","white","man","","","","null","","","","","","","","",""
"17795.40000000596","","","survey-text","197","1003311","0.0-15.0-3.11","77503","List2A","white","man","","","","","{""Q0"":""ruth is being greeted by kate""}","<img src=""stim_listA/greet8.gif""style=""height:400px;""></stim_listA>","is being greeted by","","","","","",""
"null","<div style=""font-size:60px;"">+</div>","","html-keyboard-response","198","1003813","0.0-15.0-0.12","77503","List2A","white","man","","","","null","","","","","","","","",""
"null","<img src=""stim_listA/touch7.gif""style=""height:400px;""></stim_listA>","","html-keyboard-response","199","1005823","0.0-15.0-1.12","77503","List2A","white","man","","","","null","","","","","","","","",""
"null","is touching","","html-keyboard-response","200","1007832","0.0-15.0-2.12","77503","List2A","white","man","","","","null","","","","","","","","",""
"8341.299999982119","","","survey-text","201","1016176","0.0-15.0-3.12","77503","List2A","white","man","","","","","{""Q0"":""jane is touching kate""}","<img src=""stim_listA/touch7.gif""style=""height:400px;""></stim_listA>","is touching","","","","","",""
"null","<div style=""font-size:60px;"">+</div>","","html-keyboard-response","202","1016677","0.0-15.0-0.13","77503","List2A","white","man","","","","null","","","","","","","","",""
"null","<img src=""stim_listA/look6.gif""style=""height:400px;""></stim_listA>","","html-keyboard-response","203","1018695","0.0-15.0-1.13","77503","List2A","white","man","","","","null","","","","","","","","",""
"null","is being looked at by","","html-keyboard-response","204","1020704","0.0-15.0-2.13","77503","List2A","white","man","","","","null","","","","","","","","",""
"9171.09999999404","","","survey-text","205","1029878","0.0-15.0-3.13","77503","List2A","white","man","","","","","{""Q0"":""dave is being looked at by mike""}","<img src=""stim_listA/look6.gif""style=""height:400px;""></stim_listA>","is being looked at by","","","","","",""
"null","<div style=""font-size:60px;"">+</div>","","html-keyboard-response","206","1030392","0.0-15.0-0.14","77503","List2A","white","man","","","","null","","","","","","","","",""
"null","<img src=""stim_listA/greet3.gif""style=""height:400px;""></stim_listA>","","html-keyboard-response","207","1032402","0.0-15.0-1.14","77503","List2A","white","man","","","","null","","","","","","","","",""
"null","is greeting","","html-keyboard-response","208","1034412","0.0-15.0-2.14","77503","List2A","white","man","","","","null","","","","","","","","",""
"12059.09999999404","","","survey-text","209","1046478","0.0-15.0-3.14","77503","List2A","white","man","","","","","{""Q0"":""mike is greeting beth""}","<img src=""stim_listA/greet3.gif""style=""height:400px;""></stim_listA>","is greeting","","","","","",""
"null","<div style=""font-size:60px;"">+</div>","","html-keyboard-response","210","1046981","0.0-15.0-0.15","77503","List2A","white","man","","","","null","","","","","","","","",""
"null","<img src=""stim_listA/greet7.gif""style=""height:400px;""></stim_listA>","","html-keyboard-response","211","1048994","0.0-15.0-1.15","77503","List2A","white","man","","","","null","","","","","","","","",""
"null","is greeting","","html-keyboard-response","212","1051006","0.0-15.0-2.15","77503","List2A","white","man","","","","null","","","","","","","","",""
"10091.699999988079","","","survey-text","213","1061100","0.0-15.0-3.15","77503","List2A","white","man","","","","","{""Q0"":""jane is greeting beth""}","<img src=""stim_listA/greet7.gif""style=""height:400px;""></stim_listA>","is greeting","","","","","",""
"null","<div style=""font-size:60px;"">+</div>","","html-keyboard-response","214","1061603","0.0-15.0-0.16","77503","List2A","white","man","","","","null","","","","","","","","",""
"null","<img src=""stim_listA/kiss5.gif""style=""height:400px;""></stim_listA>","","html-keyboard-response","215","1063607","0.0-15.0-1.16","77503","List2A","white","man","","","","null","","","","","","","","",""
"null","is kissing","","html-keyboard-response","216","1065617","0.0-15.0-2.16","77503","List2A","white","man","","","","null","","","","","","","","",""
"10644.199999988079","","","survey-text","217","1076264","0.0-15.0-3.16","77503","List2A","white","man","","","","","{""Q0"":""fred is kissing luke""}","<img src=""stim_listA/kiss5.gif""style=""height:400px;""></stim_listA>","is kissing","","","","","",""
"null","<div style=""font-size:60px;"">+</div>","","html-keyboard-response","218","1076765","0.0-15.0-0.17","77503","List2A","white","man","","","","null","","","","","","","","",""
"null","<img src=""stim_listA/shout1.gif""style=""height:400px;""></stim_listA>","","html-keyboard-response","219","1078776","0.0-15.0-1.17","77503","List2A","white","man","","","","null","","","","","","","","",""
"null","is shouting at","","html-keyboard-response","220","1080782","0.0-15.0-2.17","77503","List2A","white","man","","","","null","","","","","","","","",""
"10495","","","survey-text","221","1091280","0.0-15.0-3.17","77503","List2A","white","man","","","","","{""Q0"":""luke is shouting at ruth""}","<img src=""stim_listA/shout1.gif""style=""height:400px;""></stim_listA>","is shouting at","","","","","",""
"null","<div style=""font-size:60px;"">+</div>","","html-keyboard-response","222","1091781","0.0-15.0-0.18","77503","List2A","white","man","","","","null","","","","","","","","",""
"null","<img src=""stim_listA/look2.gif""style=""height:400px;""></stim_listA>","","html-keyboard-response","223","1093796","0.0-15.0-1.18","77503","List2A","white","man","","","","null","","","","","","","","",""
"null","is being looked at by","","html-keyboard-response","224","1095809","0.0-15.0-2.18","77503","List2A","white","man","","","","null","","","","","","","","",""
"9240.300000011921","","","survey-text","225","1105056","0.0-15.0-3.18","77503","List2A","white","man","","","","","{""Q0"":""jane is being looked at by dave""}","<img src=""stim_listA/look2.gif""style=""height:400px;""></stim_listA>","is being looked at by","","","","","",""
"null","<div style=""font-size:60px;"">+</div>","","html-keyboard-response","226","1105563","0.0-15.0-0.19","77503","List2A","white","man","","","","null","","","","","","","","",""
"null","<img src=""stim_listA/shout6.gif""style=""height:400px;""></stim_listA>","","html-keyboard-response","227","1107579","0.0-15.0-1.19","77503","List2A","white","man","","","","null","","","","","","","","",""
"null","is being shouted at by","","html-keyboard-response","228","1109583","0.0-15.0-2.19","77503","List2A","white","man","","","","null","","","","","","","","",""
"10168","","","survey-text","229","1119752","0.0-15.0-3.19","77503","List2A","white","man","","","","","{""Q0"":""mike is being shouted at by dave""}","<img src=""stim_listA/shout6.gif""style=""height:400px;""></stim_listA>","is being shouted at by","","","","","",""
"9647","<img src='img/portrait_matrix_list2.jpg' style='width:900px;height:500px;''></img><p>If you have memorised all the portraits and names and are ready to start, press Continue.</p><p><strong>Please note: Your memory of these faces will be tested 4 times during this experiment.</strong></p>","0","html-button-response","230","1129400","0.0-16.0-0.0","77503","List2A","white","man","","","","","","","","","","","","",""
"2067","<img src=""portrait/WM2.jpg""style=""height:400px;""></img>","7","html-button-response","231","1132478","0.0-16.0-1.0","77503","List2A","white","man","","true","7","","","","","","","","","",""
"null","CORRECT","","html-keyboard-response","232","1133990","0.0-16.0-2.0-0.0","77503","List2A","white","man","","","","null","","","","","","","","",""
"1846.9000000059605","<img src=""portrait/BM2.jpg""style=""height:400px;""></img>","5","html-button-response","233","1135838","0.0-16.0-4.0","77503","List2A","white","man","","true","5","","","","","","","","","",""
"null","CORRECT","","html-keyboard-response","234","1137341","0.0-16.0-5.0-0.0","77503","List2A","white","man","","","","null","","","","","","","","",""
"2402","<img src=""portrait/WW2.jpg""style=""height:400px;""></img>","3","html-button-response","235","1139745","0.0-16.0-7.0","77503","List2A","white","man","","true","3","","","","","","","","","",""
"null","CORRECT","","html-keyboard-response","236","1141248","0.0-16.0-8.0-0.0","77503","List2A","white","man","","","","null","","","","","","","","",""
"1970.5","<img src=""portrait/WM1.jpg""style=""height:400px;""></img>","6","html-button-response","237","1143220","0.0-16.0-10.0","77503","List2A","white","man","","true","6","","","","","","","","","",""
"null","CORRECT","","html-keyboard-response","238","1144724","0.0-16.0-11.0-0.0","77503","List2A","white","man","","","","null","","","","","","","","",""
"1518.800000011921","<img src=""portrait/BM1.jpg""style=""height:400px;""></img>","5","html-button-response","239","1146244","0.0-16.0-13.0","77503","List2A","white","man","","true","4","","","","","","","","","",""
"863.8000000119209","<img src=""portrait/BM1.jpg""style=""height:400px;""></img>","4","html-button-response","240","1148119","0.0-16.0-15.0-0.0","77503","List2A","white","man","","false","4","","","","","","","","","",""
"null","CORRECT","","html-keyboard-response","241","1149623","0.0-16.0-15.0-1.0-0.0","77503","List2A","white","man","","","","null","","","","","","","","",""
"2485.2999999821186","<img src=""portrait/BW1.jpg""style=""height:400px;""></img>","0","html-button-response","242","1152110","0.0-16.0-16.0","77503","List2A","white","man","","true","0","","","","","","","","","",""
"null","CORRECT","","html-keyboard-response","243","1153625","0.0-16.0-17.0-0.0","77503","List2A","white","man","","","","null","","","","","","","","",""
"1467.4000000059605","<img src=""portrait/BW2.jpg""style=""height:400px;""></img>","2","html-button-response","244","1155094","0.0-16.0-19.0","77503","List2A","white","man","","true","2","","","","","","","","","",""
"null","CORRECT","","html-keyboard-response","245","1156598","0.0-16.0-20.0-0.0","77503","List2A","white","man","","","","null","","","","","","","","",""
"2190.800000011921","<img src=""portrait/WW1.jpg""style=""height:400px;""></img>","1","html-button-response","246","1158790","0.0-16.0-22.0","77503","List2A","white","man","","true","1","","","","","","","","","",""
"null","CORRECT","","html-keyboard-response","247","1160297","0.0-16.0-23.0-0.0","77503","List2A","white","man","","","","null","","","","","","","","",""
"1557.7999999821186","<p>You got 7 out of 8 right first time. Press Continue.</p>","0","html-button-response","248","1161857","0.0-16.0-25.0","77503","List2A","white","man","","","","","","","","","","","","",""
"1678.199999988079","As you did not score 100%, the memory game will repeat. Press Continue.","0","html-button-response","249","1164536","0.0-16.0-26.0-0.0","77503","List2A","white","man","","","","","","","","","","","","",""
"1434.9000000059605","<img src='img/portrait_matrix_list2.jpg' style='width:900px;height:500px;''></img><p>If you have memorised all the portraits and names and are ready to start, press Continue.</p><p><strong>Please note: Your memory of these faces will be tested 4 times during this experiment.</strong></p>","0","html-button-response","250","1166974","0.0-16.1-0.1","77503","List2A","white","man","","","","","","","","","","","","",""
"2170.5999999940395","<img src=""portrait/WM2.jpg""style=""height:400px;""></img>","7","html-button-response","251","1170155","0.0-16.1-1.1","77503","List2A","white","man","","true","7","","","","","","","","","",""
"null","CORRECT","","html-keyboard-response","252","1171657","0.0-16.1-2.1-0.1","77503","List2A","white","man","","","","null","","","","","","","","",""
"1964.4000000059605","<img src=""portrait/BM2.jpg""style=""height:400px;""></img>","5","html-button-response","253","1173623","0.0-16.1-4.1","77503","List2A","white","man","","true","5","","","","","","","","","",""
"null","CORRECT","","html-keyboard-response","254","1175125","0.0-16.1-5.1-0.1","77503","List2A","white","man","","","","null","","","","","","","","",""
"1450","<img src=""portrait/WW2.jpg""style=""height:400px;""></img>","3","html-button-response","255","1176576","0.0-16.1-7.1","77503","List2A","white","man","","true","3","","","","","","","","","",""
"null","CORRECT","","html-keyboard-response","256","1178086","0.0-16.1-8.1-0.1","77503","List2A","white","man","","","","null","","","","","","","","",""
"1862.5","<img src=""portrait/WM1.jpg""style=""height:400px;""></img>","6","html-button-response","257","1179950","0.0-16.1-10.1","77503","List2A","white","man","","true","6","","","","","","","","","",""
"null","CORRECT","","html-keyboard-response","258","1181455","0.0-16.1-11.1-0.1","77503","List2A","white","man","","","","null","","","","","","","","",""
"1306.0999999940395","<img src=""portrait/BM1.jpg""style=""height:400px;""></img>","4","html-button-response","259","1182763","0.0-16.1-13.1","77503","List2A","white","man","","true","4","","","","","","","","","",""
"null","CORRECT","","html-keyboard-response","260","1184289","0.0-16.1-14.1-0.1","77503","List2A","white","man","","","","null","","","","","","","","",""
"1730.5999999940395","<img src=""portrait/BW1.jpg""style=""height:400px;""></img>","0","html-button-response","261","1186021","0.0-16.1-16.1","77503","List2A","white","man","","true","0","","","","","","","","","",""
"null","CORRECT","","html-keyboard-response","262","1187524","0.0-16.1-17.1-0.1","77503","List2A","white","man","","","","null","","","","","","","","",""
"1869.2999999821186","<img src=""portrait/BW2.jpg""style=""height:400px;""></img>","2","html-button-response","263","1189395","0.0-16.1-19.1","77503","List2A","white","man","","true","2","","","","","","","","","",""
"null","CORRECT","","html-keyboard-response","264","1190900","0.0-16.1-20.1-0.1","77503","List2A","white","man","","","","null","","","","","","","","",""
"2703.9000000059605","<img src=""portrait/WW1.jpg""style=""height:400px;""></img>","1","html-button-response","265","1193606","0.0-16.1-22.1","77503","List2A","white","man","","true","1","","","","","","","","","",""
"null","CORRECT","","html-keyboard-response","266","1195115","0.0-16.1-23.1-0.1","77503","List2A","white","man","","","","null","","","","","","","","",""
"1489.5999999940395","<p>You got 8 out of 8 right first time. Press Continue.</p>","0","html-button-response","267","1196606","0.0-16.1-25.1","77503","List2A","white","man","","","","","","","","","","","","",""
"null","<div style=""font-size:60px;"">+</div>","","html-keyboard-response","268","1198113","0.0-17.0-0.0","77503","List2A","white","man","","","","null","","","","","","","","",""
"null","<img src=""stim_listA/touch6.gif""style=""height:400px;""></stim_listA>","","html-keyboard-response","269","1200121","0.0-17.0-1.0","77503","List2A","white","man","","","","null","","","","","","","","",""
"null","is being touched by","","html-keyboard-response","270","1202131","0.0-17.0-2.0","77503","List2A","white","man","","","","null","","","","","","","","",""
"9802.800000011921","","","survey-text","271","1211937","0.0-17.0-3.0","77503","List2A","white","man","","","","","{""Q0"":""luke is being touched by fred""}","<img src=""stim_listA/touch6.gif""style=""height:400px;""></stim_listA>","is being touched by","","","","","",""
"null","<div style=""font-size:60px;"">+</div>","","html-keyboard-response","272","1212438","0.0-17.0-0.1","77503","List2A","white","man","","","","null","","","","","","","","",""
"null","<img src=""stim_listA/kiss6.gif""style=""height:400px;""></stim_listA>","","html-keyboard-response","273","1214442","0.0-17.0-1.1","77503","List2A","white","man","","","","null","","","","","","","","",""
"null","is being kissed by","","html-keyboard-response","274","1216443","0.0-17.0-2.1","77503","List2A","white","man","","","","null","","","","","","","","",""
"8866.799999982119","","","survey-text","275","1225314","0.0-17.0-3.1","77503","List2A","white","man","","","","","{""Q0"":""mike is being kissed by dave""}","<img src=""stim_listA/kiss6.gif""style=""height:400px;""></stim_listA>","is being kissed by","","","","","",""
"null","<div style=""font-size:60px;"">+</div>","","html-keyboard-response","276","1225829","0.0-17.0-0.2","77503","List2A","white","man","","","","null","","","","","","","","",""
"null","<img src=""stim_listA/copy5.gif""style=""height:400px;""></stim_listA>","","html-keyboard-response","277","1227835","0.0-17.0-1.2","77503","List2A","white","man","","","","null","","","","","","","","",""
"null","is copying","","html-keyboard-response","278","1229837","0.0-17.0-2.2","77503","List2A","white","man","","","","null","","","","","","","","",""
"16760.69999998808","","","survey-text","279","1246600","0.0-17.0-3.2","77503","List2A","white","man","","","","","{""Q0"":""fred is copying dave""}","<img src=""stim_listA/copy5.gif""style=""height:400px;""></stim_listA>","is copying","","","","","",""
"null","<div style=""font-size:60px;"">+</div>","","html-keyboard-response","280","1247109","0.0-17.0-0.3","77503","List2A","white","man","","","","null","","","","","","","","",""
"null","<img src=""stim_listA/kiss2.gif""style=""height:400px;""></stim_listA>","","html-keyboard-response","281","1249118","0.0-17.0-1.3","77503","List2A","white","man","","","","null","","","","","","","","",""
"null","is being kissed by","","html-keyboard-response","282","1251135","0.0-17.0-2.3","77503","List2A","white","man","","","","null","","","","","","","","",""
"9096.700000017881","","","survey-text","283","1260235","0.0-17.0-3.3","77503","List2A","white","man","","","","","{""Q0"":""dave is being kissed by jane""}","<img src=""stim_listA/kiss2.gif""style=""height:400px;""></stim_listA>","is being kissed by","","","","","",""
"null","<div style=""font-size:60px;"">+</div>","","html-keyboard-response","284","1260745","0.0-17.0-0.4","77503","List2A","white","man","","","","null","","","","","","","","",""
"null","<img src=""stim_listA/seduce4.gif""style=""height:400px;""></stim_listA>","","html-keyboard-response","285","1262759","0.0-17.0-1.4","77503","List2A","white","man","","","","null","","","","","","","","",""
"null","is being seduced by","","html-keyboard-response","286","1264765","0.0-17.0-2.4","77503","List2A","white","man","","","","null","","","","","","","","",""
"10153.399999976158","","","survey-text","287","1274921","0.0-17.0-3.4","77503","List2A","white","man","","","","","{""Q0"":""mike is being seduced by ruth""}","<img src=""stim_listA/seduce4.gif""style=""height:400px;""></stim_listA>","is being seduced by","","","","","",""
"null","<div style=""font-size:60px;"">+</div>","","html-keyboard-response","288","1275436","0.0-17.0-0.5","77503","List2A","white","man","","","","null","","","","","","","","",""
"null","<img src=""stim_listA/greet1.gif""style=""height:400px;""></stim_listA>","","html-keyboard-response","289","1277438","0.0-17.0-1.5","77503","List2A","white","man","","","","null","","","","","","","","",""
"null","is greeting","","html-keyboard-response","290","1279443","0.0-17.0-2.5","77503","List2A","white","man","","","","null","","","","","","","","",""
"9334.5","","","survey-text","291","1288784","0.0-17.0-3.5","77503","List2A","white","man","","","","","{""Q0"":""ruth is greeting dave""}","<img src=""stim_listA/greet1.gif""style=""height:400px;""></stim_listA>","is greeting","","","","","",""
"null","<div style=""font-size:60px;"">+</div>","","html-keyboard-response","292","1289287","0.0-17.0-0.6","77503","List2A","white","man","","","","null","","","","","","","","",""
"null","<img src=""stim_listA/hug6.gif""style=""height:400px;""></stim_listA>","","html-keyboard-response","293","1291294","0.0-17.0-1.6","77503","List2A","white","man","","","","null","","","","","","","","",""
"null","is being hugged by","","html-keyboard-response","294","1293296","0.0-17.0-2.6","77503","List2A","white","man","","","","null","","","","","","","","",""
"8718.90000000596","","","survey-text","295","1302018","0.0-17.0-3.6","77503","List2A","white","man","","","","","{""Q0"":""mike is being hugged by dave""}","<img src=""stim_listA/hug6.gif""style=""height:400px;""></stim_listA>","is being hugged by","","","","","",""
"null","<div style=""font-size:60px;"">+</div>","","html-keyboard-response","296","1302530","0.0-17.0-0.7","77503","List2A","white","man","","","","null","","","","","","","","",""
"null","<img src=""stim_listA/seduce2.gif""style=""height:400px;""></stim_listA>","","html-keyboard-response","297","1304542","0.0-17.0-1.7","77503","List2A","white","man","","","","null","","","","","","","","",""
"null","is being seduced by","","html-keyboard-response","298","1306544","0.0-17.0-2.7","77503","List2A","white","man","","","","null","","","","","","","","",""
"8922.40000000596","","","survey-text","299","1315470","0.0-17.0-3.7","77503","List2A","white","man","","","","","{""Q0"":""ruth is being seduced by dave""}","<img src=""stim_listA/seduce2.gif""style=""height:400px;""></stim_listA>","is being seduced by","","","","","",""
"null","<div style=""font-size:60px;"">+</div>","","html-keyboard-response","300","1315983","0.0-17.0-0.8","77503","List2A","white","man","","","","null","","","","","","","","",""
"null","<img src=""stim_listA/shout7.gif""style=""height:400px;""></stim_listA>","","html-keyboard-response","301","1318000","0.0-17.0-1.8","77503","List2A","white","man","","","","null","","","","","","","","",""
"null","is shouting at","","html-keyboard-response","302","1320002","0.0-17.0-2.8","77503","List2A","white","man","","","","null","","","","","","","","",""
"7324.300000011921","","","survey-text","303","1327330","0.0-17.0-3.8","77503","List2A","white","man","","","","","{""Q0"":""ruth is shouting at beth""}","<img src=""stim_listA/shout7.gif""style=""height:400px;""></stim_listA>","is shouting at","","","","","",""
"null","<div style=""font-size:60px;"">+</div>","","html-keyboard-response","304","1327832","0.0-17.0-0.9","77503","List2A","white","man","","","","null","","","","","","","","",""
"null","<img src=""stim_listA/challenge3.gif""style=""height:400px;""></stim_listA>","","html-keyboard-response","305","1329836","0.0-17.0-1.9","77503","List2A","white","man","","","","null","","","","","","","","",""
"null","is challenging","","html-keyboard-response","306","1331843","0.0-17.0-2.9","77503","List2A","white","man","","","","null","","","","","","","","",""
"8593.299999982119","","","survey-text","307","1340441","0.0-17.0-3.9","77503","List2A","white","man","","","","","{""Q0"":""beth is challenging mike""}","<img src=""stim_listA/challenge3.gif""style=""height:400px;""></stim_listA>","is challenging","","","","","",""
"null","<div style=""font-size:60px;"">+</div>","","html-keyboard-response","308","1340947","0.0-17.0-0.10","77503","List2A","white","man","","","","null","","","","","","","","",""
"null","<img src=""stim_listA/look7.gif""style=""height:400px;""></stim_listA>","","html-keyboard-response","309","1342958","0.0-17.0-1.10","77503","List2A","white","man","","","","null","","","","","","","","",""
"null","is looking at","","html-keyboard-response","310","1344969","0.0-17.0-2.10","77503","List2A","white","man","","","","null","","","","","","","","",""
"7053.700000017881","","","survey-text","311","1352026","0.0-17.0-3.10","77503","List2A","white","man","","","","","{""Q0"":""ruth is looking at beth""}","<img src=""stim_listA/look7.gif""style=""height:400px;""></stim_listA>","is looking at","","","","","",""
"null","<div style=""font-size:60px;"">+</div>","","html-keyboard-response","312","1352535","0.0-17.0-0.11","77503","List2A","white","man","","","","null","","","","","","","","",""
"null","<img src=""stim_listA/touch8.gif""style=""height:400px;""></stim_listA>","","html-keyboard-response","313","1354537","0.0-17.0-1.11","77503","List2A","white","man","","","","null","","","","","","","","",""
"null","is being touched by","","html-keyboard-response","314","1356542","0.0-17.0-2.11","77503","List2A","white","man","","","","null","","","","","","","","",""
"8739.59999999404","","","survey-text","315","1365284","0.0-17.0-3.11","77503","List2A","white","man","","","","","{""Q0"":""ruth is being touched by beth""}","<img src=""stim_listA/touch8.gif""style=""height:400px;""></stim_listA>","is being touched by","","","","","",""
"null","<div style=""font-size:60px;"">+</div>","","html-keyboard-response","316","1365798","0.0-17.0-0.12","77503","List2A","white","man","","","","null","","","","","","","","",""
"null","<img src=""stim_listA/copy6.gif""style=""height:400px;""></stim_listA>","","html-keyboard-response","317","1367811","0.0-17.0-1.12","77503","List2A","white","man","","","","null","","","","","","","","",""
"null","is being copied by","","html-keyboard-response","318","1369823","0.0-17.0-2.12","77503","List2A","white","man","","","","null","","","","","","","","",""
"16106.200000017881","","","survey-text","319","1385932","0.0-17.0-3.12","77503","List2A","white","man","","","","","{""Q0"":""luke is seducing mike""}","<img src=""stim_listA/copy6.gif""style=""height:400px;""></stim_listA>","is being copied by","","","","","",""
"null","<div style=""font-size:60px;"">+</div>","","html-keyboard-response","320","1386436","0.0-17.0-0.13","77503","List2A","white","man","","","","null","","","","","","","","",""
"null","<img src=""stim_listA/oppose6.gif""style=""height:400px;""></stim_listA>","","html-keyboard-response","321","1388439","0.0-17.0-1.13","77503","List2A","white","man","","","","null","","","","","","","","",""
"null","is being opposed by","","html-keyboard-response","322","1390440","0.0-17.0-2.13","77503","List2A","white","man","","","","null","","","","","","","","",""
"8989.200000017881","","","survey-text","323","1399432","0.0-17.0-3.13","77503","List2A","white","man","","","","","{""Q0"":""luke is being opposed by fred""}","<img src=""stim_listA/oppose6.gif""style=""height:400px;""></stim_listA>","is being opposed by","","","","","",""
"null","<div style=""font-size:60px;"">+</div>","","html-keyboard-response","324","1399949","0.0-17.0-0.14","77503","List2A","white","man","","","","null","","","","","","","","",""
"null","<img src=""stim_listA/copy1.gif""style=""height:400px;""></stim_listA>","","html-keyboard-response","325","1401961","0.0-17.0-1.14","77503","List2A","white","man","","","","null","","","","","","","","",""
"null","is copying","","html-keyboard-response","326","1403974","0.0-17.0-2.14","77503","List2A","white","man","","","","null","","","","","","","","",""
"10692.899999976158","","","survey-text","327","1414670","0.0-17.0-3.14","77503","List2A","white","man","","","","","{""Q0"":""dave is hugging ruth""}","<img src=""stim_listA/copy1.gif""style=""height:400px;""></stim_listA>","is copying","","","","","",""
"null","<div style=""font-size:60px;"">+</div>","","html-keyboard-response","328","1415174","0.0-17.0-0.15","77503","List2A","white","man","","","","null","","","","","","","","",""
"null","<img src=""stim_listA/copy7.gif""style=""height:400px;""></stim_listA>","","html-keyboard-response","329","1417191","0.0-17.0-1.15","77503","List2A","white","man","","","","null","","","","","","","","",""
"null","is copying","","html-keyboard-response","330","1419201","0.0-17.0-2.15","77503","List2A","white","man","","","","null","","","","","","","","",""
"7691.5","","","survey-text","331","1426896","0.0-17.0-3.15","77503","List2A","white","man","","","","","{""Q0"":""beth is copying jane""}","<img src=""stim_listA/copy7.gif""style=""height:400px;""></stim_listA>","is copying","","","","","",""
"null","<div style=""font-size:60px;"">+</div>","","html-keyboard-response","332","1427406","0.0-17.0-0.16","77503","List2A","white","man","","","","null","","","","","","","","",""
"null","<img src=""stim_listA/seduce3.gif""style=""height:400px;""></stim_listA>","","html-keyboard-response","333","1429414","0.0-17.0-1.16","77503","List2A","white","man","","","","null","","","","","","","","",""
"null","is seducing","","html-keyboard-response","334","1431429","0.0-17.0-2.16","77503","List2A","white","man","","","","null","","","","","","","","",""
"8205.300000011921","","","survey-text","335","1439638","0.0-17.0-3.16","77503","List2A","white","man","","","","","{""Q0"":""fred is seducing kate""}","<img src=""stim_listA/seduce3.gif""style=""height:400px;""></stim_listA>","is seducing","","","","","",""
"null","<div style=""font-size:60px;"">+</div>","","html-keyboard-response","336","1440139","0.0-17.0-0.17","77503","List2A","white","man","","","","null","","","","","","","","",""
"null","<img src=""stim_listA/copy3.gif""style=""height:400px;""></stim_listA>","","html-keyboard-response","337","1442148","0.0-17.0-1.17","77503","List2A","white","man","","","","null","","","","","","","","",""
"null","is copying","","html-keyboard-response","338","1444150","0.0-17.0-2.17","77503","List2A","white","man","","","","null","","","","","","","","",""
"6326.299999982119","","","survey-text","339","1450480","0.0-17.0-3.17","77503","List2A","white","man","","","","","{""Q0"":""mike is copying beth""}","<img src=""stim_listA/copy3.gif""style=""height:400px;""></stim_listA>","is copying","","","","","",""
"null","<div style=""font-size:60px;"">+</div>","","html-keyboard-response","340","1450983","0.0-17.0-0.18","77503","List2A","white","man","","","","null","","","","","","","","",""
"null","<img src=""stim_listA/look5.gif""style=""height:400px;""></stim_listA>","","html-keyboard-response","341","1452987","0.0-17.0-1.18","77503","List2A","white","man","","","","null","","","","","","","","",""
"null","is looking at","","html-keyboard-response","342","1454989","0.0-17.0-2.18","77503","List2A","white","man","","","","null","","","","","","","","",""
"7691.200000017881","","","survey-text","343","1462686","0.0-17.0-3.18","77503","List2A","white","man","","","","","{""Q0"":""luke is looking at fred""}","<img src=""stim_listA/look5.gif""style=""height:400px;""></stim_listA>","is looking at","","","","","",""
"null","<div style=""font-size:60px;"">+</div>","","html-keyboard-response","344","1463200","0.0-17.0-0.19","77503","List2A","white","man","","","","null","","","","","","","","",""
"null","<img src=""stim_listA/seduce7.gif""style=""height:400px;""></stim_listA>","","html-keyboard-response","345","1465211","0.0-17.0-1.19","77503","List2A","white","man","","","","null","","","","","","","","",""
"null","is seducing","","html-keyboard-response","346","1467213","0.0-17.0-2.19","77503","List2A","white","man","","","","null","","","","","","","","",""
"7650","","","survey-text","347","1474866","0.0-17.0-3.19","77503","List2A","white","man","","","","","{""Q0"":""ruth is seducing kate""}","<img src=""stim_listA/seduce7.gif""style=""height:400px;""></stim_listA>","is seducing","","","","","",""
"10663.299999982119","<img src='img/portrait_matrix_list2.jpg' style='width:900px;height:500px;''></img><p>If you have memorised all the portraits and names and are ready to start, press Continue.</p><p><strong>Please note: Your memory of these faces will be tested 4 times during this experiment.</strong></p>","0","html-button-response","348","1485530","0.0-18.0-0.0","77503","List2A","white","man","","","","","","","","","","","","",""
"1474.7000000178814","<img src=""portrait/WW2.jpg""style=""height:400px;""></img>","3","html-button-response","349","1488020","0.0-18.0-1.0","77503","List2A","white","man","","true","3","","","","","","","","","",""
"null","CORRECT","","html-keyboard-response","350","1489531","0.0-18.0-2.0-0.0","77503","List2A","white","man","","","","null","","","","","","","","",""
"1503.199999988079","<img src=""portrait/WW1.jpg""style=""height:400px;""></img>","1","html-button-response","351","1491036","0.0-18.0-4.0","77503","List2A","white","man","","true","1","","","","","","","","","",""
"null","CORRECT","","html-keyboard-response","352","1492552","0.0-18.0-5.0-0.0","77503","List2A","white","man","","","","null","","","","","","","","",""
"1553.7000000178814","<img src=""portrait/WM2.jpg""style=""height:400px;""></img>","7","html-button-response","353","1494107","0.0-18.0-7.0","77503","List2A","white","man","","true","7","","","","","","","","","",""
"null","CORRECT","","html-keyboard-response","354","1495630","0.0-18.0-8.0-0.0","77503","List2A","white","man","","","","null","","","","","","","","",""
"2179.0999999940395","<img src=""portrait/BM2.jpg""style=""height:400px;""></img>","5","html-button-response","355","1497811","0.0-18.0-10.0","77503","List2A","white","man","","true","5","","","","","","","","","",""
"null","CORRECT","","html-keyboard-response","356","1499313","0.0-18.0-11.0-0.0","77503","List2A","white","man","","","","null","","","","","","","","",""
"1206.5","<img src=""portrait/BM1.jpg""style=""height:400px;""></img>","4","html-button-response","357","1500521","0.0-18.0-13.0","77503","List2A","white","man","","true","4","","","","","","","","","",""
"null","CORRECT","","html-keyboard-response","358","1502038","0.0-18.0-14.0-0.0","77503","List2A","white","man","","","","null","","","","","","","","",""
"1886.300000011921","<img src=""portrait/BW1.jpg""style=""height:400px;""></img>","0","html-button-response","359","1503926","0.0-18.0-16.0","77503","List2A","white","man","","true","0","","","","","","","","","",""
"null","CORRECT","","html-keyboard-response","360","1505430","0.0-18.0-17.0-0.0","77503","List2A","white","man","","","","null","","","","","","","","",""
"3208","<img src=""portrait/WM1.jpg""style=""height:400px;""></img>","6","html-button-response","361","1508639","0.0-18.0-19.0","77503","List2A","white","man","","true","6","","","","","","","","","",""
"null","CORRECT","","html-keyboard-response","362","1510141","0.0-18.0-20.0-0.0","77503","List2A","white","man","","","","null","","","","","","","","",""
"4747.100000023842","<img src=""portrait/BW2.jpg""style=""height:400px;""></img>","2","html-button-response","363","1514889","0.0-18.0-22.0","77503","List2A","white","man","","true","2","","","","","","","","","",""
"null","CORRECT","","html-keyboard-response","364","1516392","0.0-18.0-23.0-0.0","77503","List2A","white","man","","","","null","","","","","","","","",""
"1737.5999999940395","<p>You got 8 out of 8 right first time. Press Continue.</p>","0","html-button-response","365","1518131","0.0-18.0-25.0","77503","List2A","white","man","","","","","","","","","","","","",""
"null","<div style=""font-size:60px;"">+</div>","","html-keyboard-response","366","1519647","0.0-19.0-0.0","77503","List2A","white","man","","","","null","","","","","","","","",""
"null","<img src=""stim_listA/oppose2.gif""style=""height:400px;""></stim_listA>","","html-keyboard-response","367","1521653","0.0-19.0-1.0","77503","List2A","white","man","","","","null","","","","","","","","",""
"null","is being opposed by","","html-keyboard-response","368","1523664","0.0-19.0-2.0","77503","List2A","white","man","","","","null","","","","","","","","",""
"10848.09999999404","","","survey-text","369","1534515","0.0-19.0-3.0","77503","List2A","white","man","","","","","{""Q0"":""luke is challenging ruth""}","<img src=""stim_listA/oppose2.gif""style=""height:400px;""></stim_listA>","is being opposed by","","","","","",""
"null","<div style=""font-size:60px;"">+</div>","","html-keyboard-response","370","1535030","0.0-19.0-0.1","77503","List2A","white","man","","","","null","","","","","","","","",""
"null","<img src=""stim_listA/greet2.gif""style=""height:400px;""></stim_listA>","","html-keyboard-response","371","1537041","0.0-19.0-1.1","77503","List2A","white","man","","","","null","","","","","","","","",""
"null","is being greeted by","","html-keyboard-response","372","1539047","0.0-19.0-2.1","77503","List2A","white","man","","","","null","","","","","","","","",""
"9967.300000011921","","","survey-text","373","1549015","0.0-19.0-3.1","77503","List2A","white","man","","","","","{""Q0"":""luke is being greeted by jane""}","<img src=""stim_listA/greet2.gif""style=""height:400px;""></stim_listA>","is being greeted by","","","","","",""
"null","<div style=""font-size:60px;"">+</div>","","html-keyboard-response","374","1549520","0.0-19.0-0.2","77503","List2A","white","man","","","","null","","","","","","","","",""
"null","<img src=""stim_listA/shout3.gif""style=""height:400px;""></stim_listA>","","html-keyboard-response","375","1551530","0.0-19.0-1.2","77503","List2A","white","man","","","","null","","","","","","","","",""
"null","is shouting at","","html-keyboard-response","376","1553545","0.0-19.0-2.2","77503","List2A","white","man","","","","null","","","","","","","","",""
"9826.09999999404","","","survey-text","377","1563373","0.0-19.0-3.2","77503","List2A","white","man","","","","","{""Q0"":""fred is shouting at beth""}","<img src=""stim_listA/shout3.gif""style=""height:400px;""></stim_listA>","is shouting at","","","","","",""
"null","<div style=""font-size:60px;"">+</div>","","html-keyboard-response","378","1563887","0.0-19.0-0.3","77503","List2A","white","man","","","","null","","","","","","","","",""
"null","<img src=""stim_listA/touch2.gif""style=""height:400px;""></stim_listA>","","html-keyboard-response","379","1565900","0.0-19.0-1.3","77503","List2A","white","man","","","","null","","","","","","","","",""
"null","is being touched by","","html-keyboard-response","380","1567915","0.0-19.0-2.3","77503","List2A","white","man","","","","null","","","","","","","","",""
"19060.79999998212","","","survey-text","381","1586982","0.0-19.0-3.3","77503","List2A","white","man","","","","","{""Q0"":""ruth is being touched by luke""}","<img src=""stim_listA/touch2.gif""style=""height:400px;""></stim_listA>","is being touched by","","","","","",""
"null","<div style=""font-size:60px;"">+</div>","","html-keyboard-response","382","1587483","0.0-19.0-0.4","77503","List2A","white","man","","","","null","","","","","","","","",""
"null","<img src=""stim_listA/challenge4.gif""style=""height:400px;""></stim_listA>","","html-keyboard-response","383","1589496","0.0-19.0-1.4","77503","List2A","white","man","","","","null","","","","","","","","",""
"null","is being challenged by","","html-keyboard-response","384","1591511","0.0-19.0-2.4","77503","List2A","white","man","","","","null","","","","","","","","",""
"9546.09999999404","","","survey-text","385","1601060","0.0-19.0-3.4","77503","List2A","white","man","","","","","{""Q0"":""kate is being challenged by fred""}","<img src=""stim_listA/challenge4.gif""style=""height:400px;""></stim_listA>","is being challenged by","","","","","",""
"null","<div style=""font-size:60px;"">+</div>","","html-keyboard-response","386","1601570","0.0-19.0-0.5","77503","List2A","white","man","","","","null","","","","","","","","",""
"null","<img src=""stim_listA/hug2.gif""style=""height:400px;""></stim_listA>","","html-keyboard-response","387","1603581","0.0-19.0-1.5","77503","List2A","white","man","","","","null","","","","","","","","",""
"null","is being hugged by","","html-keyboard-response","388","1605589","0.0-19.0-2.5","77503","List2A","white","man","","","","null","","","","","","","","",""
"7959.4000000059605","","","survey-text","389","1613552","0.0-19.0-3.5","77503","List2A","white","man","","","","","{""Q0"":""jane is being hugged by dave""}","<img src=""stim_listA/hug2.gif""style=""height:400px;""></stim_listA>","is being hugged by","","","","","",""
"null","<div style=""font-size:60px;"">+</div>","","html-keyboard-response","390","1614054","0.0-19.0-0.6","77503","List2A","white","man","","","","null","","","","","","","","",""
"null","<img src=""stim_listA/hug4.gif""style=""height:400px;""></stim_listA>","","html-keyboard-response","391","1616061","0.0-19.0-1.6","77503","List2A","white","man","","","","null","","","","","","","","",""
"null","is being hugged by","","html-keyboard-response","392","1618062","0.0-19.0-2.6","77503","List2A","white","man","","","","null","","","","","","","","",""
"9197.90000000596","","","survey-text","393","1627263","0.0-19.0-3.6","77503","List2A","white","man","","","","","{""Q0"":""kate is being hugged by mike""}","<img src=""stim_listA/hug4.gif""style=""height:400px;""></stim_listA>","is being hugged by","","","","","",""
"null","<div style=""font-size:60px;"">+</div>","","html-keyboard-response","394","1627776","0.0-19.0-0.7","77503","List2A","white","man","","","","null","","","","","","","","",""
"null","<img src=""stim_listA/oppose8.gif""style=""height:400px;""></stim_listA>","","html-keyboard-response","395","1629778","0.0-19.0-1.7","77503","List2A","white","man","","","","null","","","","","","","","",""
"null","is being opposed by","","html-keyboard-response","396","1631781","0.0-19.0-2.7","77503","List2A","white","man","","","","null","","","","","","","","",""
"10533.199999988079","","","survey-text","397","1642321","0.0-19.0-3.7","77503","List2A","white","man","","","","","{""Q0"":""beth is being opposed by ruth""}","<img src=""stim_listA/oppose8.gif""style=""height:400px;""></stim_listA>","is being opposed by","","","","","",""
"null","<div style=""font-size:60px;"">+</div>","","html-keyboard-response","398","1642823","0.0-19.0-0.8","77503","List2A","white","man","","","","null","","","","","","","","",""
"null","<img src=""stim_listA/look3.gif""style=""height:400px;""></stim_listA>","","html-keyboard-response","399","1644825","0.0-19.0-1.8","77503","List2A","white","man","","","","null","","","","","","","","",""
"null","is looking at","","html-keyboard-response","400","1646827","0.0-19.0-2.8","77503","List2A","white","man","","","","null","","","","","","","","",""
"7178.0999999940395","","","survey-text","401","1654008","0.0-19.0-3.8","77503","List2A","white","man","","","","","{""Q0"":""fred is looking at beth""}","<img src=""stim_listA/look3.gif""style=""height:400px;""></stim_listA>","is looking at","","","","","",""
"null","<div style=""font-size:60px;"">+</div>","","html-keyboard-response","402","1654523","0.0-19.0-0.9","77503","List2A","white","man","","","","null","","","","","","","","",""
"null","<img src=""stim_listA/oppose4.gif""style=""height:400px;""></stim_listA>","","html-keyboard-response","403","1656526","0.0-19.0-1.9","77503","List2A","white","man","","","","null","","","","","","","","",""
"null","is being opposed by","","html-keyboard-response","404","1658530","0.0-19.0-2.9","77503","List2A","white","man","","","","null","","","","","","","","",""
"8888.899999976158","","","survey-text","405","1667422","0.0-19.0-3.9","77503","List2A","white","man","","","","","{""Q0"":""fred is being opposed by beth""}","<img src=""stim_listA/oppose4.gif""style=""height:400px;""></stim_listA>","is being opposed by","","","","","",""
"null","<div style=""font-size:60px;"">+</div>","","html-keyboard-response","406","1667935","0.0-19.0-0.10","77503","List2A","white","man","","","","null","","","","","","","","",""
"null","<img src=""stim_listA/hug8.gif""style=""height:400px;""></stim_listA>","","html-keyboard-response","407","1669950","0.0-19.0-1.10","77503","List2A","white","man","","","","null","","","","","","","","",""
"null","is being hugged by","","html-keyboard-response","408","1671953","0.0-19.0-2.10","77503","List2A","white","man","","","","null","","","","","","","","",""
"9583.199999988079","","","survey-text","409","1681539","0.0-19.0-3.10","77503","List2A","white","man","","","","","{""Q0"":""kate is being hugged by jane""}","<img src=""stim_listA/hug8.gif""style=""height:400px;""></stim_listA>","is being hugged by","","","","","",""
"null","<div style=""font-size:60px;"">+</div>","","html-keyboard-response","410","1682054","0.0-19.0-0.11","77503","List2A","white","man","","","","null","","","","","","","","",""
"null","<img src=""stim_listA/shout4.gif""style=""height:400px;""></stim_listA>","","html-keyboard-response","411","1684059","0.0-19.0-1.11","77503","List2A","white","man","","","","null","","","","","","","","",""
"null","is being shouted at by","","html-keyboard-response","412","1686070","0.0-19.0-2.11","77503","List2A","white","man","","","","null","","","","","","","","",""
"11730.699999988079","","","survey-text","413","1697803","0.0-19.0-3.11","77503","List2A","white","man","","","","","{""Q0"":""kate is being shouted at by mike""}","<img src=""stim_listA/shout4.gif""style=""height:400px;""></stim_listA>","is being shouted at by","","","","","",""
"null","<div style=""font-size:60px;"">+</div>","","html-keyboard-response","414","1698308","0.0-19.0-0.12","77503","List2A","white","man","","","","null","","","","","","","","",""
"null","<img src=""stim_listA/hug5.gif""style=""height:400px;""></stim_listA>","","html-keyboard-response","415","1700319","0.0-19.0-1.12","77503","List2A","white","man","","","","null","","","","","","","","",""
"null","is hugging","","html-keyboard-response","416","1702324","0.0-19.0-2.12","77503","List2A","white","man","","","","null","","","","","","","","",""
"6822.300000011921","","","survey-text","417","1709150","0.0-19.0-3.12","77503","List2A","white","man","","","","","{""Q0"":""luke is hugging fred""}","<img src=""stim_listA/hug5.gif""style=""height:400px;""></stim_listA>","is hugging","","","","","",""
"null","<div style=""font-size:60px;"">+</div>","","html-keyboard-response","418","1709653","0.0-19.0-0.13","77503","List2A","white","man","","","","null","","","","","","","","",""
"null","<img src=""stim_listA/hug3.gif""style=""height:400px;""></stim_listA>","","html-keyboard-response","419","1711659","0.0-19.0-1.13","77503","List2A","white","man","","","","null","","","","","","","","",""
"null","is hugging","","html-keyboard-response","420","1713660","0.0-19.0-2.13","77503","List2A","white","man","","","","null","","","","","","","","",""
"6320.299999982119","","","survey-text","421","1719984","0.0-19.0-3.13","77503","List2A","white","man","","","","","{""Q0"":""fred is hugging beth""}","<img src=""stim_listA/hug3.gif""style=""height:400px;""></stim_listA>","is hugging","","","","","",""
"null","<div style=""font-size:60px;"">+</div>","","html-keyboard-response","422","1720497","0.0-19.0-0.14","77503","List2A","white","man","","","","null","","","","","","","","",""
"null","<img src=""stim_listA/kiss4.gif""style=""height:400px;""></stim_listA>","","html-keyboard-response","423","1722499","0.0-19.0-1.14","77503","List2A","white","man","","","","null","","","","","","","","",""
"null","is being kissed by","","html-keyboard-response","424","1724501","0.0-19.0-2.14","77503","List2A","white","man","","","","null","","","","","","","","",""
"9754.09999999404","","","survey-text","425","1734258","0.0-19.0-3.14","77503","List2A","white","man","","","","","{""Q0"":""mike is being kissed by kate""}","<img src=""stim_listA/kiss4.gif""style=""height:400px;""></stim_listA>","is being kissed by","","","","","",""
"null","<div style=""font-size:60px;"">+</div>","","html-keyboard-response","426","1734764","0.0-19.0-0.15","77503","List2A","white","man","","","","null","","","","","","","","",""
"null","<img src=""stim_listA/challenge6.gif""style=""height:400px;""></stim_listA>","","html-keyboard-response","427","1736767","0.0-19.0-1.15","77503","List2A","white","man","","","","null","","","","","","","","",""
"null","is being challenged by","","html-keyboard-response","428","1738779","0.0-19.0-2.15","77503","List2A","white","man","","","","null","","","","","","","","",""
"11475.40000000596","","","survey-text","429","1750258","0.0-19.0-3.15","77503","List2A","white","man","","","","","{""Q0"":""mike is being challenged by luke""}","<img src=""stim_listA/challenge6.gif""style=""height:400px;""></stim_listA>","is being challenged by","","","","","",""
"null","<div style=""font-size:60px;"">+</div>","","html-keyboard-response","430","1750766","0.0-19.0-0.16","77503","List2A","white","man","","","","null","","","","","","","","",""
"null","<img src=""stim_listA/seduce6.gif""style=""height:400px;""></stim_listA>","","html-keyboard-response","431","1752768","0.0-19.0-1.16","77503","List2A","white","man","","","","null","","","","","","","","",""
"null","is being seduced by","","html-keyboard-response","432","1754769","0.0-19.0-2.16","77503","List2A","white","man","","","","null","","","","","","","","",""
"9603.40000000596","","","survey-text","433","1764379","0.0-19.0-3.16","77503","List2A","white","man","","","","","{""Q0"":""fred is being seduced by dave""}","<img src=""stim_listA/seduce6.gif""style=""height:400px;""></stim_listA>","is being seduced by","","","","","",""
"null","<div style=""font-size:60px;"">+</div>","","html-keyboard-response","434","1764895","0.0-19.0-0.17","77503","List2A","white","man","","","","null","","","","","","","","",""
"null","<img src=""stim_listA/oppose1.gif""style=""height:400px;""></stim_listA>","","html-keyboard-response","435","1766897","0.0-19.0-1.17","77503","List2A","white","man","","","","null","","","","","","","","",""
"null","is opposing","","html-keyboard-response","436","1768899","0.0-19.0-2.17","77503","List2A","white","man","","","","null","","","","","","","","",""
"7227.0999999940395","","","survey-text","437","1776129","0.0-19.0-3.17","77503","List2A","white","man","","","","","{""Q0"":""dave is opposing jane""}","<img src=""stim_listA/oppose1.gif""style=""height:400px;""></stim_listA>","is opposing","","","","","",""
"null","<div style=""font-size:60px;"">+</div>","","html-keyboard-response","438","1776644","0.0-19.0-0.18","77503","List2A","white","man","","","","null","","","","","","","","",""
"null","<img src=""stim_listA/seduce5.gif""style=""height:400px;""></stim_listA>","","html-keyboard-response","439","1778647","0.0-19.0-1.18","77503","List2A","white","man","","","","null","","","","","","","","",""
"null","is seducing","","html-keyboard-response","440","1780649","0.0-19.0-2.18","77503","List2A","white","man","","","","null","","","","","","","","",""
"7053.399999976158","","","survey-text","441","1787705","0.0-19.0-3.18","77503","List2A","white","man","","","","","{""Q0"":""luke is seducing mike""}","<img src=""stim_listA/seduce5.gif""style=""height:400px;""></stim_listA>","is seducing","","","","","",""
"null","<div style=""font-size:60px;"">+</div>","","html-keyboard-response","442","1788211","0.0-19.0-0.19","77503","List2A","white","man","","","","null","","","","","","","","",""
"null","<img src=""stim_listA/copy4.gif""style=""height:400px;""></stim_listA>","","html-keyboard-response","443","1790220","0.0-19.0-1.19","77503","List2A","white","man","","","","null","","","","","","","","",""
"null","is being copied by","","html-keyboard-response","444","1792233","0.0-19.0-2.19","77503","List2A","white","man","","","","null","","","","","","","","",""
"9583.200000017881","","","survey-text","445","1801819","0.0-19.0-3.19","77503","List2A","white","man","","","","","{""Q0"":""kate is being copied by fred""}","<img src=""stim_listA/copy4.gif""style=""height:400px;""></stim_listA>","is being copied by","","","","","",""
"5092.9000000059605","<p>Thank you for completing that task.</p><p>The final part of this session is a questionnaire that will take about 4 minutes.</p><p>Press Continue.</p>","0","html-button-response","446","1806913","0.0-20.0","77503","List2A","white","man","","","","","","","","","","","","",""
"130165.5","","","survey-text","447","1938103","0.0-21.0","77503","List2A","white","man","","","","","{""Q0"":""49"",""Q1"":""English"",""Q2"":""English"",""Q3"":""United States"",""Q4"":""American"",""Q5"":""White"",""Q6"":""Male""}","","","demographics","","","","",""
"2771.800000011921","<p>Have you lived in the USA for the last 5 years or more?</p>","0","html-button-response","448","1940876","0.0-22.0","77503","List2A","white","man","","","","","","","","fiveyears","","","","",""
"4964.5","<p>Move the slider to show the extent to which you agree with the following statements.</p>","0","html-button-response","449","1946852","0.0-23.0","77503","List2A","white","man","","","","","","","","","","","","",""
"6615.0999999940395","","","html-slider-response","450","1954486","0.0-24.0-0.0-0.0","77503","List2A","white","man","","","","","","","","survey_gender","100","","","I would say I am an animal person.","filler"
"11771.200000017881","","","html-slider-response","451","1966258","0.0-24.0-0.0-0.1","77503","List2A","white","man","","","","","","","","survey_gender","100","","","I think that my gender has a lot to be proud of.","proud"
"5374.5","","","html-slider-response","452","1971634","0.0-24.0-0.0-0.2","77503","List2A","white","man","","","","","","","","survey_gender","100","","","I feel a bond with my gender.","bond"
"4388.5","","","html-slider-response","453","1976024","0.0-24.0-0.0-0.3","77503","List2A","white","man","","","","","","","","survey_gender","100","","","Being my gender gives me a good feeling.","feeling"
"10061.600000023842","","","html-slider-response","454","1986089","0.0-24.0-0.0-0.4","77503","List2A","white","man","","","","","","","","survey_gender","0","","","I often think about the fact that I am my gender.","often"
"16060.299999982119","","","html-slider-response","455","2002151","0.0-24.0-0.0-0.5","77503","List2A","white","man","","","","","","","","survey_gender","100","","","Family is not more important to me than friendship.","filler"
"5630.0999999940395","","","html-slider-response","456","2007782","0.0-24.0-0.0-0.6","77503","List2A","white","man","","","","","","","","survey_gender","100","","","Routine is not important to me.","filler"
"6461.4000000059605","","","html-slider-response","457","2014245","0.0-24.0-0.0-0.7","77503","List2A","white","man","","","","","","","","survey_gender","100","","","I am glad to have the friends that I have.","filler"
"4350.799999982119","","","html-slider-response","458","2018597","0.0-24.0-0.0-0.8","77503","List2A","white","man","","","","","","","","survey_gender","100","","","Being around my friends gives me a good feeling.","filler"
"4192.799999982119","","","html-slider-response","459","2022791","0.0-24.0-0.0-0.9","77503","List2A","white","man","","","","","","","","survey_gender","100","","","It is pleasant to be my gender.","pleasant"
"10154.700000017881","","","html-slider-response","460","2032947","0.0-24.0-0.0-0.10","77503","List2A","white","man","","","","","","","","survey_gender","0","","","I am similar to the average person of my gender.","similar"
"4084.9000000059605","","","html-slider-response","461","2037033","0.0-24.0-0.0-0.11","77503","List2A","white","man","","","","","","","","survey_gender","100","","","My friends understand me.","filler"
"6576.299999982119","","","html-slider-response","462","2043613","0.0-24.0-0.0-0.12","77503","List2A","white","man","","","","","","","","survey_gender","100","","","It is not always easy for people to know what I am thinking.","filler"
"5334.800000011921","","","html-slider-response","463","2048950","0.0-24.0-0.0-0.13","77503","List2A","white","man","","","","","","","","survey_gender","100","","","I consider myself a highly empathetic person.","filler"
"10778.800000011921","","","html-slider-response","464","2059730","0.0-24.0-0.0-0.14","77503","List2A","white","man","","","","","","","","survey_gender","0","","","People of my gender have a lot in common with each other.","common"
"4210.300000011921","","","html-slider-response","465","2063941","0.0-24.0-0.0-0.15","77503","List2A","white","man","","","","","","","","survey_gender","100","","","I often think about my actions.","filler"
"6749","","","html-slider-response","466","2070691","0.0-24.0-0.0-0.16","77503","List2A","white","man","","","","","","","","survey_gender","0","","","People of my gender are very similar to each other.","verysimilar"
"4474.700000017881","","","html-slider-response","467","2075167","0.0-24.0-0.0-0.17","77503","List2A","white","man","","","","","","","","survey_gender","100","","","I have a lot in common with my friends.","filler"
"3639.5","","","html-slider-response","468","2078808","0.0-24.0-0.0-0.18","77503","List2A","white","man","","","","","","","","survey_gender","100","","","My friends have a lot in common with each other.","filler"
"6162.5","","","html-slider-response","469","2084971","0.0-24.0-0.0-0.19","77503","List2A","white","man","","","","","","","","survey_gender","0","","","Most of the friends in my life are very similar to me.","filler"
"8601.199999988079","","","html-slider-response","470","2093574","0.0-24.0-0.0-0.20","77503","List2A","white","man","","","","","","","","survey_gender","100","","","Being my gender is an important part of how I see myself.","important"
"5404.9000000059605","","","html-slider-response","471","2098980","0.0-24.0-0.0-0.21","77503","List2A","white","man","","","","","","","","survey_gender","100","","","I feel solidarity with my gender.","solidarity"
"8896.299999982119","","","html-slider-response","472","2107881","0.0-24.0-0.0-0.22","77503","List2A","white","man","","","","","","","","survey_gender","0","","","I feel committed to my gender.","committed"
"4896.100000023842","","","html-slider-response","473","2112778","0.0-24.0-0.0-0.23","77503","List2A","white","man","","","","","","","","survey_gender","100","","","I am glad to be my gender.","glad"
"3727.2000000178814","","","html-slider-response","474","2116507","0.0-24.0-0.0-0.24","77503","List2A","white","man","","","","","","","","survey_gender","100","","","I feel solidarity with my friends.","filler"
"7138.699999988079","","","html-slider-response","475","2123647","0.0-24.0-0.0-0.25","77503","List2A","white","man","","","","","","","","survey_gender","0","","","I have a lot in common with the average person of my gender.","average"
"7756.199999988079","","","html-slider-response","476","2131404","0.0-24.0-0.0-0.26","77503","List2A","white","man","","","","","","","","survey_gender","100","","","The fact that I am my gender is an important part of my identity.","identity"
"3833","","","html-slider-response","477","2135239","0.0-24.0-0.0-0.27","77503","List2A","white","man","","","","","","","","survey_gender","100","","","I feel a bond with my friends.","filler"
"12297","","","html-slider-response","478","2147536","0.0-24.0-1.0-0.0","77503","List2A","white","man","","","","","","","","survey_race","0","","","I have a lot in common with the average person of my race.","average"
"8826.59999999404","","","html-slider-response","479","2156364","0.0-24.0-1.0-0.1","77503","List2A","white","man","","","","","","","","survey_race","100","","","I feel solidarity with my race.","solidarity"
"4560.9000000059605","","","html-slider-response","480","2160927","0.0-24.0-1.0-0.2","77503","List2A","white","man","","","","","","","","survey_race","0","","","I often think about the fact that I am my race.","often"
