"rt","stimulus","button_pressed","trial_type","trial_index","time_elapsed","internal_node_id","subject","list","ppt_race","ppt_gender","url","first_guess","correct","key_press","responses","image_type","phrase_type","test_part","response","stimulus1","stimulus2","question_type","survey_item"
"8272.400000035763","Welcome to the experiment. Press Continue to begin.","0","html-button-response","0","8291","0.0-0.0","77585","List1B","white","man","","","","","","","","","","","","",""
"80917.80000001192","","","external-html","1","90919","0.0-1.0","77585","List1B","white","man","consent.html","","","","","","","","","","","",""
"32570.200000047684","<p>On the next page, you will see portraits of 8 people and their names.</p><p>Your first task is to take a few minutes to memorise the names of these people.</p><p>You will have to recall their names during the rest of the experiment, so it is</p><p>essential that you try to memorise these people and their names as best as you can.</p><br><p><strong>You will then be tested on your memory of these names and portraits.</strong></p><br><p>The experiment will start after you have completed this memory test.</p><br><p>Ready?</p>","0","html-button-response","2","123496","0.0-2.0","77585","List1B","white","man","","","","","","","","","","","","",""
"94227.10000002384","<img src='img/portrait_matrix_list1.jpg' style='width:900px;height:500px;''></img><p>If you have memorised all the portraits and names and are ready to start, press Continue.</p><p><strong>Please note: Your memory of these faces will be tested 4 times during this experiment.</strong></p>","0","html-button-response","3","218731","0.0-3.0-0.0","77585","List1B","white","man","","","","","","","","","","","","",""
"20587.30000001192","<img src=""portrait/WW2.jpg""style=""height:400px;""></img>","3","html-button-response","4","240326","0.0-3.0-1.0","77585","List1B","white","man","","true","3","","","","","","","","","",""
"null","CORRECT","","html-keyboard-response","5","241836","0.0-3.0-2.0-0.0","77585","List1B","white","man","","","","null","","","","","","","","",""
"8946.600000023842","<img src=""portrait/WW1.jpg""style=""height:400px;""></img>","1","html-button-response","6","250789","0.0-3.0-4.0","77585","List1B","white","man","","true","1","","","","","","","","","",""
"null","CORRECT","","html-keyboard-response","7","252295","0.0-3.0-5.0-0.0","77585","List1B","white","man","","","","null","","","","","","","","",""
"5809.600000023842","<img src=""portrait/BW2.jpg""style=""height:400px;""></img>","2","html-button-response","8","258110","0.0-3.0-7.0","77585","List1B","white","man","","true","2","","","","","","","","","",""
"null","CORRECT","","html-keyboard-response","9","259615","0.0-3.0-8.0-0.0","77585","List1B","white","man","","","","null","","","","","","","","",""
"5442.100000023842","<img src=""portrait/BM1.jpg""style=""height:400px;""></img>","4","html-button-response","10","265062","0.0-3.0-10.0","77585","List1B","white","man","","true","4","","","","","","","","","",""
"null","CORRECT","","html-keyboard-response","11","266566","0.0-3.0-11.0-0.0","77585","List1B","white","man","","","","null","","","","","","","","",""
"7550.699999988079","<img src=""portrait/WM1.jpg""style=""height:400px;""></img>","6","html-button-response","12","274123","0.0-3.0-13.0","77585","List1B","white","man","","true","6","","","","","","","","","",""
"null","CORRECT","","html-keyboard-response","13","275628","0.0-3.0-14.0-0.0","77585","List1B","white","man","","","","null","","","","","","","","",""
"6008.799999952316","<img src=""portrait/BW1.jpg""style=""height:400px;""></img>","0","html-button-response","14","281642","0.0-3.0-16.0","77585","List1B","white","man","","true","0","","","","","","","","","",""
"null","CORRECT","","html-keyboard-response","15","283146","0.0-3.0-17.0-0.0","77585","List1B","white","man","","","","null","","","","","","","","",""
"4993.5","<img src=""portrait/BM2.jpg""style=""height:400px;""></img>","5","html-button-response","16","288145","0.0-3.0-19.0","77585","List1B","white","man","","true","5","","","","","","","","","",""
"null","CORRECT","","html-keyboard-response","17","289650","0.0-3.0-20.0-0.0","77585","List1B","white","man","","","","null","","","","","","","","",""
"5810.899999976158","<img src=""portrait/WM2.jpg""style=""height:400px;""></img>","7","html-button-response","18","295466","0.0-3.0-22.0","77585","List1B","white","man","","true","7","","","","","","","","","",""
"null","CORRECT","","html-keyboard-response","19","296970","0.0-3.0-23.0-0.0","77585","List1B","white","man","","","","null","","","","","","","","",""
"5041.699999988079","<p>You got 8 out of 8 right first time. Press Continue.</p>","0","html-button-response","20","302018","0.0-3.0-25.0","77585","List1B","white","man","","","","","","","","","","","","",""
"110634.69999998808","<p>In this experiment, you will view photographs of the people from the memory game interacting.</p><p>By using the <strong>exact</strong> phrase given <i>after</i> the photograph appears and recalling the correct names of the people in the photographs, form a sentence describing the interaction. You do not need to capitalise names.</p><p>Type your answer in the space provided. Please complete every sentence before moving onto the next trial.</p><p>You will only have a few seconds to memorise each given photograph and phrase before you can respond, so try your best to focus.</p><p>An example is given below. Press 'Continue' when you are ready.</p><img src='img/speaking_example.jpg' style='width:800px;height:460px;''></img>","0","html-button-response","21","413664","0.0-4.0","77585","List1B","white","man","","","","","","","","","","","","",""
"2955.5","<p>Before the experiment starts, you will watch two example trials. Press 'Continue'.</p>","0","html-button-response","22","417625","0.0-5.0","77585","List1B","white","man","","","","","","","","","","","","",""
"null","<img src='img/play_eg.gif' style='height:400px;''></img>","","html-keyboard-response","23","420632","0.0-6.0","77585","List1B","white","man","","","","null","","","","","","","","",""
"null","<p>is playing with</p>","","html-keyboard-response","24","422635","0.0-7.0","77585","List1B","white","man","","","","null","","","","","","","","",""
"12318.800000011921","<p><b>Answer:</b> kate is playing with beth</p>","0","html-button-response","25","434957","0.0-8.0","77585","List1B","white","man","","","","","","","","","","","","",""
"null","<img src='img/dance_eg.gif' style='height:400px;''></img>","","html-keyboard-response","26","437964","0.0-9.0","77585","List1B","white","man","","","","null","","","","","","","","",""
"null","<p>is being entertained by</p>","","html-keyboard-response","27","439967","0.0-10.0","77585","List1B","white","man","","","","null","","","","","","","","",""
"17265.900000035763","<p><b>Answer:</b> luke is being entertained by dave</p>","0","html-button-response","28","457237","0.0-11.0","77585","List1B","white","man","","","","","","","","","","","","",""
"17749","<p>Ready to start the experiment?</p><br><p><strong>Remember to describe the picture using a full sentence,</strong></p><p><strong>that combines the names of the people with the <i>exact</i> phrase given.</strong></p><p><strong>To receive full payment you must do this correctly.</strong></p><p><strong> You do not need to capitalise names or use punctuation.</strong></p><br><p>Press 'Continue' to begin.</p>","0","html-button-response","29","475991","0.0-12.0","77585","List1B","white","man","","","","","","","","","","","","",""
"null","<div style=""font-size:60px;"">+</div>","","html-keyboard-response","30","477497","0.0-13.0-0.0","77585","List1B","white","man","","","","null","","","","","","","","",""
"null","<img src=""stim_listB/shout1.gif""style=""height:400px;""></stim_listB>","","html-keyboard-response","31","479528","0.0-13.0-1.0","77585","List1B","white","man","","","","null","","","","","","","","",""
"null","is shouting at","","html-keyboard-response","32","481533","0.0-13.0-2.0","77585","List1B","white","man","","","","null","","","","","","","","",""
"56602.89999997616","","","survey-text","33","538160","0.0-13.0-3.0","77585","List1B","white","man","","","","","{""Q0"":""Fred is shouting at kate""}","<img src=""stim_listB/shout1.gif""style=""height:400px;""></stim_listB>","is shouting at","","","","","",""
"null","<div style=""font-size:60px;"">+</div>","","html-keyboard-response","34","538667","0.0-13.0-0.1","77585","List1B","white","man","","","","null","","","","","","","","",""
"null","<img src=""stim_listB/seduce5.gif""style=""height:400px;""></stim_listB>","","html-keyboard-response","35","540673","0.0-13.0-1.1","77585","List1B","white","man","","","","null","","","","","","","","",""
"null","is seducing","","html-keyboard-response","36","542680","0.0-13.0-2.1","77585","List1B","white","man","","","","null","","","","","","","","",""
"30080.899999976158","","","survey-text","37","572783","0.0-13.0-3.1","77585","List1B","white","man","","","","","{""Q0"":""Kate is seducing Beth""}","<img src=""stim_listB/seduce5.gif""style=""height:400px;""></stim_listB>","is seducing","","","","","",""
"null","<div style=""font-size:60px;"">+</div>","","html-keyboard-response","38","573287","0.0-13.0-0.2","77585","List1B","white","man","","","","null","","","","","","","","",""
"null","<img src=""stim_listB/challenge6.gif""style=""height:400px;""></stim_listB>","","html-keyboard-response","39","575294","0.0-13.0-1.2","77585","List1B","white","man","","","","null","","","","","","","","",""
"null","is being challenged by","","html-keyboard-response","40","577300","0.0-13.0-2.2","77585","List1B","white","man","","","","null","","","","","","","","",""
"32832.80000001192","","","survey-text","41","610155","0.0-13.0-3.2","77585","List1B","white","man","","","","","{""Q0"":""Fred is being challenged by Jane""}","<img src=""stim_listB/challenge6.gif""style=""height:400px;""></stim_listB>","is being challenged by","","","","","",""
"null","<div style=""font-size:60px;"">+</div>","","html-keyboard-response","42","610659","0.0-13.0-0.3","77585","List1B","white","man","","","","null","","","","","","","","",""
"null","<img src=""stim_listB/copy1.gif""style=""height:400px;""></stim_listB>","","html-keyboard-response","43","612664","0.0-13.0-1.3","77585","List1B","white","man","","","","null","","","","","","","","",""
"null","is copying","","html-keyboard-response","44","614670","0.0-13.0-2.3","77585","List1B","white","man","","","","null","","","","","","","","",""
"18150.100000023842","","","survey-text","45","632836","0.0-13.0-3.3","77585","List1B","white","man","","","","","{""Q0"":""Beth is copying Mike""}","<img src=""stim_listB/copy1.gif""style=""height:400px;""></stim_listB>","is copying","","","","","",""
"null","<div style=""font-size:60px;"">+</div>","","html-keyboard-response","46","633340","0.0-13.0-0.4","77585","List1B","white","man","","","","null","","","","","","","","",""
"null","<img src=""stim_listB/kiss2.gif""style=""height:400px;""></stim_listB>","","html-keyboard-response","47","635345","0.0-13.0-1.4","77585","List1B","white","man","","","","null","","","","","","","","",""
"null","is being kissed by","","html-keyboard-response","48","637350","0.0-13.0-2.4","77585","List1B","white","man","","","","null","","","","","","","","",""
"40229.09999996424","","","survey-text","49","677595","0.0-13.0-3.4","77585","List1B","white","man","","","","","{""Q0"":""Kate is being kiss by Mike""}","<img src=""stim_listB/kiss2.gif""style=""height:400px;""></stim_listB>","is being kissed by","","","","","",""
"null","<div style=""font-size:60px;"">+</div>","","html-keyboard-response","50","678100","0.0-13.0-0.5","77585","List1B","white","man","","","","null","","","","","","","","",""
"null","<img src=""stim_listB/shout8.gif""style=""height:400px;""></stim_listB>","","html-keyboard-response","51","680107","0.0-13.0-1.5","77585","List1B","white","man","","","","null","","","","","","","","",""
"null","is being shouted at by","","html-keyboard-response","52","682111","0.0-13.0-2.5","77585","List1B","white","man","","","","null","","","","","","","","",""
"96444.19999998808","","","survey-text","53","778578","0.0-13.0-3.5","77585","List1B","white","man","","","","","{""Q0"":""Jane is being shouted at by kate""}","<img src=""stim_listB/shout8.gif""style=""height:400px;""></stim_listB>","is being shouted at by","","","","","",""
"null","<div style=""font-size:60px;"">+</div>","","html-keyboard-response","54","779083","0.0-13.0-0.6","77585","List1B","white","man","","","","null","","","","","","","","",""
"null","<img src=""stim_listB/seduce6.gif""style=""height:400px;""></stim_listB>","","html-keyboard-response","55","781090","0.0-13.0-1.6","77585","List1B","white","man","","","","null","","","","","","","","",""
"null","is being seduced by","","html-keyboard-response","56","783094","0.0-13.0-2.6","77585","List1B","white","man","","","","null","","","","","","","","",""
"17881.399999976158","","","survey-text","57","800991","0.0-13.0-3.6","77585","List1B","white","man","","","","","{""Q0"":""Is being seducted by""}","<img src=""stim_listB/seduce6.gif""style=""height:400px;""></stim_listB>","is being seduced by","","","","","",""
"null","<div style=""font-size:60px;"">+</div>","","html-keyboard-response","58","801496","0.0-13.0-0.7","77585","List1B","white","man","","","","null","","","","","","","","",""
"null","<img src=""stim_listB/shout7.gif""style=""height:400px;""></stim_listB>","","html-keyboard-response","59","803501","0.0-13.0-1.7","77585","List1B","white","man","","","","null","","","","","","","","",""
"null","is shouting at","","html-keyboard-response","60","805506","0.0-13.0-2.7","77585","List1B","white","man","","","","null","","","","","","","","",""
"20332.399999976158","","","survey-text","61","825863","0.0-13.0-3.7","77585","List1B","white","man","","","","","{""Q0"":""Ruth is shouting at Beth""}","<img src=""stim_listB/shout7.gif""style=""height:400px;""></stim_listB>","is shouting at","","","","","",""
"null","<div style=""font-size:60px;"">+</div>","","html-keyboard-response","62","826367","0.0-13.0-0.8","77585","List1B","white","man","","","","null","","","","","","","","",""
"null","<img src=""stim_listB/oppose7.gif""style=""height:400px;""></stim_listB>","","html-keyboard-response","63","828372","0.0-13.0-1.8","77585","List1B","white","man","","","","null","","","","","","","","",""
"null","is opposing","","html-keyboard-response","64","830376","0.0-13.0-2.8","77585","List1B","white","man","","","","null","","","","","","","","",""
"40575","","","survey-text","65","870974","0.0-13.0-3.8","77585","List1B","white","man","","","","","{""Q0"":""Kate is opposing jane""}","<img src=""stim_listB/oppose7.gif""style=""height:400px;""></stim_listB>","is opposing","","","","","",""
"null","<div style=""font-size:60px;"">+</div>","","html-keyboard-response","66","871478","0.0-13.0-0.9","77585","List1B","white","man","","","","null","","","","","","","","",""
"null","<img src=""stim_listB/touch3.gif""style=""height:400px;""></stim_listB>","","html-keyboard-response","67","873484","0.0-13.0-1.9","77585","List1B","white","man","","","","null","","","","","","","","",""
"null","is touching","","html-keyboard-response","68","875502","0.0-13.0-2.9","77585","List1B","white","man","","","","null","","","","","","","","",""
"52684.39999997616","","","survey-text","69","928203","0.0-13.0-3.9","77585","List1B","white","man","","","","","{""Q0"":""Dave is touching  Jane""}","<img src=""stim_listB/touch3.gif""style=""height:400px;""></stim_listB>","is touching","","","","","",""
"null","<div style=""font-size:60px;"">+</div>","","html-keyboard-response","70","928707","0.0-13.0-0.10","77585","List1B","white","man","","","","null","","","","","","","","",""
"null","<img src=""stim_listB/look2.gif""style=""height:400px;""></stim_listB>","","html-keyboard-response","71","930711","0.0-13.0-1.10","77585","List1B","white","man","","","","null","","","","","","","","",""
"null","is being looked at by","","html-keyboard-response","72","932716","0.0-13.0-2.10","77585","List1B","white","man","","","","null","","","","","","","","",""
"43799","","","survey-text","73","976538","0.0-13.0-3.10","77585","List1B","white","man","","","","","{""Q0"":""Beth Is being look by Fred""}","<img src=""stim_listB/look2.gif""style=""height:400px;""></stim_listB>","is being looked at by","","","","","",""
"null","<div style=""font-size:60px;"">+</div>","","html-keyboard-response","74","977042","0.0-13.0-0.11","77585","List1B","white","man","","","","null","","","","","","","","",""
"null","<img src=""stim_listB/look4.gif""style=""height:400px;""></stim_listB>","","html-keyboard-response","75","979047","0.0-13.0-1.11","77585","List1B","white","man","","","","null","","","","","","","","",""
"null","is being looked at by","","html-keyboard-response","76","981051","0.0-13.0-2.11","77585","List1B","white","man","","","","null","","","","","","","","",""
"55732.59999996424","","","survey-text","77","1036794","0.0-13.0-3.11","77585","List1B","white","man","","","","","{""Q0"":""Jane is being look by Fred""}","<img src=""stim_listB/look4.gif""style=""height:400px;""></stim_listB>","is being looked at by","","","","","",""
"null","<div style=""font-size:60px;"">+</div>","","html-keyboard-response","78","1037299","0.0-13.0-0.12","77585","List1B","white","man","","","","null","","","","","","","","",""
"null","<img src=""stim_listB/hug3.gif""style=""height:400px;""></stim_listB>","","html-keyboard-response","79","1039305","0.0-13.0-1.12","77585","List1B","white","man","","","","null","","","","","","","","",""
"null","is hugging","","html-keyboard-response","80","1041310","0.0-13.0-2.12","77585","List1B","white","man","","","","null","","","","","","","","",""
"31012.19999998808","","","survey-text","81","1072340","0.0-13.0-3.12","77585","List1B","white","man","","","","","{""Q0"":""Luke is hugging ruth""}","<img src=""stim_listB/hug3.gif""style=""height:400px;""></stim_listB>","is hugging","","","","","",""
"null","<div style=""font-size:60px;"">+</div>","","html-keyboard-response","82","1072844","0.0-13.0-0.13","77585","List1B","white","man","","","","null","","","","","","","","",""
"null","<img src=""stim_listB/challenge7.gif""style=""height:400px;""></stim_listB>","","html-keyboard-response","83","1074848","0.0-13.0-1.13","77585","List1B","white","man","","","","null","","","","","","","","",""
"null","is challenging","","html-keyboard-response","84","1077363","0.0-13.0-2.13","77585","List1B","white","man","","","","null","","","","","","","","",""
"24322.5","","","survey-text","85","1101696","0.0-13.0-3.13","77585","List1B","white","man","","","","","{""Q0"":""Kate is challenging ruth""}","<img src=""stim_listB/challenge7.gif""style=""height:400px;""></stim_listB>","is challenging","","","","","",""
"null","<div style=""font-size:60px;"">+</div>","","html-keyboard-response","86","1102199","0.0-13.0-0.14","77585","List1B","white","man","","","","null","","","","","","","","",""
"null","<img src=""stim_listB/kiss8.gif""style=""height:400px;""></stim_listB>","","html-keyboard-response","87","1104204","0.0-13.0-1.14","77585","List1B","white","man","","","","null","","","","","","","","",""
"null","is being kissed by","","html-keyboard-response","88","1106207","0.0-13.0-2.14","77585","List1B","white","man","","","","null","","","","","","","","",""
"17652.5","","","survey-text","89","1123871","0.0-13.0-3.14","77585","List1B","white","man","","","","","{""Q0"":""Jane is being kissed by kate""}","<img src=""stim_listB/kiss8.gif""style=""height:400px;""></stim_listB>","is being kissed by","","","","","",""
"null","<div style=""font-size:60px;"">+</div>","","html-keyboard-response","90","1124374","0.0-13.0-0.15","77585","List1B","white","man","","","","null","","","","","","","","",""
"null","<img src=""stim_listB/kiss6.gif""style=""height:400px;""></stim_listB>","","html-keyboard-response","91","1126380","0.0-13.0-1.15","77585","List1B","white","man","","","","null","","","","","","","","",""
"null","is being kissed by","","html-keyboard-response","92","1129364","0.0-13.0-2.15","77585","List1B","white","man","","","","null","","","","","","","","",""
"23306.399999976158","","","survey-text","93","1152687","0.0-13.0-3.15","77585","List1B","white","man","","","","","{""Q0"":""Dave is being kissed by Fred""}","<img src=""stim_listB/kiss6.gif""style=""height:400px;""></stim_listB>","is being kissed by","","","","","",""
"null","<div style=""font-size:60px;"">+</div>","","html-keyboard-response","94","1153191","0.0-13.0-0.16","77585","List1B","white","man","","","","null","","","","","","","","",""
"null","<img src=""stim_listB/touch7.gif""style=""height:400px;""></stim_listB>","","html-keyboard-response","95","1155195","0.0-13.0-1.16","77585","List1B","white","man","","","","null","","","","","","","","",""
"null","is touching","","html-keyboard-response","96","1157199","0.0-13.0-2.16","77585","List1B","white","man","","","","null","","","","","","","","",""
"13261","","","survey-text","97","1170471","0.0-13.0-3.16","77585","List1B","white","man","","","","","{""Q0"":""Kate is touching jane""}","<img src=""stim_listB/touch7.gif""style=""height:400px;""></stim_listB>","is touching","","","","","",""
"null","<div style=""font-size:60px;"">+</div>","","html-keyboard-response","98","1170975","0.0-13.0-0.17","77585","List1B","white","man","","","","null","","","","","","","","",""
"null","<img src=""stim_listB/hug8.gif""style=""height:400px;""></stim_listB>","","html-keyboard-response","99","1172979","0.0-13.0-1.17","77585","List1B","white","man","","","","null","","","","","","","","",""
"null","is being hugged by","","html-keyboard-response","100","1174984","0.0-13.0-2.17","77585","List1B","white","man","","","","null","","","","","","","","",""
"17876.19999998808","","","survey-text","101","1192881","0.0-13.0-3.17","77585","List1B","white","man","","","","","{""Q0"":""Jane is being hug by kate""}","<img src=""stim_listB/hug8.gif""style=""height:400px;""></stim_listB>","is being hugged by","","","","","",""
"null","<div style=""font-size:60px;"">+</div>","","html-keyboard-response","102","1193385","0.0-13.0-0.18","77585","List1B","white","man","","","","null","","","","","","","","",""
"null","<img src=""stim_listB/oppose2.gif""style=""height:400px;""></stim_listB>","","html-keyboard-response","103","1195391","0.0-13.0-1.18","77585","List1B","white","man","","","","null","","","","","","","","",""
"null","is being opposed by","","html-keyboard-response","104","1197396","0.0-13.0-2.18","77585","List1B","white","man","","","","null","","","","","","","","",""
"27782.19999998808","","","survey-text","105","1225206","0.0-13.0-3.18","77585","List1B","white","man","","","","","{""Q0"":""Beth is being opposed by fred""}","<img src=""stim_listB/oppose2.gif""style=""height:400px;""></stim_listB>","is being opposed by","","","","","",""
"null","<div style=""font-size:60px;"">+</div>","","html-keyboard-response","106","1225710","0.0-13.0-0.19","77585","List1B","white","man","","","","null","","","","","","","","",""
"null","<img src=""stim_listB/look1.gif""style=""height:400px;""></stim_listB>","","html-keyboard-response","107","1227715","0.0-13.0-1.19","77585","List1B","white","man","","","","null","","","","","","","","",""
"null","is looking at","","html-keyboard-response","108","1229719","0.0-13.0-2.19","77585","List1B","white","man","","","","null","","","","","","","","",""
"18971.30000001192","","","survey-text","109","1248708","0.0-13.0-3.19","77585","List1B","white","man","","","","","{""Q0"":""Fred is looking at Beth""}","<img src=""stim_listB/look1.gif""style=""height:400px;""></stim_listB>","is looking at","","","","","",""
"13746.399999976158","<img src='img/portrait_matrix_list1.jpg' style='width:900px;height:500px;''></img><p>If you have memorised all the portraits and names and are ready to start, press Continue.</p><p><strong>Please note: Your memory of these faces will be tested 4 times during this experiment.</strong></p>","0","html-button-response","110","1262468","0.0-14.0-0.0","77585","List1B","white","man","","","","","","","","","","","","",""
"10229.399999976158","<img src=""portrait/BM1.jpg""style=""height:400px;""></img>","4","html-button-response","111","1273709","0.0-14.0-1.0","77585","List1B","white","man","","true","4","","","","","","","","","",""
"null","CORRECT","","html-keyboard-response","112","1275215","0.0-14.0-2.0-0.0","77585","List1B","white","man","","","","null","","","","","","","","",""
"6278.199999988079","<img src=""portrait/WM1.jpg""style=""height:400px;""></img>","6","html-button-response","113","1281499","0.0-14.0-4.0","77585","List1B","white","man","","true","6","","","","","","","","","",""
"null","CORRECT","","html-keyboard-response","114","1283003","0.0-14.0-5.0-0.0","77585","List1B","white","man","","","","null","","","","","","","","",""
"6697.600000023842","<img src=""portrait/WW1.jpg""style=""height:400px;""></img>","1","html-button-response","115","1289706","0.0-14.0-7.0","77585","List1B","white","man","","true","1","","","","","","","","","",""
"null","CORRECT","","html-keyboard-response","116","1291211","0.0-14.0-8.0-0.0","77585","List1B","white","man","","","","null","","","","","","","","",""
"5726","<img src=""portrait/WM2.jpg""style=""height:400px;""></img>","7","html-button-response","117","1296943","0.0-14.0-10.0","77585","List1B","white","man","","true","7","","","","","","","","","",""
"null","CORRECT","","html-keyboard-response","118","1298448","0.0-14.0-11.0-0.0","77585","List1B","white","man","","","","null","","","","","","","","",""
"4437.800000011921","<img src=""portrait/WW2.jpg""style=""height:400px;""></img>","3","html-button-response","119","1302892","0.0-14.0-13.0","77585","List1B","white","man","","true","3","","","","","","","","","",""
"null","CORRECT","","html-keyboard-response","120","1304396","0.0-14.0-14.0-0.0","77585","List1B","white","man","","","","null","","","","","","","","",""
"4373.100000023842","<img src=""portrait/BW2.jpg""style=""height:400px;""></img>","2","html-button-response","121","1308775","0.0-14.0-16.0","77585","List1B","white","man","","true","2","","","","","","","","","",""
"null","CORRECT","","html-keyboard-response","122","1310279","0.0-14.0-17.0-0.0","77585","List1B","white","man","","","","null","","","","","","","","",""
"5024.600000023842","<img src=""portrait/BW1.jpg""style=""height:400px;""></img>","0","html-button-response","123","1315309","0.0-14.0-19.0","77585","List1B","white","man","","true","0","","","","","","","","","",""
"null","CORRECT","","html-keyboard-response","124","1316814","0.0-14.0-20.0-0.0","77585","List1B","white","man","","","","null","","","","","","","","",""
"3906.600000023842","<img src=""portrait/BM2.jpg""style=""height:400px;""></img>","5","html-button-response","125","1320726","0.0-14.0-22.0","77585","List1B","white","man","","true","5","","","","","","","","","",""
"null","CORRECT","","html-keyboard-response","126","1322231","0.0-14.0-23.0-0.0","77585","List1B","white","man","","","","null","","","","","","","","",""
"1965.800000011921","<p>You got 8 out of 8 right first time. Press Continue.</p>","0","html-button-response","127","1324204","0.0-14.0-25.0","77585","List1B","white","man","","","","","","","","","","","","",""
"null","<div style=""font-size:60px;"">+</div>","","html-keyboard-response","128","1325712","0.0-15.0-0.0","77585","List1B","white","man","","","","null","","","","","","","","",""
"null","<img src=""stim_listB/oppose1.gif""style=""height:400px;""></stim_listB>","","html-keyboard-response","129","1327717","0.0-15.0-1.0","77585","List1B","white","man","","","","null","","","","","","","","",""
"null","is opposing","","html-keyboard-response","130","1329723","0.0-15.0-2.0","77585","List1B","white","man","","","","null","","","","","","","","",""
"148551.80000001192","","","survey-text","131","1478290","0.0-15.0-3.0","77585","List1B","white","man","","","","","{""Q0"":""Mike is opposing Dave""}","<img src=""stim_listB/oppose1.gif""style=""height:400px;""></stim_listB>","is opposing","","","","","",""
"null","<div style=""font-size:60px;"">+</div>","","html-keyboard-response","132","1478793","0.0-15.0-0.1","77585","List1B","white","man","","","","null","","","","","","","","",""
"null","<img src=""stim_listB/shout6.gif""style=""height:400px;""></stim_listB>","","html-keyboard-response","133","1480799","0.0-15.0-1.1","77585","List1B","white","man","","","","null","","","","","","","","",""
"null","is being shouted at by","","html-keyboard-response","134","1482806","0.0-15.0-2.1","77585","List1B","white","man","","","","null","","","","","","","","",""
"44325.39999997616","","","survey-text","135","1527145","0.0-15.0-3.1","77585","List1B","white","man","","","","","{""Q0"":""Fred is being shouted at by mike""}","<img src=""stim_listB/shout6.gif""style=""height:400px;""></stim_listB>","is being shouted at by","","","","","",""
"null","<div style=""font-size:60px;"">+</div>","","html-keyboard-response","136","1527649","0.0-15.0-0.2","77585","List1B","white","man","","","","null","","","","","","","","",""
"null","<img src=""stim_listB/hug7.gif""style=""height:400px;""></stim_listB>","","html-keyboard-response","137","1529654","0.0-15.0-1.2","77585","List1B","white","man","","","","null","","","","","","","","",""
"null","is hugging","","html-keyboard-response","138","1531658","0.0-15.0-2.2","77585","List1B","white","man","","","","null","","","","","","","","",""
"23678","","","survey-text","139","1555358","0.0-15.0-3.2","77585","List1B","white","man","","","","","{""Q0"":""Fred is hugging Beth""}","<img src=""stim_listB/hug7.gif""style=""height:400px;""></stim_listB>","is hugging","","","","","",""
"null","<div style=""font-size:60px;"">+</div>","","html-keyboard-response","140","1555862","0.0-15.0-0.3","77585","List1B","white","man","","","","null","","","","","","","","",""
"null","<img src=""stim_listB/look5.gif""style=""height:400px;""></stim_listB>","","html-keyboard-response","141","1557867","0.0-15.0-1.3","77585","List1B","white","man","","","","null","","","","","","","","",""
"null","is looking at","","html-keyboard-response","142","1559873","0.0-15.0-2.3","77585","List1B","white","man","","","","null","","","","","","","","",""
"16820.80000001192","","","survey-text","143","1576718","0.0-15.0-3.3","77585","List1B","white","man","","","","","{""Q0"":""Fred is looking at luke""}","<img src=""stim_listB/look5.gif""style=""height:400px;""></stim_listB>","is looking at","","","","","",""
"null","<div style=""font-size:60px;"">+</div>","","html-keyboard-response","144","1577223","0.0-15.0-0.4","77585","List1B","white","man","","","","null","","","","","","","","",""
"null","<img src=""stim_listB/hug4.gif""style=""height:400px;""></stim_listB>","","html-keyboard-response","145","1579228","0.0-15.0-1.4","77585","List1B","white","man","","","","null","","","","","","","","",""
"null","is being hugged by","","html-keyboard-response","146","1581231","0.0-15.0-2.4","77585","List1B","white","man","","","","null","","","","","","","","",""
"18778.69999998808","","","survey-text","147","1600020","0.0-15.0-3.4","77585","List1B","white","man","","","","","{""Q0"":""Jane is being hug by luke""}","<img src=""stim_listB/hug4.gif""style=""height:400px;""></stim_listB>","is being hugged by","","","","","",""
"null","<div style=""font-size:60px;"">+</div>","","html-keyboard-response","148","1600524","0.0-15.0-0.5","77585","List1B","white","man","","","","null","","","","","","","","",""
"null","<img src=""stim_listB/touch6.gif""style=""height:400px;""></stim_listB>","","html-keyboard-response","149","1602529","0.0-15.0-1.5","77585","List1B","white","man","","","","null","","","","","","","","",""
"null","is being touched by","","html-keyboard-response","150","1604535","0.0-15.0-2.5","77585","List1B","white","man","","","","null","","","","","","","","",""
"16228.599999964237","","","survey-text","151","1620776","0.0-15.0-3.5","77585","List1B","white","man","","","","","{""Q0"":""Luke is being touched by Fred""}","<img src=""stim_listB/touch6.gif""style=""height:400px;""></stim_listB>","is being touched by","","","","","",""
"null","<div style=""font-size:60px;"">+</div>","","html-keyboard-response","152","1621280","0.0-15.0-0.6","77585","List1B","white","man","","","","null","","","","","","","","",""
"null","<img src=""stim_listB/challenge3.gif""style=""height:400px;""></stim_listB>","","html-keyboard-response","153","1623284","0.0-15.0-1.6","77585","List1B","white","man","","","","null","","","","","","","","",""
"null","is challenging","","html-keyboard-response","154","1625364","0.0-15.0-2.6","77585","List1B","white","man","","","","null","","","","","","","","",""
"18244.600000023842","","","survey-text","155","1643621","0.0-15.0-3.6","77585","List1B","white","man","","","","","{""Q0"":""Kate is challenging fred""}","<img src=""stim_listB/challenge3.gif""style=""height:400px;""></stim_listB>","is challenging","","","","","",""
"null","<div style=""font-size:60px;"">+</div>","","html-keyboard-response","156","1644126","0.0-15.0-0.7","77585","List1B","white","man","","","","null","","","","","","","","",""
"null","<img src=""stim_listB/touch5.gif""style=""height:400px;""></stim_listB>","","html-keyboard-response","157","1646131","0.0-15.0-1.7","77585","List1B","white","man","","","","null","","","","","","","","",""
"null","is touching","","html-keyboard-response","158","1648137","0.0-15.0-2.7","77585","List1B","white","man","","","","null","","","","","","","","",""
"15232.900000035763","","","survey-text","159","1663395","0.0-15.0-3.7","77585","List1B","white","man","","","","","{""Q0"":""Mike is touching fred""}","<img src=""stim_listB/touch5.gif""style=""height:400px;""></stim_listB>","is touching","","","","","",""
"null","<div style=""font-size:60px;"">+</div>","","html-keyboard-response","160","1663898","0.0-15.0-0.8","77585","List1B","white","man","","","","null","","","","","","","","",""
"null","<img src=""stim_listB/hug5.gif""style=""height:400px;""></stim_listB>","","html-keyboard-response","161","1665904","0.0-15.0-1.8","77585","List1B","white","man","","","","null","","","","","","","","",""
"null","is hugging","","html-keyboard-response","162","1667909","0.0-15.0-2.8","77585","List1B","white","man","","","","null","","","","","","","","",""
"11722.800000011921","","","survey-text","163","1679643","0.0-15.0-3.8","77585","List1B","white","man","","","","","{""Q0"":""Luke is hugging Fred""}","<img src=""stim_listB/hug5.gif""style=""height:400px;""></stim_listB>","is hugging","","","","","",""
"null","<div style=""font-size:60px;"">+</div>","","html-keyboard-response","164","1680146","0.0-15.0-0.9","77585","List1B","white","man","","","","null","","","","","","","","",""
"null","<img src=""stim_listB/seduce7.gif""style=""height:400px;""></stim_listB>","","html-keyboard-response","165","1682150","0.0-15.0-1.9","77585","List1B","white","man","","","","null","","","","","","","","",""
"null","is seducing","","html-keyboard-response","166","1684155","0.0-15.0-2.9","77585","List1B","white","man","","","","null","","","","","","","","",""
"11849.5","","","survey-text","167","1696024","0.0-15.0-3.9","77585","List1B","white","man","","","","","{""Q0"":""Kate is seducing jane""}","<img src=""stim_listB/seduce7.gif""style=""height:400px;""></stim_listB>","is seducing","","","","","",""
"null","<div style=""font-size:60px;"">+</div>","","html-keyboard-response","168","1696528","0.0-15.0-0.10","77585","List1B","white","man","","","","null","","","","","","","","",""
"null","<img src=""stim_listB/seduce4.gif""style=""height:400px;""></stim_listB>","","html-keyboard-response","169","1698533","0.0-15.0-1.10","77585","List1B","white","man","","","","null","","","","","","","","",""
"null","is being seduced by","","html-keyboard-response","170","1700537","0.0-15.0-2.10","77585","List1B","white","man","","","","null","","","","","","","","",""
"25475.5","","","survey-text","171","1726025","0.0-15.0-3.10","77585","List1B","white","man","","","","","{""Q0"":""Jane is being seduced by dave""}","<img src=""stim_listB/seduce4.gif""style=""height:400px;""></stim_listB>","is being seduced by","","","","","",""
"null","<div style=""font-size:60px;"">+</div>","","html-keyboard-response","172","1726529","0.0-15.0-0.11","77585","List1B","white","man","","","","null","","","","","","","","",""
"null","<img src=""stim_listB/greet7.gif""style=""height:400px;""></stim_listB>","","html-keyboard-response","173","1728534","0.0-15.0-1.11","77585","List1B","white","man","","","","null","","","","","","","","",""
"null","is greeting","","html-keyboard-response","174","1731363","0.0-15.0-2.11","77585","List1B","white","man","","","","null","","","","","","","","",""
"18450.100000023842","","","survey-text","175","1749825","0.0-15.0-3.11","77585","List1B","white","man","","","","","{""Q0"":""Kate is greeting  Jane""}","<img src=""stim_listB/greet7.gif""style=""height:400px;""></stim_listB>","is greeting","","","","","",""
"null","<div style=""font-size:60px;"">+</div>","","html-keyboard-response","176","1750328","0.0-15.0-0.12","77585","List1B","white","man","","","","null","","","","","","","","",""
"null","<img src=""stim_listB/hug2.gif""style=""height:400px;""></stim_listB>","","html-keyboard-response","177","1752333","0.0-15.0-1.12","77585","List1B","white","man","","","","null","","","","","","","","",""
"null","is being hugged by","","html-keyboard-response","178","1754363","0.0-15.0-2.12","77585","List1B","white","man","","","","null","","","","","","","","",""
"13451.400000035763","","","survey-text","179","1767825","0.0-15.0-3.12","77585","List1B","white","man","","","","","{""Q0"":""Kate is being hug by mike""}","<img src=""stim_listB/hug2.gif""style=""height:400px;""></stim_listB>","is being hugged by","","","","","",""
"null","<div style=""font-size:60px;"">+</div>","","html-keyboard-response","180","1768328","0.0-15.0-0.13","77585","List1B","white","man","","","","null","","","","","","","","",""
"null","<img src=""stim_listB/greet6.gif""style=""height:400px;""></stim_listB>","","html-keyboard-response","181","1770333","0.0-15.0-1.13","77585","List1B","white","man","","","","null","","","","","","","","",""
"null","is being greeted by","","html-keyboard-response","182","1772339","0.0-15.0-2.13","77585","List1B","white","man","","","","null","","","","","","","","",""
"35496","","","survey-text","183","1807857","0.0-15.0-3.13","77585","List1B","white","man","","","","","{""Q0"":""Fred is being greeted by Dave""}","<img src=""stim_listB/greet6.gif""style=""height:400px;""></stim_listB>","is being greeted by","","","","","",""
"null","<div style=""font-size:60px;"">+</div>","","html-keyboard-response","184","1808362","0.0-15.0-0.14","77585","List1B","white","man","","","","null","","","","","","","","",""
"null","<img src=""stim_listB/kiss5.gif""style=""height:400px;""></stim_listB>","","html-keyboard-response","185","1810367","0.0-15.0-1.14","77585","List1B","white","man","","","","null","","","","","","","","",""
"null","is kissing","","html-keyboard-response","186","1812371","0.0-15.0-2.14","77585","List1B","white","man","","","","null","","","","","","","","",""
"11769.199999988079","","","survey-text","187","1824152","0.0-15.0-3.14","77585","List1B","white","man","","","","","{""Q0"":""Fred is kissing Luke""}","<img src=""stim_listB/kiss5.gif""style=""height:400px;""></stim_listB>","is kissing","","","","","",""
"null","<div style=""font-size:60px;"">+</div>","","html-keyboard-response","188","1824655","0.0-15.0-0.15","77585","List1B","white","man","","","","null","","","","","","","","",""
"null","<img src=""stim_listB/look6.gif""style=""height:400px;""></stim_listB>","","html-keyboard-response","189","1826660","0.0-15.0-1.15","77585","List1B","white","man","","","","null","","","","","","","","",""
"null","is being looked at by","","html-keyboard-response","190","1828664","0.0-15.0-2.15","77585","List1B","white","man","","","","null","","","","","","","","",""
"16473.5","","","survey-text","191","1845160","0.0-15.0-3.15","77585","List1B","white","man","","","","","{""Q0"":""Dave is being looked out by fred""}","<img src=""stim_listB/look6.gif""style=""height:400px;""></stim_listB>","is being looked at by","","","","","",""
"null","<div style=""font-size:60px;"">+</div>","","html-keyboard-response","192","1845664","0.0-15.0-0.16","77585","List1B","white","man","","","","null","","","","","","","","",""
"null","<img src=""stim_listB/touch1.gif""style=""height:400px;""></stim_listB>","","html-keyboard-response","193","1847670","0.0-15.0-1.16","77585","List1B","white","man","","","","null","","","","","","","","",""
"null","is touching","","html-keyboard-response","194","1850363","0.0-15.0-2.16","77585","List1B","white","man","","","","null","","","","","","","","",""
"18087.399999976158","","","survey-text","195","1868462","0.0-15.0-3.16","77585","List1B","white","man","","","","","{""Q0"":""Mike is touching Kate""}","<img src=""stim_listB/touch1.gif""style=""height:400px;""></stim_listB>","is touching","","","","","",""
"null","<div style=""font-size:60px;"">+</div>","","html-keyboard-response","196","1868966","0.0-15.0-0.17","77585","List1B","white","man","","","","null","","","","","","","","",""
"null","<img src=""stim_listB/challenge1.gif""style=""height:400px;""></stim_listB>","","html-keyboard-response","197","1870971","0.0-15.0-1.17","77585","List1B","white","man","","","","null","","","","","","","","",""
"null","is challenging","","html-keyboard-response","198","1873363","0.0-15.0-2.17","77585","List1B","white","man","","","","null","","","","","","","","",""
"10391.5","","","survey-text","199","1883769","0.0-15.0-3.17","77585","List1B","white","man","","","","","{""Q0"":""Mike is challenging Kate""}","<img src=""stim_listB/challenge1.gif""style=""height:400px;""></stim_listB>","is challenging","","","","","",""
"null","<div style=""font-size:60px;"">+</div>","","html-keyboard-response","200","1884273","0.0-15.0-0.18","77585","List1B","white","man","","","","null","","","","","","","","",""
"null","<img src=""stim_listB/shout4.gif""style=""height:400px;""></stim_listB>","","html-keyboard-response","201","1886278","0.0-15.0-1.18","77585","List1B","white","man","","","","null","","","","","","","","",""
"null","is being shouted at by","","html-keyboard-response","202","1888283","0.0-15.0-2.18","77585","List1B","white","man","","","","null","","","","","","","","",""
"17510.80000001192","","","survey-text","203","1905816","0.0-15.0-3.18","77585","List1B","white","man","","","","","{""Q0"":""Jane is being shouted by Dave""}","<img src=""stim_listB/shout4.gif""style=""height:400px;""></stim_listB>","is being shouted at by","","","","","",""
"null","<div style=""font-size:60px;"">+</div>","","html-keyboard-response","204","1906320","0.0-15.0-0.19","77585","List1B","white","man","","","","null","","","","","","","","",""
"null","<img src=""stim_listB/greet2.gif""style=""height:400px;""></stim_listB>","","html-keyboard-response","205","1908325","0.0-15.0-1.19","77585","List1B","white","man","","","","null","","","","","","","","",""
"null","is being greeted by","","html-keyboard-response","206","1910364","0.0-15.0-2.19","77585","List1B","white","man","","","","null","","","","","","","","",""
"25316.900000035763","","","survey-text","207","1935701","0.0-15.0-3.19","77585","List1B","white","man","","","","","{""Q0"":""Kate is being greeted by Fred""}","<img src=""stim_listB/greet2.gif""style=""height:400px;""></stim_listB>","is being greeted by","","","","","",""
"4720.5","<img src='img/portrait_matrix_list1.jpg' style='width:900px;height:500px;''></img><p>If you have memorised all the portraits and names and are ready to start, press Continue.</p><p><strong>Please note: Your memory of these faces will be tested 4 times during this experiment.</strong></p>","0","html-button-response","208","1940428","0.0-16.0-0.0","77585","List1B","white","man","","","","","","","","","","","","",""
"4141.399999976158","<img src=""portrait/WM1.jpg""style=""height:400px;""></img>","6","html-button-response","209","1945578","0.0-16.0-1.0","77585","List1B","white","man","","true","6","","","","","","","","","",""
"null","CORRECT","","html-keyboard-response","210","1947084","0.0-16.0-2.0-0.0","77585","List1B","white","man","","","","null","","","","","","","","",""
"1997.199999988079","<img src=""portrait/WM2.jpg""style=""height:400px;""></img>","7","html-button-response","211","1949088","0.0-16.0-4.0","77585","List1B","white","man","","true","7","","","","","","","","","",""
"null","CORRECT","","html-keyboard-response","212","1950592","0.0-16.0-5.0-0.0","77585","List1B","white","man","","","","null","","","","","","","","",""
"2098.7999999523163","<img src=""portrait/BM1.jpg""style=""height:400px;""></img>","4","html-button-response","213","1952696","0.0-16.0-7.0","77585","List1B","white","man","","true","4","","","","","","","","","",""
"null","CORRECT","","html-keyboard-response","214","1954201","0.0-16.0-8.0-0.0","77585","List1B","white","man","","","","null","","","","","","","","",""
"13149.400000035763","<img src=""portrait/WW1.jpg""style=""height:400px;""></img>","1","html-button-response","215","1967356","0.0-16.0-10.0","77585","List1B","white","man","","true","1","","","","","","","","","",""
"null","CORRECT","","html-keyboard-response","216","1968860","0.0-16.0-11.0-0.0","77585","List1B","white","man","","","","null","","","","","","","","",""
"7797.899999976158","<img src=""portrait/BW2.jpg""style=""height:400px;""></img>","2","html-button-response","217","1976664","0.0-16.0-13.0","77585","List1B","white","man","","true","2","","","","","","","","","",""
"null","CORRECT","","html-keyboard-response","218","1978169","0.0-16.0-14.0-0.0","77585","List1B","white","man","","","","null","","","","","","","","",""
"4974.099999964237","<img src=""portrait/WW2.jpg""style=""height:400px;""></img>","3","html-button-response","219","1983149","0.0-16.0-16.0","77585","List1B","white","man","","true","3","","","","","","","","","",""
"null","CORRECT","","html-keyboard-response","220","1984654","0.0-16.0-17.0-0.0","77585","List1B","white","man","","","","null","","","","","","","","",""
"9687.900000035763","<img src=""portrait/BW1.jpg""style=""height:400px;""></img>","0","html-button-response","221","1994347","0.0-16.0-19.0","77585","List1B","white","man","","true","0","","","","","","","","","",""
"null","CORRECT","","html-keyboard-response","222","1995853","0.0-16.0-20.0-0.0","77585","List1B","white","man","","","","null","","","","","","","","",""
"2736.899999976158","<img src=""portrait/BM2.jpg""style=""height:400px;""></img>","5","html-button-response","223","1998596","0.0-16.0-22.0","77585","List1B","white","man","","true","5","","","","","","","","","",""
"null","CORRECT","","html-keyboard-response","224","2000101","0.0-16.0-23.0-0.0","77585","List1B","white","man","","","","null","","","","","","","","",""
"1443.9000000357628","<p>You got 8 out of 8 right first time. Press Continue.</p>","0","html-button-response","225","2001550","0.0-16.0-25.0","77585","List1B","white","man","","","","","","","","","","","","",""
"null","<div style=""font-size:60px;"">+</div>","","html-keyboard-response","226","2003055","0.0-17.0-0.0","77585","List1B","white","man","","","","null","","","","","","","","",""
"null","<img src=""stim_listB/copy5.gif""style=""height:400px;""></stim_listB>","","html-keyboard-response","227","2005061","0.0-17.0-1.0","77585","List1B","white","man","","","","null","","","","","","","","",""
"null","is copying","","html-keyboard-response","228","2007067","0.0-17.0-2.0","77585","List1B","white","man","","","","null","","","","","","","","",""
"14606.899999976158","","","survey-text","229","2021692","0.0-17.0-3.0","77585","List1B","white","man","","","","","{""Q0"":""Luke is copying Mike""}","<img src=""stim_listB/copy5.gif""style=""height:400px;""></stim_listB>","is copying","","","","","",""
"null","<div style=""font-size:60px;"">+</div>","","html-keyboard-response","230","2022196","0.0-17.0-0.1","77585","List1B","white","man","","","","null","","","","","","","","",""
"null","<img src=""stim_listB/seduce1.gif""style=""height:400px;""></stim_listB>","","html-keyboard-response","231","2024203","0.0-17.0-1.1","77585","List1B","white","man","","","","null","","","","","","","","",""
"null","is seducing","","html-keyboard-response","232","2026209","0.0-17.0-2.1","77585","List1B","white","man","","","","null","","","","","","","","",""
"12405.699999988079","","","survey-text","233","2038626","0.0-17.0-3.1","77585","List1B","white","man","","","","","{""Q0"":""Fred is seducing Beth""}","<img src=""stim_listB/seduce1.gif""style=""height:400px;""></stim_listB>","is seducing","","","","","",""
"null","<div style=""font-size:60px;"">+</div>","","html-keyboard-response","234","2039129","0.0-17.0-0.2","77585","List1B","white","man","","","","null","","","","","","","","",""
"null","<img src=""stim_listB/greet4.gif""style=""height:400px;""></stim_listB>","","html-keyboard-response","235","2041135","0.0-17.0-1.2","77585","List1B","white","man","","","","null","","","","","","","","",""
"null","is being greeted by","","html-keyboard-response","236","2043141","0.0-17.0-2.2","77585","List1B","white","man","","","","null","","","","","","","","",""
"14204.400000035763","","","survey-text","237","2057359","0.0-17.0-3.2","77585","List1B","white","man","","","","","{""Q0"":""Jane is being greeted by Luke""}","<img src=""stim_listB/greet4.gif""style=""height:400px;""></stim_listB>","is being greeted by","","","","","",""
"null","<div style=""font-size:60px;"">+</div>","","html-keyboard-response","238","2057863","0.0-17.0-0.3","77585","List1B","white","man","","","","null","","","","","","","","",""
"null","<img src=""stim_listB/copy4.gif""style=""height:400px;""></stim_listB>","","html-keyboard-response","239","2059869","0.0-17.0-1.3","77585","List1B","white","man","","","","null","","","","","","","","",""
"null","is being copied by","","html-keyboard-response","240","2061874","0.0-17.0-2.3","77585","List1B","white","man","","","","null","","","","","","","","",""
"9512.699999988079","","","survey-text","241","2071421","0.0-17.0-3.3","77585","List1B","white","man","","","","","{""Q0"":""Jane is copying luke""}","<img src=""stim_listB/copy4.gif""style=""height:400px;""></stim_listB>","is being copied by","","","","","",""
"null","<div style=""font-size:60px;"">+</div>","","html-keyboard-response","242","2071925","0.0-17.0-0.4","77585","List1B","white","man","","","","null","","","","","","","","",""
"null","<img src=""stim_listB/kiss1.gif""style=""height:400px;""></stim_listB>","","html-keyboard-response","243","2073929","0.0-17.0-1.4","77585","List1B","white","man","","","","null","","","","","","","","",""
"null","is kissing","","html-keyboard-response","244","2076365","0.0-17.0-2.4","77585","List1B","white","man","","","","null","","","","","","","","",""
"11459.099999964237","","","survey-text","245","2087845","0.0-17.0-3.4","77585","List1B","white","man","","","","","{""Q0"":""Fred is kissing Beth""}","<img src=""stim_listB/kiss1.gif""style=""height:400px;""></stim_listB>","is kissing","","","","","",""
"null","<div style=""font-size:60px;"">+</div>","","html-keyboard-response","246","2088349","0.0-17.0-0.5","77585","List1B","white","man","","","","null","","","","","","","","",""
"null","<img src=""stim_listB/oppose3.gif""style=""height:400px;""></stim_listB>","","html-keyboard-response","247","2090353","0.0-17.0-1.5","77585","List1B","white","man","","","","null","","","","","","","","",""
"null","is opposing","","html-keyboard-response","248","2092356","0.0-17.0-2.5","77585","List1B","white","man","","","","null","","","","","","","","",""
"14353.300000011921","","","survey-text","249","2106731","0.0-17.0-3.5","77585","List1B","white","man","","","","","{""Q0"":""Dave is opposing beth""}","<img src=""stim_listB/oppose3.gif""style=""height:400px;""></stim_listB>","is opposing","","","","","",""
"null","<div style=""font-size:60px;"">+</div>","","html-keyboard-response","250","2107235","0.0-17.0-0.6","77585","List1B","white","man","","","","null","","","","","","","","",""
"null","<img src=""stim_listB/seduce2.gif""style=""height:400px;""></stim_listB>","","html-keyboard-response","251","2109240","0.0-17.0-1.6","77585","List1B","white","man","","","","null","","","","","","","","",""
"null","is being seduced by","","html-keyboard-response","252","2111246","0.0-17.0-2.6","77585","List1B","white","man","","","","null","","","","","","","","",""
"13039.199999988079","","","survey-text","253","2124300","0.0-17.0-3.6","77585","List1B","white","man","","","","","{""Q0"":""Beth is being seduced by mike""}","<img src=""stim_listB/seduce2.gif""style=""height:400px;""></stim_listB>","is being seduced by","","","","","",""
"null","<div style=""font-size:60px;"">+</div>","","html-keyboard-response","254","2124804","0.0-17.0-0.7","77585","List1B","white","man","","","","null","","","","","","","","",""
"null","<img src=""stim_listB/greet5.gif""style=""height:400px;""></stim_listB>","","html-keyboard-response","255","2126809","0.0-17.0-1.7","77585","List1B","white","man","","","","null","","","","","","","","",""
"null","is greeting","","html-keyboard-response","256","2128817","0.0-17.0-2.7","77585","List1B","white","man","","","","null","","","","","","","","",""
"13872.900000035763","","","survey-text","257","2142718","0.0-17.0-3.7","77585","List1B","white","man","","","","","{""Q0"":""Mike is greeting luke""}","<img src=""stim_listB/greet5.gif""style=""height:400px;""></stim_listB>","is greeting","","","","","",""
"null","<div style=""font-size:60px;"">+</div>","","html-keyboard-response","258","2143222","0.0-17.0-0.8","77585","List1B","white","man","","","","null","","","","","","","","",""
"null","<img src=""stim_listB/hug6.gif""style=""height:400px;""></stim_listB>","","html-keyboard-response","259","2145227","0.0-17.0-1.8","77585","List1B","white","man","","","","null","","","","","","","","",""
"null","is being hugged by","","html-keyboard-response","260","2147231","0.0-17.0-2.8","77585","List1B","white","man","","","","null","","","","","","","","",""
"11429","","","survey-text","261","2158683","0.0-17.0-3.8","77585","List1B","white","man","","","","","{""Q0"":""Dave is being hug by mike""}","<img src=""stim_listB/hug6.gif""style=""height:400px;""></stim_listB>","is being hugged by","","","","","",""
"null","<div style=""font-size:60px;"">+</div>","","html-keyboard-response","262","2159187","0.0-17.0-0.9","77585","List1B","white","man","","","","null","","","","","","","","",""
"null","<img src=""stim_listB/touch8.gif""style=""height:400px;""></stim_listB>","","html-keyboard-response","263","2161192","0.0-17.0-1.9","77585","List1B","white","man","","","","null","","","","","","","","",""
"null","is being touched by","","html-keyboard-response","264","2163197","0.0-17.0-2.9","77585","List1B","white","man","","","","null","","","","","","","","",""
"18005.400000035763","","","survey-text","265","2181225","0.0-17.0-3.9","77585","List1B","white","man","","","","","{""Q0"":""Jane is being touched by Kate""}","<img src=""stim_listB/touch8.gif""style=""height:400px;""></stim_listB>","is being touched by","","","","","",""
"null","<div style=""font-size:60px;"">+</div>","","html-keyboard-response","266","2181728","0.0-17.0-0.10","77585","List1B","white","man","","","","null","","","","","","","","",""
"null","<img src=""stim_listB/shout5.gif""style=""height:400px;""></stim_listB>","","html-keyboard-response","267","2183732","0.0-17.0-1.10","77585","List1B","white","man","","","","null","","","","","","","","",""
"null","is shouting at","","html-keyboard-response","268","2185737","0.0-17.0-2.10","77585","List1B","white","man","","","","null","","","","","","","","",""
"17501","","","survey-text","269","2203255","0.0-17.0-3.10","77585","List1B","white","man","","","","","{""Q0"":""Fred is challenging luke""}","<img src=""stim_listB/shout5.gif""style=""height:400px;""></stim_listB>","is shouting at","","","","","",""
"null","<div style=""font-size:60px;"">+</div>","","html-keyboard-response","270","2203759","0.0-17.0-0.11","77585","List1B","white","man","","","","null","","","","","","","","",""
"null","<img src=""stim_listB/oppose5.gif""style=""height:400px;""></stim_listB>","","html-keyboard-response","271","2205764","0.0-17.0-1.11","77585","List1B","white","man","","","","null","","","","","","","","",""
"null","is opposing","","html-keyboard-response","272","2208364","0.0-17.0-2.11","77585","List1B","white","man","","","","null","","","","","","","","",""
"8709.5","","","survey-text","273","2217096","0.0-17.0-3.11","77585","List1B","white","man","","","","","{""Q0"":""Mike is opposing dave""}","<img src=""stim_listB/oppose5.gif""style=""height:400px;""></stim_listB>","is opposing","","","","","",""
"null","<div style=""font-size:60px;"">+</div>","","html-keyboard-response","274","2217600","0.0-17.0-0.12","77585","List1B","white","man","","","","null","","","","","","","","",""
"null","<img src=""stim_listB/kiss7.gif""style=""height:400px;""></stim_listB>","","html-keyboard-response","275","2219604","0.0-17.0-1.12","77585","List1B","white","man","","","","null","","","","","","","","",""
"null","is kissing","","html-keyboard-response","276","2222363","0.0-17.0-2.12","77585","List1B","white","man","","","","null","","","","","","","","",""
"16147.5","","","survey-text","277","2238522","0.0-17.0-3.12","77585","List1B","white","man","","","","","{""Q0"":""Beth is kissing jane""}","<img src=""stim_listB/kiss7.gif""style=""height:400px;""></stim_listB>","is kissing","","","","","",""
"null","<div style=""font-size:60px;"">+</div>","","html-keyboard-response","278","2239025","0.0-17.0-0.13","77585","List1B","white","man","","","","null","","","","","","","","",""
"null","<img src=""stim_listB/shout2.gif""style=""height:400px;""></stim_listB>","","html-keyboard-response","279","2241029","0.0-17.0-1.13","77585","List1B","white","man","","","","null","","","","","","","","",""
"null","is being shouted at by","","html-keyboard-response","280","2243032","0.0-17.0-2.13","77585","List1B","white","man","","","","null","","","","","","","","",""
"14684.300000011921","","","survey-text","281","2257726","0.0-17.0-3.13","77585","List1B","white","man","","","","","{""Q0"":""Kate is being shouted at by mike""}","<img src=""stim_listB/shout2.gif""style=""height:400px;""></stim_listB>","is being shouted at by","","","","","",""
"null","<div style=""font-size:60px;"">+</div>","","html-keyboard-response","282","2258230","0.0-17.0-0.14","77585","List1B","white","man","","","","null","","","","","","","","",""
"null","<img src=""stim_listB/seduce8.gif""style=""height:400px;""></stim_listB>","","html-keyboard-response","283","2260236","0.0-17.0-1.14","77585","List1B","white","man","","","","null","","","","","","","","",""
"null","is being seduced by","","html-keyboard-response","284","2262243","0.0-17.0-2.14","77585","List1B","white","man","","","","null","","","","","","","","",""
"16153.699999988079","","","survey-text","285","2278420","0.0-17.0-3.14","77585","List1B","white","man","","","","","{""Q0"":""Jane is being seduced by beth""}","<img src=""stim_listB/seduce8.gif""style=""height:400px;""></stim_listB>","is being seduced by","","","","","",""
"null","<div style=""font-size:60px;"">+</div>","","html-keyboard-response","286","2278923","0.0-17.0-0.15","77585","List1B","white","man","","","","null","","","","","","","","",""
"null","<img src=""stim_listB/copy6.gif""style=""height:400px;""></stim_listB>","","html-keyboard-response","287","2280928","0.0-17.0-1.15","77585","List1B","white","man","","","","null","","","","","","","","",""
"null","is being copied by","","html-keyboard-response","288","2282933","0.0-17.0-2.15","77585","List1B","white","man","","","","null","","","","","","","","",""
"19814.200000047684","","","survey-text","289","2302770","0.0-17.0-3.15","77585","List1B","white","man","","","","","{""Q0"":""Dave is being copying fred""}","<img src=""stim_listB/copy6.gif""style=""height:400px;""></stim_listB>","is being copied by","","","","","",""
"null","<div style=""font-size:60px;"">+</div>","","html-keyboard-response","290","2303273","0.0-17.0-0.16","77585","List1B","white","man","","","","null","","","","","","","","",""
"null","<img src=""stim_listB/copy7.gif""style=""height:400px;""></stim_listB>","","html-keyboard-response","291","2305279","0.0-17.0-1.16","77585","List1B","white","man","","","","null","","","","","","","","",""
"null","is copying","","html-keyboard-response","292","2307286","0.0-17.0-2.16","77585","List1B","white","man","","","","null","","","","","","","","",""
"14902.299999952316","","","survey-text","293","2322209","0.0-17.0-3.16","77585","List1B","white","man","","","","","{""Q0"":""Beth is copying jane""}","<img src=""stim_listB/copy7.gif""style=""height:400px;""></stim_listB>","is copying","","","","","",""
"null","<div style=""font-size:60px;"">+</div>","","html-keyboard-response","294","2322713","0.0-17.0-0.17","77585","List1B","white","man","","","","null","","","","","","","","",""
"null","<img src=""stim_listB/kiss3.gif""style=""height:400px;""></stim_listB>","","html-keyboard-response","295","2324719","0.0-17.0-1.17","77585","List1B","white","man","","","","null","","","","","","","","",""
"null","is kissing","","html-keyboard-response","296","2326725","0.0-17.0-2.17","77585","List1B","white","man","","","","null","","","","","","","","",""
"9562.400000035763","","","survey-text","297","2336298","0.0-17.0-3.17","77585","List1B","white","man","","","","","{""Q0"":""Luke is kissing jane""}","<img src=""stim_listB/kiss3.gif""style=""height:400px;""></stim_listB>","is kissing","","","","","",""
"null","<div style=""font-size:60px;"">+</div>","","html-keyboard-response","298","2336801","0.0-17.0-0.18","77585","List1B","white","man","","","","null","","","","","","","","",""
"null","<img src=""stim_listB/oppose6.gif""style=""height:400px;""></stim_listB>","","html-keyboard-response","299","2338806","0.0-17.0-1.18","77585","List1B","white","man","","","","null","","","","","","","","",""
"null","is being opposed by","","html-keyboard-response","300","2340811","0.0-17.0-2.18","77585","List1B","white","man","","","","null","","","","","","","","",""
"12463.100000023842","","","survey-text","301","2353296","0.0-17.0-3.18","77585","List1B","white","man","","","","","{""Q0"":""Luke is being opposed by Fred""}","<img src=""stim_listB/oppose6.gif""style=""height:400px;""></stim_listB>","is being opposed by","","","","","",""
"null","<div style=""font-size:60px;"">+</div>","","html-keyboard-response","302","2353800","0.0-17.0-0.19","77585","List1B","white","man","","","","null","","","","","","","","",""
"null","<img src=""stim_listB/challenge4.gif""style=""height:400px;""></stim_listB>","","html-keyboard-response","303","2355805","0.0-17.0-1.19","77585","List1B","white","man","","","","null","","","","","","","","",""
"null","is being challenged by","","html-keyboard-response","304","2357810","0.0-17.0-2.19","77585","List1B","white","man","","","","null","","","","","","","","",""
"13901","","","survey-text","305","2371733","0.0-17.0-3.19","77585","List1B","white","man","","","","","{""Q0"":""Jane is being challenged by luke""}","<img src=""stim_listB/challenge4.gif""style=""height:400px;""></stim_listB>","is being challenged by","","","","","",""
"15336.5","<img src='img/portrait_matrix_list1.jpg' style='width:900px;height:500px;''></img><p>If you have memorised all the portraits and names and are ready to start, press Continue.</p><p><strong>Please note: Your memory of these faces will be tested 4 times during this experiment.</strong></p>","0","html-button-response","306","2387075","0.0-18.0-0.0","77585","List1B","white","man","","","","","","","","","","","","",""
"2583.699999988079","<img src=""portrait/WM2.jpg""style=""height:400px;""></img>","7","html-button-response","307","2390667","0.0-18.0-1.0","77585","List1B","white","man","","true","7","","","","","","","","","",""
"null","CORRECT","","html-keyboard-response","308","2392171","0.0-18.0-2.0-0.0","77585","List1B","white","man","","","","null","","","","","","","","",""
"5377.700000047684","<img src=""portrait/WW1.jpg""style=""height:400px;""></img>","1","html-button-response","309","2397555","0.0-18.0-4.0","77585","List1B","white","man","","true","1","","","","","","","","","",""
"null","CORRECT","","html-keyboard-response","310","2399059","0.0-18.0-5.0-0.0","77585","List1B","white","man","","","","null","","","","","","","","",""
"2433.600000023842","<img src=""portrait/BW2.jpg""style=""height:400px;""></img>","2","html-button-response","311","2401498","0.0-18.0-7.0","77585","List1B","white","man","","true","2","","","","","","","","","",""
"null","CORRECT","","html-keyboard-response","312","2403003","0.0-18.0-8.0-0.0","77585","List1B","white","man","","","","null","","","","","","","","",""
"5167.5","<img src=""portrait/WM1.jpg""style=""height:400px;""></img>","6","html-button-response","313","2408176","0.0-18.0-10.0","77585","List1B","white","man","","true","6","","","","","","","","","",""
"null","CORRECT","","html-keyboard-response","314","2409681","0.0-18.0-11.0-0.0","77585","List1B","white","man","","","","null","","","","","","","","",""
"2662.5","<img src=""portrait/BM2.jpg""style=""height:400px;""></img>","5","html-button-response","315","2412349","0.0-18.0-13.0","77585","List1B","white","man","","true","5","","","","","","","","","",""
"null","CORRECT","","html-keyboard-response","316","2413855","0.0-18.0-14.0-0.0","77585","List1B","white","man","","","","null","","","","","","","","",""
"2612.300000011921","<img src=""portrait/BM1.jpg""style=""height:400px;""></img>","4","html-button-response","317","2416475","0.0-18.0-16.0","77585","List1B","white","man","","true","4","","","","","","","","","",""
"null","CORRECT","","html-keyboard-response","318","2417981","0.0-18.0-17.0-0.0","77585","List1B","white","man","","","","null","","","","","","","","",""
"3885.199999988079","<img src=""portrait/WW2.jpg""style=""height:400px;""></img>","3","html-button-response","319","2421874","0.0-18.0-19.0","77585","List1B","white","man","","true","3","","","","","","","","","",""
"null","CORRECT","","html-keyboard-response","320","2423380","0.0-18.0-20.0-0.0","77585","List1B","white","man","","","","null","","","","","","","","",""
"3885.600000023842","<img src=""portrait/BW1.jpg""style=""height:400px;""></img>","0","html-button-response","321","2427271","0.0-18.0-22.0","77585","List1B","white","man","","true","0","","","","","","","","","",""
"null","CORRECT","","html-keyboard-response","322","2428776","0.0-18.0-23.0-0.0","77585","List1B","white","man","","","","null","","","","","","","","",""
"1364.5999999642372","<p>You got 8 out of 8 right first time. Press Continue.</p>","0","html-button-response","323","2430145","0.0-18.0-25.0","77585","List1B","white","man","","","","","","","","","","","","",""
"null","<div style=""font-size:60px;"">+</div>","","html-keyboard-response","324","2431653","0.0-19.0-0.0","77585","List1B","white","man","","","","null","","","","","","","","",""
"null","<img src=""stim_listB/greet1.gif""style=""height:400px;""></stim_listB>","","html-keyboard-response","325","2433657","0.0-19.0-1.0","77585","List1B","white","man","","","","null","","","","","","","","",""
"null","is greeting","","html-keyboard-response","326","2435663","0.0-19.0-2.0","77585","List1B","white","man","","","","null","","","","","","","","",""
"14418.100000023842","","","survey-text","327","2450104","0.0-19.0-3.0","77585","List1B","white","man","","","","","{""Q0"":""Mike is greeting beth""}","<img src=""stim_listB/greet1.gif""style=""height:400px;""></stim_listB>","is greeting","","","","","",""
"null","<div style=""font-size:60px;"">+</div>","","html-keyboard-response","328","2450607","0.0-19.0-0.1","77585","List1B","white","man","","","","null","","","","","","","","",""
"null","<img src=""stim_listB/challenge8.gif""style=""height:400px;""></stim_listB>","","html-keyboard-response","329","2452612","0.0-19.0-1.1","77585","List1B","white","man","","","","null","","","","","","","","",""
"null","is being challenged by","","html-keyboard-response","330","2454615","0.0-19.0-2.1","77585","List1B","white","man","","","","null","","","","","","","","",""
"16485.200000047684","","","survey-text","331","2471112","0.0-19.0-3.1","77585","List1B","white","man","","","","","{""Q0"":""Jane is being challenged by Beth""}","<img src=""stim_listB/challenge8.gif""style=""height:400px;""></stim_listB>","is being challenged by","","","","","",""
"null","<div style=""font-size:60px;"">+</div>","","html-keyboard-response","332","2471616","0.0-19.0-0.2","77585","List1B","white","man","","","","null","","","","","","","","",""
"null","<img src=""stim_listB/greet8.gif""style=""height:400px;""></stim_listB>","","html-keyboard-response","333","2473620","0.0-19.0-1.2","77585","List1B","white","man","","","","null","","","","","","","","",""
"null","is being greeted by","","html-keyboard-response","334","2475625","0.0-19.0-2.2","77585","List1B","white","man","","","","null","","","","","","","","",""
"10699.099999964237","","","survey-text","335","2486336","0.0-19.0-3.2","77585","List1B","white","man","","","","","{""Q0"":""Jane is being greeted by beth""}","<img src=""stim_listB/greet8.gif""style=""height:400px;""></stim_listB>","is being greeted by","","","","","",""
"null","<div style=""font-size:60px;"">+</div>","","html-keyboard-response","336","2486839","0.0-19.0-0.3","77585","List1B","white","man","","","","null","","","","","","","","",""
"null","<img src=""stim_listB/challenge5.gif""style=""height:400px;""></stim_listB>","","html-keyboard-response","337","2488845","0.0-19.0-1.3","77585","List1B","white","man","","","","null","","","","","","","","",""
"null","is challenging","","html-keyboard-response","338","2490851","0.0-19.0-2.3","77585","List1B","white","man","","","","null","","","","","","","","",""
"11714.199999988079","","","survey-text","339","2502587","0.0-19.0-3.3","77585","List1B","white","man","","","","","{""Q0"":""Mike is challenging luke""}","<img src=""stim_listB/challenge5.gif""style=""height:400px;""></stim_listB>","is challenging","","","","","",""
"null","<div style=""font-size:60px;"">+</div>","","html-keyboard-response","340","2503091","0.0-19.0-0.4","77585","List1B","white","man","","","","null","","","","","","","","",""
"null","<img src=""stim_listB/oppose4.gif""style=""height:400px;""></stim_listB>","","html-keyboard-response","341","2505095","0.0-19.0-1.4","77585","List1B","white","man","","","","null","","","","","","","","",""
"null","is being opposed by","","html-keyboard-response","342","2507098","0.0-19.0-2.4","77585","List1B","white","man","","","","null","","","","","","","","",""
"10987.099999964237","","","survey-text","343","2518097","0.0-19.0-3.4","77585","List1B","white","man","","","","","{""Q0"":""Ruth is being opposed by luke""}","<img src=""stim_listB/oppose4.gif""style=""height:400px;""></stim_listB>","is being opposed by","","","","","",""
"null","<div style=""font-size:60px;"">+</div>","","html-keyboard-response","344","2518601","0.0-19.0-0.5","77585","List1B","white","man","","","","null","","","","","","","","",""
"null","<img src=""stim_listB/copy2.gif""style=""height:400px;""></stim_listB>","","html-keyboard-response","345","2520605","0.0-19.0-1.5","77585","List1B","white","man","","","","null","","","","","","","","",""
"null","is being copied by","","html-keyboard-response","346","2523366","0.0-19.0-2.5","77585","List1B","white","man","","","","null","","","","","","","","",""
"32891.69999998808","","","survey-text","347","2556271","0.0-19.0-3.5","77585","List1B","white","man","","","","","{""Q0"":""Kate is being copied by Fred""}","<img src=""stim_listB/copy2.gif""style=""height:400px;""></stim_listB>","is being copied by","","","","","",""
"null","<div style=""font-size:60px;"">+</div>","","html-keyboard-response","348","2556775","0.0-19.0-0.6","77585","List1B","white","man","","","","null","","","","","","","","",""
"null","<img src=""stim_listB/look7.gif""style=""height:400px;""></stim_listB>","","html-keyboard-response","349","2558780","0.0-19.0-1.6","77585","List1B","white","man","","","","null","","","","","","","","",""
"null","is looking at","","html-keyboard-response","350","2561368","0.0-19.0-2.6","77585","List1B","white","man","","","","null","","","","","","","","",""
"11658","","","survey-text","351","2573038","0.0-19.0-3.6","77585","List1B","white","man","","","","","{""Q0"":""Beth is looking at jane""}","<img src=""stim_listB/look7.gif""style=""height:400px;""></stim_listB>","is looking at","","","","","",""
"null","<div style=""font-size:60px;"">+</div>","","html-keyboard-response","352","2573542","0.0-19.0-0.7","77585","List1B","white","man","","","","null","","","","","","","","",""
"null","<img src=""stim_listB/look3.gif""style=""height:400px;""></stim_listB>","","html-keyboard-response","353","2575547","0.0-19.0-1.7","77585","List1B","white","man","","","","null","","","","","","","","",""
"null","is looking at","","html-keyboard-response","354","2577551","0.0-19.0-2.7","77585","List1B","white","man","","","","null","","","","","","","","",""
"10617.400000035763","","","survey-text","355","2588179","0.0-19.0-3.7","77585","List1B","white","man","","","","","{""Q0"":""Luke is looking at jane""}","<img src=""stim_listB/look3.gif""style=""height:400px;""></stim_listB>","is looking at","","","","","",""
"null","<div style=""font-size:60px;"">+</div>","","html-keyboard-response","356","2588683","0.0-19.0-0.8","77585","List1B","white","man","","","","null","","","","","","","","",""
"null","<img src=""stim_listB/seduce3.gif""style=""height:400px;""></stim_listB>","","html-keyboard-response","357","2590689","0.0-19.0-1.8","77585","List1B","white","man","","","","null","","","","","","","","",""
"null","is seducing","","html-keyboard-response","358","2592696","0.0-19.0-2.8","77585","List1B","white","man","","","","null","","","","","","","","",""
"15448.300000011921","","","survey-text","359","2608167","0.0-19.0-3.8","77585","List1B","white","man","","","","","{""Q0"":""Luke is seducing Ruth""}","<img src=""stim_listB/seduce3.gif""style=""height:400px;""></stim_listB>","is seducing","","","","","",""
"null","<div style=""font-size:60px;"">+</div>","","html-keyboard-response","360","2608671","0.0-19.0-0.9","77585","List1B","white","man","","","","null","","","","","","","","",""
"null","<img src=""stim_listB/touch2.gif""style=""height:400px;""></stim_listB>","","html-keyboard-response","361","2610676","0.0-19.0-1.9","77585","List1B","white","man","","","","null","","","","","","","","",""
"null","is being touched by","","html-keyboard-response","362","2612680","0.0-19.0-2.9","77585","List1B","white","man","","","","null","","","","","","","","",""
"12619.199999988079","","","survey-text","363","2625317","0.0-19.0-3.9","77585","List1B","white","man","","","","","{""Q0"":""Beth is being touched by Fred""}","<img src=""stim_listB/touch2.gif""style=""height:400px;""></stim_listB>","is being touched by","","","","","",""
"null","<div style=""font-size:60px;"">+</div>","","html-keyboard-response","364","2625821","0.0-19.0-0.10","77585","List1B","white","man","","","","null","","","","","","","","",""
"null","<img src=""stim_listB/shout3.gif""style=""height:400px;""></stim_listB>","","html-keyboard-response","365","2627826","0.0-19.0-1.10","77585","List1B","white","man","","","","null","","","","","","","","",""
"null","is shouting at","","html-keyboard-response","366","2629830","0.0-19.0-2.10","77585","List1B","white","man","","","","null","","","","","","","","",""
"9170.199999988079","","","survey-text","367","2639022","0.0-19.0-3.10","77585","List1B","white","man","","","","","{""Q0"":""Luke is shouting at Ruth""}","<img src=""stim_listB/shout3.gif""style=""height:400px;""></stim_listB>","is shouting at","","","","","",""
"null","<div style=""font-size:60px;"">+</div>","","html-keyboard-response","368","2639526","0.0-19.0-0.11","77585","List1B","white","man","","","","null","","","","","","","","",""
"null","<img src=""stim_listB/kiss4.gif""style=""height:400px;""></stim_listB>","","html-keyboard-response","369","2641531","0.0-19.0-1.11","77585","List1B","white","man","","","","null","","","","","","","","",""
"null","is being kissed by","","html-keyboard-response","370","2643536","0.0-19.0-2.11","77585","List1B","white","man","","","","null","","","","","","","","",""
"8498","","","survey-text","371","2652058","0.0-19.0-3.11","77585","List1B","white","man","","","","","{""Q0"":""Jane is being kissed by dave""}","<img src=""stim_listB/kiss4.gif""style=""height:400px;""></stim_listB>","is being kissed by","","","","","",""
"null","<div style=""font-size:60px;"">+</div>","","html-keyboard-response","372","2652562","0.0-19.0-0.12","77585","List1B","white","man","","","","null","","","","","","","","",""
"null","<img src=""stim_listB/hug1.gif""style=""height:400px;""></stim_listB>","","html-keyboard-response","373","2654566","0.0-19.0-1.12","77585","List1B","white","man","","","","null","","","","","","","","",""
"null","is hugging","","html-keyboard-response","374","2656574","0.0-19.0-2.12","77585","List1B","white","man","","","","null","","","","","","","","",""
"12486.199999988079","","","survey-text","375","2669074","0.0-19.0-3.12","77585","List1B","white","man","","","","","{""Q0"":""Fred is hugging beth""}","<img src=""stim_listB/hug1.gif""style=""height:400px;""></stim_listB>","is hugging","","","","","",""
"null","<div style=""font-size:60px;"">+</div>","","html-keyboard-response","376","2669578","0.0-19.0-0.13","77585","List1B","white","man","","","","null","","","","","","","","",""
"null","<img src=""stim_listB/look8.gif""style=""height:400px;""></stim_listB>","","html-keyboard-response","377","2671584","0.0-19.0-1.13","77585","List1B","white","man","","","","null","","","","","","","","",""
"null","is being looked at by","","html-keyboard-response","378","2673591","0.0-19.0-2.13","77585","List1B","white","man","","","","null","","","","","","","","",""
"14765.399999976158","","","survey-text","379","2688379","0.0-19.0-3.13","77585","List1B","white","man","","","","","{""Q0"":""Jane is being looked at by kate""}","<img src=""stim_listB/look8.gif""style=""height:400px;""></stim_listB>","is being looked at by","","","","","",""
"null","<div style=""font-size:60px;"">+</div>","","html-keyboard-response","380","2688883","0.0-19.0-0.14","77585","List1B","white","man","","","","null","","","","","","","","",""
"null","<img src=""stim_listB/challenge2.gif""style=""height:400px;""></stim_listB>","","html-keyboard-response","381","2690888","0.0-19.0-1.14","77585","List1B","white","man","","","","null","","","","","","","","",""
"null","is being challenged by","","html-keyboard-response","382","2692891","0.0-19.0-2.14","77585","List1B","white","man","","","","null","","","","","","","","",""
"10042.199999988079","","","survey-text","383","2702951","0.0-19.0-3.14","77585","List1B","white","man","","","","","{""Q0"":""Kate is being challenged by Fred""}","<img src=""stim_listB/challenge2.gif""style=""height:400px;""></stim_listB>","is being challenged by","","","","","",""
"null","<div style=""font-size:60px;"">+</div>","","html-keyboard-response","384","2703455","0.0-19.0-0.15","77585","List1B","white","man","","","","null","","","","","","","","",""
"null","<img src=""stim_listB/greet3.gif""style=""height:400px;""></stim_listB>","","html-keyboard-response","385","2705461","0.0-19.0-1.15","77585","List1B","white","man","","","","null","","","","","","","","",""
"null","is greeting","","html-keyboard-response","386","2707467","0.0-19.0-2.15","77585","List1B","white","man","","","","null","","","","","","","","",""
"7350.399999976158","","","survey-text","387","2714838","0.0-19.0-3.15","77585","List1B","white","man","","","","","{""Q0"":""Dave is greeting Ruth""}","<img src=""stim_listB/greet3.gif""style=""height:400px;""></stim_listB>","is greeting","","","","","",""
"null","<div style=""font-size:60px;"">+</div>","","html-keyboard-response","388","2715342","0.0-19.0-0.16","77585","List1B","white","man","","","","null","","","","","","","","",""
"null","<img src=""stim_listB/copy3.gif""style=""height:400px;""></stim_listB>","","html-keyboard-response","389","2717348","0.0-19.0-1.16","77585","List1B","white","man","","","","null","","","","","","","","",""
"null","is copying","","html-keyboard-response","390","2719371","0.0-19.0-2.16","77585","List1B","white","man","","","","null","","","","","","","","",""
"14725.5","","","survey-text","391","2734105","0.0-19.0-3.16","77585","List1B","white","man","","","","","{""Q0"":""Dave is copying Ruth""}","<img src=""stim_listB/copy3.gif""style=""height:400px;""></stim_listB>","is copying","","","","","",""
"null","<div style=""font-size:60px;"">+</div>","","html-keyboard-response","392","2734608","0.0-19.0-0.17","77585","List1B","white","man","","","","null","","","","","","","","",""
"null","<img src=""stim_listB/copy8.gif""style=""height:400px;""></stim_listB>","","html-keyboard-response","393","2736614","0.0-19.0-1.17","77585","List1B","white","man","","","","null","","","","","","","","",""
"null","is being copied by","","html-keyboard-response","394","2738620","0.0-19.0-2.17","77585","List1B","white","man","","","","null","","","","","","","","",""
"16656.599999964237","","","survey-text","395","2755300","0.0-19.0-3.17","77585","List1B","white","man","","","","","{""Q0"":""Jane is being copied by kate""}","<img src=""stim_listB/copy8.gif""style=""height:400px;""></stim_listB>","is being copied by","","","","","",""
"null","<div style=""font-size:60px;"">+</div>","","html-keyboard-response","396","2755804","0.0-19.0-0.18","77585","List1B","white","man","","","","null","","","","","","","","",""
"null","<img src=""stim_listB/touch4.gif""style=""height:400px;""></stim_listB>","","html-keyboard-response","397","2757810","0.0-19.0-1.18","77585","List1B","white","man","","","","null","","","","","","","","",""
"null","is being touched by","","html-keyboard-response","398","2759815","0.0-19.0-2.18","77585","List1B","white","man","","","","null","","","","","","","","",""
"10705.800000011921","","","survey-text","399","2770544","0.0-19.0-3.18","77585","List1B","white","man","","","","","{""Q0"":""Ruth is being touched by luke""}","<img src=""stim_listB/touch4.gif""style=""height:400px;""></stim_listB>","is being touched by","","","","","",""
"null","<div style=""font-size:60px;"">+</div>","","html-keyboard-response","400","2771049","0.0-19.0-0.19","77585","List1B","white","man","","","","null","","","","","","","","",""
"null","<img src=""stim_listB/oppose8.gif""style=""height:400px;""></stim_listB>","","html-keyboard-response","401","2773054","0.0-19.0-1.19","77585","List1B","white","man","","","","null","","","","","","","","",""
"null","is being opposed by","","html-keyboard-response","402","2775060","0.0-19.0-2.19","77585","List1B","white","man","","","","null","","","","","","","","",""
"11957.800000011921","","","survey-text","403","2787040","0.0-19.0-3.19","77585","List1B","white","man","","","","","{""Q0"":""Ruth is being opposed by Beth""}","<img src=""stim_listB/oppose8.gif""style=""height:400px;""></stim_listB>","is being opposed by","","","","","",""
"3884.599999964237","<p>Thank you for completing that task.</p><p>The final part of this session is a questionnaire that will take about 4 minutes.</p><p>Press Continue.</p>","0","html-button-response","404","2790929","0.0-20.0","77585","List1B","white","man","","","","","","","","","","","","",""
"122307.90000003576","","","survey-text","405","2914267","0.0-21.0","77585","List1B","white","man","","","","","{""Q0"":""29"",""Q1"":""English"",""Q2"":""English"",""Q3"":""United States"",""Q4"":""United States"",""Q5"":""White"",""Q6"":""Male""}","","","demographics","","","","",""
"59593.60000002384","<p>Have you lived in the USA for the last 5 years or more?</p>","0","html-button-response","406","2973868","0.0-22.0","77585","List1B","white","man","","","","","","","","fiveyears","","","","",""
"5692.5","<p>Move the slider to show the extent to which you agree with the following statements.</p>","0","html-button-response","407","2980567","0.0-23.0","77585","List1B","white","man","","","","","","","","","","","","",""
"49549.69999998808","","","html-slider-response","408","3031127","0.0-24.0-0.0-0.0","77585","List1B","white","man","","","","","","","","survey_race","0","","","My age is not an important part of who I am.","filler"
"8800.400000035763","","","html-slider-response","409","3039935","0.0-24.0-0.0-0.1","77585","List1B","white","man","","","","","","","","survey_race","100","","","I have a lot in common with people of a similar age to me.","filler"
"7497.800000011921","","","html-slider-response","410","3047439","0.0-24.0-0.0-0.2","77585","List1B","white","man","","","","","","","","survey_race","100","","","Being my race is an important part of how I see myself.","important"
"5810.5","","","html-slider-response","411","3053256","0.0-24.0-0.0-0.3","77585","List1B","white","man","","","","","","","","survey_race","100","","","I am similar to the average person of my race.","similar"
"3050.7000000476837","","","html-slider-response","412","3056313","0.0-24.0-0.0-0.4","77585","List1B","white","man","","","","","","","","survey_race","100","","","The older I get, the wiser I feel.","filler"
"2552.599999964237","","","html-slider-response","413","3058872","0.0-24.0-0.0-0.5","77585","List1B","white","man","","","","","","","","survey_race","100","","","I am glad to be my age.","filler"
"7282.5","","","html-slider-response","414","3066160","0.0-24.0-0.0-0.6","77585","List1B","white","man","","","","","","","","survey_race","100","","","I enjoy being in large groups.","filler"
"18796.099999964237","","","html-slider-response","415","3084963","0.0-24.0-0.0-0.7","77585","List1B","white","man","","","","","","","","survey_race","100","","","I feel solidarity with my race.","solidarity"
"27788.600000023842","","","html-slider-response","416","3112758","0.0-24.0-0.0-0.8","77585","List1B","white","man","","","","","","","","survey_race","100","","","I consider myself an extrovert.","filler"
"20650.80000001192","","","html-slider-response","417","3133416","0.0-24.0-0.0-0.9","77585","List1B","white","man","","","","","","","","survey_race","100","","","People of my race are very similar to each other.","verysimilar"
"3299.899999976158","","","html-slider-response","418","3136723","0.0-24.0-0.0-0.10","77585","List1B","white","man","","","","","","","","survey_race","100","","","It is pleasant to be my race.","pleasant"
"14638.199999988079","","","html-slider-response","419","3151366","0.0-24.0-0.0-0.11","77585","List1B","white","man","","","","","","","","survey_race","0","","","I consider myself an introvert.","filler"
"3168.5","","","html-slider-response","420","3154541","0.0-24.0-0.0-0.12","77585","List1B","white","man","","","","","","","","survey_race","100","","","I feel a bond with my race.","bond"
"3806.300000011921","","","html-slider-response","421","3158353","0.0-24.0-0.0-0.13","77585","List1B","white","man","","","","","","","","survey_race","100","","","I feel a bond with people the same age as me.","filler"
"3235.600000023842","","","html-slider-response","422","3161595","0.0-24.0-0.0-0.14","77585","List1B","white","man","","","","","","","","survey_race","99","","","Being my race gives me a good feeling.","feeling"
"3652.300000011921","","","html-slider-response","423","3165253","0.0-24.0-0.0-0.15","77585","List1B","white","man","","","","","","","","survey_race","100","","","People of my race have a lot in common with each other.","common"
"6784.799999952316","","","html-slider-response","424","3172043","0.0-24.0-0.0-0.16","77585","List1B","white","man","","","","","","","","survey_race","100","","","I feel solidarity with people the same age as me.","filler"
"3216.800000011921","","","html-slider-response","425","3175267","0.0-24.0-0.0-0.17","77585","List1B","white","man","","","","","","","","survey_race","100","","","Being my age gives me a good feeling.","filler"
"2670.400000035763","","","html-slider-response","426","3177942","0.0-24.0-0.0-0.18","77585","List1B","white","man","","","","","","","","survey_race","100","","","I am glad to be my race.","glad"
"3336.800000011921","","","html-slider-response","427","3181284","0.0-24.0-0.0-0.19","77585","List1B","white","man","","","","","","","","survey_race","100","","","I am glad to be the age I am.","filler"
"3203.100000023842","","","html-slider-response","428","3184493","0.0-24.0-0.0-0.20","77585","List1B","white","man","","","","","","","","survey_race","100","","","I feel committed to my race.","committed"
"7950.800000011921","","","html-slider-response","429","3192450","0.0-24.0-0.0-0.21","77585","List1B","white","man","","","","","","","","survey_race","100","","","The fact that I am my race is an important part of my identity.","identity"
"3902.699999988079","","","html-slider-response","430","3196359","0.0-24.0-0.0-0.22","77585","List1B","white","man","","","","","","","","survey_race","100","","","People my age have a lot in common with each other.","filler"
"7040.5","","","html-slider-response","431","3203405","0.0-24.0-0.0-0.23","77585","List1B","white","man","","","","","","","","survey_race","100","","","I often think about the fact that I am my race.","often"
"3060.7000000476837","","","html-slider-response","432","3206472","0.0-24.0-0.0-0.24","77585","List1B","white","man","","","","","","","","survey_race","100","","","Getting older does not worry me.","filler"
"10443","","","html-slider-response","433","3216920","0.0-24.0-0.0-0.25","77585","List1B","white","man","","","","","","","","survey_race","100","","","I often think about the fact that I am my age.","filler"
"3803.199999988079","","","html-slider-response","434","3220730","0.0-24.0-0.0-0.26","77585","List1B","white","man","","","","","","","","survey_race","100","","","I think that my race has a lot to be proud of.","proud"
"3051.800000011921","","","html-slider-response","435","3223787","0.0-24.0-0.0-0.27","77585","List1B","white","man","","","","","","","","survey_race","100","","","I have a lot in common with the average person of my race.","average"
"15940.400000035763","","","html-slider-response","436","3239734","0.0-24.0-1.0-0.0","77585","List1B","white","man","","","","","","","","survey_gender","100","","","I feel a bond with my gender.","bond"
"23474.30000001192","","","html-slider-response","437","3263215","0.0-24.0-1.0-0.1","77585","List1B","white","man","","","","","","","","survey_gender","0","","","Routine is not important to me.","filler"
"4773.5","","","html-slider-response","438","3267995","0.0-24.0-1.0-0.2","77585","List1B","white","man","","","","","","","","survey_gender","100","","","Being my gender is an important part of how I see myself.","important"
"2518.399999976158","","","html-slider-response","439","3270519","0.0-24.0-1.0-0.3","77585","List1B","white","man","","","","","","","","survey_gender","100","","","I have a lot in common with my friends.","filler"
"5059.899999976158","","","html-slider-response","440","3275585","0.0-24.0-1.0-0.4","77585","List1B","white","man","","","","","","","","survey_gender","100","","","The fact that I am my gender is an important part of my identity.","identity"
"3521.2000000476837","","","html-slider-response","441","3279112","0.0-24.0-1.0-0.5","77585","List1B","white","man","","","","","","","","survey_gender","100","","","It is pleasant to be my gender.","pleasant"
"2769.300000011921","","","html-slider-response","442","3281887","0.0-24.0-1.0-0.6","77585","List1B","white","man","","","","","","","","survey_gender","100","","","People of my gender are very similar to each other.","verysimilar"
"3084.300000011921","","","html-slider-response","443","3284977","0.0-24.0-1.0-0.7","77585","List1B","white","man","","","","","","","","survey_gender","100","","","I am similar to the average person of my gender.","similar"
"15571.799999952316","","","html-slider-response","444","3300554","0.0-24.0-1.0-0.8","77585","List1B","white","man","","","","","","","","survey_gender","100","","","I consider myself a highly empathetic person.","filler"
"2583.699999988079","","","html-slider-response","445","3303145","0.0-24.0-1.0-0.9","77585","List1B","white","man","","","","","","","","survey_gender","100","","","Being my gender gives me a good feeling.","feeling"
"1999.6000000238419","","","html-slider-response","446","3305149","0.0-24.0-1.0-0.10","77585","List1B","white","man","","","","","","","","survey_gender","100","","","My friends understand me.","filler"
"2553.600000023842","","","html-slider-response","447","3307708","0.0-24.0-1.0-0.11","77585","List1B","white","man","","","","","","","","survey_gender","100","","","I feel solidarity with my gender.","solidarity"
"1815.4000000357628","","","html-slider-response","448","3309529","0.0-24.0-1.0-0.12","77585","List1B","white","man","","","","","","","","survey_gender","100","","","I feel a bond with my friends.","filler"
"16024.099999964237","","","html-slider-response","449","3325559","0.0-24.0-1.0-0.13","77585","List1B","white","man","","","","","","","","survey_gender","100","","","It is not always easy for people to know what I am thinking.","filler"
"5827.900000035763","","","html-slider-response","450","3331393","0.0-24.0-1.0-0.14","77585","List1B","white","man","","","","","","","","survey_gender","100","","","Being around my friends gives me a good feeling.","filler"
"2383.5","","","html-slider-response","451","3333782","0.0-24.0-1.0-0.15","77585","List1B","white","man","","","","","","","","survey_gender","100","","","I feel solidarity with my friends.","filler"
"3101.599999964237","","","html-slider-response","452","3336890","0.0-24.0-1.0-0.16","77585","List1B","white","man","","","","","","","","survey_gender","100","","","Most of the friends in my life are very similar to me.","filler"
"4507.699999988079","","","html-slider-response","453","3341404","0.0-24.0-1.0-0.17","77585","List1B","white","man","","","","","","","","survey_gender","100","","","I think that my gender has a lot to be proud of.","proud"
"6077.900000035763","","","html-slider-response","454","3347487","0.0-24.0-1.0-0.18","77585","List1B","white","man","","","","","","","","survey_gender","0","","","Family is not more important to me than friendship.","filler"
"2735.2999999523163","","","html-slider-response","455","3350228","0.0-24.0-1.0-0.19","77585","List1B","white","man","","","","","","","","survey_gender","100","","","My friends have a lot in common with each other.","filler"
"5477.600000023842","","","html-slider-response","456","3355712","0.0-24.0-1.0-0.20","77585","List1B","white","man","","","","","","","","survey_gender","100","","","I often think about the fact that I am my gender.","often"
"1913.699999988079","","","html-slider-response","457","3357633","0.0-24.0-1.0-0.21","77585","List1B","white","man","","","","","","","","survey_gender","100","","","I am glad to be my gender.","glad"
"3185.900000035763","","","html-slider-response","458","3360825","0.0-24.0-1.0-0.22","77585","List1B","white","man","","","","","","","","survey_gender","100","","","I have a lot in common with the average person of my gender.","average"
"2082.600000023842","","","html-slider-response","459","3362913","0.0-24.0-1.0-0.23","77585","List1B","white","man","","","","","","","","survey_gender","100","","","I often think about my actions.","filler"
"2751.900000035763","","","html-slider-response","460","3365670","0.0-24.0-1.0-0.24","77585","List1B","white","man","","","","","","","","survey_gender","100","","","People of my gender have a lot in common with each other.","common"
"729228.1999999881","","","html-slider-response","461","4094905","0.0-24.0-1.0-0.25","77585","List1B","white","man","","","","","","","","survey_gender","69","","","I would say I am an animal person.","filler"
"3428.600000023842","","","html-slider-response","462","4098361","0.0-24.0-1.0-0.26","77585","List1B","white","man","","","","","","","","survey_gender","100","","","I am glad to have the friends that I have.","filler"
"2417.100000023842","","","html-slider-response","463","4100784","0.0-24.0-1.0-0.27","77585","List1B","white","man","","","","","","","","survey_gender","100","","","I feel committed to my gender.","committed"
"17195.400000035763","","","survey-text","464","4118005","0.0-25.0","77585","List1B","white","man","","","","","{""Q0"":""6148d467883d36b1dc53ec29""}","","","worker_id","","","","",""
"31814.399999976158","","","external-html","465","4150392","0.0-26.0","77585","List1B","white","man","debrief.html","","","","","","","","","","","",""
