rt,stimulus,button_pressed,trial_type,trial_index,time_elapsed,internal_node_id,subject,list,ppt_race,ppt_gender,url,first_guess,correct,key_press,responses,image_type,phrase_type,test_part,response,stimulus1,stimulus2,question_type,survey_item
18384.7,Welcome to the experiment. Press Continue to begin.,0,html-button-response,0,18392,0.0-0.0,77587,List2B,black,man,,,,,,,,,,,,,
191588.3,,,external-html,1,213364,0.0-1.0,77587,List2B,black,man,consent.html,,,,,,,,,,,,
95892.4,"<p>On the next page, you will see portraits of 8 people and their names.</p><p>Your first task is to take a few minutes to memorise the names of these people.</p><p>You will have to recall their names during the rest of the experiment, so it is</p><p>essential that you try to memorise these people and their names as best as you can.</p><br><p><strong>You will then be tested on your memory of these names and portraits.</strong></p><br><p>The experiment will start after you have completed this memory test.</p><br><p>Ready?</p>",0,html-button-response,2,309259,0.0-2.0,77587,List2B,black,man,,,,,,,,,,,,,
29827.2,"<img src='img/portrait_matrix_list2.jpg' style='width:900px;height:500px;''></img><p>If you have memorised all the portraits and names and are ready to start, press Continue.</p><p><strong>Please note: Your memory of these faces will be tested 4 times during this experiment.</strong></p>",0,html-button-response,3,340096,0.0-3.0-0.0,77587,List2B,black,man,,,,,,,,,,,,,
14153.7,"<img src=""portrait/BW1.jpg""style=""height:400px;""></img>",0,html-button-response,4,355257,0.0-3.0-1.0,77587,List2B,black,man,,TRUE,0,,,,,,,,,,
null,CORRECT,,html-keyboard-response,5,356766,0.0-3.0-2.0-0.0,77587,List2B,black,man,,,,null,,,,,,,,,
8111.6,"<img src=""portrait/WM2.jpg""style=""height:400px;""></img>",7,html-button-response,6,364881,0.0-3.0-4.0,77587,List2B,black,man,,TRUE,7,,,,,,,,,,
null,CORRECT,,html-keyboard-response,7,366388,0.0-3.0-5.0-0.0,77587,List2B,black,man,,,,null,,,,,,,,,
6215.2,"<img src=""portrait/WM1.jpg""style=""height:400px;""></img>",6,html-button-response,8,372606,0.0-3.0-7.0,77587,List2B,black,man,,TRUE,6,,,,,,,,,,
null,CORRECT,,html-keyboard-response,9,374122,0.0-3.0-8.0-0.0,77587,List2B,black,man,,,,null,,,,,,,,,
6476.9,"<img src=""portrait/BM1.jpg""style=""height:400px;""></img>",4,html-button-response,10,380602,0.0-3.0-10.0,77587,List2B,black,man,,TRUE,4,,,,,,,,,,
null,CORRECT,,html-keyboard-response,11,382119,0.0-3.0-11.0-0.0,77587,List2B,black,man,,,,null,,,,,,,,,
5171.7,"<img src=""portrait/BW2.jpg""style=""height:400px;""></img>",2,html-button-response,12,387293,0.0-3.0-13.0,77587,List2B,black,man,,TRUE,2,,,,,,,,,,
null,CORRECT,,html-keyboard-response,13,388811,0.0-3.0-14.0-0.0,77587,List2B,black,man,,,,null,,,,,,,,,
5621.7,"<img src=""portrait/WW2.jpg""style=""height:400px;""></img>",3,html-button-response,14,394436,0.0-3.0-16.0,77587,List2B,black,man,,TRUE,3,,,,,,,,,,
null,CORRECT,,html-keyboard-response,15,395944,0.0-3.0-17.0-0.0,77587,List2B,black,man,,,,null,,,,,,,,,
4972,"<img src=""portrait/WW1.jpg""style=""height:400px;""></img>",1,html-button-response,16,400917,0.0-3.0-19.0,77587,List2B,black,man,,TRUE,1,,,,,,,,,,
null,CORRECT,,html-keyboard-response,17,402438,0.0-3.0-20.0-0.0,77587,List2B,black,man,,,,null,,,,,,,,,
8561.8,"<img src=""portrait/BM2.jpg""style=""height:400px;""></img>",5,html-button-response,18,411002,0.0-3.0-22.0,77587,List2B,black,man,,TRUE,5,,,,,,,,,,
null,CORRECT,,html-keyboard-response,19,412514,0.0-3.0-23.0-0.0,77587,List2B,black,man,,,,null,,,,,,,,,
5227.8,<p>You got 8 out of 8 right first time. Press Continue.</p>,0,html-button-response,20,417744,0.0-3.0-25.0,77587,List2B,black,man,,,,,,,,,,,,,
239951.4,"<p>In this experiment, you will view photographs of the people from the memory game interacting.</p><p>By using the <strong>exact</strong> phrase given <i>after</i> the photograph appears and recalling the correct names of the people in the photographs, form a sentence describing the interaction. You do not need to capitalise names.</p><p>Type your answer in the space provided. Please complete every sentence before moving onto the next trial.</p><p>You will only have a few seconds to memorise each given photograph and phrase before you can respond, so try your best to focus.</p><p>An example is given below. Press 'Continue' when you are ready.</p><img src='img/speaking_example.jpg' style='width:800px;height:460px;''></img>",0,html-button-response,21,658709,0.0-4.0,77587,List2B,black,man,,,,,,,,,,,,,
6287.5,"<p>Before the experiment starts, you will watch two example trials. Press 'Continue'.</p>",0,html-button-response,22,666014,0.0-5.0,77587,List2B,black,man,,,,,,,,,,,,,
null,<img src='img/play_eg.gif' style='height:400px;''></img>,,html-keyboard-response,23,669018,0.0-6.0,77587,List2B,black,man,,,,null,,,,,,,,,
null,<p>is playing with</p>,,html-keyboard-response,24,671023,0.0-7.0,77587,List2B,black,man,,,,null,,,,,,,,,
3926.2,<p><b>Answer:</b> jane is playing with ruth</p>,0,html-button-response,25,674951,0.0-8.0,77587,List2B,black,man,,,,,,,,,,,,,
null,<img src='img/dance_eg.gif' style='height:400px;''></img>,,html-keyboard-response,26,677962,0.0-9.0,77587,List2B,black,man,,,,null,,,,,,,,,
null,<p>is being entertained by</p>,,html-keyboard-response,27,679972,0.0-10.0,77587,List2B,black,man,,,,null,,,,,,,,,
4462.9,<p><b>Answer:</b> fred is being entertained by mike</p>,0,html-button-response,28,684437,0.0-11.0,77587,List2B,black,man,,,,,,,,,,,,,
19800.4,"<p>Ready to start the experiment?</p><br><p><strong>Remember to describe the picture using a full sentence,</strong></p><p><strong>that combines the names of the people with the <i>exact</i> phrase given.</strong></p><p><strong>To receive full payment you must do this correctly.</strong></p><p><strong> You do not need to capitalise names or use punctuation.</strong></p><br><p>Press 'Continue' to begin.</p>",0,html-button-response,29,705245,0.0-12.0,77587,List2B,black,man,,,,,,,,,,,,,
null,"<div style=""font-size:60px;"">+</div>",,html-keyboard-response,30,706751,0.0-13.0-0.0,77587,List2B,black,man,,,,null,,,,,,,,,
null,"<img src=""stim_listB/seduce6.gif""style=""height:400px;""></stim_listB>",,html-keyboard-response,31,708762,0.0-13.0-1.0,77587,List2B,black,man,,,,null,,,,,,,,,
null,is being seduced by,,html-keyboard-response,32,710768,0.0-13.0-2.0,77587,List2B,black,man,,,,null,,,,,,,,,
22084.7,,,survey-text,33,732859,0.0-13.0-3.0,77587,List2B,black,man,,,,,"{""Q0"":""fred""}","<img src=""stim_listB/seduce6.gif""style=""height:400px;""></stim_listB>",is being seduced by,,,,,,
null,"<div style=""font-size:60px;"">+</div>",,html-keyboard-response,34,733375,0.0-13.0-0.1,77587,List2B,black,man,,,,null,,,,,,,,,
null,"<img src=""stim_listB/touch7.gif""style=""height:400px;""></stim_listB>",,html-keyboard-response,35,735379,0.0-13.0-1.1,77587,List2B,black,man,,,,null,,,,,,,,,
null,is touching,,html-keyboard-response,36,737387,0.0-13.0-2.1,77587,List2B,black,man,,,,null,,,,,,,,,
28881,,,survey-text,37,766270,0.0-13.0-3.1,77587,List2B,black,man,,,,,"{""Q0"":""kate is touching ruth""}","<img src=""stim_listB/touch7.gif""style=""height:400px;""></stim_listB>",is touching,,,,,,
null,"<div style=""font-size:60px;"">+</div>",,html-keyboard-response,38,766772,0.0-13.0-0.2,77587,List2B,black,man,,,,null,,,,,,,,,
null,"<img src=""stim_listB/look3.gif""style=""height:400px;""></stim_listB>",,html-keyboard-response,39,768778,0.0-13.0-1.2,77587,List2B,black,man,,,,null,,,,,,,,,
null,is looking at,,html-keyboard-response,40,770793,0.0-13.0-2.2,77587,List2B,black,man,,,,null,,,,,,,,,
24966.1,,,survey-text,41,795763,0.0-13.0-3.2,77587,List2B,black,man,,,,,"{""Q0"":""Fred is looking at Beth""}","<img src=""stim_listB/look3.gif""style=""height:400px;""></stim_listB>",is looking at,,,,,,
null,"<div style=""font-size:60px;"">+</div>",,html-keyboard-response,42,796265,0.0-13.0-0.3,77587,List2B,black,man,,,,null,,,,,,,,,
null,"<img src=""stim_listB/kiss3.gif""style=""height:400px;""></stim_listB>",,html-keyboard-response,43,798275,0.0-13.0-1.3,77587,List2B,black,man,,,,null,,,,,,,,,
null,is kissing,,html-keyboard-response,44,800277,0.0-13.0-2.3,77587,List2B,black,man,,,,null,,,,,,,,,
27651,,,survey-text,45,827932,0.0-13.0-3.3,77587,List2B,black,man,,,,,"{""Q0"":""Beth is kissing Fred""}","<img src=""stim_listB/kiss3.gif""style=""height:400px;""></stim_listB>",is kissing,,,,,,
null,"<div style=""font-size:60px;"">+</div>",,html-keyboard-response,46,828445,0.0-13.0-0.4,77587,List2B,black,man,,,,null,,,,,,,,,
null,"<img src=""stim_listB/challenge8.gif""style=""height:400px;""></stim_listB>",,html-keyboard-response,47,830453,0.0-13.0-1.4,77587,List2B,black,man,,,,null,,,,,,,,,
null,is being challenged by,,html-keyboard-response,48,832469,0.0-13.0-2.4,77587,List2B,black,man,,,,null,,,,,,,,,
19277.3,,,survey-text,49,851750,0.0-13.0-3.4,77587,List2B,black,man,,,,,"{""Q0"":""Jane is been challenged by Kate""}","<img src=""stim_listB/challenge8.gif""style=""height:400px;""></stim_listB>",is being challenged by,,,,,,
null,"<div style=""font-size:60px;"">+</div>",,html-keyboard-response,50,852265,0.0-13.0-0.5,77587,List2B,black,man,,,,null,,,,,,,,,
null,"<img src=""stim_listB/seduce2.gif""style=""height:400px;""></stim_listB>",,html-keyboard-response,51,854267,0.0-13.0-1.5,77587,List2B,black,man,,,,null,,,,,,,,,
null,is being seduced by,,html-keyboard-response,52,856277,0.0-13.0-2.5,77587,List2B,black,man,,,,null,,,,,,,,,
22831.3,,,survey-text,53,879113,0.0-13.0-3.5,77587,List2B,black,man,,,,,"{""Q0"":""Luke is been seduced by Jane""}","<img src=""stim_listB/seduce2.gif""style=""height:400px;""></stim_listB>",is being seduced by,,,,,,
null,"<div style=""font-size:60px;"">+</div>",,html-keyboard-response,54,879623,0.0-13.0-0.6,77587,List2B,black,man,,,,null,,,,,,,,,
null,"<img src=""stim_listB/kiss8.gif""style=""height:400px;""></stim_listB>",,html-keyboard-response,55,881629,0.0-13.0-1.6,77587,List2B,black,man,,,,null,,,,,,,,,
null,is being kissed by,,html-keyboard-response,56,883639,0.0-13.0-2.6,77587,List2B,black,man,,,,null,,,,,,,,,
15859.9,,,survey-text,57,899502,0.0-13.0-3.6,77587,List2B,black,man,,,,,"{""Q0"":""Jane is kissing Kate""}","<img src=""stim_listB/kiss8.gif""style=""height:400px;""></stim_listB>",is being kissed by,,,,,,
null,"<div style=""font-size:60px;"">+</div>",,html-keyboard-response,58,900020,0.0-13.0-0.7,77587,List2B,black,man,,,,null,,,,,,,,,
null,"<img src=""stim_listB/touch3.gif""style=""height:400px;""></stim_listB>",,html-keyboard-response,59,902037,0.0-13.0-1.7,77587,List2B,black,man,,,,null,,,,,,,,,
null,is touching,,html-keyboard-response,60,904051,0.0-13.0-2.7,77587,List2B,black,man,,,,null,,,,,,,,,
13612.9,,,survey-text,61,917668,0.0-13.0-3.7,77587,List2B,black,man,,,,,"{""Q0"":""Mike is touching Kate""}","<img src=""stim_listB/touch3.gif""style=""height:400px;""></stim_listB>",is touching,,,,,,
null,"<div style=""font-size:60px;"">+</div>",,html-keyboard-response,62,918183,0.0-13.0-0.8,77587,List2B,black,man,,,,null,,,,,,,,,
null,"<img src=""stim_listB/seduce5.gif""style=""height:400px;""></stim_listB>",,html-keyboard-response,63,920197,0.0-13.0-1.8,77587,List2B,black,man,,,,null,,,,,,,,,
null,is seducing,,html-keyboard-response,64,922214,0.0-13.0-2.8,77587,List2B,black,man,,,,null,,,,,,,,,
23252,,,survey-text,65,945469,0.0-13.0-3.8,77587,List2B,black,man,,,,,"{""Q0"":""Mike is looking Luke""}","<img src=""stim_listB/seduce5.gif""style=""height:400px;""></stim_listB>",is seducing,,,,,,
null,"<div style=""font-size:60px;"">+</div>",,html-keyboard-response,66,945986,0.0-13.0-0.9,77587,List2B,black,man,,,,null,,,,,,,,,
null,"<img src=""stim_listB/hug5.gif""style=""height:400px;""></stim_listB>",,html-keyboard-response,67,947989,0.0-13.0-1.9,77587,List2B,black,man,,,,null,,,,,,,,,
null,is hugging,,html-keyboard-response,68,950004,0.0-13.0-2.9,77587,List2B,black,man,,,,null,,,,,,,,,
17442.9,,,survey-text,69,967450,0.0-13.0-3.9,77587,List2B,black,man,,,,,"{""Q0"":""Mike is hugging Fred""}","<img src=""stim_listB/hug5.gif""style=""height:400px;""></stim_listB>",is hugging,,,,,,
null,"<div style=""font-size:60px;"">+</div>",,html-keyboard-response,70,967961,0.0-13.0-0.10,77587,List2B,black,man,,,,null,,,,,,,,,
null,"<img src=""stim_listB/challenge2.gif""style=""height:400px;""></stim_listB>",,html-keyboard-response,71,969967,0.0-13.0-1.10,77587,List2B,black,man,,,,null,,,,,,,,,
null,is being challenged by,,html-keyboard-response,72,971975,0.0-13.0-2.10,77587,List2B,black,man,,,,null,,,,,,,,,
23858,,,survey-text,73,995837,0.0-13.0-3.10,77587,List2B,black,man,,,,,"{""Q0"":""Luke is challenged by Jane""}","<img src=""stim_listB/challenge2.gif""style=""height:400px;""></stim_listB>",is being challenged by,,,,,,
null,"<div style=""font-size:60px;"">+</div>",,html-keyboard-response,74,996350,0.0-13.0-0.11,77587,List2B,black,man,,,,null,,,,,,,,,
null,"<img src=""stim_listB/challenge7.gif""style=""height:400px;""></stim_listB>",,html-keyboard-response,75,998365,0.0-13.0-1.11,77587,List2B,black,man,,,,null,,,,,,,,,
null,is challenging,,html-keyboard-response,76,1000370,0.0-13.0-2.11,77587,List2B,black,man,,,,null,,,,,,,,,
29735,,,survey-text,77,1030108,0.0-13.0-3.11,77587,List2B,black,man,,,,,"{""Q0"":""Kate is hugging Beth""}","<img src=""stim_listB/challenge7.gif""style=""height:400px;""></stim_listB>",is challenging,,,,,,
null,"<div style=""font-size:60px;"">+</div>",,html-keyboard-response,78,1030618,0.0-13.0-0.12,77587,List2B,black,man,,,,null,,,,,,,,,
null,"<img src=""stim_listB/touch6.gif""style=""height:400px;""></stim_listB>",,html-keyboard-response,79,1032626,0.0-13.0-1.12,77587,List2B,black,man,,,,null,,,,,,,,,
null,is being touched by,,html-keyboard-response,80,1034635,0.0-13.0-2.12,77587,List2B,black,man,,,,null,,,,,,,,,
68829,,,survey-text,81,1103467,0.0-13.0-3.12,77587,List2B,black,man,,,,,"{""Q0"":""Fred is being touched by Luke""}","<img src=""stim_listB/touch6.gif""style=""height:400px;""></stim_listB>",is being touched by,,,,,,
null,"<div style=""font-size:60px;"">+</div>",,html-keyboard-response,82,1103979,0.0-13.0-0.13,77587,List2B,black,man,,,,null,,,,,,,,,
null,"<img src=""stim_listB/kiss4.gif""style=""height:400px;""></stim_listB>",,html-keyboard-response,83,1105990,0.0-13.0-1.13,77587,List2B,black,man,,,,null,,,,,,,,,
null,is being kissed by,,html-keyboard-response,84,1107993,0.0-13.0-2.13,77587,List2B,black,man,,,,null,,,,,,,,,
22535.4,,,survey-text,85,1130531,0.0-13.0-3.13,77587,List2B,black,man,,,,,"{""Q0"":""Mike is kissing Kate""}","<img src=""stim_listB/kiss4.gif""style=""height:400px;""></stim_listB>",is being kissed by,,,,,,
null,"<div style=""font-size:60px;"">+</div>",,html-keyboard-response,86,1131042,0.0-13.0-0.14,77587,List2B,black,man,,,,null,,,,,,,,,
null,"<img src=""stim_listB/hug8.gif""style=""height:400px;""></stim_listB>",,html-keyboard-response,87,1133047,0.0-13.0-1.14,77587,List2B,black,man,,,,null,,,,,,,,,
null,is being hugged by,,html-keyboard-response,88,1135059,0.0-13.0-2.14,77587,List2B,black,man,,,,null,,,,,,,,,
43199.9,,,survey-text,89,1178262,0.0-13.0-3.14,77587,List2B,black,man,,,,,"{""Q0"":""Kate is hugging Jane""}","<img src=""stim_listB/hug8.gif""style=""height:400px;""></stim_listB>",is being hugged by,,,,,,
null,"<div style=""font-size:60px;"">+</div>",,html-keyboard-response,90,1178764,0.0-13.0-0.15,77587,List2B,black,man,,,,null,,,,,,,,,
null,"<img src=""stim_listB/oppose2.gif""style=""height:400px;""></stim_listB>",,html-keyboard-response,91,1180769,0.0-13.0-1.15,77587,List2B,black,man,,,,null,,,,,,,,,
null,is being opposed by,,html-keyboard-response,92,1182781,0.0-13.0-2.15,77587,List2B,black,man,,,,null,,,,,,,,,
14426.8,,,survey-text,93,1197211,0.0-13.0-3.15,77587,List2B,black,man,,,,,"{""Q0"":""Luke is opposed by Ruth""}","<img src=""stim_listB/oppose2.gif""style=""height:400px;""></stim_listB>",is being opposed by,,,,,,
null,"<div style=""font-size:60px;"">+</div>",,html-keyboard-response,94,1197721,0.0-13.0-0.16,77587,List2B,black,man,,,,null,,,,,,,,,
null,"<img src=""stim_listB/copy5.gif""style=""height:400px;""></stim_listB>",,html-keyboard-response,95,1199724,0.0-13.0-1.16,77587,List2B,black,man,,,,null,,,,,,,,,
null,is copying,,html-keyboard-response,96,1201726,0.0-13.0-2.16,77587,List2B,black,man,,,,null,,,,,,,,,
94613.9,,,survey-text,97,1296343,0.0-13.0-3.16,77587,List2B,black,man,,,,,"{""Q0"":""Dave is coping Jane""}","<img src=""stim_listB/copy5.gif""style=""height:400px;""></stim_listB>",is copying,,,,,,
null,"<div style=""font-size:60px;"">+</div>",,html-keyboard-response,98,1296847,0.0-13.0-0.17,77587,List2B,black,man,,,,null,,,,,,,,,
null,"<img src=""stim_listB/touch4.gif""style=""height:400px;""></stim_listB>",,html-keyboard-response,99,1298854,0.0-13.0-1.17,77587,List2B,black,man,,,,null,,,,,,,,,
null,is being touched by,,html-keyboard-response,100,1300869,0.0-13.0-2.17,77587,List2B,black,man,,,,null,,,,,,,,,
17521.1,,,survey-text,101,1318394,0.0-13.0-3.17,77587,List2B,black,man,,,,,"{""Q0"":""Beth is being touched by Fred""}","<img src=""stim_listB/touch4.gif""style=""height:400px;""></stim_listB>",is being touched by,,,,,,
null,"<div style=""font-size:60px;"">+</div>",,html-keyboard-response,102,1318897,0.0-13.0-0.18,77587,List2B,black,man,,,,null,,,,,,,,,
null,"<img src=""stim_listB/look7.gif""style=""height:400px;""></stim_listB>",,html-keyboard-response,103,1320901,0.0-13.0-1.18,77587,List2B,black,man,,,,null,,,,,,,,,
null,is looking at,,html-keyboard-response,104,1322908,0.0-13.0-2.18,77587,List2B,black,man,,,,null,,,,,,,,,
28223.1,,,survey-text,105,1351134,0.0-13.0-3.18,77587,List2B,black,man,,,,,"{""Q0"":""Beth is look Fred""}","<img src=""stim_listB/look7.gif""style=""height:400px;""></stim_listB>",is looking at,,,,,,
null,"<div style=""font-size:60px;"">+</div>",,html-keyboard-response,106,1351640,0.0-13.0-0.19,77587,List2B,black,man,,,,null,,,,,,,,,
null,"<img src=""stim_listB/copy8.gif""style=""height:400px;""></stim_listB>",,html-keyboard-response,107,1353642,0.0-13.0-1.19,77587,List2B,black,man,,,,null,,,,,,,,,
null,is being copied by,,html-keyboard-response,108,1355652,0.0-13.0-2.19,77587,List2B,black,man,,,,null,,,,,,,,,
20888.2,,,survey-text,109,1376543,0.0-13.0-3.19,77587,List2B,black,man,,,,,"{""Q0"":""Ruth is coping Kate""}","<img src=""stim_listB/copy8.gif""style=""height:400px;""></stim_listB>",is being copied by,,,,,,
35417.9,"<img src='img/portrait_matrix_list2.jpg' style='width:900px;height:500px;''></img><p>If you have memorised all the portraits and names and are ready to start, press Continue.</p><p><strong>Please note: Your memory of these faces will be tested 4 times during this experiment.</strong></p>",0,html-button-response,110,1411963,0.0-14.0-0.0,77587,List2B,black,man,,,,,,,,,,,,,
20117.1,"<img src=""portrait/BM1.jpg""style=""height:400px;""></img>",4,html-button-response,111,1433088,0.0-14.0-1.0,77587,List2B,black,man,,TRUE,4,,,,,,,,,,
null,CORRECT,,html-keyboard-response,112,1434609,0.0-14.0-2.0-0.0,77587,List2B,black,man,,,,null,,,,,,,,,
6889.5,"<img src=""portrait/BW2.jpg""style=""height:400px;""></img>",2,html-button-response,113,1441501,0.0-14.0-4.0,77587,List2B,black,man,,TRUE,2,,,,,,,,,,
null,CORRECT,,html-keyboard-response,114,1443015,0.0-14.0-5.0-0.0,77587,List2B,black,man,,,,null,,,,,,,,,
9951.9,"<img src=""portrait/WM2.jpg""style=""height:400px;""></img>",7,html-button-response,115,1452970,0.0-14.0-7.0,77587,List2B,black,man,,TRUE,7,,,,,,,,,,
null,CORRECT,,html-keyboard-response,116,1454497,0.0-14.0-8.0-0.0,77587,List2B,black,man,,,,null,,,,,,,,,
3729.3,"<img src=""portrait/WM1.jpg""style=""height:400px;""></img>",6,html-button-response,117,1458228,0.0-14.0-10.0,77587,List2B,black,man,,TRUE,6,,,,,,,,,,
null,CORRECT,,html-keyboard-response,118,1459737,0.0-14.0-11.0-0.0,77587,List2B,black,man,,,,null,,,,,,,,,
4712.7,"<img src=""portrait/WW2.jpg""style=""height:400px;""></img>",3,html-button-response,119,1464453,0.0-14.0-13.0,77587,List2B,black,man,,TRUE,3,,,,,,,,,,
null,CORRECT,,html-keyboard-response,120,1465968,0.0-14.0-14.0-0.0,77587,List2B,black,man,,,,null,,,,,,,,,
4449.4,"<img src=""portrait/BM2.jpg""style=""height:400px;""></img>",5,html-button-response,121,1470420,0.0-14.0-16.0,77587,List2B,black,man,,TRUE,5,,,,,,,,,,
null,CORRECT,,html-keyboard-response,122,1471924,0.0-14.0-17.0-0.0,77587,List2B,black,man,,,,null,,,,,,,,,
7786,"<img src=""portrait/WW1.jpg""style=""height:400px;""></img>",1,html-button-response,123,1479712,0.0-14.0-19.0,77587,List2B,black,man,,TRUE,1,,,,,,,,,,
null,CORRECT,,html-keyboard-response,124,1481224,0.0-14.0-20.0-0.0,77587,List2B,black,man,,,,null,,,,,,,,,
9437.5,"<img src=""portrait/BW1.jpg""style=""height:400px;""></img>",0,html-button-response,125,1490664,0.0-14.0-22.0,77587,List2B,black,man,,TRUE,0,,,,,,,,,,
null,CORRECT,,html-keyboard-response,126,1492175,0.0-14.0-23.0-0.0,77587,List2B,black,man,,,,null,,,,,,,,,
2408.8,<p>You got 8 out of 8 right first time. Press Continue.</p>,0,html-button-response,127,1494586,0.0-14.0-25.0,77587,List2B,black,man,,,,,,,,,,,,,
null,"<div style=""font-size:60px;"">+</div>",,html-keyboard-response,128,1496099,0.0-15.0-0.0,77587,List2B,black,man,,,,null,,,,,,,,,
null,"<img src=""stim_listB/shout2.gif""style=""height:400px;""></stim_listB>",,html-keyboard-response,129,1498106,0.0-15.0-1.0,77587,List2B,black,man,,,,null,,,,,,,,,
null,is being shouted at by,,html-keyboard-response,130,1500111,0.0-15.0-2.0,77587,List2B,black,man,,,,null,,,,,,,,,
18868.6,,,survey-text,131,1518983,0.0-15.0-3.0,77587,List2B,black,man,,,,,"{""Q0"":""Kate is being shouted by Dave""}","<img src=""stim_listB/shout2.gif""style=""height:400px;""></stim_listB>",is being shouted at by,,,,,,
null,"<div style=""font-size:60px;"">+</div>",,html-keyboard-response,132,1519492,0.0-15.0-0.1,77587,List2B,black,man,,,,null,,,,,,,,,
null,"<img src=""stim_listB/shout7.gif""style=""height:400px;""></stim_listB>",,html-keyboard-response,133,1521509,0.0-15.0-1.1,77587,List2B,black,man,,,,null,,,,,,,,,
null,is shouting at,,html-keyboard-response,134,1523516,0.0-15.0-2.1,77587,List2B,black,man,,,,null,,,,,,,,,
16297.1,,,survey-text,135,1539816,0.0-15.0-3.1,77587,List2B,black,man,,,,,"{""Q0"":""Jane is shouting at Ruth""}","<img src=""stim_listB/shout7.gif""style=""height:400px;""></stim_listB>",is shouting at,,,,,,
null,"<div style=""font-size:60px;"">+</div>",,html-keyboard-response,136,1540331,0.0-15.0-0.2,77587,List2B,black,man,,,,null,,,,,,,,,
null,"<img src=""stim_listB/oppose7.gif""style=""height:400px;""></stim_listB>",,html-keyboard-response,137,1542333,0.0-15.0-1.2,77587,List2B,black,man,,,,null,,,,,,,,,
null,is opposing,,html-keyboard-response,138,1544337,0.0-15.0-2.2,77587,List2B,black,man,,,,null,,,,,,,,,
38189.8,,,survey-text,139,1582529,0.0-15.0-3.2,77587,List2B,black,man,,,,,"{""Q0"":""Jane is opposed Kate""}","<img src=""stim_listB/oppose7.gif""style=""height:400px;""></stim_listB>",is opposing,,,,,,
null,"<div style=""font-size:60px;"">+</div>",,html-keyboard-response,140,1583042,0.0-15.0-0.3,77587,List2B,black,man,,,,null,,,,,,,,,
null,"<img src=""stim_listB/seduce4.gif""style=""height:400px;""></stim_listB>",,html-keyboard-response,141,1585044,0.0-15.0-1.3,77587,List2B,black,man,,,,null,,,,,,,,,
null,is being seduced by,,html-keyboard-response,142,1587049,0.0-15.0-2.3,77587,List2B,black,man,,,,null,,,,,,,,,
46198.3,,,survey-text,143,1633251,0.0-15.0-3.3,77587,List2B,black,man,,,,,"{""Q0"":""Mike is looking at Beth""}","<img src=""stim_listB/seduce4.gif""style=""height:400px;""></stim_listB>",is being seduced by,,,,,,
null,"<div style=""font-size:60px;"">+</div>",,html-keyboard-response,144,1633757,0.0-15.0-0.4,77587,List2B,black,man,,,,null,,,,,,,,,
null,"<img src=""stim_listB/kiss2.gif""style=""height:400px;""></stim_listB>",,html-keyboard-response,145,1635759,0.0-15.0-1.4,77587,List2B,black,man,,,,null,,,,,,,,,
null,is being kissed by,,html-keyboard-response,146,1637776,0.0-15.0-2.4,77587,List2B,black,man,,,,null,,,,,,,,,
2587773.2,,,survey-text,147,4225553,0.0-15.0-3.4,77587,List2B,black,man,,,,,"{""Q0"":""31""}","<img src=""stim_listB/kiss2.gif""style=""height:400px;""></stim_listB>",is being kissed by,,,,,,
null,"<div style=""font-size:60px;"">+</div>",,html-keyboard-response,148,4226066,0.0-15.0-0.5,77587,List2B,black,man,,,,null,,,,,,,,,
null,"<img src=""stim_listB/hug6.gif""style=""height:400px;""></stim_listB>",,html-keyboard-response,149,4228078,0.0-15.0-1.5,77587,List2B,black,man,,,,null,,,,,,,,,
null,is being hugged by,,html-keyboard-response,150,4230094,0.0-15.0-2.5,77587,List2B,black,man,,,,null,,,,,,,,,
31477.5,,,survey-text,151,4261574,0.0-15.0-3.5,77587,List2B,black,man,,,,,"{""Q0"":""Ruth is huging Fred""}","<img src=""stim_listB/hug6.gif""style=""height:400px;""></stim_listB>",is being hugged by,,,,,,
null,"<div style=""font-size:60px;"">+</div>",,html-keyboard-response,152,4262082,0.0-15.0-0.6,77587,List2B,black,man,,,,null,,,,,,,,,
null,"<img src=""stim_listB/greet1.gif""style=""height:400px;""></stim_listB>",,html-keyboard-response,153,4264084,0.0-15.0-1.6,77587,List2B,black,man,,,,null,,,,,,,,,
null,is greeting,,html-keyboard-response,154,4266089,0.0-15.0-2.6,77587,List2B,black,man,,,,null,,,,,,,,,
35789.5,,,survey-text,155,4301881,0.0-15.0-3.6,77587,List2B,black,man,,,,,"{""Q0"":""Luke is looking Kate""}","<img src=""stim_listB/greet1.gif""style=""height:400px;""></stim_listB>",is greeting,,,,,,
null,"<div style=""font-size:60px;"">+</div>",,html-keyboard-response,156,4302387,0.0-15.0-0.7,77587,List2B,black,man,,,,null,,,,,,,,,
null,"<img src=""stim_listB/challenge6.gif""style=""height:400px;""></stim_listB>",,html-keyboard-response,157,4304396,0.0-15.0-1.7,77587,List2B,black,man,,,,null,,,,,,,,,
null,is being challenged by,,html-keyboard-response,158,4306411,0.0-15.0-2.7,77587,List2B,black,man,,,,null,,,,,,,,,
56800.2,,,survey-text,159,4363214,0.0-15.0-3.7,77587,List2B,black,man,,,,,"{""Q0"":""Luke is challenged by Mike""}","<img src=""stim_listB/challenge6.gif""style=""height:400px;""></stim_listB>",is being challenged by,,,,,,
null,"<div style=""font-size:60px;"">+</div>",,html-keyboard-response,160,4363718,0.0-15.0-0.8,77587,List2B,black,man,,,,null,,,,,,,,,
null,"<img src=""stim_listB/hug2.gif""style=""height:400px;""></stim_listB>",,html-keyboard-response,161,4365728,0.0-15.0-1.8,77587,List2B,black,man,,,,null,,,,,,,,,
null,is being hugged by,,html-keyboard-response,162,4367733,0.0-15.0-2.8,77587,List2B,black,man,,,,null,,,,,,,,,
14382,,,survey-text,163,4382118,0.0-15.0-3.8,77587,List2B,black,man,,,,,"{""Q0"":""Jane is hugged by Dave""}","<img src=""stim_listB/hug2.gif""style=""height:400px;""></stim_listB>",is being hugged by,,,,,,
null,"<div style=""font-size:60px;"">+</div>",,html-keyboard-response,164,4382622,0.0-15.0-0.9,77587,List2B,black,man,,,,null,,,,,,,,,
null,"<img src=""stim_listB/seduce3.gif""style=""height:400px;""></stim_listB>",,html-keyboard-response,165,4384636,0.0-15.0-1.9,77587,List2B,black,man,,,,null,,,,,,,,,
null,is seducing,,html-keyboard-response,166,4386647,0.0-15.0-2.9,77587,List2B,black,man,,,,null,,,,,,,,,
57085.7,,,survey-text,167,4443736,0.0-15.0-3.9,77587,List2B,black,man,,,,,"{""Q0"":""Breth is seducing Dave""}","<img src=""stim_listB/seduce3.gif""style=""height:400px;""></stim_listB>",is seducing,,,,,,
null,"<div style=""font-size:60px;"">+</div>",,html-keyboard-response,168,4444252,0.0-15.0-0.10,77587,List2B,black,man,,,,null,,,,,,,,,
null,"<img src=""stim_listB/oppose6.gif""style=""height:400px;""></stim_listB>",,html-keyboard-response,169,4446257,0.0-15.0-1.10,77587,List2B,black,man,,,,null,,,,,,,,,
null,is being opposed by,,html-keyboard-response,170,4448273,0.0-15.0-2.10,77587,List2B,black,man,,,,null,,,,,,,,,
57937.7,,,survey-text,171,4506213,0.0-15.0-3.10,77587,List2B,black,man,,,,,"{""Q0"":""Luke is copying Kate""}","<img src=""stim_listB/oppose6.gif""style=""height:400px;""></stim_listB>",is being opposed by,,,,,,
null,"<div style=""font-size:60px;"">+</div>",,html-keyboard-response,172,4506716,0.0-15.0-0.11,77587,List2B,black,man,,,,null,,,,,,,,,
null,"<img src=""stim_listB/greet5.gif""style=""height:400px;""></stim_listB>",,html-keyboard-response,173,4508729,0.0-15.0-1.11,77587,List2B,black,man,,,,null,,,,,,,,,
null,is greeting,,html-keyboard-response,174,4510732,0.0-15.0-2.11,77587,List2B,black,man,,,,null,,,,,,,,,
42395,,,survey-text,175,4553131,0.0-15.0-3.11,77587,List2B,black,man,,,,,"{""Q0"":""Fred is copying Dave""}","<img src=""stim_listB/greet5.gif""style=""height:400px;""></stim_listB>",is greeting,,,,,,
null,"<div style=""font-size:60px;"">+</div>",,html-keyboard-response,176,4553635,0.0-15.0-0.12,77587,List2B,black,man,,,,null,,,,,,,,,
null,"<img src=""stim_listB/hug7.gif""style=""height:400px;""></stim_listB>",,html-keyboard-response,177,4555638,0.0-15.0-1.12,77587,List2B,black,man,,,,null,,,,,,,,,
null,is hugging,,html-keyboard-response,178,4557647,0.0-15.0-2.12,77587,List2B,black,man,,,,null,,,,,,,,,
25630,,,survey-text,179,4583280,0.0-15.0-3.12,77587,List2B,black,man,,,,,"{""Q0"":""Dave is hugging Fred""}","<img src=""stim_listB/hug7.gif""style=""height:400px;""></stim_listB>",is hugging,,,,,,
null,"<div style=""font-size:60px;"">+</div>",,html-keyboard-response,180,4583788,0.0-15.0-0.13,77587,List2B,black,man,,,,null,,,,,,,,,
null,"<img src=""stim_listB/shout5.gif""style=""height:400px;""></stim_listB>",,html-keyboard-response,181,4585791,0.0-15.0-1.13,77587,List2B,black,man,,,,null,,,,,,,,,
null,is shouting at,,html-keyboard-response,182,4587797,0.0-15.0-2.13,77587,List2B,black,man,,,,null,,,,,,,,,
26782.7,,,survey-text,183,4614583,0.0-15.0-3.13,77587,List2B,black,man,,,,,"{""Q0"":""Fred is hugging Luke""}","<img src=""stim_listB/shout5.gif""style=""height:400px;""></stim_listB>",is shouting at,,,,,,
null,"<div style=""font-size:60px;"">+</div>",,html-keyboard-response,184,4615091,0.0-15.0-0.14,77587,List2B,black,man,,,,null,,,,,,,,,
null,"<img src=""stim_listB/hug4.gif""style=""height:400px;""></stim_listB>",,html-keyboard-response,185,4617095,0.0-15.0-1.14,77587,List2B,black,man,,,,null,,,,,,,,,
null,is being hugged by,,html-keyboard-response,186,4619111,0.0-15.0-2.14,77587,List2B,black,man,,,,null,,,,,,,,,
46378,,,survey-text,187,4665493,0.0-15.0-3.14,77587,List2B,black,man,,,,,"{""Q0"":""Mike is being hugged ""}","<img src=""stim_listB/hug4.gif""style=""height:400px;""></stim_listB>",is being hugged by,,,,,,
null,"<div style=""font-size:60px;"">+</div>",,html-keyboard-response,188,4666008,0.0-15.0-0.15,77587,List2B,black,man,,,,null,,,,,,,,,
null,"<img src=""stim_listB/challenge3.gif""style=""height:400px;""></stim_listB>",,html-keyboard-response,189,4668023,0.0-15.0-1.15,77587,List2B,black,man,,,,null,,,,,,,,,
null,is challenging,,html-keyboard-response,190,4670032,0.0-15.0-2.15,77587,List2B,black,man,,,,null,,,,,,,,,
19587.8,,,survey-text,191,4689622,0.0-15.0-3.15,77587,List2B,black,man,,,,,"{""Q0"":""Mike is been challenged is Beth""}","<img src=""stim_listB/challenge3.gif""style=""height:400px;""></stim_listB>",is challenging,,,,,,
null,"<div style=""font-size:60px;"">+</div>",,html-keyboard-response,192,4690127,0.0-15.0-0.16,77587,List2B,black,man,,,,null,,,,,,,,,
null,"<img src=""stim_listB/shout6.gif""style=""height:400px;""></stim_listB>",,html-keyboard-response,193,4692135,0.0-15.0-1.16,77587,List2B,black,man,,,,null,,,,,,,,,
null,is being shouted at by,,html-keyboard-response,194,4694138,0.0-15.0-2.16,77587,List2B,black,man,,,,null,,,,,,,,,
27612.8,,,survey-text,195,4721753,0.0-15.0-3.16,77587,List2B,black,man,,,,,"{""Q0"":""Mike is been shouted by Dave""}","<img src=""stim_listB/shout6.gif""style=""height:400px;""></stim_listB>",is being shouted at by,,,,,,
null,"<div style=""font-size:60px;"">+</div>",,html-keyboard-response,196,4722268,0.0-15.0-0.17,77587,List2B,black,man,,,,null,,,,,,,,,
null,"<img src=""stim_listB/look8.gif""style=""height:400px;""></stim_listB>",,html-keyboard-response,197,4724279,0.0-15.0-1.17,77587,List2B,black,man,,,,null,,,,,,,,,
null,is being looked at by,,html-keyboard-response,198,4726285,0.0-15.0-2.17,77587,List2B,black,man,,,,null,,,,,,,,,
13230.2,,,survey-text,199,4739518,0.0-15.0-3.17,77587,List2B,black,man,,,,,"{""Q0"":""jane is looking at kate""}","<img src=""stim_listB/look8.gif""style=""height:400px;""></stim_listB>",is being looked at by,,,,,,
null,"<div style=""font-size:60px;"">+</div>",,html-keyboard-response,200,4740030,0.0-15.0-0.18,77587,List2B,black,man,,,,null,,,,,,,,,
null,"<img src=""stim_listB/touch8.gif""style=""height:400px;""></stim_listB>",,html-keyboard-response,201,4742489,0.0-15.0-1.18,77587,List2B,black,man,,,,null,,,,,,,,,
null,is being touched by,,html-keyboard-response,202,4745483,0.0-15.0-2.18,77587,List2B,black,man,,,,null,,,,,,,,,
9584.7,,,survey-text,203,4755073,0.0-15.0-3.18,77587,List2B,black,man,,,,,"{""Q0"":""jjj""}","<img src=""stim_listB/touch8.gif""style=""height:400px;""></stim_listB>",is being touched by,,,,,,
null,"<div style=""font-size:60px;"">+</div>",,html-keyboard-response,204,4755590,0.0-15.0-0.19,77587,List2B,black,man,,,,null,,,,,,,,,
null,"<img src=""stim_listB/look2.gif""style=""height:400px;""></stim_listB>",,html-keyboard-response,205,4757603,0.0-15.0-1.19,77587,List2B,black,man,,,,null,,,,,,,,,
null,is being looked at by,,html-keyboard-response,206,4759610,0.0-15.0-2.19,77587,List2B,black,man,,,,null,,,,,,,,,
19431.1,,,survey-text,207,4779044,0.0-15.0-3.19,77587,List2B,black,man,,,,,"{""Q0"":""dave is looking at jane\\""}","<img src=""stim_listB/look2.gif""style=""height:400px;""></stim_listB>",is being looked at by,,,,,,
7838.2,"<img src='img/portrait_matrix_list2.jpg' style='width:900px;height:500px;''></img><p>If you have memorised all the portraits and names and are ready to start, press Continue.</p><p><strong>Please note: Your memory of these faces will be tested 4 times during this experiment.</strong></p>",0,html-button-response,208,4786884,0.0-16.0-0.0,77587,List2B,black,man,,,,,,,,,,,,,
43214.6,"<img src=""portrait/WM2.jpg""style=""height:400px;""></img>",7,html-button-response,209,4831106,0.0-16.0-1.0,77587,List2B,black,man,,TRUE,7,,,,,,,,,,
null,CORRECT,,html-keyboard-response,210,4832616,0.0-16.0-2.0-0.0,77587,List2B,black,man,,,,null,,,,,,,,,
4568.4,"<img src=""portrait/BW2.jpg""style=""height:400px;""></img>",2,html-button-response,211,4837187,0.0-16.0-4.0,77587,List2B,black,man,,TRUE,2,,,,,,,,,,
null,CORRECT,,html-keyboard-response,212,4838699,0.0-16.0-5.0-0.0,77587,List2B,black,man,,,,null,,,,,,,,,
3870.2,"<img src=""portrait/WM1.jpg""style=""height:400px;""></img>",6,html-button-response,213,4842571,0.0-16.0-7.0,77587,List2B,black,man,,TRUE,6,,,,,,,,,,
null,CORRECT,,html-keyboard-response,214,4844086,0.0-16.0-8.0-0.0,77587,List2B,black,man,,,,null,,,,,,,,,
11156.6,"<img src=""portrait/WW2.jpg""style=""height:400px;""></img>",3,html-button-response,215,4855245,0.0-16.0-10.0,77587,List2B,black,man,,TRUE,3,,,,,,,,,,
null,CORRECT,,html-keyboard-response,216,4856752,0.0-16.0-11.0-0.0,77587,List2B,black,man,,,,null,,,,,,,,,
3170.2,"<img src=""portrait/BM2.jpg""style=""height:400px;""></img>",5,html-button-response,217,4859924,0.0-16.0-13.0,77587,List2B,black,man,,TRUE,5,,,,,,,,,,
null,CORRECT,,html-keyboard-response,218,4861430,0.0-16.0-14.0-0.0,77587,List2B,black,man,,,,null,,,,,,,,,
4960.9,"<img src=""portrait/WW1.jpg""style=""height:400px;""></img>",1,html-button-response,219,4866393,0.0-16.0-16.0,77587,List2B,black,man,,TRUE,1,,,,,,,,,,
null,CORRECT,,html-keyboard-response,220,4867911,0.0-16.0-17.0-0.0,77587,List2B,black,man,,,,null,,,,,,,,,
3217.2,"<img src=""portrait/BM1.jpg""style=""height:400px;""></img>",4,html-button-response,221,4871131,0.0-16.0-19.0,77587,List2B,black,man,,TRUE,4,,,,,,,,,,
null,CORRECT,,html-keyboard-response,222,4872657,0.0-16.0-20.0-0.0,77587,List2B,black,man,,,,null,,,,,,,,,
10583.7,"<img src=""portrait/BW1.jpg""style=""height:400px;""></img>",0,html-button-response,223,4883243,0.0-16.0-22.0,77587,List2B,black,man,,TRUE,0,,,,,,,,,,
null,CORRECT,,html-keyboard-response,224,4884768,0.0-16.0-23.0-0.0,77587,List2B,black,man,,,,null,,,,,,,,,
2578.9,<p>You got 8 out of 8 right first time. Press Continue.</p>,0,html-button-response,225,4887350,0.0-16.0-25.0,77587,List2B,black,man,,,,,,,,,,,,,
null,"<div style=""font-size:60px;"">+</div>",,html-keyboard-response,226,4888872,0.0-17.0-0.0,77587,List2B,black,man,,,,null,,,,,,,,,
null,"<img src=""stim_listB/greet4.gif""style=""height:400px;""></stim_listB>",,html-keyboard-response,227,4890878,0.0-17.0-1.0,77587,List2B,black,man,,,,null,,,,,,,,,
null,is being greeted by,,html-keyboard-response,228,4892891,0.0-17.0-2.0,77587,List2B,black,man,,,,null,,,,,,,,,
16117.2,,,survey-text,229,4909011,0.0-17.0-3.0,77587,List2B,black,man,,,,,"{""Q0"":""kate is looking at fred""}","<img src=""stim_listB/greet4.gif""style=""height:400px;""></stim_listB>",is being greeted by,,,,,,
null,"<div style=""font-size:60px;"">+</div>",,html-keyboard-response,230,4909521,0.0-17.0-0.1,77587,List2B,black,man,,,,null,,,,,,,,,
null,"<img src=""stim_listB/challenge1.gif""style=""height:400px;""></stim_listB>",,html-keyboard-response,231,4911523,0.0-17.0-1.1,77587,List2B,black,man,,,,null,,,,,,,,,
null,is challenging,,html-keyboard-response,232,4913535,0.0-17.0-2.1,77587,List2B,black,man,,,,null,,,,,,,,,
20900,,,survey-text,233,4934438,0.0-17.0-3.1,77587,List2B,black,man,,,,,"{""Q0"":""ruth is challenged by date""}","<img src=""stim_listB/challenge1.gif""style=""height:400px;""></stim_listB>",is challenging,,,,,,
null,"<div style=""font-size:60px;"">+</div>",,html-keyboard-response,234,4934949,0.0-17.0-0.2,77587,List2B,black,man,,,,null,,,,,,,,,
null,"<img src=""stim_listB/look4.gif""style=""height:400px;""></stim_listB>",,html-keyboard-response,235,4936965,0.0-17.0-1.2,77587,List2B,black,man,,,,null,,,,,,,,,
null,is being looked at by,,html-keyboard-response,236,4938968,0.0-17.0-2.2,77587,List2B,black,man,,,,null,,,,,,,,,
10963.1,,,survey-text,237,4949933,0.0-17.0-3.2,77587,List2B,black,man,,,,,"{""Q0"":""kate is looking at mike""}","<img src=""stim_listB/look4.gif""style=""height:400px;""></stim_listB>",is being looked at by,,,,,,
null,"<div style=""font-size:60px;"">+</div>",,html-keyboard-response,238,4950443,0.0-17.0-0.3,77587,List2B,black,man,,,,null,,,,,,,,,
null,"<img src=""stim_listB/kiss7.gif""style=""height:400px;""></stim_listB>",,html-keyboard-response,239,4952458,0.0-17.0-1.3,77587,List2B,black,man,,,,null,,,,,,,,,
null,is kissing,,html-keyboard-response,240,4954475,0.0-17.0-2.3,77587,List2B,black,man,,,,null,,,,,,,,,
11698.8,,,survey-text,241,4966177,0.0-17.0-3.3,77587,List2B,black,man,,,,,"{""Q0"":""beth is kissing ruth""}","<img src=""stim_listB/kiss7.gif""style=""height:400px;""></stim_listB>",is kissing,,,,,,
null,"<div style=""font-size:60px;"">+</div>",,html-keyboard-response,242,4966689,0.0-17.0-0.4,77587,List2B,black,man,,,,null,,,,,,,,,
null,"<img src=""stim_listB/hug1.gif""style=""height:400px;""></stim_listB>",,html-keyboard-response,243,4968692,0.0-17.0-1.4,77587,List2B,black,man,,,,null,,,,,,,,,
null,is hugging,,html-keyboard-response,244,4970695,0.0-17.0-2.4,77587,List2B,black,man,,,,null,,,,,,,,,
10448,,,survey-text,245,4981146,0.0-17.0-3.4,77587,List2B,black,man,,,,,"{""Q0"":""luke is hugging ruth""}","<img src=""stim_listB/hug1.gif""style=""height:400px;""></stim_listB>",is hugging,,,,,,
null,"<div style=""font-size:60px;"">+</div>",,html-keyboard-response,246,4981650,0.0-17.0-0.5,77587,List2B,black,man,,,,null,,,,,,,,,
null,"<img src=""stim_listB/copy3.gif""style=""height:400px;""></stim_listB>",,html-keyboard-response,247,4983653,0.0-17.0-1.5,77587,List2B,black,man,,,,null,,,,,,,,,
null,is copying,,html-keyboard-response,248,4985661,0.0-17.0-2.5,77587,List2B,black,man,,,,null,,,,,,,,,
9132.2,,,survey-text,249,4994796,0.0-17.0-3.5,77587,List2B,black,man,,,,,"{""Q0"":""kkk""}","<img src=""stim_listB/copy3.gif""style=""height:400px;""></stim_listB>",is copying,,,,,,
null,"<div style=""font-size:60px;"">+</div>",,html-keyboard-response,250,4995298,0.0-17.0-0.6,77587,List2B,black,man,,,,null,,,,,,,,,
null,"<img src=""stim_listB/oppose1.gif""style=""height:400px;""></stim_listB>",,html-keyboard-response,251,4997314,0.0-17.0-1.6,77587,List2B,black,man,,,,null,,,,,,,,,
null,is opposing,,html-keyboard-response,252,4999316,0.0-17.0-2.6,77587,List2B,black,man,,,,null,,,,,,,,,
13069.2,,,survey-text,253,5012389,0.0-17.0-3.6,77587,List2B,black,man,,,,,"{""Q0"":""jane is opposing Dave""}","<img src=""stim_listB/oppose1.gif""style=""height:400px;""></stim_listB>",is opposing,,,,,,
null,"<div style=""font-size:60px;"">+</div>",,html-keyboard-response,254,5012900,0.0-17.0-0.7,77587,List2B,black,man,,,,null,,,,,,,,,
null,"<img src=""stim_listB/greet6.gif""style=""height:400px;""></stim_listB>",,html-keyboard-response,255,5014904,0.0-17.0-1.7,77587,List2B,black,man,,,,null,,,,,,,,,
null,is being greeted by,,html-keyboard-response,256,5016911,0.0-17.0-2.7,77587,List2B,black,man,,,,null,,,,,,,,,
13050.4,,,survey-text,257,5029966,0.0-17.0-3.7,77587,List2B,black,man,,,,,"{""Q0"":""mike is greeted by dave""}","<img src=""stim_listB/greet6.gif""style=""height:400px;""></stim_listB>",is being greeted by,,,,,,
null,"<div style=""font-size:60px;"">+</div>",,html-keyboard-response,258,5030478,0.0-17.0-0.8,77587,List2B,black,man,,,,null,,,,,,,,,
null,"<img src=""stim_listB/copy1.gif""style=""height:400px;""></stim_listB>",,html-keyboard-response,259,5032491,0.0-17.0-1.8,77587,List2B,black,man,,,,null,,,,,,,,,
null,is copying,,html-keyboard-response,260,5034493,0.0-17.0-2.8,77587,List2B,black,man,,,,null,,,,,,,,,
12682.6,,,survey-text,261,5047179,0.0-17.0-3.8,77587,List2B,black,man,,,,,"{""Q0"":""ruth is copying dave""}","<img src=""stim_listB/copy1.gif""style=""height:400px;""></stim_listB>",is copying,,,,,,
null,"<div style=""font-size:60px;"">+</div>",,html-keyboard-response,262,5047690,0.0-17.0-0.9,77587,List2B,black,man,,,,null,,,,,,,,,
null,"<img src=""stim_listB/kiss1.gif""style=""height:400px;""></stim_listB>",,html-keyboard-response,263,5049708,0.0-17.0-1.9,77587,List2B,black,man,,,,null,,,,,,,,,
null,is kissing,,html-keyboard-response,264,5051724,0.0-17.0-2.9,77587,List2B,black,man,,,,null,,,,,,,,,
10556.5,,,survey-text,265,5062284,0.0-17.0-3.9,77587,List2B,black,man,,,,,"{""Q0"":""luke is kissing ruth""}","<img src=""stim_listB/kiss1.gif""style=""height:400px;""></stim_listB>",is kissing,,,,,,
null,"<div style=""font-size:60px;"">+</div>",,html-keyboard-response,266,5062789,0.0-17.0-0.10,77587,List2B,black,man,,,,null,,,,,,,,,
null,"<img src=""stim_listB/greet2.gif""style=""height:400px;""></stim_listB>",,html-keyboard-response,267,5064804,0.0-17.0-1.10,77587,List2B,black,man,,,,null,,,,,,,,,
null,is being greeted by,,html-keyboard-response,268,5066819,0.0-17.0-2.10,77587,List2B,black,man,,,,null,,,,,,,,,
8594.8,,,survey-text,269,5075417,0.0-17.0-3.10,77587,List2B,black,man,,,,,"{""Q0"":""luke is greeted by jane""}","<img src=""stim_listB/greet2.gif""style=""height:400px;""></stim_listB>",is being greeted by,,,,,,
null,"<div style=""font-size:60px;"">+</div>",,html-keyboard-response,270,5075933,0.0-17.0-0.11,77587,List2B,black,man,,,,null,,,,,,,,,
null,"<img src=""stim_listB/greet8.gif""style=""height:400px;""></stim_listB>",,html-keyboard-response,271,5077942,0.0-17.0-1.11,77587,List2B,black,man,,,,null,,,,,,,,,
null,is being greeted by,,html-keyboard-response,272,5079958,0.0-17.0-2.11,77587,List2B,black,man,,,,null,,,,,,,,,
14009.3,,,survey-text,273,5093970,0.0-17.0-3.11,77587,List2B,black,man,,,,,"{""Q0"":""jane is greeted by kate""}","<img src=""stim_listB/greet8.gif""style=""height:400px;""></stim_listB>",is being greeted by,,,,,,
null,"<div style=""font-size:60px;"">+</div>",,html-keyboard-response,274,5094474,0.0-17.0-0.12,77587,List2B,black,man,,,,null,,,,,,,,,
null,"<img src=""stim_listB/greet3.gif""style=""height:400px;""></stim_listB>",,html-keyboard-response,275,5096477,0.0-17.0-1.12,77587,List2B,black,man,,,,null,,,,,,,,,
null,is greeting,,html-keyboard-response,276,5098479,0.0-17.0-2.12,77587,List2B,black,man,,,,null,,,,,,,,,
14488.7,,,survey-text,277,5112971,0.0-17.0-3.12,77587,List2B,black,man,,,,,"{""Q0"":""beth is greeting mike""}","<img src=""stim_listB/greet3.gif""style=""height:400px;""></stim_listB>",is greeting,,,,,,
null,"<div style=""font-size:60px;"">+</div>",,html-keyboard-response,278,5113486,0.0-17.0-0.13,77587,List2B,black,man,,,,null,,,,,,,,,
null,"<img src=""stim_listB/look6.gif""style=""height:400px;""></stim_listB>",,html-keyboard-response,279,5115499,0.0-17.0-1.13,77587,List2B,black,man,,,,null,,,,,,,,,
null,is being looked at by,,html-keyboard-response,280,5117501,0.0-17.0-2.13,77587,List2B,black,man,,,,null,,,,,,,,,
13997.8,,,survey-text,281,5131502,0.0-17.0-3.13,77587,List2B,black,man,,,,,"{""Q0"":""mike is looking at dave""}","<img src=""stim_listB/look6.gif""style=""height:400px;""></stim_listB>",is being looked at by,,,,,,
null,"<div style=""font-size:60px;"">+</div>",,html-keyboard-response,282,5132005,0.0-17.0-0.14,77587,List2B,black,man,,,,null,,,,,,,,,
null,"<img src=""stim_listB/seduce1.gif""style=""height:400px;""></stim_listB>",,html-keyboard-response,283,5134007,0.0-17.0-1.14,77587,List2B,black,man,,,,null,,,,,,,,,
null,is seducing,,html-keyboard-response,284,5136022,0.0-17.0-2.14,77587,List2B,black,man,,,,null,,,,,,,,,
13409.4,,,survey-text,285,5149433,0.0-17.0-3.14,77587,List2B,black,man,,,,,"{""Q0"":""luke is seducing jane""}","<img src=""stim_listB/seduce1.gif""style=""height:400px;""></stim_listB>",is seducing,,,,,,
null,"<div style=""font-size:60px;"">+</div>",,html-keyboard-response,286,5149942,0.0-17.0-0.15,77587,List2B,black,man,,,,null,,,,,,,,,
null,"<img src=""stim_listB/oppose4.gif""style=""height:400px;""></stim_listB>",,html-keyboard-response,287,5151956,0.0-17.0-1.15,77587,List2B,black,man,,,,null,,,,,,,,,
null,is being opposed by,,html-keyboard-response,288,5153961,0.0-17.0-2.15,77587,List2B,black,man,,,,null,,,,,,,,,
19838.9,,,survey-text,289,5173803,0.0-17.0-3.15,77587,List2B,black,man,,,,,"{""Q0"":""beth is opposed by fred""}","<img src=""stim_listB/oppose4.gif""style=""height:400px;""></stim_listB>",is being opposed by,,,,,,
null,"<div style=""font-size:60px;"">+</div>",,html-keyboard-response,290,5174305,0.0-17.0-0.16,77587,List2B,black,man,,,,null,,,,,,,,,
null,"<img src=""stim_listB/oppose8.gif""style=""height:400px;""></stim_listB>",,html-keyboard-response,291,5176319,0.0-17.0-1.16,77587,List2B,black,man,,,,null,,,,,,,,,
null,is being opposed by,,html-keyboard-response,292,5178322,0.0-17.0-2.16,77587,List2B,black,man,,,,null,,,,,,,,,
46104.3,,,survey-text,293,5224428,0.0-17.0-3.16,77587,List2B,black,man,,,,,"{""Q0"":""beth is been opposed by dave""}","<img src=""stim_listB/oppose8.gif""style=""height:400px;""></stim_listB>",is being opposed by,,,,,,
null,"<div style=""font-size:60px;"">+</div>",,html-keyboard-response,294,5224935,0.0-17.0-0.17,77587,List2B,black,man,,,,null,,,,,,,,,
null,"<img src=""stim_listB/kiss6.gif""style=""height:400px;""></stim_listB>",,html-keyboard-response,295,5226951,0.0-17.0-1.17,77587,List2B,black,man,,,,null,,,,,,,,,
null,is being kissed by,,html-keyboard-response,296,5228952,0.0-17.0-2.17,77587,List2B,black,man,,,,null,,,,,,,,,
10307.5,,,survey-text,297,5239262,0.0-17.0-3.17,77587,List2B,black,man,,,,,"{""Q0"":""dave is kissing mike""}","<img src=""stim_listB/kiss6.gif""style=""height:400px;""></stim_listB>",is being kissed by,,,,,,
null,"<div style=""font-size:60px;"">+</div>",,html-keyboard-response,298,5239774,0.0-17.0-0.18,77587,List2B,black,man,,,,null,,,,,,,,,
null,"<img src=""stim_listB/seduce8.gif""style=""height:400px;""></stim_listB>",,html-keyboard-response,299,5241777,0.0-17.0-1.18,77587,List2B,black,man,,,,null,,,,,,,,,
null,is being seduced by,,html-keyboard-response,300,5243780,0.0-17.0-2.18,77587,List2B,black,man,,,,null,,,,,,,,,
9799.5,,,survey-text,301,5253583,0.0-17.0-3.18,77587,List2B,black,man,,,,,"{""Q0"":""beth is seduce by jane""}","<img src=""stim_listB/seduce8.gif""style=""height:400px;""></stim_listB>",is being seduced by,,,,,,
null,"<div style=""font-size:60px;"">+</div>",,html-keyboard-response,302,5254097,0.0-17.0-0.19,77587,List2B,black,man,,,,null,,,,,,,,,
null,"<img src=""stim_listB/shout4.gif""style=""height:400px;""></stim_listB>",,html-keyboard-response,303,5256114,0.0-17.0-1.19,77587,List2B,black,man,,,,null,,,,,,,,,
null,is being shouted at by,,html-keyboard-response,304,5258126,0.0-17.0-2.19,77587,List2B,black,man,,,,null,,,,,,,,,
29374.2,,,survey-text,305,5287503,0.0-17.0-3.19,77587,List2B,black,man,,,,,"{""Q0"":""mike is being shouted by kate""}","<img src=""stim_listB/shout4.gif""style=""height:400px;""></stim_listB>",is being shouted at by,,,,,,
6245.4,"<img src='img/portrait_matrix_list2.jpg' style='width:900px;height:500px;''></img><p>If you have memorised all the portraits and names and are ready to start, press Continue.</p><p><strong>Please note: Your memory of these faces will be tested 4 times during this experiment.</strong></p>",0,html-button-response,306,5293750,0.0-18.0-0.0,77587,List2B,black,man,,,,,,,,,,,,,
4311.6,"<img src=""portrait/WW1.jpg""style=""height:400px;""></img>",1,html-button-response,307,5299066,0.0-18.0-1.0,77587,List2B,black,man,,TRUE,1,,,,,,,,,,
null,CORRECT,,html-keyboard-response,308,5300577,0.0-18.0-2.0-0.0,77587,List2B,black,man,,,,null,,,,,,,,,
3107.9,"<img src=""portrait/BM2.jpg""style=""height:400px;""></img>",5,html-button-response,309,5303688,0.0-18.0-4.0,77587,List2B,black,man,,TRUE,5,,,,,,,,,,
null,CORRECT,,html-keyboard-response,310,5305199,0.0-18.0-5.0-0.0,77587,List2B,black,man,,,,null,,,,,,,,,
4197.5,"<img src=""portrait/BW1.jpg""style=""height:400px;""></img>",0,html-button-response,311,5309399,0.0-18.0-7.0,77587,List2B,black,man,,TRUE,0,,,,,,,,,,
null,CORRECT,,html-keyboard-response,312,5310902,0.0-18.0-8.0-0.0,77587,List2B,black,man,,,,null,,,,,,,,,
11162.2,"<img src=""portrait/BW2.jpg""style=""height:400px;""></img>",2,html-button-response,313,5322067,0.0-18.0-10.0,77587,List2B,black,man,,TRUE,2,,,,,,,,,,
null,CORRECT,,html-keyboard-response,314,5323580,0.0-18.0-11.0-0.0,77587,List2B,black,man,,,,null,,,,,,,,,
3369.4,"<img src=""portrait/BM1.jpg""style=""height:400px;""></img>",4,html-button-response,315,5326952,0.0-18.0-13.0,77587,List2B,black,man,,TRUE,4,,,,,,,,,,
null,CORRECT,,html-keyboard-response,316,5328461,0.0-18.0-14.0-0.0,77587,List2B,black,man,,,,null,,,,,,,,,
928,"<img src=""portrait/WM2.jpg""style=""height:400px;""></img>",4,html-button-response,317,5329391,0.0-18.0-16.0,77587,List2B,black,man,,TRUE,7,,,,,,,,,,
4330.4,"<img src=""portrait/WM2.jpg""style=""height:400px;""></img>",7,html-button-response,318,5334732,0.0-18.0-18.0-0.0,77587,List2B,black,man,,FALSE,7,,,,,,,,,,
null,CORRECT,,html-keyboard-response,319,5336242,0.0-18.0-18.0-1.0-0.0,77587,List2B,black,man,,,,null,,,,,,,,,
4978.7,"<img src=""portrait/WM1.jpg""style=""height:400px;""></img>",6,html-button-response,320,5341223,0.0-18.0-19.0,77587,List2B,black,man,,TRUE,6,,,,,,,,,,
null,CORRECT,,html-keyboard-response,321,5342746,0.0-18.0-20.0-0.0,77587,List2B,black,man,,,,null,,,,,,,,,
343.3,"<img src=""portrait/WW2.jpg""style=""height:400px;""></img>",6,html-button-response,322,5343092,0.0-18.0-22.0,77587,List2B,black,man,,TRUE,3,,,,,,,,,,
6466.4,"<img src=""portrait/WW2.jpg""style=""height:400px;""></img>",3,html-button-response,323,5350570,0.0-18.0-24.0-0.0,77587,List2B,black,man,,FALSE,3,,,,,,,,,,
null,CORRECT,,html-keyboard-response,324,5352089,0.0-18.0-24.0-1.0-0.0,77587,List2B,black,man,,,,null,,,,,,,,,
2647,<p>You got 6 out of 8 right first time. Press Continue.</p>,0,html-button-response,325,5354738,0.0-18.0-25.0,77587,List2B,black,man,,,,,,,,,,,,,
6168.3,"As you did not score 100%, the memory game will repeat. Press Continue.",0,html-button-response,326,5361911,0.0-18.0-26.0-0.0,77587,List2B,black,man,,,,,,,,,,,,,
2535.9,"<img src='img/portrait_matrix_list2.jpg' style='width:900px;height:500px;''></img><p>If you have memorised all the portraits and names and are ready to start, press Continue.</p><p><strong>Please note: Your memory of these faces will be tested 4 times during this experiment.</strong></p>",0,html-button-response,327,5365457,0.0-18.1-0.1,77587,List2B,black,man,,,,,,,,,,,,,
5425.3,"<img src=""portrait/WW1.jpg""style=""height:400px;""></img>",1,html-button-response,328,5371893,0.0-18.1-1.1,77587,List2B,black,man,,TRUE,1,,,,,,,,,,
null,CORRECT,,html-keyboard-response,329,5373403,0.0-18.1-2.1-0.1,77587,List2B,black,man,,,,null,,,,,,,,,
3328.2,"<img src=""portrait/BM2.jpg""style=""height:400px;""></img>",5,html-button-response,330,5376734,0.0-18.1-4.1,77587,List2B,black,man,,TRUE,5,,,,,,,,,,
null,CORRECT,,html-keyboard-response,331,5378245,0.0-18.1-5.1-0.1,77587,List2B,black,man,,,,null,,,,,,,,,
3913.9,"<img src=""portrait/BW1.jpg""style=""height:400px;""></img>",0,html-button-response,332,5382161,0.0-18.1-7.1,77587,List2B,black,man,,TRUE,0,,,,,,,,,,
null,CORRECT,,html-keyboard-response,333,5383683,0.0-18.1-8.1-0.1,77587,List2B,black,man,,,,null,,,,,,,,,
1191.9,"<img src=""portrait/BW2.jpg""style=""height:400px;""></img>",0,html-button-response,334,5384877,0.0-18.1-10.1,77587,List2B,black,man,,TRUE,2,,,,,,,,,,
5838.2,"<img src=""portrait/BW2.jpg""style=""height:400px;""></img>",2,html-button-response,335,5391730,0.0-18.1-12.1-0.1,77587,List2B,black,man,,FALSE,2,,,,,,,,,,
null,CORRECT,,html-keyboard-response,336,5393235,0.0-18.1-12.1-1.1-0.1,77587,List2B,black,man,,,,null,,,,,,,,,
3815.6,"<img src=""portrait/BM1.jpg""style=""height:400px;""></img>",4,html-button-response,337,5397053,0.0-18.1-13.1,77587,List2B,black,man,,TRUE,4,,,,,,,,,,
null,CORRECT,,html-keyboard-response,338,5398565,0.0-18.1-14.1-0.1,77587,List2B,black,man,,,,null,,,,,,,,,
42847.5,"<img src=""portrait/WM2.jpg""style=""height:400px;""></img>",7,html-button-response,339,5441414,0.0-18.1-16.1,77587,List2B,black,man,,TRUE,7,,,,,,,,,,
null,CORRECT,,html-keyboard-response,340,5442926,0.0-18.1-17.1-0.1,77587,List2B,black,man,,,,null,,,,,,,,,
3541.1,"<img src=""portrait/WM1.jpg""style=""height:400px;""></img>",6,html-button-response,341,5446470,0.0-18.1-19.1,77587,List2B,black,man,,TRUE,6,,,,,,,,,,
null,CORRECT,,html-keyboard-response,342,5447979,0.0-18.1-20.1-0.1,77587,List2B,black,man,,,,null,,,,,,,,,
3464.8,"<img src=""portrait/WW2.jpg""style=""height:400px;""></img>",3,html-button-response,343,5451446,0.0-18.1-22.1,77587,List2B,black,man,,TRUE,3,,,,,,,,,,
null,CORRECT,,html-keyboard-response,344,5452957,0.0-18.1-23.1-0.1,77587,List2B,black,man,,,,null,,,,,,,,,
2614.6,<p>You got 7 out of 8 right first time. Press Continue.</p>,0,html-button-response,345,5455573,0.0-18.1-25.1,77587,List2B,black,man,,,,,,,,,,,,,
2140.3,"As you did not score 100%, the memory game will repeat. Press Continue.",0,html-button-response,346,5458720,0.0-18.1-26.1-0.1,77587,List2B,black,man,,,,,,,,,,,,,
2229.8,"<img src='img/portrait_matrix_list2.jpg' style='width:900px;height:500px;''></img><p>If you have memorised all the portraits and names and are ready to start, press Continue.</p><p><strong>Please note: Your memory of these faces will be tested 4 times during this experiment.</strong></p>",0,html-button-response,347,5461954,0.0-18.2-0.2,77587,List2B,black,man,,,,,,,,,,,,,
6996.9,"<img src=""portrait/WW1.jpg""style=""height:400px;""></img>",1,html-button-response,348,5469963,0.0-18.2-1.2,77587,List2B,black,man,,TRUE,1,,,,,,,,,,
null,CORRECT,,html-keyboard-response,349,5471484,0.0-18.2-2.2-0.2,77587,List2B,black,man,,,,null,,,,,,,,,
3388,"<img src=""portrait/BM2.jpg""style=""height:400px;""></img>",5,html-button-response,350,5474875,0.0-18.2-4.2,77587,List2B,black,man,,TRUE,5,,,,,,,,,,
null,CORRECT,,html-keyboard-response,351,5476388,0.0-18.2-5.2-0.2,77587,List2B,black,man,,,,null,,,,,,,,,
5921.5,"<img src=""portrait/BW1.jpg""style=""height:400px;""></img>",0,html-button-response,352,5482312,0.0-18.2-7.2,77587,List2B,black,man,,TRUE,0,,,,,,,,,,
null,CORRECT,,html-keyboard-response,353,5483816,0.0-18.2-8.2-0.2,77587,List2B,black,man,,,,null,,,,,,,,,
4871.2,"<img src=""portrait/BW2.jpg""style=""height:400px;""></img>",2,html-button-response,354,5488691,0.0-18.2-10.2,77587,List2B,black,man,,TRUE,2,,,,,,,,,,
null,CORRECT,,html-keyboard-response,355,5490206,0.0-18.2-11.2-0.2,77587,List2B,black,man,,,,null,,,,,,,,,
13982.7,"<img src=""portrait/BM1.jpg""style=""height:400px;""></img>",4,html-button-response,356,5504192,0.0-18.2-13.2,77587,List2B,black,man,,TRUE,4,,,,,,,,,,
null,CORRECT,,html-keyboard-response,357,5505697,0.0-18.2-14.2-0.2,77587,List2B,black,man,,,,null,,,,,,,,,
4864.8,"<img src=""portrait/WM2.jpg""style=""height:400px;""></img>",7,html-button-response,358,5510564,0.0-18.2-16.2,77587,List2B,black,man,,TRUE,7,,,,,,,,,,
null,CORRECT,,html-keyboard-response,359,5512067,0.0-18.2-17.2-0.2,77587,List2B,black,man,,,,null,,,,,,,,,
4241.3,"<img src=""portrait/WM1.jpg""style=""height:400px;""></img>",6,html-button-response,360,5516310,0.0-18.2-19.2,77587,List2B,black,man,,TRUE,6,,,,,,,,,,
null,CORRECT,,html-keyboard-response,361,5517821,0.0-18.2-20.2-0.2,77587,List2B,black,man,,,,null,,,,,,,,,
3312.2,"<img src=""portrait/WW2.jpg""style=""height:400px;""></img>",3,html-button-response,362,5521135,0.0-18.2-22.2,77587,List2B,black,man,,TRUE,3,,,,,,,,,,
null,CORRECT,,html-keyboard-response,363,5522652,0.0-18.2-23.2-0.2,77587,List2B,black,man,,,,null,,,,,,,,,
2215,<p>You got 8 out of 8 right first time. Press Continue.</p>,0,html-button-response,364,5524869,0.0-18.2-25.2,77587,List2B,black,man,,,,,,,,,,,,,
null,"<div style=""font-size:60px;"">+</div>",,html-keyboard-response,365,5526382,0.0-19.0-0.0,77587,List2B,black,man,,,,null,,,,,,,,,
null,"<img src=""stim_listB/look1.gif""style=""height:400px;""></stim_listB>",,html-keyboard-response,366,5528394,0.0-19.0-1.0,77587,List2B,black,man,,,,null,,,,,,,,,
null,is looking at,,html-keyboard-response,367,5530408,0.0-19.0-2.0,77587,List2B,black,man,,,,null,,,,,,,,,
11614,,,survey-text,368,5542026,0.0-19.0-3.0,77587,List2B,black,man,,,,,"{""Q0"":""luke is looking at ruth""}","<img src=""stim_listB/look1.gif""style=""height:400px;""></stim_listB>",is looking at,,,,,,
null,"<div style=""font-size:60px;"">+</div>",,html-keyboard-response,369,5542540,0.0-19.0-0.1,77587,List2B,black,man,,,,null,,,,,,,,,
null,"<img src=""stim_listB/greet7.gif""style=""height:400px;""></stim_listB>",,html-keyboard-response,370,5544556,0.0-19.0-1.1,77587,List2B,black,man,,,,null,,,,,,,,,
null,is greeting,,html-keyboard-response,371,5546564,0.0-19.0-2.1,77587,List2B,black,man,,,,null,,,,,,,,,
10212.1,,,survey-text,372,5556779,0.0-19.0-3.1,77587,List2B,black,man,,,,,"{""Q0"":""ruth is greeting jane""}","<img src=""stim_listB/greet7.gif""style=""height:400px;""></stim_listB>",is greeting,,,,,,
null,"<div style=""font-size:60px;"">+</div>",,html-keyboard-response,373,5557295,0.0-19.0-0.2,77587,List2B,black,man,,,,null,,,,,,,,,
null,"<img src=""stim_listB/shout8.gif""style=""height:400px;""></stim_listB>",,html-keyboard-response,374,5559309,0.0-19.0-1.2,77587,List2B,black,man,,,,null,,,,,,,,,
null,is being shouted at by,,html-keyboard-response,375,5561321,0.0-19.0-2.2,77587,List2B,black,man,,,,null,,,,,,,,,
8991.8,,,survey-text,376,5570316,0.0-19.0-3.2,77587,List2B,black,man,,,,,"{""Q0"":""jane shouted at jate""}","<img src=""stim_listB/shout8.gif""style=""height:400px;""></stim_listB>",is being shouted at by,,,,,,
null,"<div style=""font-size:60px;"">+</div>",,html-keyboard-response,377,5570820,0.0-19.0-0.3,77587,List2B,black,man,,,,null,,,,,,,,,
null,"<img src=""stim_listB/copy7.gif""style=""height:400px;""></stim_listB>",,html-keyboard-response,378,5572830,0.0-19.0-1.3,77587,List2B,black,man,,,,null,,,,,,,,,
null,is copying,,html-keyboard-response,379,5574836,0.0-19.0-2.3,77587,List2B,black,man,,,,null,,,,,,,,,
11745.6,,,survey-text,380,5586585,0.0-19.0-3.3,77587,List2B,black,man,,,,,"{""Q0"":""jane is copying kate""}","<img src=""stim_listB/copy7.gif""style=""height:400px;""></stim_listB>",is copying,,,,,,
null,"<div style=""font-size:60px;"">+</div>",,html-keyboard-response,381,5587086,0.0-19.0-0.4,77587,List2B,black,man,,,,null,,,,,,,,,
null,"<img src=""stim_listB/oppose5.gif""style=""height:400px;""></stim_listB>",,html-keyboard-response,382,5589091,0.0-19.0-1.4,77587,List2B,black,man,,,,null,,,,,,,,,
null,is opposing,,html-keyboard-response,383,5591098,0.0-19.0-2.4,77587,List2B,black,man,,,,null,,,,,,,,,
12695.3,,,survey-text,384,5603796,0.0-19.0-3.4,77587,List2B,black,man,,,,,"{""Q0"":""mike is greeting dave\\""}","<img src=""stim_listB/oppose5.gif""style=""height:400px;""></stim_listB>",is opposing,,,,,,
null,"<div style=""font-size:60px;"">+</div>",,html-keyboard-response,385,5604302,0.0-19.0-0.5,77587,List2B,black,man,,,,null,,,,,,,,,
null,"<img src=""stim_listB/look5.gif""style=""height:400px;""></stim_listB>",,html-keyboard-response,386,5606316,0.0-19.0-1.5,77587,List2B,black,man,,,,null,,,,,,,,,
null,is looking at,,html-keyboard-response,387,5608328,0.0-19.0-2.5,77587,List2B,black,man,,,,null,,,,,,,,,
9947.7,,,survey-text,388,5618279,0.0-19.0-3.5,77587,List2B,black,man,,,,,"{""Q0"":""luke is looking at fred""}","<img src=""stim_listB/look5.gif""style=""height:400px;""></stim_listB>",is looking at,,,,,,
null,"<div style=""font-size:60px;"">+</div>",,html-keyboard-response,389,5618790,0.0-19.0-0.6,77587,List2B,black,man,,,,null,,,,,,,,,
null,"<img src=""stim_listB/touch1.gif""style=""height:400px;""></stim_listB>",,html-keyboard-response,390,5620804,0.0-19.0-1.6,77587,List2B,black,man,,,,null,,,,,,,,,
null,is touching,,html-keyboard-response,391,5622809,0.0-19.0-2.6,77587,List2B,black,man,,,,null,,,,,,,,,
10071.8,,,survey-text,392,5632883,0.0-19.0-3.6,77587,List2B,black,man,,,,,"{""Q0"":""jane is touching dave""}","<img src=""stim_listB/touch1.gif""style=""height:400px;""></stim_listB>",is touching,,,,,,
null,"<div style=""font-size:60px;"">+</div>",,html-keyboard-response,393,5633398,0.0-19.0-0.7,77587,List2B,black,man,,,,null,,,,,,,,,
null,"<img src=""stim_listB/shout3.gif""style=""height:400px;""></stim_listB>",,html-keyboard-response,394,5635401,0.0-19.0-1.7,77587,List2B,black,man,,,,null,,,,,,,,,
null,is shouting at,,html-keyboard-response,395,5637408,0.0-19.0-2.7,77587,List2B,black,man,,,,null,,,,,,,,,
12649.2,,,survey-text,396,5650060,0.0-19.0-3.7,77587,List2B,black,man,,,,,"{""Q0"":""fred is shouting beth""}","<img src=""stim_listB/shout3.gif""style=""height:400px;""></stim_listB>",is shouting at,,,,,,
null,"<div style=""font-size:60px;"">+</div>",,html-keyboard-response,397,5650566,0.0-19.0-0.8,77587,List2B,black,man,,,,null,,,,,,,,,
null,"<img src=""stim_listB/copy6.gif""style=""height:400px;""></stim_listB>",,html-keyboard-response,398,5652573,0.0-19.0-1.8,77587,List2B,black,man,,,,null,,,,,,,,,
null,is being copied by,,html-keyboard-response,399,5654587,0.0-19.0-2.8,77587,List2B,black,man,,,,null,,,,,,,,,
15924.3,,,survey-text,400,5670514,0.0-19.0-3.8,77587,List2B,black,man,,,,,"{""Q0"":""luke is being copied by mike""}","<img src=""stim_listB/copy6.gif""style=""height:400px;""></stim_listB>",is being copied by,,,,,,
null,"<div style=""font-size:60px;"">+</div>",,html-keyboard-response,401,5671021,0.0-19.0-0.9,77587,List2B,black,man,,,,null,,,,,,,,,
null,"<img src=""stim_listB/challenge4.gif""style=""height:400px;""></stim_listB>",,html-keyboard-response,402,5673031,0.0-19.0-1.9,77587,List2B,black,man,,,,null,,,,,,,,,
null,is being challenged by,,html-keyboard-response,403,5675048,0.0-19.0-2.9,77587,List2B,black,man,,,,null,,,,,,,,,
14137.1,,,survey-text,404,5689189,0.0-19.0-3.9,77587,List2B,black,man,,,,,"{""Q0"":""kate is being challenged by fred""}","<img src=""stim_listB/challenge4.gif""style=""height:400px;""></stim_listB>",is being challenged by,,,,,,
null,"<div style=""font-size:60px;"">+</div>",,html-keyboard-response,405,5689705,0.0-19.0-0.10,77587,List2B,black,man,,,,null,,,,,,,,,
null,"<img src=""stim_listB/touch5.gif""style=""height:400px;""></stim_listB>",,html-keyboard-response,406,5691720,0.0-19.0-1.10,77587,List2B,black,man,,,,null,,,,,,,,,
null,is touching,,html-keyboard-response,407,5693728,0.0-19.0-2.10,77587,List2B,black,man,,,,null,,,,,,,,,
22924.2,,,survey-text,408,5716655,0.0-19.0-3.10,77587,List2B,black,man,,,,,"{""Q0"":""ruth is touching fred""}","<img src=""stim_listB/touch5.gif""style=""height:400px;""></stim_listB>",is touching,,,,,,
null,"<div style=""font-size:60px;"">+</div>",,html-keyboard-response,409,5717158,0.0-19.0-0.11,77587,List2B,black,man,,,,null,,,,,,,,,
null,"<img src=""stim_listB/touch2.gif""style=""height:400px;""></stim_listB>",,html-keyboard-response,410,5719175,0.0-19.0-1.11,77587,List2B,black,man,,,,null,,,,,,,,,
null,is being touched by,,html-keyboard-response,411,5721192,0.0-19.0-2.11,77587,List2B,black,man,,,,null,,,,,,,,,
11670.1,,,survey-text,412,5732865,0.0-19.0-3.11,77587,List2B,black,man,,,,,"{""Q0"":""luke is being touch by ruth""}","<img src=""stim_listB/touch2.gif""style=""height:400px;""></stim_listB>",is being touched by,,,,,,
null,"<div style=""font-size:60px;"">+</div>",,html-keyboard-response,413,5733380,0.0-19.0-0.12,77587,List2B,black,man,,,,null,,,,,,,,,
null,"<img src=""stim_listB/copy2.gif""style=""height:400px;""></stim_listB>",,html-keyboard-response,414,5735395,0.0-19.0-1.12,77587,List2B,black,man,,,,null,,,,,,,,,
null,is being copied by,,html-keyboard-response,415,5737398,0.0-19.0-2.12,77587,List2B,black,man,,,,null,,,,,,,,,
17850.5,,,survey-text,416,5755252,0.0-19.0-3.12,77587,List2B,black,man,,,,,"{""Q0"":""ruth is copied by ruth""}","<img src=""stim_listB/copy2.gif""style=""height:400px;""></stim_listB>",is being copied by,,,,,,
null,"<div style=""font-size:60px;"">+</div>",,html-keyboard-response,417,5755758,0.0-19.0-0.13,77587,List2B,black,man,,,,null,,,,,,,,,
null,"<img src=""stim_listB/oppose3.gif""style=""height:400px;""></stim_listB>",,html-keyboard-response,418,5757768,0.0-19.0-1.13,77587,List2B,black,man,,,,null,,,,,,,,,
null,is opposing,,html-keyboard-response,419,5759776,0.0-19.0-2.13,77587,List2B,black,man,,,,null,,,,,,,,,
10506.1,,,survey-text,420,5770286,0.0-19.0-3.13,77587,List2B,black,man,,,,,"{""Q0"":""kate is opposing mike""}","<img src=""stim_listB/oppose3.gif""style=""height:400px;""></stim_listB>",is opposing,,,,,,
null,"<div style=""font-size:60px;"">+</div>",,html-keyboard-response,421,5770790,0.0-19.0-0.14,77587,List2B,black,man,,,,null,,,,,,,,,
null,"<img src=""stim_listB/shout1.gif""style=""height:400px;""></stim_listB>",,html-keyboard-response,422,5772794,0.0-19.0-1.14,77587,List2B,black,man,,,,null,,,,,,,,,
null,is shouting at,,html-keyboard-response,423,5774795,0.0-19.0-2.14,77587,List2B,black,man,,,,null,,,,,,,,,
16589.6,,,survey-text,424,5791388,0.0-19.0-3.14,77587,List2B,black,man,,,,,"{""Q0"":""luke is shouting ruth""}","<img src=""stim_listB/shout1.gif""style=""height:400px;""></stim_listB>",is shouting at,,,,,,
null,"<div style=""font-size:60px;"">+</div>",,html-keyboard-response,425,5791897,0.0-19.0-0.15,77587,List2B,black,man,,,,null,,,,,,,,,
null,"<img src=""stim_listB/seduce7.gif""style=""height:400px;""></stim_listB>",,html-keyboard-response,426,5793900,0.0-19.0-1.15,77587,List2B,black,man,,,,null,,,,,,,,,
null,is seducing,,html-keyboard-response,427,5795910,0.0-19.0-2.15,77587,List2B,black,man,,,,null,,,,,,,,,
18329.1,,,survey-text,428,5814242,0.0-19.0-3.15,77587,List2B,black,man,,,,,"{""Q0"":""ruth is seducing  kate""}","<img src=""stim_listB/seduce7.gif""style=""height:400px;""></stim_listB>",is seducing,,,,,,
null,"<div style=""font-size:60px;"">+</div>",,html-keyboard-response,429,5814745,0.0-19.0-0.16,77587,List2B,black,man,,,,null,,,,,,,,,
null,"<img src=""stim_listB/challenge5.gif""style=""height:400px;""></stim_listB>",,html-keyboard-response,430,5816755,0.0-19.0-1.16,77587,List2B,black,man,,,,null,,,,,,,,,
null,is challenging,,html-keyboard-response,431,5818758,0.0-19.0-2.16,77587,List2B,black,man,,,,null,,,,,,,,,
6307.8,,,survey-text,432,5825069,0.0-19.0-3.16,77587,List2B,black,man,,,,,"{""Q0"":""kkk""}","<img src=""stim_listB/challenge5.gif""style=""height:400px;""></stim_listB>",is challenging,,,,,,
null,"<div style=""font-size:60px;"">+</div>",,html-keyboard-response,433,5825585,0.0-19.0-0.17,77587,List2B,black,man,,,,null,,,,,,,,,
null,"<img src=""stim_listB/hug3.gif""style=""height:400px;""></stim_listB>",,html-keyboard-response,434,5827597,0.0-19.0-1.17,77587,List2B,black,man,,,,null,,,,,,,,,
null,is hugging,,html-keyboard-response,435,5829603,0.0-19.0-2.17,77587,List2B,black,man,,,,null,,,,,,,,,
6227.4,,,survey-text,436,5835834,0.0-19.0-3.17,77587,List2B,black,man,,,,,"{""Q0"":""beth is hugging fred""}","<img src=""stim_listB/hug3.gif""style=""height:400px;""></stim_listB>",is hugging,,,,,,
null,"<div style=""font-size:60px;"">+</div>",,html-keyboard-response,437,5836346,0.0-19.0-0.18,77587,List2B,black,man,,,,null,,,,,,,,,
null,"<img src=""stim_listB/kiss5.gif""style=""height:400px;""></stim_listB>",,html-keyboard-response,438,5838350,0.0-19.0-1.18,77587,List2B,black,man,,,,null,,,,,,,,,
null,is kissing,,html-keyboard-response,439,5840356,0.0-19.0-2.18,77587,List2B,black,man,,,,null,,,,,,,,,
11282.8,,,survey-text,440,5851641,0.0-19.0-3.18,77587,List2B,black,man,,,,,"{""Q0"":""fred is kissing luke""}","<img src=""stim_listB/kiss5.gif""style=""height:400px;""></stim_listB>",is kissing,,,,,,
null,"<div style=""font-size:60px;"">+</div>",,html-keyboard-response,441,5852153,0.0-19.0-0.19,77587,List2B,black,man,,,,null,,,,,,,,,
null,"<img src=""stim_listB/copy4.gif""style=""height:400px;""></stim_listB>",,html-keyboard-response,442,5854157,0.0-19.0-1.19,77587,List2B,black,man,,,,null,,,,,,,,,
null,is being copied by,,html-keyboard-response,443,5856163,0.0-19.0-2.19,77587,List2B,black,man,,,,null,,,,,,,,,
6318.2,,,survey-text,444,5862484,0.0-19.0-3.19,77587,List2B,black,man,,,,,"{""Q0"":""o""}","<img src=""stim_listB/copy4.gif""style=""height:400px;""></stim_listB>",is being copied by,,,,,,
5228.8,<p>Thank you for completing that task.</p><p>The final part of this session is a questionnaire that will take about 4 minutes.</p><p>Press Continue.</p>,0,html-button-response,445,5867713,0.0-20.0,77587,List2B,black,man,,,,,,,,,,,,,
194991.1,,,survey-text,446,6063722,0.0-21.0,77587,List2B,black,man,,,,,"{""Q0"":""40"",""Q1"":""English"",""Q2"":""English"",""Q3"":""United State"",""Q4"":""United State"",""Q5"":""Black/ African American"",""Q6"":""Male""}",,,demographics,,,,,
4198.7,<p>Have you lived in the USA for the last 5 years or more?</p>,0,html-button-response,447,6067924,0.0-22.0,77587,List2B,black,man,,,,,,,,fiveyears,,,,,
7022.6,<p>Move the slider to show the extent to which you agree with the following statements.</p>,0,html-button-response,448,6075954,0.0-23.0,77587,List2B,black,man,,,,,,,,,,,,,
10433.2,,,html-slider-response,449,6087408,0.0-24.0-0.0-0.0,77587,List2B,black,man,,,,,,,,survey_race,84,,,Getting older does not worry me.,filler
7311.8,,,html-slider-response,450,6094725,0.0-24.0-0.0-0.1,77587,List2B,black,man,,,,,,,,survey_race,87,,,I feel a bond with people the same age as me.,filler
7268.8,,,html-slider-response,451,6101997,0.0-24.0-0.0-0.2,77587,List2B,black,man,,,,,,,,survey_race,87,,,I often think about the fact that I am my race.,often
4539.9,,,html-slider-response,452,6106541,0.0-24.0-0.0-0.3,77587,List2B,black,man,,,,,,,,survey_race,90,,,Being my age gives me a good feeling.,filler
6953.5,,,html-slider-response,453,6113498,0.0-24.0-0.0-0.4,77587,List2B,black,man,,,,,,,,survey_race,87,,,I am glad to be the age I am.,filler
5357.4,,,html-slider-response,454,6118859,0.0-24.0-0.0-0.5,77587,List2B,black,man,,,,,,,,survey_race,93,,,I consider myself an extrovert.,filler
3700.9,,,html-slider-response,455,6122561,0.0-24.0-0.0-0.6,77587,List2B,black,man,,,,,,,,survey_race,79,,,People my age have a lot in common with each other.,filler
3439.8,,,html-slider-response,456,6126005,0.0-24.0-0.0-0.7,77587,List2B,black,man,,,,,,,,survey_race,73,,,I feel solidarity with people the same age as me.,filler
3214.9,,,html-slider-response,457,6129222,0.0-24.0-0.0-0.8,77587,List2B,black,man,,,,,,,,survey_race,80,,,I have a lot in common with people of a similar age to me.,filler
3087.6,,,html-slider-response,458,6132313,0.0-24.0-0.0-0.9,77587,List2B,black,man,,,,,,,,survey_race,85,,,I often think about the fact that I am my age.,filler
4047.7,,,html-slider-response,459,6136364,0.0-24.0-0.0-0.10,77587,List2B,black,man,,,,,,,,survey_race,82,,,I have a lot in common with the average person of my race.,average
3307.5,,,html-slider-response,460,6139675,0.0-24.0-0.0-0.11,77587,List2B,black,man,,,,,,,,survey_race,92,,,It is pleasant to be my race.,pleasant
4415.4,,,html-slider-response,461,6144092,0.0-24.0-0.0-0.12,77587,List2B,black,man,,,,,,,,survey_race,91,,,Being my race is an important part of how I see myself.,important
3090.1,,,html-slider-response,462,6147186,0.0-24.0-0.0-0.13,77587,List2B,black,man,,,,,,,,survey_race,81,,,I feel solidarity with my race.,solidarity
3562.8,,,html-slider-response,463,6150751,0.0-24.0-0.0-0.14,77587,List2B,black,man,,,,,,,,survey_race,90,,,I am similar to the average person of my race.,similar
3213.4,,,html-slider-response,464,6153968,0.0-24.0-0.0-0.15,77587,List2B,black,man,,,,,,,,survey_race,88,,,I consider myself an introvert.,filler
3771.7,,,html-slider-response,465,6157742,0.0-24.0-0.0-0.16,77587,List2B,black,man,,,,,,,,survey_race,92,,,I am glad to be my race.,glad
3082.5,,,html-slider-response,466,6160828,0.0-24.0-0.0-0.17,77587,List2B,black,man,,,,,,,,survey_race,92,,,I enjoy being in large groups.,filler
2772.1,,,html-slider-response,467,6163603,0.0-24.0-0.0-0.18,77587,List2B,black,man,,,,,,,,survey_race,89,,,I feel a bond with my race.,bond
3975.5,,,html-slider-response,468,6167582,0.0-24.0-0.0-0.19,77587,List2B,black,man,,,,,,,,survey_race,94,,,I feel committed to my race.,committed
4126,,,html-slider-response,469,6171711,0.0-24.0-0.0-0.20,77587,List2B,black,man,,,,,,,,survey_race,100,,,People of my race have a lot in common with each other.,common
3544.9,,,html-slider-response,470,6175260,0.0-24.0-0.0-0.21,77587,List2B,black,man,,,,,,,,survey_race,80,,,People of my race are very similar to each other.,verysimilar
10428,,,html-slider-response,471,6185692,0.0-24.0-0.0-0.22,77587,List2B,black,man,,,,,,,,survey_race,63,,,I think that my race has a lot to be proud of.,proud
3135.5,,,html-slider-response,472,6188831,0.0-24.0-0.0-0.23,77587,List2B,black,man,,,,,,,,survey_race,69,,,Being my race gives me a good feeling.,feeling
2651.4,,,html-slider-response,473,6191485,0.0-24.0-0.0-0.24,77587,List2B,black,man,,,,,,,,survey_race,69,,,I am glad to be my age.,filler
3325,,,html-slider-response,474,6194811,0.0-24.0-0.0-0.25,77587,List2B,black,man,,,,,,,,survey_race,81,,,The fact that I am my race is an important part of my identity.,identity
11769.5,,,html-slider-response,475,6206584,0.0-24.0-0.0-0.26,77587,List2B,black,man,,,,,,,,survey_race,68,,,My age is not an important part of who I am.,filler
4122.2,,,html-slider-response,476,6210708,0.0-24.0-0.0-0.27,77587,List2B,black,man,,,,,,,,survey_race,82,,,"The older I get, the wiser I feel.",filler
2552.8,,,html-slider-response,477,6213263,0.0-24.0-1.0-0.0,77587,List2B,black,man,,,,,,,,survey_gender,90,,,Routine is not important to me.,filler
3086.9,,,html-slider-response,478,6216352,0.0-24.0-1.0-0.1,77587,List2B,black,man,,,,,,,,survey_gender,81,,,Family is not more important to me than friendship.,filler
3054.3,,,html-slider-response,479,6219408,0.0-24.0-1.0-0.2,77587,List2B,black,man,,,,,,,,survey_gender,73,,,Being around my friends gives me a good feeling.,filler
3772,,,html-slider-response,480,6223183,0.0-24.0-1.0-0.3,77587,List2B,black,man,,,,,,,,survey_gender,92,,,I feel a bond with my friends.,filler
3540.3,,,html-slider-response,481,6226726,0.0-24.0-1.0-0.4,77587,List2B,black,man,,,,,,,,survey_gender,79,,,I feel committed to my gender.,committed
2367.6,,,html-slider-response,482,6229095,0.0-24.0-1.0-0.5,77587,List2B,black,man,,,,,,,,survey_gender,82,,,It is pleasant to be my gender.,pleasant
2856.6,,,html-slider-response,483,6231954,0.0-24.0-1.0-0.6,77587,List2B,black,man,,,,,,,,survey_gender,80,,,I would say I am an animal person.,filler
4417.5,,,html-slider-response,484,6236374,0.0-24.0-1.0-0.7,77587,List2B,black,man,,,,,,,,survey_gender,74,,,I feel solidarity with my friends.,filler
4156.7,,,html-slider-response,485,6240533,0.0-24.0-1.0-0.8,77587,List2B,black,man,,,,,,,,survey_gender,78,,,I am glad to have the friends that I have.,filler
2380.8,,,html-slider-response,486,6242916,0.0-24.0-1.0-0.9,77587,List2B,black,man,,,,,,,,survey_gender,79,,,Most of the friends in my life are very similar to me.,filler
2825.2,,,html-slider-response,487,6245745,0.0-24.0-1.0-0.10,77587,List2B,black,man,,,,,,,,survey_gender,87,,,My friends have a lot in common with each other.,filler
3396.1,,,html-slider-response,488,6249143,0.0-24.0-1.0-0.11,77587,List2B,black,man,,,,,,,,survey_gender,81,,,I often think about my actions.,filler
2601.3,,,html-slider-response,489,6251747,0.0-24.0-1.0-0.12,77587,List2B,black,man,,,,,,,,survey_gender,80,,,People of my gender have a lot in common with each other.,common
6490.3,,,html-slider-response,490,6258239,0.0-24.0-1.0-0.13,77587,List2B,black,man,,,,,,,,survey_gender,26,,,It is not always easy for people to know what I am thinking.,filler
3552.6,,,html-slider-response,491,6261794,0.0-24.0-1.0-0.14,77587,List2B,black,man,,,,,,,,survey_gender,73,,,I have a lot in common with my friends.,filler
2665.9,,,html-slider-response,492,6264463,0.0-24.0-1.0-0.15,77587,List2B,black,man,,,,,,,,survey_gender,75,,,People of my gender are very similar to each other.,verysimilar
2824.2,,,html-slider-response,493,6267289,0.0-24.0-1.0-0.16,77587,List2B,black,man,,,,,,,,survey_gender,75,,,Being my gender is an important part of how I see myself.,important
4456.6,,,html-slider-response,494,6271749,0.0-24.0-1.0-0.17,77587,List2B,black,man,,,,,,,,survey_gender,72,,,I consider myself a highly empathetic person.,filler
2645.1,,,html-slider-response,495,6274397,0.0-24.0-1.0-0.18,77587,List2B,black,man,,,,,,,,survey_gender,82,,,My friends understand me.,filler
3782.8,,,html-slider-response,496,6278182,0.0-24.0-1.0-0.19,77587,List2B,black,man,,,,,,,,survey_gender,64,,,I think that my gender has a lot to be proud of.,proud
2689.2,,,html-slider-response,497,6280874,0.0-24.0-1.0-0.20,77587,List2B,black,man,,,,,,,,survey_gender,74,,,I often think about the fact that I am my gender.,often
4049.3,,,html-slider-response,498,6284927,0.0-24.0-1.0-0.21,77587,List2B,black,man,,,,,,,,survey_gender,75,,,The fact that I am my gender is an important part of my identity.,identity
3318.7,,,html-slider-response,499,6288250,0.0-24.0-1.0-0.22,77587,List2B,black,man,,,,,,,,survey_gender,66,,,I have a lot in common with the average person of my gender.,average
9366.5,,,html-slider-response,500,6297619,0.0-24.0-1.0-0.23,77587,List2B,black,man,,,,,,,,survey_gender,67,,,I am similar to the average person of my gender.,similar
5592,,,html-slider-response,501,6303215,0.0-24.0-1.0-0.24,77587,List2B,black,man,,,,,,,,survey_gender,72,,,I feel solidarity with my gender.,solidarity
2937.7,,,html-slider-response,502,6306154,0.0-24.0-1.0-0.25,77587,List2B,black,man,,,,,,,,survey_gender,79,,,I feel a bond with my gender.,bond
3401.7,,,html-slider-response,503,6309559,0.0-24.0-1.0-0.26,77587,List2B,black,man,,,,,,,,survey_gender,83,,,Being my gender gives me a good feeling.,feeling
3089.2,,,html-slider-response,504,6312650,0.0-24.0-1.0-0.27,77587,List2B,black,man,,,,,,,,survey_gender,88,,,I am glad to be my gender.,glad
21249.8,,,survey-text,505,6333906,0.0-25.0,77587,List2B,black,man,,,,,"{""Q0"":""ccc""}",,,worker_id,,,,,
7780.4,,,external-html,506,6343301,0.0-26.0,77587,List2B,black,man,debrief.html,,,,,,,,,,,,
