rt,stimulus,button_pressed,trial_type,trial_index,time_elapsed,internal_node_id,subject,list,ppt_race,ppt_gender,url,first_guess,correct,key_press,responses,image_type,phrase_type,test_part,response,stimulus1,stimulus2,question_type,survey_item
574980.8,Welcome to the experiment. Press Continue to begin.,0,html-button-response,0,574984,0.0-0.0,77886,List1B,black,woman,,,,,,,,,,,,,
15491.5,,,external-html,1,591861,0.0-1.0,77886,List1B,black,woman,consent.html,,,,,,,,,,,,
293361.1,"<p>On the next page, you will see portraits of 8 people and their names.</p><p>Your first task is to take a few minutes to memorise the names of these people.</p><p>You will have to recall their names during the rest of the experiment, so it is</p><p>essential that you try to memorise these people and their names as best as you can.</p><br><p><strong>You will then be tested on your memory of these names and portraits.</strong></p><br><p>The experiment will start after you have completed this memory test.</p><br><p>Ready?</p>",0,html-button-response,2,885224,0.0-2.0,77886,List1B,black,woman,,,,,,,,,,,,,
47836.2,"<img src='img/portrait_matrix_list1.jpg' style='width:900px;height:500px;''></img><p>If you have memorised all the portraits and names and are ready to start, press Continue.</p><p><strong>Please note: Your memory of these faces will be tested 4 times during this experiment.</strong></p>",0,html-button-response,3,934070,0.0-3.0-0.0,77886,List1B,black,woman,,,,,,,,,,,,,
8115.3,"<img src=""portrait/WM2.jpg""style=""height:400px;""></img>",7,html-button-response,4,943200,0.0-3.0-1.0,77886,List1B,black,woman,,TRUE,7,,,,,,,,,,
null,CORRECT,,html-keyboard-response,5,944718,0.0-3.0-2.0-0.0,77886,List1B,black,woman,,,,null,,,,,,,,,
5091.9,"<img src=""portrait/WW2.jpg""style=""height:400px;""></img>",3,html-button-response,6,949812,0.0-3.0-4.0,77886,List1B,black,woman,,TRUE,3,,,,,,,,,,
null,CORRECT,,html-keyboard-response,7,951323,0.0-3.0-5.0-0.0,77886,List1B,black,woman,,,,null,,,,,,,,,
3673.8,"<img src=""portrait/WW1.jpg""style=""height:400px;""></img>",1,html-button-response,8,954998,0.0-3.0-7.0,77886,List1B,black,woman,,TRUE,1,,,,,,,,,,
null,CORRECT,,html-keyboard-response,9,956514,0.0-3.0-8.0-0.0,77886,List1B,black,woman,,,,null,,,,,,,,,
2836.4,"<img src=""portrait/BW1.jpg""style=""height:400px;""></img>",0,html-button-response,10,959352,0.0-3.0-10.0,77886,List1B,black,woman,,TRUE,0,,,,,,,,,,
null,CORRECT,,html-keyboard-response,11,960866,0.0-3.0-11.0-0.0,77886,List1B,black,woman,,,,null,,,,,,,,,
3061.1,"<img src=""portrait/WM1.jpg""style=""height:400px;""></img>",6,html-button-response,12,963928,0.0-3.0-13.0,77886,List1B,black,woman,,TRUE,6,,,,,,,,,,
null,CORRECT,,html-keyboard-response,13,965452,0.0-3.0-14.0-0.0,77886,List1B,black,woman,,,,null,,,,,,,,,
3324.7,"<img src=""portrait/BW2.jpg""style=""height:400px;""></img>",2,html-button-response,14,968778,0.0-3.0-16.0,77886,List1B,black,woman,,TRUE,2,,,,,,,,,,
null,CORRECT,,html-keyboard-response,15,970297,0.0-3.0-17.0-0.0,77886,List1B,black,woman,,,,null,,,,,,,,,
2641.8,"<img src=""portrait/BM2.jpg""style=""height:400px;""></img>",5,html-button-response,16,972940,0.0-3.0-19.0,77886,List1B,black,woman,,TRUE,5,,,,,,,,,,
null,CORRECT,,html-keyboard-response,17,974460,0.0-3.0-20.0-0.0,77886,List1B,black,woman,,,,null,,,,,,,,,
6188.2,"<img src=""portrait/BM1.jpg""style=""height:400px;""></img>",4,html-button-response,18,980649,0.0-3.0-22.0,77886,List1B,black,woman,,TRUE,4,,,,,,,,,,
null,CORRECT,,html-keyboard-response,19,982172,0.0-3.0-23.0-0.0,77886,List1B,black,woman,,,,null,,,,,,,,,
1481.7,<p>You got 8 out of 8 right first time. Press Continue.</p>,0,html-button-response,20,983655,0.0-3.0-25.0,77886,List1B,black,woman,,,,,,,,,,,,,
39560.2,"<p>In this experiment, you will view photographs of the people from the memory game interacting.</p><p>By using the <strong>exact</strong> phrase given <i>after</i> the photograph appears and recalling the correct names of the people in the photographs, form a sentence describing the interaction. You do not need to capitalise names.</p><p>Type your answer in the space provided. Please complete every sentence before moving onto the next trial.</p><p>You will only have a few seconds to memorise each given photograph and phrase before you can respond, so try your best to focus.</p><p>An example is given below. Press 'Continue' when you are ready.</p><img src='img/speaking_example.jpg' style='width:800px;height:460px;''></img>",0,html-button-response,21,1024229,0.0-4.0,77886,List1B,black,woman,,,,,,,,,,,,,
1812.5,"<p>Before the experiment starts, you will watch two example trials. Press 'Continue'.</p>",0,html-button-response,22,1027049,0.0-5.0,77886,List1B,black,woman,,,,,,,,,,,,,
null,<img src='img/play_eg.gif' style='height:400px;''></img>,,html-keyboard-response,23,1030065,0.0-6.0,77886,List1B,black,woman,,,,null,,,,,,,,,
null,<p>is playing with</p>,,html-keyboard-response,24,1032069,0.0-7.0,77886,List1B,black,woman,,,,null,,,,,,,,,
3423,<p><b>Answer:</b> kate is playing with beth</p>,0,html-button-response,25,1035493,0.0-8.0,77886,List1B,black,woman,,,,,,,,,,,,,
null,<img src='img/dance_eg.gif' style='height:400px;''></img>,,html-keyboard-response,26,1038508,0.0-9.0,77886,List1B,black,woman,,,,null,,,,,,,,,
null,<p>is being entertained by</p>,,html-keyboard-response,27,1040515,0.0-10.0,77886,List1B,black,woman,,,,null,,,,,,,,,
2607.4,<p><b>Answer:</b> luke is being entertained by dave</p>,0,html-button-response,28,1043123,0.0-11.0,77886,List1B,black,woman,,,,,,,,,,,,,
8381.6,"<p>Ready to start the experiment?</p><br><p><strong>Remember to describe the picture using a full sentence,</strong></p><p><strong>that combines the names of the people with the <i>exact</i> phrase given.</strong></p><p><strong>To receive full payment you must do this correctly.</strong></p><p><strong> You do not need to capitalise names or use punctuation.</strong></p><br><p>Press 'Continue' to begin.</p>",0,html-button-response,29,1052513,0.0-12.0,77886,List1B,black,woman,,,,,,,,,,,,,
null,"<div style=""font-size:60px;"">+</div>",,html-keyboard-response,30,1054031,0.0-13.0-0.0,77886,List1B,black,woman,,,,null,,,,,,,,,
null,"<img src=""stim_listB/look4.gif""style=""height:400px;""></stim_listB>",,html-keyboard-response,31,1056046,0.0-13.0-1.0,77886,List1B,black,woman,,,,null,,,,,,,,,
null,is being looked at by,,html-keyboard-response,32,1058051,0.0-13.0-2.0,77886,List1B,black,woman,,,,null,,,,,,,,,
8130.2,,,survey-text,33,1066183,0.0-13.0-3.0,77886,List1B,black,woman,,,,,"{""Q0"":""Dave is being looked at by Jane""}","<img src=""stim_listB/look4.gif""style=""height:400px;""></stim_listB>",is being looked at by,,,,,,
null,"<div style=""font-size:60px;"">+</div>",,html-keyboard-response,34,1066693,0.0-13.0-0.1,77886,List1B,black,woman,,,,null,,,,,,,,,
null,"<img src=""stim_listB/touch6.gif""style=""height:400px;""></stim_listB>",,html-keyboard-response,35,1068708,0.0-13.0-1.1,77886,List1B,black,woman,,,,null,,,,,,,,,
null,is being touched by,,html-keyboard-response,36,1070722,0.0-13.0-2.1,77886,List1B,black,woman,,,,null,,,,,,,,,
7893.7,,,survey-text,37,1078617,0.0-13.0-3.1,77886,List1B,black,woman,,,,,"{""Q0"":""Fred is being touched by Luke""}","<img src=""stim_listB/touch6.gif""style=""height:400px;""></stim_listB>",is being touched by,,,,,,
null,"<div style=""font-size:60px;"">+</div>",,html-keyboard-response,38,1079118,0.0-13.0-0.2,77886,List1B,black,woman,,,,null,,,,,,,,,
null,"<img src=""stim_listB/touch2.gif""style=""height:400px;""></stim_listB>",,html-keyboard-response,39,1081132,0.0-13.0-1.2,77886,List1B,black,woman,,,,null,,,,,,,,,
null,is being touched by,,html-keyboard-response,40,1083133,0.0-13.0-2.2,77886,List1B,black,woman,,,,null,,,,,,,,,
10324,,,survey-text,41,1093459,0.0-13.0-3.2,77886,List1B,black,woman,,,,,"{""Q0"":""Beth is being touched by Fred""}","<img src=""stim_listB/touch2.gif""style=""height:400px;""></stim_listB>",is being touched by,,,,,,
null,"<div style=""font-size:60px;"">+</div>",,html-keyboard-response,42,1093961,0.0-13.0-0.3,77886,List1B,black,woman,,,,null,,,,,,,,,
null,"<img src=""stim_listB/copy2.gif""style=""height:400px;""></stim_listB>",,html-keyboard-response,43,1095969,0.0-13.0-1.3,77886,List1B,black,woman,,,,null,,,,,,,,,
null,is being copied by,,html-keyboard-response,44,1097970,0.0-13.0-2.3,77886,List1B,black,woman,,,,null,,,,,,,,,
7407.1,,,survey-text,45,1105379,0.0-13.0-3.3,77886,List1B,black,woman,,,,,"{""Q0"":""Kate is being copied by Fred""}","<img src=""stim_listB/copy2.gif""style=""height:400px;""></stim_listB>",is being copied by,,,,,,
null,"<div style=""font-size:60px;"">+</div>",,html-keyboard-response,46,1105881,0.0-13.0-0.4,77886,List1B,black,woman,,,,null,,,,,,,,,
null,"<img src=""stim_listB/touch3.gif""style=""height:400px;""></stim_listB>",,html-keyboard-response,47,1107894,0.0-13.0-1.4,77886,List1B,black,woman,,,,null,,,,,,,,,
null,is touching,,html-keyboard-response,48,1109900,0.0-13.0-2.4,77886,List1B,black,woman,,,,null,,,,,,,,,
5040.4,,,survey-text,49,1114942,0.0-13.0-3.4,77886,List1B,black,woman,,,,,"{""Q0"":""Dave is touching Jane""}","<img src=""stim_listB/touch3.gif""style=""height:400px;""></stim_listB>",is touching,,,,,,
null,"<div style=""font-size:60px;"">+</div>",,html-keyboard-response,50,1115444,0.0-13.0-0.5,77886,List1B,black,woman,,,,null,,,,,,,,,
null,"<img src=""stim_listB/challenge7.gif""style=""height:400px;""></stim_listB>",,html-keyboard-response,51,1117450,0.0-13.0-1.5,77886,List1B,black,woman,,,,null,,,,,,,,,
null,is challenging,,html-keyboard-response,52,1119465,0.0-13.0-2.5,77886,List1B,black,woman,,,,null,,,,,,,,,
6837.6,,,survey-text,53,1126304,0.0-13.0-3.5,77886,List1B,black,woman,,,,,"{""Q0"":""Kate is challenging Ruth""}","<img src=""stim_listB/challenge7.gif""style=""height:400px;""></stim_listB>",is challenging,,,,,,
null,"<div style=""font-size:60px;"">+</div>",,html-keyboard-response,54,1126815,0.0-13.0-0.6,77886,List1B,black,woman,,,,null,,,,,,,,,
null,"<img src=""stim_listB/seduce4.gif""style=""height:400px;""></stim_listB>",,html-keyboard-response,55,1128820,0.0-13.0-1.6,77886,List1B,black,woman,,,,null,,,,,,,,,
null,is being seduced by,,html-keyboard-response,56,1130824,0.0-13.0-2.6,77886,List1B,black,woman,,,,null,,,,,,,,,
9044,,,survey-text,57,1139870,0.0-13.0-3.6,77886,List1B,black,woman,,,,,"{""Q0"":""Ruth is being seduced by Dave""}","<img src=""stim_listB/seduce4.gif""style=""height:400px;""></stim_listB>",is being seduced by,,,,,,
null,"<div style=""font-size:60px;"">+</div>",,html-keyboard-response,58,1140372,0.0-13.0-0.7,77886,List1B,black,woman,,,,null,,,,,,,,,
null,"<img src=""stim_listB/kiss6.gif""style=""height:400px;""></stim_listB>",,html-keyboard-response,59,1142387,0.0-13.0-1.7,77886,List1B,black,woman,,,,null,,,,,,,,,
null,is being kissed by,,html-keyboard-response,60,1144396,0.0-13.0-2.7,77886,List1B,black,woman,,,,null,,,,,,,,,
8259.8,,,survey-text,61,1152658,0.0-13.0-3.7,77886,List1B,black,woman,,,,,"{""Q0"":""Dave is being kissed by Mike""}","<img src=""stim_listB/kiss6.gif""style=""height:400px;""></stim_listB>",is being kissed by,,,,,,
null,"<div style=""font-size:60px;"">+</div>",,html-keyboard-response,62,1153161,0.0-13.0-0.8,77886,List1B,black,woman,,,,null,,,,,,,,,
null,"<img src=""stim_listB/kiss2.gif""style=""height:400px;""></stim_listB>",,html-keyboard-response,63,1155168,0.0-13.0-1.8,77886,List1B,black,woman,,,,null,,,,,,,,,
null,is being kissed by,,html-keyboard-response,64,1157175,0.0-13.0-2.8,77886,List1B,black,woman,,,,null,,,,,,,,,
8159.1,,,survey-text,65,1165336,0.0-13.0-3.8,77886,List1B,black,woman,,,,,"{""Q0"":""Mike is being kissed by Kate""}","<img src=""stim_listB/kiss2.gif""style=""height:400px;""></stim_listB>",is being kissed by,,,,,,
null,"<div style=""font-size:60px;"">+</div>",,html-keyboard-response,66,1165844,0.0-13.0-0.9,77886,List1B,black,woman,,,,null,,,,,,,,,
null,"<img src=""stim_listB/challenge6.gif""style=""height:400px;""></stim_listB>",,html-keyboard-response,67,1167860,0.0-13.0-1.9,77886,List1B,black,woman,,,,null,,,,,,,,,
null,is being challenged by,,html-keyboard-response,68,1169864,0.0-13.0-2.9,77886,List1B,black,woman,,,,null,,,,,,,,,
4652.8,,,survey-text,69,1174518,0.0-13.0-3.9,77886,List1B,black,woman,,,,,"{""Q0"":""Dave is being challenged by Fred""}","<img src=""stim_listB/challenge6.gif""style=""height:400px;""></stim_listB>",is being challenged by,,,,,,
null,"<div style=""font-size:60px;"">+</div>",,html-keyboard-response,70,1175033,0.0-13.0-0.10,77886,List1B,black,woman,,,,null,,,,,,,,,
null,"<img src=""stim_listB/greet3.gif""style=""height:400px;""></stim_listB>",,html-keyboard-response,71,1177040,0.0-13.0-1.10,77886,List1B,black,woman,,,,null,,,,,,,,,
null,is greeting,,html-keyboard-response,72,1179044,0.0-13.0-2.10,77886,List1B,black,woman,,,,null,,,,,,,,,
9109.9,,,survey-text,73,1188155,0.0-13.0-3.10,77886,List1B,black,woman,,,,,"{""Q0"":""Dave is greeting Ruth ""}","<img src=""stim_listB/greet3.gif""style=""height:400px;""></stim_listB>",is greeting,,,,,,
null,"<div style=""font-size:60px;"">+</div>",,html-keyboard-response,74,1188656,0.0-13.0-0.11,77886,List1B,black,woman,,,,null,,,,,,,,,
null,"<img src=""stim_listB/touch4.gif""style=""height:400px;""></stim_listB>",,html-keyboard-response,75,1190669,0.0-13.0-1.11,77886,List1B,black,woman,,,,null,,,,,,,,,
null,is being touched by,,html-keyboard-response,76,1192673,0.0-13.0-2.11,77886,List1B,black,woman,,,,null,,,,,,,,,
12283.1,,,survey-text,77,1204958,0.0-13.0-3.11,77886,List1B,black,woman,,,,,"{""Q0"":""Luke is touched by Ruth""}","<img src=""stim_listB/touch4.gif""style=""height:400px;""></stim_listB>",is being touched by,,,,,,
null,"<div style=""font-size:60px;"">+</div>",,html-keyboard-response,78,1205460,0.0-13.0-0.12,77886,List1B,black,woman,,,,null,,,,,,,,,
null,"<img src=""stim_listB/seduce7.gif""style=""height:400px;""></stim_listB>",,html-keyboard-response,79,1207472,0.0-13.0-1.12,77886,List1B,black,woman,,,,null,,,,,,,,,
null,is seducing,,html-keyboard-response,80,1209472,0.0-13.0-2.12,77886,List1B,black,woman,,,,null,,,,,,,,,
11459.8,,,survey-text,81,1220934,0.0-13.0-3.12,77886,List1B,black,woman,,,,,"{""Q0"":""Beth is seducing Jane""}","<img src=""stim_listB/seduce7.gif""style=""height:400px;""></stim_listB>",is seducing,,,,,,
null,"<div style=""font-size:60px;"">+</div>",,html-keyboard-response,82,1221438,0.0-13.0-0.13,77886,List1B,black,woman,,,,null,,,,,,,,,
null,"<img src=""stim_listB/copy3.gif""style=""height:400px;""></stim_listB>",,html-keyboard-response,83,1223450,0.0-13.0-1.13,77886,List1B,black,woman,,,,null,,,,,,,,,
null,is copying,,html-keyboard-response,84,1225456,0.0-13.0-2.13,77886,List1B,black,woman,,,,null,,,,,,,,,
5988.5,,,survey-text,85,1231446,0.0-13.0-3.13,77886,List1B,black,woman,,,,,"{""Q0"":""Ruth is copying Dave""}","<img src=""stim_listB/copy3.gif""style=""height:400px;""></stim_listB>",is copying,,,,,,
null,"<div style=""font-size:60px;"">+</div>",,html-keyboard-response,86,1231962,0.0-13.0-0.14,77886,List1B,black,woman,,,,null,,,,,,,,,
null,"<img src=""stim_listB/shout1.gif""style=""height:400px;""></stim_listB>",,html-keyboard-response,87,1233974,0.0-13.0-1.14,77886,List1B,black,woman,,,,null,,,,,,,,,
null,is shouting at,,html-keyboard-response,88,1235986,0.0-13.0-2.14,77886,List1B,black,woman,,,,null,,,,,,,,,
4874.7,,,survey-text,89,1240862,0.0-13.0-3.14,77886,List1B,black,woman,,,,,"{""Q0"":""Fred is shouting at Beth""}","<img src=""stim_listB/shout1.gif""style=""height:400px;""></stim_listB>",is shouting at,,,,,,
null,"<div style=""font-size:60px;"">+</div>",,html-keyboard-response,90,1241374,0.0-13.0-0.15,77886,List1B,black,woman,,,,null,,,,,,,,,
null,"<img src=""stim_listB/shout3.gif""style=""height:400px;""></stim_listB>",,html-keyboard-response,91,1243378,0.0-13.0-1.15,77886,List1B,black,woman,,,,null,,,,,,,,,
null,is shouting at,,html-keyboard-response,92,1245386,0.0-13.0-2.15,77886,List1B,black,woman,,,,null,,,,,,,,,
5514.1,,,survey-text,93,1250901,0.0-13.0-3.15,77886,List1B,black,woman,,,,,"{""Q0"":""Ruth is shouting at Luke""}","<img src=""stim_listB/shout3.gif""style=""height:400px;""></stim_listB>",is shouting at,,,,,,
null,"<div style=""font-size:60px;"">+</div>",,html-keyboard-response,94,1251414,0.0-13.0-0.16,77886,List1B,black,woman,,,,null,,,,,,,,,
null,"<img src=""stim_listB/look5.gif""style=""height:400px;""></stim_listB>",,html-keyboard-response,95,1253424,0.0-13.0-1.16,77886,List1B,black,woman,,,,null,,,,,,,,,
null,is looking at,,html-keyboard-response,96,1255429,0.0-13.0-2.16,77886,List1B,black,woman,,,,null,,,,,,,,,
3575,,,survey-text,97,1259006,0.0-13.0-3.16,77886,List1B,black,woman,,,,,"{""Q0"":""Fred is looking at Luke""}","<img src=""stim_listB/look5.gif""style=""height:400px;""></stim_listB>",is looking at,,,,,,
null,"<div style=""font-size:60px;"">+</div>",,html-keyboard-response,98,1259521,0.0-13.0-0.17,77886,List1B,black,woman,,,,null,,,,,,,,,
null,"<img src=""stim_listB/kiss1.gif""style=""height:400px;""></stim_listB>",,html-keyboard-response,99,1261527,0.0-13.0-1.17,77886,List1B,black,woman,,,,null,,,,,,,,,
null,is kissing,,html-keyboard-response,100,1263534,0.0-13.0-2.17,77886,List1B,black,woman,,,,null,,,,,,,,,
4246.3,,,survey-text,101,1267782,0.0-13.0-3.17,77886,List1B,black,woman,,,,,"{""Q0"":""Beth is kissing Fred""}","<img src=""stim_listB/kiss1.gif""style=""height:400px;""></stim_listB>",is kissing,,,,,,
null,"<div style=""font-size:60px;"">+</div>",,html-keyboard-response,102,1268291,0.0-13.0-0.18,77886,List1B,black,woman,,,,null,,,,,,,,,
null,"<img src=""stim_listB/touch1.gif""style=""height:400px;""></stim_listB>",,html-keyboard-response,103,1270304,0.0-13.0-1.18,77886,List1B,black,woman,,,,null,,,,,,,,,
null,is touching,,html-keyboard-response,104,1272318,0.0-13.0-2.18,77886,List1B,black,woman,,,,null,,,,,,,,,
4933.4,,,survey-text,105,1277253,0.0-13.0-3.18,77886,List1B,black,woman,,,,,"{""Q0"":""Mike is touching Kate""}","<img src=""stim_listB/touch1.gif""style=""height:400px;""></stim_listB>",is touching,,,,,,
null,"<div style=""font-size:60px;"">+</div>",,html-keyboard-response,106,1277768,0.0-13.0-0.19,77886,List1B,black,woman,,,,null,,,,,,,,,
null,"<img src=""stim_listB/shout7.gif""style=""height:400px;""></stim_listB>",,html-keyboard-response,107,1279778,0.0-13.0-1.19,77886,List1B,black,woman,,,,null,,,,,,,,,
null,is shouting at,,html-keyboard-response,108,1281783,0.0-13.0-2.19,77886,List1B,black,woman,,,,null,,,,,,,,,
4820.5,,,survey-text,109,1286605,0.0-13.0-3.19,77886,List1B,black,woman,,,,,"{""Q0"":""Ruth is shouting at Beth""}","<img src=""stim_listB/shout7.gif""style=""height:400px;""></stim_listB>",is shouting at,,,,,,
6491.6,"<img src='img/portrait_matrix_list1.jpg' style='width:900px;height:500px;''></img><p>If you have memorised all the portraits and names and are ready to start, press Continue.</p><p><strong>Please note: Your memory of these faces will be tested 4 times during this experiment.</strong></p>",0,html-button-response,110,1293098,0.0-14.0-0.0,77886,List1B,black,woman,,,,,,,,,,,,,
3472,"<img src=""portrait/BW2.jpg""style=""height:400px;""></img>",2,html-button-response,111,1297578,0.0-14.0-1.0,77886,List1B,black,woman,,TRUE,2,,,,,,,,,,
null,CORRECT,,html-keyboard-response,112,1299100,0.0-14.0-2.0-0.0,77886,List1B,black,woman,,,,null,,,,,,,,,
2932.6,"<img src=""portrait/BM2.jpg""style=""height:400px;""></img>",5,html-button-response,113,1302034,0.0-14.0-4.0,77886,List1B,black,woman,,TRUE,5,,,,,,,,,,
null,CORRECT,,html-keyboard-response,114,1303554,0.0-14.0-5.0-0.0,77886,List1B,black,woman,,,,null,,,,,,,,,
2063.2,"<img src=""portrait/WM2.jpg""style=""height:400px;""></img>",7,html-button-response,115,1305618,0.0-14.0-7.0,77886,List1B,black,woman,,TRUE,7,,,,,,,,,,
null,CORRECT,,html-keyboard-response,116,1307136,0.0-14.0-8.0-0.0,77886,List1B,black,woman,,,,null,,,,,,,,,
2977.3,"<img src=""portrait/BM1.jpg""style=""height:400px;""></img>",4,html-button-response,117,1310114,0.0-14.0-10.0,77886,List1B,black,woman,,TRUE,4,,,,,,,,,,
null,CORRECT,,html-keyboard-response,118,1311635,0.0-14.0-11.0-0.0,77886,List1B,black,woman,,,,null,,,,,,,,,
2935.4,"<img src=""portrait/WW1.jpg""style=""height:400px;""></img>",1,html-button-response,119,1314572,0.0-14.0-13.0,77886,List1B,black,woman,,TRUE,1,,,,,,,,,,
null,CORRECT,,html-keyboard-response,120,1316079,0.0-14.0-14.0-0.0,77886,List1B,black,woman,,,,null,,,,,,,,,
2170.1,"<img src=""portrait/WM1.jpg""style=""height:400px;""></img>",6,html-button-response,121,1318250,0.0-14.0-16.0,77886,List1B,black,woman,,TRUE,6,,,,,,,,,,
null,CORRECT,,html-keyboard-response,122,1319752,0.0-14.0-17.0-0.0,77886,List1B,black,woman,,,,null,,,,,,,,,
1933.1,"<img src=""portrait/BW1.jpg""style=""height:400px;""></img>",0,html-button-response,123,1321686,0.0-14.0-19.0,77886,List1B,black,woman,,TRUE,0,,,,,,,,,,
null,CORRECT,,html-keyboard-response,124,1323189,0.0-14.0-20.0-0.0,77886,List1B,black,woman,,,,null,,,,,,,,,
1419.1,"<img src=""portrait/WW2.jpg""style=""height:400px;""></img>",3,html-button-response,125,1324610,0.0-14.0-22.0,77886,List1B,black,woman,,TRUE,3,,,,,,,,,,
null,CORRECT,,html-keyboard-response,126,1326125,0.0-14.0-23.0-0.0,77886,List1B,black,woman,,,,null,,,,,,,,,
1047.6,<p>You got 8 out of 8 right first time. Press Continue.</p>,0,html-button-response,127,1327174,0.0-14.0-25.0,77886,List1B,black,woman,,,,,,,,,,,,,
null,"<div style=""font-size:60px;"">+</div>",,html-keyboard-response,128,1328683,0.0-15.0-0.0,77886,List1B,black,woman,,,,null,,,,,,,,,
null,"<img src=""stim_listB/greet8.gif""style=""height:400px;""></stim_listB>",,html-keyboard-response,129,1330685,0.0-15.0-1.0,77886,List1B,black,woman,,,,null,,,,,,,,,
null,is being greeted by,,html-keyboard-response,130,1332690,0.0-15.0-2.0,77886,List1B,black,woman,,,,null,,,,,,,,,
5145.5,,,survey-text,131,1337837,0.0-15.0-3.0,77886,List1B,black,woman,,,,,"{""Q0"":""Jane is greeted by Beth""}","<img src=""stim_listB/greet8.gif""style=""height:400px;""></stim_listB>",is being greeted by,,,,,,
null,"<div style=""font-size:60px;"">+</div>",,html-keyboard-response,132,1338344,0.0-15.0-0.1,77886,List1B,black,woman,,,,null,,,,,,,,,
null,"<img src=""stim_listB/hug6.gif""style=""height:400px;""></stim_listB>",,html-keyboard-response,133,1340351,0.0-15.0-1.1,77886,List1B,black,woman,,,,null,,,,,,,,,
null,is being hugged by,,html-keyboard-response,134,1342362,0.0-15.0-2.1,77886,List1B,black,woman,,,,null,,,,,,,,,
3345.2,,,survey-text,135,1345708,0.0-15.0-3.1,77886,List1B,black,woman,,,,,"{""Q0"":""Mike is hugged by Dave""}","<img src=""stim_listB/hug6.gif""style=""height:400px;""></stim_listB>",is being hugged by,,,,,,
null,"<div style=""font-size:60px;"">+</div>",,html-keyboard-response,136,1346215,0.0-15.0-0.2,77886,List1B,black,woman,,,,null,,,,,,,,,
null,"<img src=""stim_listB/oppose5.gif""style=""height:400px;""></stim_listB>",,html-keyboard-response,137,1348228,0.0-15.0-1.2,77886,List1B,black,woman,,,,null,,,,,,,,,
null,is opposing,,html-keyboard-response,138,1350235,0.0-15.0-2.2,77886,List1B,black,woman,,,,null,,,,,,,,,
6448.4,,,survey-text,139,1356684,0.0-15.0-3.2,77886,List1B,black,woman,,,,,"{""Q0"":""Dave is opposing Mike""}","<img src=""stim_listB/oppose5.gif""style=""height:400px;""></stim_listB>",is opposing,,,,,,
null,"<div style=""font-size:60px;"">+</div>",,html-keyboard-response,140,1357192,0.0-15.0-0.3,77886,List1B,black,woman,,,,null,,,,,,,,,
null,"<img src=""stim_listB/copy1.gif""style=""height:400px;""></stim_listB>",,html-keyboard-response,141,1359199,0.0-15.0-1.3,77886,List1B,black,woman,,,,null,,,,,,,,,
null,is copying,,html-keyboard-response,142,1361203,0.0-15.0-2.3,77886,List1B,black,woman,,,,null,,,,,,,,,
2696.1,,,survey-text,143,1363900,0.0-15.0-3.3,77886,List1B,black,woman,,,,,"{""Q0"":""Beth is copying Mike""}","<img src=""stim_listB/copy1.gif""style=""height:400px;""></stim_listB>",is copying,,,,,,
null,"<div style=""font-size:60px;"">+</div>",,html-keyboard-response,144,1364403,0.0-15.0-0.4,77886,List1B,black,woman,,,,null,,,,,,,,,
null,"<img src=""stim_listB/oppose7.gif""style=""height:400px;""></stim_listB>",,html-keyboard-response,145,1366418,0.0-15.0-1.4,77886,List1B,black,woman,,,,null,,,,,,,,,
null,is opposing,,html-keyboard-response,146,1368421,0.0-15.0-2.4,77886,List1B,black,woman,,,,null,,,,,,,,,
4101.9,,,survey-text,147,1372524,0.0-15.0-3.4,77886,List1B,black,woman,,,,,"{""Q0"":""Jane is opposing Kate""}","<img src=""stim_listB/oppose7.gif""style=""height:400px;""></stim_listB>",is opposing,,,,,,
null,"<div style=""font-size:60px;"">+</div>",,html-keyboard-response,148,1373036,0.0-15.0-0.5,77886,List1B,black,woman,,,,null,,,,,,,,,
null,"<img src=""stim_listB/challenge8.gif""style=""height:400px;""></stim_listB>",,html-keyboard-response,149,1375049,0.0-15.0-1.5,77886,List1B,black,woman,,,,null,,,,,,,,,
null,is being challenged by,,html-keyboard-response,150,1377057,0.0-15.0-2.5,77886,List1B,black,woman,,,,null,,,,,,,,,
7073.5,,,survey-text,151,1384132,0.0-15.0-3.5,77886,List1B,black,woman,,,,,"{""Q0"":""Jane is being challenged by Beth""}","<img src=""stim_listB/challenge8.gif""style=""height:400px;""></stim_listB>",is being challenged by,,,,,,
null,"<div style=""font-size:60px;"">+</div>",,html-keyboard-response,152,1384640,0.0-15.0-0.6,77886,List1B,black,woman,,,,null,,,,,,,,,
null,"<img src=""stim_listB/copy4.gif""style=""height:400px;""></stim_listB>",,html-keyboard-response,153,1386656,0.0-15.0-1.6,77886,List1B,black,woman,,,,null,,,,,,,,,
null,is being copied by,,html-keyboard-response,154,1388660,0.0-15.0-2.6,77886,List1B,black,woman,,,,null,,,,,,,,,
4845.1,,,survey-text,155,1393507,0.0-15.0-3.6,77886,List1B,black,woman,,,,,"{""Q0"":""Luke is being copied by Jane""}","<img src=""stim_listB/copy4.gif""style=""height:400px;""></stim_listB>",is being copied by,,,,,,
null,"<div style=""font-size:60px;"">+</div>",,html-keyboard-response,156,1394012,0.0-15.0-0.7,77886,List1B,black,woman,,,,null,,,,,,,,,
null,"<img src=""stim_listB/look1.gif""style=""height:400px;""></stim_listB>",,html-keyboard-response,157,1396020,0.0-15.0-1.7,77886,List1B,black,woman,,,,null,,,,,,,,,
null,is looking at,,html-keyboard-response,158,1398028,0.0-15.0-2.7,77886,List1B,black,woman,,,,null,,,,,,,,,
5134,,,survey-text,159,1403163,0.0-15.0-3.7,77886,List1B,black,woman,,,,,"{""Q0"":""Fred is looking at Beth""}","<img src=""stim_listB/look1.gif""style=""height:400px;""></stim_listB>",is looking at,,,,,,
null,"<div style=""font-size:60px;"">+</div>",,html-keyboard-response,160,1403665,0.0-15.0-0.8,77886,List1B,black,woman,,,,null,,,,,,,,,
null,"<img src=""stim_listB/hug5.gif""style=""height:400px;""></stim_listB>",,html-keyboard-response,161,1405670,0.0-15.0-1.8,77886,List1B,black,woman,,,,null,,,,,,,,,
null,is hugging,,html-keyboard-response,162,1407674,0.0-15.0-2.8,77886,List1B,black,woman,,,,null,,,,,,,,,
3087.5,,,survey-text,163,1410763,0.0-15.0-3.8,77886,List1B,black,woman,,,,,"{""Q0"":""Fred is hugging Luke""}","<img src=""stim_listB/hug5.gif""style=""height:400px;""></stim_listB>",is hugging,,,,,,
null,"<div style=""font-size:60px;"">+</div>",,html-keyboard-response,164,1411271,0.0-15.0-0.9,77886,List1B,black,woman,,,,null,,,,,,,,,
null,"<img src=""stim_listB/oppose8.gif""style=""height:400px;""></stim_listB>",,html-keyboard-response,165,1413280,0.0-15.0-1.9,77886,List1B,black,woman,,,,null,,,,,,,,,
null,is being opposed by,,html-keyboard-response,166,1415290,0.0-15.0-2.9,77886,List1B,black,woman,,,,null,,,,,,,,,
5926.9,,,survey-text,167,1421219,0.0-15.0-3.9,77886,List1B,black,woman,,,,,"{""Q0"":""Ruth is being opposed by Beth""}","<img src=""stim_listB/oppose8.gif""style=""height:400px;""></stim_listB>",is being opposed by,,,,,,
null,"<div style=""font-size:60px;"">+</div>",,html-keyboard-response,168,1421722,0.0-15.0-0.10,77886,List1B,black,woman,,,,null,,,,,,,,,
null,"<img src=""stim_listB/hug7.gif""style=""height:400px;""></stim_listB>",,html-keyboard-response,169,1423731,0.0-15.0-1.10,77886,List1B,black,woman,,,,null,,,,,,,,,
null,is hugging,,html-keyboard-response,170,1425742,0.0-15.0-2.10,77886,List1B,black,woman,,,,null,,,,,,,,,
9994.8,,,survey-text,171,1435740,0.0-15.0-3.10,77886,List1B,black,woman,,,,,"{""Q0"":""Ruth is being hugged by Beth""}","<img src=""stim_listB/hug7.gif""style=""height:400px;""></stim_listB>",is hugging,,,,,,
null,"<div style=""font-size:60px;"">+</div>",,html-keyboard-response,172,1436252,0.0-15.0-0.11,77886,List1B,black,woman,,,,null,,,,,,,,,
null,"<img src=""stim_listB/hug3.gif""style=""height:400px;""></stim_listB>",,html-keyboard-response,173,1438259,0.0-15.0-1.11,77886,List1B,black,woman,,,,null,,,,,,,,,
null,is hugging,,html-keyboard-response,174,1440274,0.0-15.0-2.11,77886,List1B,black,woman,,,,null,,,,,,,,,
4455.8,,,survey-text,175,1444732,0.0-15.0-3.11,77886,List1B,black,woman,,,,,"{""Q0"":""Luke is hugging Ruth""}","<img src=""stim_listB/hug3.gif""style=""height:400px;""></stim_listB>",is hugging,,,,,,
null,"<div style=""font-size:60px;"">+</div>",,html-keyboard-response,176,1445245,0.0-15.0-0.12,77886,List1B,black,woman,,,,null,,,,,,,,,
null,"<img src=""stim_listB/kiss4.gif""style=""height:400px;""></stim_listB>",,html-keyboard-response,177,1447259,0.0-15.0-1.12,77886,List1B,black,woman,,,,null,,,,,,,,,
null,is being kissed by,,html-keyboard-response,178,1449273,0.0-15.0-2.12,77886,List1B,black,woman,,,,null,,,,,,,,,
7497.2,,,survey-text,179,1456771,0.0-15.0-3.12,77886,List1B,black,woman,,,,,"{""Q0"":""Dave is being kissed by Jane""}","<img src=""stim_listB/kiss4.gif""style=""height:400px;""></stim_listB>",is being kissed by,,,,,,
null,"<div style=""font-size:60px;"">+</div>",,html-keyboard-response,180,1457274,0.0-15.0-0.13,77886,List1B,black,woman,,,,null,,,,,,,,,
null,"<img src=""stim_listB/challenge1.gif""style=""height:400px;""></stim_listB>",,html-keyboard-response,181,1459285,0.0-15.0-1.13,77886,List1B,black,woman,,,,null,,,,,,,,,
null,is challenging,,html-keyboard-response,182,1461293,0.0-15.0-2.13,77886,List1B,black,woman,,,,null,,,,,,,,,
13004.8,,,survey-text,183,1474300,0.0-15.0-3.13,77886,List1B,black,woman,,,,,"{""Q0"":""Beth is challenging Mike""}","<img src=""stim_listB/challenge1.gif""style=""height:400px;""></stim_listB>",is challenging,,,,,,
null,"<div style=""font-size:60px;"">+</div>",,html-keyboard-response,184,1474810,0.0-15.0-0.14,77886,List1B,black,woman,,,,null,,,,,,,,,
null,"<img src=""stim_listB/seduce3.gif""style=""height:400px;""></stim_listB>",,html-keyboard-response,185,1476818,0.0-15.0-1.14,77886,List1B,black,woman,,,,null,,,,,,,,,
null,is seducing,,html-keyboard-response,186,1478822,0.0-15.0-2.14,77886,List1B,black,woman,,,,null,,,,,,,,,
4219.3,,,survey-text,187,1483043,0.0-15.0-3.14,77886,List1B,black,woman,,,,,"{""Q0"":""Luke is seducing Jane""}","<img src=""stim_listB/seduce3.gif""style=""height:400px;""></stim_listB>",is seducing,,,,,,
null,"<div style=""font-size:60px;"">+</div>",,html-keyboard-response,188,1483544,0.0-15.0-0.15,77886,List1B,black,woman,,,,null,,,,,,,,,
null,"<img src=""stim_listB/touch8.gif""style=""height:400px;""></stim_listB>",,html-keyboard-response,189,1485546,0.0-15.0-1.15,77886,List1B,black,woman,,,,null,,,,,,,,,
null,is being touched by,,html-keyboard-response,190,1487550,0.0-15.0-2.15,77886,List1B,black,woman,,,,null,,,,,,,,,
10027.7,,,survey-text,191,1497578,0.0-15.0-3.15,77886,List1B,black,woman,,,,,"{""Q0"":""Fred was touching Mike""}","<img src=""stim_listB/touch8.gif""style=""height:400px;""></stim_listB>",is being touched by,,,,,,
null,"<div style=""font-size:60px;"">+</div>",,html-keyboard-response,192,1498093,0.0-15.0-0.16,77886,List1B,black,woman,,,,null,,,,,,,,,
null,"<img src=""stim_listB/copy6.gif""style=""height:400px;""></stim_listB>",,html-keyboard-response,193,1500098,0.0-15.0-1.16,77886,List1B,black,woman,,,,null,,,,,,,,,
null,is being copied by,,html-keyboard-response,194,1502109,0.0-15.0-2.16,77886,List1B,black,woman,,,,null,,,,,,,,,
5515.4,,,survey-text,195,1507626,0.0-15.0-3.16,77886,List1B,black,woman,,,,,"{""Q0"":""Dave is being copied by Fred""}","<img src=""stim_listB/copy6.gif""style=""height:400px;""></stim_listB>",is being copied by,,,,,,
null,"<div style=""font-size:60px;"">+</div>",,html-keyboard-response,196,1508135,0.0-15.0-0.17,77886,List1B,black,woman,,,,null,,,,,,,,,
null,"<img src=""stim_listB/greet4.gif""style=""height:400px;""></stim_listB>",,html-keyboard-response,197,1510144,0.0-15.0-1.17,77886,List1B,black,woman,,,,null,,,,,,,,,
null,is being greeted by,,html-keyboard-response,198,1512150,0.0-15.0-2.17,77886,List1B,black,woman,,,,null,,,,,,,,,
4826.4,,,survey-text,199,1516978,0.0-15.0-3.17,77886,List1B,black,woman,,,,,"{""Q0"":""Luke is being greeted by Jane""}","<img src=""stim_listB/greet4.gif""style=""height:400px;""></stim_listB>",is being greeted by,,,,,,
null,"<div style=""font-size:60px;"">+</div>",,html-keyboard-response,200,1517488,0.0-15.0-0.18,77886,List1B,black,woman,,,,null,,,,,,,,,
null,"<img src=""stim_listB/challenge5.gif""style=""height:400px;""></stim_listB>",,html-keyboard-response,201,1519496,0.0-15.0-1.18,77886,List1B,black,woman,,,,null,,,,,,,,,
null,is challenging,,html-keyboard-response,202,1521511,0.0-15.0-2.18,77886,List1B,black,woman,,,,null,,,,,,,,,
3545.1,,,survey-text,203,1525058,0.0-15.0-3.18,77886,List1B,black,woman,,,,,"{""Q0"":""Luke is challenging Mike""}","<img src=""stim_listB/challenge5.gif""style=""height:400px;""></stim_listB>",is challenging,,,,,,
null,"<div style=""font-size:60px;"">+</div>",,html-keyboard-response,204,1525563,0.0-15.0-0.19,77886,List1B,black,woman,,,,null,,,,,,,,,
null,"<img src=""stim_listB/hug2.gif""style=""height:400px;""></stim_listB>",,html-keyboard-response,205,1527572,0.0-15.0-1.19,77886,List1B,black,woman,,,,null,,,,,,,,,
null,is being hugged by,,html-keyboard-response,206,1529576,0.0-15.0-2.19,77886,List1B,black,woman,,,,null,,,,,,,,,
4696.1,,,survey-text,207,1534274,0.0-15.0-3.19,77886,List1B,black,woman,,,,,"{""Q0"":""Kate is being hugged by Mike""}","<img src=""stim_listB/hug2.gif""style=""height:400px;""></stim_listB>",is being hugged by,,,,,,
2305.7,"<img src='img/portrait_matrix_list1.jpg' style='width:900px;height:500px;''></img><p>If you have memorised all the portraits and names and are ready to start, press Continue.</p><p><strong>Please note: Your memory of these faces will be tested 4 times during this experiment.</strong></p>",0,html-button-response,208,1536581,0.0-16.0-0.0,77886,List1B,black,woman,,,,,,,,,,,,,
2701.7,"<img src=""portrait/WW2.jpg""style=""height:400px;""></img>",3,html-button-response,209,1540292,0.0-16.0-1.0,77886,List1B,black,woman,,TRUE,3,,,,,,,,,,
null,CORRECT,,html-keyboard-response,210,1541796,0.0-16.0-2.0-0.0,77886,List1B,black,woman,,,,null,,,,,,,,,
1353.9,"<img src=""portrait/BM1.jpg""style=""height:400px;""></img>",4,html-button-response,211,1543151,0.0-16.0-4.0,77886,List1B,black,woman,,TRUE,4,,,,,,,,,,
null,CORRECT,,html-keyboard-response,212,1544673,0.0-16.0-5.0-0.0,77886,List1B,black,woman,,,,null,,,,,,,,,
1738.2,"<img src=""portrait/BM2.jpg""style=""height:400px;""></img>",5,html-button-response,213,1546413,0.0-16.0-7.0,77886,List1B,black,woman,,TRUE,5,,,,,,,,,,
null,CORRECT,,html-keyboard-response,214,1547938,0.0-16.0-8.0-0.0,77886,List1B,black,woman,,,,null,,,,,,,,,
1792.2,"<img src=""portrait/BW1.jpg""style=""height:400px;""></img>",0,html-button-response,215,1549731,0.0-16.0-10.0,77886,List1B,black,woman,,TRUE,0,,,,,,,,,,
null,CORRECT,,html-keyboard-response,216,1551252,0.0-16.0-11.0-0.0,77886,List1B,black,woman,,,,null,,,,,,,,,
1905.2,"<img src=""portrait/WM1.jpg""style=""height:400px;""></img>",6,html-button-response,217,1553159,0.0-16.0-13.0,77886,List1B,black,woman,,TRUE,6,,,,,,,,,,
null,CORRECT,,html-keyboard-response,218,1554670,0.0-16.0-14.0-0.0,77886,List1B,black,woman,,,,null,,,,,,,,,
1508.3,"<img src=""portrait/WM2.jpg""style=""height:400px;""></img>",7,html-button-response,219,1556179,0.0-16.0-16.0,77886,List1B,black,woman,,TRUE,7,,,,,,,,,,
null,CORRECT,,html-keyboard-response,220,1557680,0.0-16.0-17.0-0.0,77886,List1B,black,woman,,,,null,,,,,,,,,
2399.6,"<img src=""portrait/WW1.jpg""style=""height:400px;""></img>",1,html-button-response,221,1560081,0.0-16.0-19.0,77886,List1B,black,woman,,TRUE,1,,,,,,,,,,
null,CORRECT,,html-keyboard-response,222,1561584,0.0-16.0-20.0-0.0,77886,List1B,black,woman,,,,null,,,,,,,,,
1435.7,"<img src=""portrait/BW2.jpg""style=""height:400px;""></img>",2,html-button-response,223,1563021,0.0-16.0-22.0,77886,List1B,black,woman,,TRUE,2,,,,,,,,,,
null,CORRECT,,html-keyboard-response,224,1564523,0.0-16.0-23.0-0.0,77886,List1B,black,woman,,,,null,,,,,,,,,
1109.7,<p>You got 8 out of 8 right first time. Press Continue.</p>,0,html-button-response,225,1565633,0.0-16.0-25.0,77886,List1B,black,woman,,,,,,,,,,,,,
null,"<div style=""font-size:60px;"">+</div>",,html-keyboard-response,226,1567135,0.0-17.0-0.0,77886,List1B,black,woman,,,,null,,,,,,,,,
null,"<img src=""stim_listB/shout4.gif""style=""height:400px;""></stim_listB>",,html-keyboard-response,227,1569148,0.0-17.0-1.0,77886,List1B,black,woman,,,,null,,,,,,,,,
null,is being shouted at by,,html-keyboard-response,228,1571153,0.0-17.0-2.0,77886,List1B,black,woman,,,,null,,,,,,,,,
4279,,,survey-text,229,1575434,0.0-17.0-3.0,77886,List1B,black,woman,,,,,"{""Q0"":""Jane is being shouted at by Dave""}","<img src=""stim_listB/shout4.gif""style=""height:400px;""></stim_listB>",is being shouted at by,,,,,,
null,"<div style=""font-size:60px;"">+</div>",,html-keyboard-response,230,1575942,0.0-17.0-0.1,77886,List1B,black,woman,,,,null,,,,,,,,,
null,"<img src=""stim_listB/seduce5.gif""style=""height:400px;""></stim_listB>",,html-keyboard-response,231,1577954,0.0-17.0-1.1,77886,List1B,black,woman,,,,null,,,,,,,,,
null,is seducing,,html-keyboard-response,232,1579961,0.0-17.0-2.1,77886,List1B,black,woman,,,,null,,,,,,,,,
4078.9,,,survey-text,233,1584041,0.0-17.0-3.1,77886,List1B,black,woman,,,,,"{""Q0"":""Fred is seducing Dave ""}","<img src=""stim_listB/seduce5.gif""style=""height:400px;""></stim_listB>",is seducing,,,,,,
null,"<div style=""font-size:60px;"">+</div>",,html-keyboard-response,234,1584544,0.0-17.0-0.2,77886,List1B,black,woman,,,,null,,,,,,,,,
null,"<img src=""stim_listB/look2.gif""style=""height:400px;""></stim_listB>",,html-keyboard-response,235,1586547,0.0-17.0-1.2,77886,List1B,black,woman,,,,null,,,,,,,,,
null,is being looked at by,,html-keyboard-response,236,1588555,0.0-17.0-2.2,77886,List1B,black,woman,,,,null,,,,,,,,,
4892.8,,,survey-text,237,1593450,0.0-17.0-3.2,77886,List1B,black,woman,,,,,"{""Q0"":""Kate is being looked at by Mike""}","<img src=""stim_listB/look2.gif""style=""height:400px;""></stim_listB>",is being looked at by,,,,,,
null,"<div style=""font-size:60px;"">+</div>",,html-keyboard-response,238,1593964,0.0-17.0-0.3,77886,List1B,black,woman,,,,null,,,,,,,,,
null,"<img src=""stim_listB/oppose3.gif""style=""height:400px;""></stim_listB>",,html-keyboard-response,239,1595976,0.0-17.0-1.3,77886,List1B,black,woman,,,,null,,,,,,,,,
null,is opposing,,html-keyboard-response,240,1597985,0.0-17.0-2.3,77886,List1B,black,woman,,,,null,,,,,,,,,
4374.6,,,survey-text,241,1602361,0.0-17.0-3.3,77886,List1B,black,woman,,,,,"{""Q0"":""Jane is opposing Dave""}","<img src=""stim_listB/oppose3.gif""style=""height:400px;""></stim_listB>",is opposing,,,,,,
null,"<div style=""font-size:60px;"">+</div>",,html-keyboard-response,242,1602876,0.0-17.0-0.4,77886,List1B,black,woman,,,,null,,,,,,,,,
null,"<img src=""stim_listB/oppose2.gif""style=""height:400px;""></stim_listB>",,html-keyboard-response,243,1604890,0.0-17.0-1.4,77886,List1B,black,woman,,,,null,,,,,,,,,
null,is being opposed by,,html-keyboard-response,244,1606897,0.0-17.0-2.4,77886,List1B,black,woman,,,,null,,,,,,,,,
9934.2,,,survey-text,245,1616833,0.0-17.0-3.4,77886,List1B,black,woman,,,,,"{""Q0"":""Fred is being opposed by Beth""}","<img src=""stim_listB/oppose2.gif""style=""height:400px;""></stim_listB>",is being opposed by,,,,,,
null,"<div style=""font-size:60px;"">+</div>",,html-keyboard-response,246,1617343,0.0-17.0-0.5,77886,List1B,black,woman,,,,null,,,,,,,,,
null,"<img src=""stim_listB/kiss7.gif""style=""height:400px;""></stim_listB>",,html-keyboard-response,247,1619351,0.0-17.0-1.5,77886,List1B,black,woman,,,,null,,,,,,,,,
null,is kissing,,html-keyboard-response,248,1621357,0.0-17.0-2.5,77886,List1B,black,woman,,,,null,,,,,,,,,
4313.9,,,survey-text,249,1625673,0.0-17.0-3.5,77886,List1B,black,woman,,,,,"{""Q0"":""Beth is kissing Ruth""}","<img src=""stim_listB/kiss7.gif""style=""height:400px;""></stim_listB>",is kissing,,,,,,
null,"<div style=""font-size:60px;"">+</div>",,html-keyboard-response,250,1626181,0.0-17.0-0.6,77886,List1B,black,woman,,,,null,,,,,,,,,
null,"<img src=""stim_listB/copy7.gif""style=""height:400px;""></stim_listB>",,html-keyboard-response,251,1628196,0.0-17.0-1.6,77886,List1B,black,woman,,,,null,,,,,,,,,
null,is copying,,html-keyboard-response,252,1630200,0.0-17.0-2.6,77886,List1B,black,woman,,,,null,,,,,,,,,
3342.6,,,survey-text,253,1633544,0.0-17.0-3.6,77886,List1B,black,woman,,,,,"{""Q0"":""Kate is copying Ruth""}","<img src=""stim_listB/copy7.gif""style=""height:400px;""></stim_listB>",is copying,,,,,,
null,"<div style=""font-size:60px;"">+</div>",,html-keyboard-response,254,1634059,0.0-17.0-0.7,77886,List1B,black,woman,,,,null,,,,,,,,,
null,"<img src=""stim_listB/kiss3.gif""style=""height:400px;""></stim_listB>",,html-keyboard-response,255,1636068,0.0-17.0-1.7,77886,List1B,black,woman,,,,null,,,,,,,,,
null,is kissing,,html-keyboard-response,256,1638074,0.0-17.0-2.7,77886,List1B,black,woman,,,,null,,,,,,,,,
4956.9,,,survey-text,257,1643032,0.0-17.0-3.7,77886,List1B,black,woman,,,,,"{""Q0"":""Luke is kissing Ruth""}","<img src=""stim_listB/kiss3.gif""style=""height:400px;""></stim_listB>",is kissing,,,,,,
null,"<div style=""font-size:60px;"">+</div>",,html-keyboard-response,258,1643541,0.0-17.0-0.8,77886,List1B,black,woman,,,,null,,,,,,,,,
null,"<img src=""stim_listB/shout2.gif""style=""height:400px;""></stim_listB>",,html-keyboard-response,259,1645548,0.0-17.0-1.8,77886,List1B,black,woman,,,,null,,,,,,,,,
null,is being shouted at by,,html-keyboard-response,260,1647563,0.0-17.0-2.8,77886,List1B,black,woman,,,,null,,,,,,,,,
5410.9,,,survey-text,261,1652976,0.0-17.0-3.8,77886,List1B,black,woman,,,,,"{""Q0"":""Mike is being shouted at by Kate""}","<img src=""stim_listB/shout2.gif""style=""height:400px;""></stim_listB>",is being shouted at by,,,,,,
null,"<div style=""font-size:60px;"">+</div>",,html-keyboard-response,262,1653480,0.0-17.0-0.9,77886,List1B,black,woman,,,,null,,,,,,,,,
null,"<img src=""stim_listB/oppose1.gif""style=""height:400px;""></stim_listB>",,html-keyboard-response,263,1655483,0.0-17.0-1.9,77886,List1B,black,woman,,,,null,,,,,,,,,
null,is opposing,,html-keyboard-response,264,1657492,0.0-17.0-2.9,77886,List1B,black,woman,,,,null,,,,,,,,,
3002.4,,,survey-text,265,1660496,0.0-17.0-3.9,77886,List1B,black,woman,,,,,"{""Q0"":""Mike is opposing Kate""}","<img src=""stim_listB/oppose1.gif""style=""height:400px;""></stim_listB>",is opposing,,,,,,
null,"<div style=""font-size:60px;"">+</div>",,html-keyboard-response,266,1661008,0.0-17.0-0.10,77886,List1B,black,woman,,,,null,,,,,,,,,
null,"<img src=""stim_listB/copy8.gif""style=""height:400px;""></stim_listB>",,html-keyboard-response,267,1663021,0.0-17.0-1.10,77886,List1B,black,woman,,,,null,,,,,,,,,
null,is being copied by,,html-keyboard-response,268,1665030,0.0-17.0-2.10,77886,List1B,black,woman,,,,null,,,,,,,,,
6112.4,,,survey-text,269,1671144,0.0-17.0-3.10,77886,List1B,black,woman,,,,,"{""Q0"":""Jane is being copied by Beth""}","<img src=""stim_listB/copy8.gif""style=""height:400px;""></stim_listB>",is being copied by,,,,,,
null,"<div style=""font-size:60px;"">+</div>",,html-keyboard-response,270,1671650,0.0-17.0-0.11,77886,List1B,black,woman,,,,null,,,,,,,,,
null,"<img src=""stim_listB/touch7.gif""style=""height:400px;""></stim_listB>",,html-keyboard-response,271,1673658,0.0-17.0-1.11,77886,List1B,black,woman,,,,null,,,,,,,,,
null,is touching,,html-keyboard-response,272,1675672,0.0-17.0-2.11,77886,List1B,black,woman,,,,null,,,,,,,,,
2718.5,,,survey-text,273,1678392,0.0-17.0-3.11,77886,List1B,black,woman,,,,,"{""Q0"":""Kate is touching Jane""}","<img src=""stim_listB/touch7.gif""style=""height:400px;""></stim_listB>",is touching,,,,,,
null,"<div style=""font-size:60px;"">+</div>",,html-keyboard-response,274,1678899,0.0-17.0-0.12,77886,List1B,black,woman,,,,null,,,,,,,,,
null,"<img src=""stim_listB/touch5.gif""style=""height:400px;""></stim_listB>",,html-keyboard-response,275,1680914,0.0-17.0-1.12,77886,List1B,black,woman,,,,null,,,,,,,,,
null,is touching,,html-keyboard-response,276,1682919,0.0-17.0-2.12,77886,List1B,black,woman,,,,null,,,,,,,,,
2903.5,,,survey-text,277,1685824,0.0-17.0-3.12,77886,List1B,black,woman,,,,,"{""Q0"":""Mike is touching Dave""}","<img src=""stim_listB/touch5.gif""style=""height:400px;""></stim_listB>",is touching,,,,,,
null,"<div style=""font-size:60px;"">+</div>",,html-keyboard-response,278,1686325,0.0-17.0-0.13,77886,List1B,black,woman,,,,null,,,,,,,,,
null,"<img src=""stim_listB/seduce8.gif""style=""height:400px;""></stim_listB>",,html-keyboard-response,279,1688339,0.0-17.0-1.13,77886,List1B,black,woman,,,,null,,,,,,,,,
null,is being seduced by,,html-keyboard-response,280,1690351,0.0-17.0-2.13,77886,List1B,black,woman,,,,null,,,,,,,,,
5176,,,survey-text,281,1695529,0.0-17.0-3.13,77886,List1B,black,woman,,,,,"{""Q0"":""Kate is being seduced by Ruth""}","<img src=""stim_listB/seduce8.gif""style=""height:400px;""></stim_listB>",is being seduced by,,,,,,
null,"<div style=""font-size:60px;"">+</div>",,html-keyboard-response,282,1696041,0.0-17.0-0.14,77886,List1B,black,woman,,,,null,,,,,,,,,
null,"<img src=""stim_listB/kiss8.gif""style=""height:400px;""></stim_listB>",,html-keyboard-response,283,1698054,0.0-17.0-1.14,77886,List1B,black,woman,,,,null,,,,,,,,,
null,is being kissed by,,html-keyboard-response,284,1700069,0.0-17.0-2.14,77886,List1B,black,woman,,,,null,,,,,,,,,
6208.9,,,survey-text,285,1706280,0.0-17.0-3.14,77886,List1B,black,woman,,,,,"{""Q0"":""Kate is being kissed by Jane""}","<img src=""stim_listB/kiss8.gif""style=""height:400px;""></stim_listB>",is being kissed by,,,,,,
null,"<div style=""font-size:60px;"">+</div>",,html-keyboard-response,286,1706792,0.0-17.0-0.15,77886,List1B,black,woman,,,,null,,,,,,,,,
null,"<img src=""stim_listB/look8.gif""style=""height:400px;""></stim_listB>",,html-keyboard-response,287,1708804,0.0-17.0-1.15,77886,List1B,black,woman,,,,null,,,,,,,,,
null,is being looked at by,,html-keyboard-response,288,1710816,0.0-17.0-2.15,77886,List1B,black,woman,,,,null,,,,,,,,,
5198.3,,,survey-text,289,1716016,0.0-17.0-3.15,77886,List1B,black,woman,,,,,"{""Q0"":""Jane is being looked at by Kate""}","<img src=""stim_listB/look8.gif""style=""height:400px;""></stim_listB>",is being looked at by,,,,,,
null,"<div style=""font-size:60px;"">+</div>",,html-keyboard-response,290,1716528,0.0-17.0-0.16,77886,List1B,black,woman,,,,null,,,,,,,,,
null,"<img src=""stim_listB/shout8.gif""style=""height:400px;""></stim_listB>",,html-keyboard-response,291,1718538,0.0-17.0-1.16,77886,List1B,black,woman,,,,null,,,,,,,,,
null,is being shouted at by,,html-keyboard-response,292,1720541,0.0-17.0-2.16,77886,List1B,black,woman,,,,null,,,,,,,,,
4961.7,,,survey-text,293,1725504,0.0-17.0-3.16,77886,List1B,black,woman,,,,,"{""Q0"":""Jane is being shouted at by Kate""}","<img src=""stim_listB/shout8.gif""style=""height:400px;""></stim_listB>",is being shouted at by,,,,,,
null,"<div style=""font-size:60px;"">+</div>",,html-keyboard-response,294,1726011,0.0-17.0-0.17,77886,List1B,black,woman,,,,null,,,,,,,,,
null,"<img src=""stim_listB/oppose6.gif""style=""height:400px;""></stim_listB>",,html-keyboard-response,295,1728023,0.0-17.0-1.17,77886,List1B,black,woman,,,,null,,,,,,,,,
null,is being opposed by,,html-keyboard-response,296,1730031,0.0-17.0-2.17,77886,List1B,black,woman,,,,null,,,,,,,,,
7622.9,,,survey-text,297,1737656,0.0-17.0-3.17,77886,List1B,black,woman,,,,,"{""Q0"":""Luke is being opposed by Fred""}","<img src=""stim_listB/oppose6.gif""style=""height:400px;""></stim_listB>",is being opposed by,,,,,,
null,"<div style=""font-size:60px;"">+</div>",,html-keyboard-response,298,1738170,0.0-17.0-0.18,77886,List1B,black,woman,,,,null,,,,,,,,,
null,"<img src=""stim_listB/greet2.gif""style=""height:400px;""></stim_listB>",,html-keyboard-response,299,1740179,0.0-17.0-1.18,77886,List1B,black,woman,,,,null,,,,,,,,,
null,is being greeted by,,html-keyboard-response,300,1742185,0.0-17.0-2.18,77886,List1B,black,woman,,,,null,,,,,,,,,
5460.7,,,survey-text,301,1747648,0.0-17.0-3.18,77886,List1B,black,woman,,,,,"{""Q0"":""Fred is being greeted by Kate""}","<img src=""stim_listB/greet2.gif""style=""height:400px;""></stim_listB>",is being greeted by,,,,,,
null,"<div style=""font-size:60px;"">+</div>",,html-keyboard-response,302,1748160,0.0-17.0-0.19,77886,List1B,black,woman,,,,null,,,,,,,,,
null,"<img src=""stim_listB/oppose4.gif""style=""height:400px;""></stim_listB>",,html-keyboard-response,303,1750164,0.0-17.0-1.19,77886,List1B,black,woman,,,,null,,,,,,,,,
null,is being opposed by,,html-keyboard-response,304,1752172,0.0-17.0-2.19,77886,List1B,black,woman,,,,null,,,,,,,,,
5337.9,,,survey-text,305,1757511,0.0-17.0-3.19,77886,List1B,black,woman,,,,,"{""Q0"":""Ruth is being opposed by Luke""}","<img src=""stim_listB/oppose4.gif""style=""height:400px;""></stim_listB>",is being opposed by,,,,,,
47297.3,"<img src='img/portrait_matrix_list1.jpg' style='width:900px;height:500px;''></img><p>If you have memorised all the portraits and names and are ready to start, press Continue.</p><p><strong>Please note: Your memory of these faces will be tested 4 times during this experiment.</strong></p>",0,html-button-response,306,1804809,0.0-18.0-0.0,77886,List1B,black,woman,,,,,,,,,,,,,
2113.9,"<img src=""portrait/WM2.jpg""style=""height:400px;""></img>",7,html-button-response,307,1807925,0.0-18.0-1.0,77886,List1B,black,woman,,TRUE,7,,,,,,,,,,
null,CORRECT,,html-keyboard-response,308,1809448,0.0-18.0-2.0-0.0,77886,List1B,black,woman,,,,null,,,,,,,,,
5052,"<img src=""portrait/WM1.jpg""style=""height:400px;""></img>",6,html-button-response,309,1814501,0.0-18.0-4.0,77886,List1B,black,woman,,TRUE,6,,,,,,,,,,
null,CORRECT,,html-keyboard-response,310,1816018,0.0-18.0-5.0-0.0,77886,List1B,black,woman,,,,null,,,,,,,,,
2440.4,"<img src=""portrait/WW2.jpg""style=""height:400px;""></img>",3,html-button-response,311,1818459,0.0-18.0-7.0,77886,List1B,black,woman,,TRUE,3,,,,,,,,,,
null,CORRECT,,html-keyboard-response,312,1819976,0.0-18.0-8.0-0.0,77886,List1B,black,woman,,,,null,,,,,,,,,
1302.3,"<img src=""portrait/WW1.jpg""style=""height:400px;""></img>",1,html-button-response,313,1821279,0.0-18.0-10.0,77886,List1B,black,woman,,TRUE,1,,,,,,,,,,
null,CORRECT,,html-keyboard-response,314,1822793,0.0-18.0-11.0-0.0,77886,List1B,black,woman,,,,null,,,,,,,,,
1138.6,"<img src=""portrait/BW1.jpg""style=""height:400px;""></img>",0,html-button-response,315,1823933,0.0-18.0-13.0,77886,List1B,black,woman,,TRUE,0,,,,,,,,,,
null,CORRECT,,html-keyboard-response,316,1825444,0.0-18.0-14.0-0.0,77886,List1B,black,woman,,,,null,,,,,,,,,
1324.1,"<img src=""portrait/BM1.jpg""style=""height:400px;""></img>",4,html-button-response,317,1826769,0.0-18.0-16.0,77886,List1B,black,woman,,TRUE,4,,,,,,,,,,
null,CORRECT,,html-keyboard-response,318,1828283,0.0-18.0-17.0-0.0,77886,List1B,black,woman,,,,null,,,,,,,,,
1529,"<img src=""portrait/BM2.jpg""style=""height:400px;""></img>",5,html-button-response,319,1829813,0.0-18.0-19.0,77886,List1B,black,woman,,TRUE,5,,,,,,,,,,
null,CORRECT,,html-keyboard-response,320,1831318,0.0-18.0-20.0-0.0,77886,List1B,black,woman,,,,null,,,,,,,,,
1474.1,"<img src=""portrait/BW2.jpg""style=""height:400px;""></img>",2,html-button-response,321,1832793,0.0-18.0-22.0,77886,List1B,black,woman,,TRUE,2,,,,,,,,,,
null,CORRECT,,html-keyboard-response,322,1834308,0.0-18.0-23.0-0.0,77886,List1B,black,woman,,,,null,,,,,,,,,
2585.9,<p>You got 8 out of 8 right first time. Press Continue.</p>,0,html-button-response,323,1836895,0.0-18.0-25.0,77886,List1B,black,woman,,,,,,,,,,,,,
null,"<div style=""font-size:60px;"">+</div>",,html-keyboard-response,324,1838411,0.0-19.0-0.0,77886,List1B,black,woman,,,,null,,,,,,,,,
null,"<img src=""stim_listB/hug1.gif""style=""height:400px;""></stim_listB>",,html-keyboard-response,325,1840425,0.0-19.0-1.0,77886,List1B,black,woman,,,,null,,,,,,,,,
null,is hugging,,html-keyboard-response,326,1842433,0.0-19.0-2.0,77886,List1B,black,woman,,,,null,,,,,,,,,
3035.5,,,survey-text,327,1845470,0.0-19.0-3.0,77886,List1B,black,woman,,,,,"{""Q0"":""Fred is hugging Beth""}","<img src=""stim_listB/hug1.gif""style=""height:400px;""></stim_listB>",is hugging,,,,,,
null,"<div style=""font-size:60px;"">+</div>",,html-keyboard-response,328,1845972,0.0-19.0-0.1,77886,List1B,black,woman,,,,null,,,,,,,,,
null,"<img src=""stim_listB/seduce2.gif""style=""height:400px;""></stim_listB>",,html-keyboard-response,329,1847981,0.0-19.0-1.1,77886,List1B,black,woman,,,,null,,,,,,,,,
null,is being seduced by,,html-keyboard-response,330,1849990,0.0-19.0-2.1,77886,List1B,black,woman,,,,null,,,,,,,,,
4670.2,,,survey-text,331,1854662,0.0-19.0-3.1,77886,List1B,black,woman,,,,,"{""Q0"":""Mike is being seduced by Beth""}","<img src=""stim_listB/seduce2.gif""style=""height:400px;""></stim_listB>",is being seduced by,,,,,,
null,"<div style=""font-size:60px;"">+</div>",,html-keyboard-response,332,1855176,0.0-19.0-0.2,77886,List1B,black,woman,,,,null,,,,,,,,,
null,"<img src=""stim_listB/look3.gif""style=""height:400px;""></stim_listB>",,html-keyboard-response,333,1857185,0.0-19.0-1.2,77886,List1B,black,woman,,,,null,,,,,,,,,
null,is looking at,,html-keyboard-response,334,1859191,0.0-19.0-2.2,77886,List1B,black,woman,,,,null,,,,,,,,,
4901.1,,,survey-text,335,1864094,0.0-19.0-3.2,77886,List1B,black,woman,,,,,"{""Q0"":""Ruth is being looked at by Luke""}","<img src=""stim_listB/look3.gif""style=""height:400px;""></stim_listB>",is looking at,,,,,,
null,"<div style=""font-size:60px;"">+</div>",,html-keyboard-response,336,1864597,0.0-19.0-0.3,77886,List1B,black,woman,,,,null,,,,,,,,,
null,"<img src=""stim_listB/seduce6.gif""style=""height:400px;""></stim_listB>",,html-keyboard-response,337,1866614,0.0-19.0-1.3,77886,List1B,black,woman,,,,null,,,,,,,,,
null,is being seduced by,,html-keyboard-response,338,1868623,0.0-19.0-2.3,77886,List1B,black,woman,,,,null,,,,,,,,,
5933.3,,,survey-text,339,1874558,0.0-19.0-3.3,77886,List1B,black,woman,,,,,"{""Q0"":""Mike is being seduced by Luke""}","<img src=""stim_listB/seduce6.gif""style=""height:400px;""></stim_listB>",is being seduced by,,,,,,
null,"<div style=""font-size:60px;"">+</div>",,html-keyboard-response,340,1875074,0.0-19.0-0.4,77886,List1B,black,woman,,,,null,,,,,,,,,
null,"<img src=""stim_listB/look7.gif""style=""height:400px;""></stim_listB>",,html-keyboard-response,341,1877080,0.0-19.0-1.4,77886,List1B,black,woman,,,,null,,,,,,,,,
null,is looking at,,html-keyboard-response,342,1879088,0.0-19.0-2.4,77886,List1B,black,woman,,,,null,,,,,,,,,
3475.8,,,survey-text,343,1882566,0.0-19.0-3.4,77886,List1B,black,woman,,,,,"{""Q0"":""Ruth is looking at Beth""}","<img src=""stim_listB/look7.gif""style=""height:400px;""></stim_listB>",is looking at,,,,,,
null,"<div style=""font-size:60px;"">+</div>",,html-keyboard-response,344,1883083,0.0-19.0-0.5,77886,List1B,black,woman,,,,null,,,,,,,,,
null,"<img src=""stim_listB/greet5.gif""style=""height:400px;""></stim_listB>",,html-keyboard-response,345,1885088,0.0-19.0-1.5,77886,List1B,black,woman,,,,null,,,,,,,,,
null,is greeting,,html-keyboard-response,346,1887104,0.0-19.0-2.5,77886,List1B,black,woman,,,,null,,,,,,,,,
3675.8,,,survey-text,347,1890782,0.0-19.0-3.5,77886,List1B,black,woman,,,,,"{""Q0"":""Luke is greeting Mike""}","<img src=""stim_listB/greet5.gif""style=""height:400px;""></stim_listB>",is greeting,,,,,,
null,"<div style=""font-size:60px;"">+</div>",,html-keyboard-response,348,1891296,0.0-19.0-0.6,77886,List1B,black,woman,,,,null,,,,,,,,,
null,"<img src=""stim_listB/hug8.gif""style=""height:400px;""></stim_listB>",,html-keyboard-response,349,1893305,0.0-19.0-1.6,77886,List1B,black,woman,,,,null,,,,,,,,,
null,is being hugged by,,html-keyboard-response,350,1895315,0.0-19.0-2.6,77886,List1B,black,woman,,,,null,,,,,,,,,
3704.9,,,survey-text,351,1899021,0.0-19.0-3.6,77886,List1B,black,woman,,,,,"{""Q0"":""Kate is being hugged by Jane""}","<img src=""stim_listB/hug8.gif""style=""height:400px;""></stim_listB>",is being hugged by,,,,,,
null,"<div style=""font-size:60px;"">+</div>",,html-keyboard-response,352,1899525,0.0-19.0-0.7,77886,List1B,black,woman,,,,null,,,,,,,,,
null,"<img src=""stim_listB/copy5.gif""style=""height:400px;""></stim_listB>",,html-keyboard-response,353,1901535,0.0-19.0-1.7,77886,List1B,black,woman,,,,null,,,,,,,,,
null,is copying,,html-keyboard-response,354,1903536,0.0-19.0-2.7,77886,List1B,black,woman,,,,null,,,,,,,,,
5107.5,,,survey-text,355,1908645,0.0-19.0-3.7,77886,List1B,black,woman,,,,,"{""Q0"":""Mike is copying Luke""}","<img src=""stim_listB/copy5.gif""style=""height:400px;""></stim_listB>",is copying,,,,,,
null,"<div style=""font-size:60px;"">+</div>",,html-keyboard-response,356,1909153,0.0-19.0-0.8,77886,List1B,black,woman,,,,null,,,,,,,,,
null,"<img src=""stim_listB/challenge3.gif""style=""height:400px;""></stim_listB>",,html-keyboard-response,357,1911162,0.0-19.0-1.8,77886,List1B,black,woman,,,,null,,,,,,,,,
null,is challenging,,html-keyboard-response,358,1913169,0.0-19.0-2.8,77886,List1B,black,woman,,,,null,,,,,,,,,
4059,,,survey-text,359,1917229,0.0-19.0-3.8,77886,List1B,black,woman,,,,,"{""Q0"":""Ruth is challenging Dave ""}","<img src=""stim_listB/challenge3.gif""style=""height:400px;""></stim_listB>",is challenging,,,,,,
null,"<div style=""font-size:60px;"">+</div>",,html-keyboard-response,360,1917739,0.0-19.0-0.9,77886,List1B,black,woman,,,,null,,,,,,,,,
null,"<img src=""stim_listB/seduce1.gif""style=""height:400px;""></stim_listB>",,html-keyboard-response,361,1919753,0.0-19.0-1.9,77886,List1B,black,woman,,,,null,,,,,,,,,
null,is seducing,,html-keyboard-response,362,1921757,0.0-19.0-2.9,77886,List1B,black,woman,,,,null,,,,,,,,,
4022.8,,,survey-text,363,1925782,0.0-19.0-3.9,77886,List1B,black,woman,,,,,"{""Q0"":""Fred is seducing Kate""}","<img src=""stim_listB/seduce1.gif""style=""height:400px;""></stim_listB>",is seducing,,,,,,
null,"<div style=""font-size:60px;"">+</div>",,html-keyboard-response,364,1926287,0.0-19.0-0.10,77886,List1B,black,woman,,,,null,,,,,,,,,
null,"<img src=""stim_listB/challenge4.gif""style=""height:400px;""></stim_listB>",,html-keyboard-response,365,1928291,0.0-19.0-1.10,77886,List1B,black,woman,,,,null,,,,,,,,,
null,is being challenged by,,html-keyboard-response,366,1930300,0.0-19.0-2.10,77886,List1B,black,woman,,,,null,,,,,,,,,
4824,,,survey-text,367,1935125,0.0-19.0-3.10,77886,List1B,black,woman,,,,,"{""Q0"":""Luke is being challenged by Jane""}","<img src=""stim_listB/challenge4.gif""style=""height:400px;""></stim_listB>",is being challenged by,,,,,,
null,"<div style=""font-size:60px;"">+</div>",,html-keyboard-response,368,1935629,0.0-19.0-0.11,77886,List1B,black,woman,,,,null,,,,,,,,,
null,"<img src=""stim_listB/greet1.gif""style=""height:400px;""></stim_listB>",,html-keyboard-response,369,1937642,0.0-19.0-1.11,77886,List1B,black,woman,,,,null,,,,,,,,,
null,is greeting,,html-keyboard-response,370,1939643,0.0-19.0-2.11,77886,List1B,black,woman,,,,null,,,,,,,,,
3177.2,,,survey-text,371,1942822,0.0-19.0-3.11,77886,List1B,black,woman,,,,,"{""Q0"":""Beth is greeting Mike""}","<img src=""stim_listB/greet1.gif""style=""height:400px;""></stim_listB>",is greeting,,,,,,
null,"<div style=""font-size:60px;"">+</div>",,html-keyboard-response,372,1943329,0.0-19.0-0.12,77886,List1B,black,woman,,,,null,,,,,,,,,
null,"<img src=""stim_listB/challenge2.gif""style=""height:400px;""></stim_listB>",,html-keyboard-response,373,1945339,0.0-19.0-1.12,77886,List1B,black,woman,,,,null,,,,,,,,,
null,is being challenged by,,html-keyboard-response,374,1947345,0.0-19.0-2.12,77886,List1B,black,woman,,,,null,,,,,,,,,
4347,,,survey-text,375,1951693,0.0-19.0-3.12,77886,List1B,black,woman,,,,,"{""Q0"":""Kate is being challenged by Fred""}","<img src=""stim_listB/challenge2.gif""style=""height:400px;""></stim_listB>",is being challenged by,,,,,,
null,"<div style=""font-size:60px;"">+</div>",,html-keyboard-response,376,1952197,0.0-19.0-0.13,77886,List1B,black,woman,,,,null,,,,,,,,,
null,"<img src=""stim_listB/greet7.gif""style=""height:400px;""></stim_listB>",,html-keyboard-response,377,1954204,0.0-19.0-1.13,77886,List1B,black,woman,,,,null,,,,,,,,,
null,is greeting,,html-keyboard-response,378,1956209,0.0-19.0-2.13,77886,List1B,black,woman,,,,null,,,,,,,,,
2922.3,,,survey-text,379,1959133,0.0-19.0-3.13,77886,List1B,black,woman,,,,,"{""Q0"":""Kate is greeting Ruth""}","<img src=""stim_listB/greet7.gif""style=""height:400px;""></stim_listB>",is greeting,,,,,,
null,"<div style=""font-size:60px;"">+</div>",,html-keyboard-response,380,1959648,0.0-19.0-0.14,77886,List1B,black,woman,,,,null,,,,,,,,,
null,"<img src=""stim_listB/look6.gif""style=""height:400px;""></stim_listB>",,html-keyboard-response,381,1961660,0.0-19.0-1.14,77886,List1B,black,woman,,,,null,,,,,,,,,
null,is being looked at by,,html-keyboard-response,382,1963663,0.0-19.0-2.14,77886,List1B,black,woman,,,,null,,,,,,,,,
4636.9,,,survey-text,383,1968301,0.0-19.0-3.14,77886,List1B,black,woman,,,,,"{""Q0"":""Mike is being looked at by Dave""}","<img src=""stim_listB/look6.gif""style=""height:400px;""></stim_listB>",is being looked at by,,,,,,
null,"<div style=""font-size:60px;"">+</div>",,html-keyboard-response,384,1968805,0.0-19.0-0.15,77886,List1B,black,woman,,,,null,,,,,,,,,
null,"<img src=""stim_listB/shout6.gif""style=""height:400px;""></stim_listB>",,html-keyboard-response,385,1970813,0.0-19.0-1.15,77886,List1B,black,woman,,,,null,,,,,,,,,
null,is being shouted at by,,html-keyboard-response,386,1972818,0.0-19.0-2.15,77886,List1B,black,woman,,,,null,,,,,,,,,
5025.5,,,survey-text,387,1977845,0.0-19.0-3.15,77886,List1B,black,woman,,,,,"{""Q0"":""Dave is being shouted at by Mike""}","<img src=""stim_listB/shout6.gif""style=""height:400px;""></stim_listB>",is being shouted at by,,,,,,
null,"<div style=""font-size:60px;"">+</div>",,html-keyboard-response,388,1978352,0.0-19.0-0.16,77886,List1B,black,woman,,,,null,,,,,,,,,
null,"<img src=""stim_listB/shout5.gif""style=""height:400px;""></stim_listB>",,html-keyboard-response,389,1980353,0.0-19.0-1.16,77886,List1B,black,woman,,,,null,,,,,,,,,
null,is shouting at,,html-keyboard-response,390,1982364,0.0-19.0-2.16,77886,List1B,black,woman,,,,null,,,,,,,,,
3878.2,,,survey-text,391,1986245,0.0-19.0-3.16,77886,List1B,black,woman,,,,,"{""Q0"":""Luke is shouting at Fred""}","<img src=""stim_listB/shout5.gif""style=""height:400px;""></stim_listB>",is shouting at,,,,,,
null,"<div style=""font-size:60px;"">+</div>",,html-keyboard-response,392,1986748,0.0-19.0-0.17,77886,List1B,black,woman,,,,null,,,,,,,,,
null,"<img src=""stim_listB/kiss5.gif""style=""height:400px;""></stim_listB>",,html-keyboard-response,393,1988756,0.0-19.0-1.17,77886,List1B,black,woman,,,,null,,,,,,,,,
null,is kissing,,html-keyboard-response,394,1990761,0.0-19.0-2.17,77886,List1B,black,woman,,,,null,,,,,,,,,
3418.3,,,survey-text,395,1994181,0.0-19.0-3.17,77886,List1B,black,woman,,,,,"{""Q0"":""Fred is kissing Luke""}","<img src=""stim_listB/kiss5.gif""style=""height:400px;""></stim_listB>",is kissing,,,,,,
null,"<div style=""font-size:60px;"">+</div>",,html-keyboard-response,396,1994687,0.0-19.0-0.18,77886,List1B,black,woman,,,,null,,,,,,,,,
null,"<img src=""stim_listB/hug4.gif""style=""height:400px;""></stim_listB>",,html-keyboard-response,397,1996699,0.0-19.0-1.18,77886,List1B,black,woman,,,,null,,,,,,,,,
null,is being hugged by,,html-keyboard-response,398,1998709,0.0-19.0-2.18,77886,List1B,black,woman,,,,null,,,,,,,,,
4462,,,survey-text,399,2003173,0.0-19.0-3.18,77886,List1B,black,woman,,,,,"{""Q0"":""Dave is being hugged by Jane""}","<img src=""stim_listB/hug4.gif""style=""height:400px;""></stim_listB>",is being hugged by,,,,,,
null,"<div style=""font-size:60px;"">+</div>",,html-keyboard-response,400,2003677,0.0-19.0-0.19,77886,List1B,black,woman,,,,null,,,,,,,,,
null,"<img src=""stim_listB/greet6.gif""style=""height:400px;""></stim_listB>",,html-keyboard-response,401,2005684,0.0-19.0-1.19,77886,List1B,black,woman,,,,null,,,,,,,,,
null,is being greeted by,,html-keyboard-response,402,2007693,0.0-19.0-2.19,77886,List1B,black,woman,,,,null,,,,,,,,,
6014.3,,,survey-text,403,2013709,0.0-19.0-3.19,77886,List1B,black,woman,,,,,"{""Q0"":""Dave is being greeted by Fred""}","<img src=""stim_listB/greet6.gif""style=""height:400px;""></stim_listB>",is being greeted by,,,,,,
2103.8,<p>Thank you for completing that task.</p><p>The final part of this session is a questionnaire that will take about 4 minutes.</p><p>Press Continue.</p>,0,html-button-response,404,2015813,0.0-20.0,77886,List1B,black,woman,,,,,,,,,,,,,
28592.4,,,survey-text,405,2045410,0.0-21.0,77886,List1B,black,woman,,,,,"{""Q0"":""19"",""Q1"":""English"",""Q2"":""English"",""Q3"":""United States"",""Q4"":""American "",""Q5"":""African American "",""Q6"":""Female""}",,,demographics,,,,,
3091.5,<p>Have you lived in the USA for the last 5 years or more?</p>,0,html-button-response,406,2048504,0.0-22.0,77886,List1B,black,woman,,,,,,,,fiveyears,,,,,
1449.5,<p>Move the slider to show the extent to which you agree with the following statements.</p>,0,html-button-response,407,2050963,0.0-23.0,77886,List1B,black,woman,,,,,,,,,,,,,
6497.6,,,html-slider-response,408,2058469,0.0-24.0-0.0-0.0,77886,List1B,black,woman,,,,,,,,survey_race,84,,,I think that my race has a lot to be proud of.,proud
4942.3,,,html-slider-response,409,2063413,0.0-24.0-0.0-0.1,77886,List1B,black,woman,,,,,,,,survey_race,85,,,I feel solidarity with my race.,solidarity
5846.8,,,html-slider-response,410,2069261,0.0-24.0-0.0-0.2,77886,List1B,black,woman,,,,,,,,survey_race,48,,,I feel solidarity with people the same age as me.,filler
6734.6,,,html-slider-response,411,2075997,0.0-24.0-0.0-0.3,77886,List1B,black,woman,,,,,,,,survey_race,52,,,I have a lot in common with the average person of my race.,average
9602,,,html-slider-response,412,2085601,0.0-24.0-0.0-0.4,77886,List1B,black,woman,,,,,,,,survey_race,61,,,I feel a bond with my race.,bond
9290.4,,,html-slider-response,413,2094893,0.0-24.0-0.0-0.5,77886,List1B,black,woman,,,,,,,,survey_race,66,,,I am glad to be my age.,filler
6626.4,,,html-slider-response,414,2101521,0.0-24.0-0.0-0.6,77886,List1B,black,woman,,,,,,,,survey_race,54,,,I have a lot in common with people of a similar age to me.,filler
2530.5,,,html-slider-response,415,2104052,0.0-24.0-0.0-0.7,77886,List1B,black,woman,,,,,,,,survey_race,48,,,I consider myself an introvert.,filler
4308.4,,,html-slider-response,416,2108362,0.0-24.0-0.0-0.8,77886,List1B,black,woman,,,,,,,,survey_race,41,,,Getting older does not worry me.,filler
3266.3,,,html-slider-response,417,2111630,0.0-24.0-0.0-0.9,77886,List1B,black,woman,,,,,,,,survey_race,52,,,I am glad to be the age I am.,filler
2706.9,,,html-slider-response,418,2114338,0.0-24.0-0.0-0.10,77886,List1B,black,woman,,,,,,,,survey_race,51,,,"The older I get, the wiser I feel.",filler
5485,,,html-slider-response,419,2119824,0.0-24.0-0.0-0.11,77886,List1B,black,woman,,,,,,,,survey_race,67,,,People of my race have a lot in common with each other.,common
3332.6,,,html-slider-response,420,2123158,0.0-24.0-0.0-0.12,77886,List1B,black,woman,,,,,,,,survey_race,53,,,I feel a bond with people the same age as me.,filler
5013.3,,,html-slider-response,421,2128172,0.0-24.0-0.0-0.13,77886,List1B,black,woman,,,,,,,,survey_race,49,,,I am similar to the average person of my race.,similar
7432.1,,,html-slider-response,422,2135606,0.0-24.0-0.0-0.14,77886,List1B,black,woman,,,,,,,,survey_race,47,,,I often think about the fact that I am my age.,filler
2842.2,,,html-slider-response,423,2138450,0.0-24.0-0.0-0.15,77886,List1B,black,woman,,,,,,,,survey_race,36,,,My age is not an important part of who I am.,filler
15592.8,,,html-slider-response,424,2154044,0.0-24.0-0.0-0.16,77886,List1B,black,woman,,,,,,,,survey_race,54,,,I often think about the fact that I am my race.,often
2368.3,,,html-slider-response,425,2156414,0.0-24.0-0.0-0.17,77886,List1B,black,woman,,,,,,,,survey_race,43,,,I consider myself an extrovert.,filler
4623,,,html-slider-response,426,2161038,0.0-24.0-0.0-0.18,77886,List1B,black,woman,,,,,,,,survey_race,71,,,Being my race is an important part of how I see myself.,important
4902.6,,,html-slider-response,427,2165942,0.0-24.0-0.0-0.19,77886,List1B,black,woman,,,,,,,,survey_race,67,,,The fact that I am my race is an important part of my identity.,identity
2914.5,,,html-slider-response,428,2168857,0.0-24.0-0.0-0.20,77886,List1B,black,woman,,,,,,,,survey_race,47,,,People my age have a lot in common with each other.,filler
14772.1,,,html-slider-response,429,2183631,0.0-24.0-0.0-0.21,77886,List1B,black,woman,,,,,,,,survey_race,66,,,It is pleasant to be my race.,pleasant
4508.5,,,html-slider-response,430,2188141,0.0-24.0-0.0-0.22,77886,List1B,black,woman,,,,,,,,survey_race,49,,,People of my race are very similar to each other.,verysimilar
3218.5,,,html-slider-response,431,2191361,0.0-24.0-0.0-0.23,77886,List1B,black,woman,,,,,,,,survey_race,54,,,Being my race gives me a good feeling.,feeling
2066.8,,,html-slider-response,432,2193429,0.0-24.0-0.0-0.24,77886,List1B,black,woman,,,,,,,,survey_race,52,,,I feel committed to my race.,committed
2529.3,,,html-slider-response,433,2195959,0.0-24.0-0.0-0.25,77886,List1B,black,woman,,,,,,,,survey_race,56,,,I am glad to be my race.,glad
2754.1,,,html-slider-response,434,2198715,0.0-24.0-0.0-0.26,77886,List1B,black,woman,,,,,,,,survey_race,51,,,Being my age gives me a good feeling.,filler
2402.6,,,html-slider-response,435,2201119,0.0-24.0-0.0-0.27,77886,List1B,black,woman,,,,,,,,survey_race,40,,,I enjoy being in large groups.,filler
2113,,,html-slider-response,436,2203233,0.0-24.0-1.0-0.0,77886,List1B,black,woman,,,,,,,,survey_gender,68,,,I feel solidarity with my gender.,solidarity
2659.1,,,html-slider-response,437,2205894,0.0-24.0-1.0-0.1,77886,List1B,black,woman,,,,,,,,survey_gender,44,,,Most of the friends in my life are very similar to me.,filler
1855.7,,,html-slider-response,438,2207751,0.0-24.0-1.0-0.2,77886,List1B,black,woman,,,,,,,,survey_gender,55,,,It is pleasant to be my gender.,pleasant
2242.9,,,html-slider-response,439,2209995,0.0-24.0-1.0-0.3,77886,List1B,black,woman,,,,,,,,survey_gender,53,,,I feel solidarity with my friends.,filler
1785.2,,,html-slider-response,440,2211781,0.0-24.0-1.0-0.4,77886,List1B,black,woman,,,,,,,,survey_gender,58,,,Being around my friends gives me a good feeling.,filler
1889.2,,,html-slider-response,441,2213671,0.0-24.0-1.0-0.5,77886,List1B,black,woman,,,,,,,,survey_gender,44,,,I would say I am an animal person.,filler
2667.1,,,html-slider-response,442,2216339,0.0-24.0-1.0-0.6,77886,List1B,black,woman,,,,,,,,survey_gender,55,,,The fact that I am my gender is an important part of my identity.,identity
1504.7,,,html-slider-response,443,2217845,0.0-24.0-1.0-0.7,77886,List1B,black,woman,,,,,,,,survey_gender,54,,,I feel a bond with my gender.,bond
1624.5,,,html-slider-response,444,2219471,0.0-24.0-1.0-0.8,77886,List1B,black,woman,,,,,,,,survey_gender,56,,,Being my gender gives me a good feeling.,feeling
2611.1,,,html-slider-response,445,2222083,0.0-24.0-1.0-0.9,77886,List1B,black,woman,,,,,,,,survey_gender,52,,,I often think about my actions.,filler
1504.4,,,html-slider-response,446,2223589,0.0-24.0-1.0-0.10,77886,List1B,black,woman,,,,,,,,survey_gender,55,,,I am glad to be my gender.,glad
1632.8,,,html-slider-response,447,2225223,0.0-24.0-1.0-0.11,77886,List1B,black,woman,,,,,,,,survey_gender,54,,,I feel committed to my gender.,committed
1328.9,,,html-slider-response,448,2226553,0.0-24.0-1.0-0.12,77886,List1B,black,woman,,,,,,,,survey_gender,54,,,I am glad to have the friends that I have.,filler
1184.8,,,html-slider-response,449,2227739,0.0-24.0-1.0-0.13,77886,List1B,black,woman,,,,,,,,survey_gender,53,,,I have a lot in common with my friends.,filler
1841,,,html-slider-response,450,2229581,0.0-24.0-1.0-0.14,77886,List1B,black,woman,,,,,,,,survey_gender,53,,,People of my gender have a lot in common with each other.,common
2128.7,,,html-slider-response,451,2231711,0.0-24.0-1.0-0.15,77886,List1B,black,woman,,,,,,,,survey_gender,51,,,My friends have a lot in common with each other.,filler
1457.4,,,html-slider-response,452,2233169,0.0-24.0-1.0-0.16,77886,List1B,black,woman,,,,,,,,survey_gender,53,,,I think that my gender has a lot to be proud of.,proud
1424.6,,,html-slider-response,453,2234595,0.0-24.0-1.0-0.17,77886,List1B,black,woman,,,,,,,,survey_gender,54,,,I often think about the fact that I am my gender.,often
1360.7,,,html-slider-response,454,2235957,0.0-24.0-1.0-0.18,77886,List1B,black,woman,,,,,,,,survey_gender,54,,,I am similar to the average person of my gender.,similar
22922.6,,,html-slider-response,455,2258881,0.0-24.0-1.0-0.19,77886,List1B,black,woman,,,,,,,,survey_gender,38,,,Family is not more important to me than friendship.,filler
2248.5,,,html-slider-response,456,2261131,0.0-24.0-1.0-0.20,77886,List1B,black,woman,,,,,,,,survey_gender,51,,,My friends understand me.,filler
2722.9,,,html-slider-response,457,2263855,0.0-24.0-1.0-0.21,77886,List1B,black,woman,,,,,,,,survey_gender,40,,,Routine is not important to me.,filler
2032.8,,,html-slider-response,458,2265889,0.0-24.0-1.0-0.22,77886,List1B,black,woman,,,,,,,,survey_gender,53,,,I feel a bond with my friends.,filler
1936.9,,,html-slider-response,459,2267827,0.0-24.0-1.0-0.23,77886,List1B,black,woman,,,,,,,,survey_gender,53,,,People of my gender are very similar to each other.,verysimilar
1409.1,,,html-slider-response,460,2269237,0.0-24.0-1.0-0.24,77886,List1B,black,woman,,,,,,,,survey_gender,54,,,I have a lot in common with the average person of my gender.,average
2323.7,,,html-slider-response,461,2271561,0.0-24.0-1.0-0.25,77886,List1B,black,woman,,,,,,,,survey_gender,52,,,It is not always easy for people to know what I am thinking.,filler
1472.1,,,html-slider-response,462,2273034,0.0-24.0-1.0-0.26,77886,List1B,black,woman,,,,,,,,survey_gender,53,,,I consider myself a highly empathetic person.,filler
1297.4,,,html-slider-response,463,2274333,0.0-24.0-1.0-0.27,77886,List1B,black,woman,,,,,,,,survey_gender,53,,,Being my gender is an important part of how I see myself.,important
4899.8,,,survey-text,464,2279235,0.0-25.0,77886,List1B,black,woman,,,,,"{""Q0"":""ccc""}",,,worker_id,,,,,
55309.6,,,external-html,465,2335003,0.0-26.0,77886,List1B,black,woman,debrief.html,,,,,,,,,,,,
