"rt","stimulus","button_pressed","trial_type","trial_index","time_elapsed","internal_node_id","subject","list","ppt_race","ppt_gender","url","first_guess","correct","key_press","responses","image_type","phrase_type","test_part","response","stimulus1","stimulus2","question_type","survey_item"
"3328.4000000003725","Welcome to the experiment. Press Continue to begin.","0","html-button-response","0","3331","0.0-0.0","778","List2A","white","woman","","","","","","","","","","","","",""
"105471.40000000037","","","external-html","1","109968","0.0-1.0","778","List2A","white","woman","consent.html","","","","","","","","","","","",""
"12958.200000001118","<p>On the next page, you will see portraits of 8 people and their names.</p><p>Your first task is to take a few minutes to memorise the names of these people.</p><p>You will have to recall their names during the rest of the experiment, so it is</p><p>essential that you try to memorise these people and their names as best as you can.</p><br><p><strong>You will then be tested on your memory of these names and portraits.</strong></p><br><p>The experiment will start after you have completed this memory test.</p><br><p>Ready?</p>","0","html-button-response","2","122928","0.0-2.0","778","List2A","white","woman","","","","","","","","","","","","",""
"63760.09999999963","<img src='img/portrait_matrix_list2.jpg' style='width:900px;height:500px;''></img><p>If you have memorised all the portraits and names and are ready to start, press Continue.</p><p><strong>Please note: Your memory of these faces will be tested 4 times during this experiment.</strong></p>","0","html-button-response","3","187693","0.0-3.0-0.0","778","List2A","white","woman","","","","","","","","","","","","",""
"2879.800000000745","<img src=""portrait/BM1.jpg""style=""height:400px;""></img>","4","html-button-response","4","191575","0.0-3.0-1.0","778","List2A","white","woman","","true","4","","","","","","","","","",""
"null","CORRECT","","html-keyboard-response","5","193087","0.0-3.0-2.0-0.0","778","List2A","white","woman","","","","null","","","","","","","","",""
"2615.5999999996275","<img src=""portrait/BW2.jpg""style=""height:400px;""></img>","2","html-button-response","6","195704","0.0-3.0-4.0","778","List2A","white","woman","","true","2","","","","","","","","","",""
"null","CORRECT","","html-keyboard-response","7","197215","0.0-3.0-5.0-0.0","778","List2A","white","woman","","","","null","","","","","","","","",""
"2346.5999999996275","<img src=""portrait/BM2.jpg""style=""height:400px;""></img>","5","html-button-response","8","199563","0.0-3.0-7.0","778","List2A","white","woman","","true","5","","","","","","","","","",""
"null","CORRECT","","html-keyboard-response","9","201071","0.0-3.0-8.0-0.0","778","List2A","white","woman","","","","null","","","","","","","","",""
"2045.4000000003725","<img src=""portrait/WW2.jpg""style=""height:400px;""></img>","3","html-button-response","10","203118","0.0-3.0-10.0","778","List2A","white","woman","","true","3","","","","","","","","","",""
"null","CORRECT","","html-keyboard-response","11","204621","0.0-3.0-11.0-0.0","778","List2A","white","woman","","","","null","","","","","","","","",""
"1949.9000000003725","<img src=""portrait/WM2.jpg""style=""height:400px;""></img>","7","html-button-response","12","206571","0.0-3.0-13.0","778","List2A","white","woman","","true","7","","","","","","","","","",""
"null","CORRECT","","html-keyboard-response","13","208075","0.0-3.0-14.0-0.0","778","List2A","white","woman","","","","null","","","","","","","","",""
"3265.5","<img src=""portrait/WM1.jpg""style=""height:400px;""></img>","6","html-button-response","14","211341","0.0-3.0-16.0","778","List2A","white","woman","","true","6","","","","","","","","","",""
"null","CORRECT","","html-keyboard-response","15","212848","0.0-3.0-17.0-0.0","778","List2A","white","woman","","","","null","","","","","","","","",""
"3151","<img src=""portrait/WW1.jpg""style=""height:400px;""></img>","1","html-button-response","16","216000","0.0-3.0-19.0","778","List2A","white","woman","","true","1","","","","","","","","","",""
"null","CORRECT","","html-keyboard-response","17","217511","0.0-3.0-20.0-0.0","778","List2A","white","woman","","","","null","","","","","","","","",""
"3031.699999999255","<img src=""portrait/BW1.jpg""style=""height:400px;""></img>","0","html-button-response","18","220544","0.0-3.0-22.0","778","List2A","white","woman","","true","0","","","","","","","","","",""
"null","CORRECT","","html-keyboard-response","19","222051","0.0-3.0-23.0-0.0","778","List2A","white","woman","","","","null","","","","","","","","",""
"1888.9000000003725","<p>You got 8 out of 8 right first time. Press Continue.</p>","0","html-button-response","20","223941","0.0-3.0-25.0","778","List2A","white","woman","","","","","","","","","","","","",""
"38030","<p>In this experiment, you will view photographs of the people from the memory game interacting.</p><p>By using the <strong>exact</strong> phrase given <i>after</i> the photograph appears and recalling the correct names of the people in the photographs, form a sentence describing the interaction. You do not need to capitalise names.</p><p>Type your answer in the space provided. Please complete every sentence before moving onto the next trial.</p><p>You will only have a few seconds to memorise each given photograph and phrase before you can respond, so try your best to focus.</p><p>An example is given below. Press 'Continue' when you are ready.</p><img src='img/speaking_example.jpg' style='width:800px;height:460px;''></img>","0","html-button-response","21","262978","0.0-4.0","778","List2A","white","woman","","","","","","","","","","","","",""
"3339.5999999996275","<p>Before the experiment starts, you will watch two example trials. Press 'Continue'.</p>","0","html-button-response","22","267321","0.0-5.0","778","List2A","white","woman","","","","","","","","","","","","",""
"null","<img src='img/play_eg.gif' style='height:400px;''></img>","","html-keyboard-response","23","270330","0.0-6.0","778","List2A","white","woman","","","","null","","","","","","","","",""
"null","<p>is playing with</p>","","html-keyboard-response","24","272336","0.0-7.0","778","List2A","white","woman","","","","null","","","","","","","","",""
"4973.9000000003725","<p><b>Answer:</b> jane is playing with ruth</p>","0","html-button-response","25","277311","0.0-8.0","778","List2A","white","woman","","","","","","","","","","","","",""
"null","<img src='img/dance_eg.gif' style='height:400px;''></img>","","html-keyboard-response","26","280317","0.0-9.0","778","List2A","white","woman","","","","null","","","","","","","","",""
"null","<p>is being entertained by</p>","","html-keyboard-response","27","282322","0.0-10.0","778","List2A","white","woman","","","","null","","","","","","","","",""
"6530.700000001118","<p><b>Answer:</b> fred is being entertained by mike</p>","0","html-button-response","28","288853","0.0-11.0","778","List2A","white","woman","","","","","","","","","","","","",""
"11261.300000000745","<p>Ready to start the experiment?</p><br><p><strong>Remember to describe the picture using a full sentence,</strong></p><p><strong>that combines the names of the people with the <i>exact</i> phrase given.</strong></p><p><strong>To receive full payment you must do this correctly.</strong></p><p><strong> You do not need to capitalise names or use punctuation.</strong></p><br><p>Press 'Continue' to begin.</p>","0","html-button-response","29","301116","0.0-12.0","778","List2A","white","woman","","","","","","","","","","","","",""
"null","<div style=""font-size:60px;"">+</div>","","html-keyboard-response","30","302622","0.0-13.0-0.0","778","List2A","white","woman","","","","null","","","","","","","","",""
"null","<img src=""stim_listA/copy8.gif""style=""height:400px;""></stim_listA>","","html-keyboard-response","31","304626","0.0-13.0-1.0","778","List2A","white","woman","","","","null","","","","","","","","",""
"null","is being copied by","","html-keyboard-response","32","306627","0.0-13.0-2.0","778","List2A","white","woman","","","","null","","","","","","","","",""
"15175","","","survey-text","33","321805","0.0-13.0-3.0","778","List2A","white","woman","","","","","{""Q0"":""Kate is being copied by Ruth""}","<img src=""stim_listA/copy8.gif""style=""height:400px;""></stim_listA>","is being copied by","","","","","",""
"null","<div style=""font-size:60px;"">+</div>","","html-keyboard-response","34","322306","0.0-13.0-0.1","778","List2A","white","woman","","","","null","","","","","","","","",""
"null","<img src=""stim_listA/greet2.gif""style=""height:400px;""></stim_listA>","","html-keyboard-response","35","324309","0.0-13.0-1.1","778","List2A","white","woman","","","","null","","","","","","","","",""
"null","is being greeted by","","html-keyboard-response","36","326310","0.0-13.0-2.1","778","List2A","white","woman","","","","null","","","","","","","","",""
"7327.5","","","survey-text","37","333639","0.0-13.0-3.1","778","List2A","white","woman","","","","","{""Q0"":""Luke is being greeted by Jane""}","<img src=""stim_listA/greet2.gif""style=""height:400px;""></stim_listA>","is being greeted by","","","","","",""
"null","<div style=""font-size:60px;"">+</div>","","html-keyboard-response","38","334144","0.0-13.0-0.2","778","List2A","white","woman","","","","null","","","","","","","","",""
"null","<img src=""stim_listA/shout6.gif""style=""height:400px;""></stim_listA>","","html-keyboard-response","39","336150","0.0-13.0-1.2","778","List2A","white","woman","","","","null","","","","","","","","",""
"null","is being shouted at by","","html-keyboard-response","40","338156","0.0-13.0-2.2","778","List2A","white","woman","","","","null","","","","","","","","",""
"12210.300000000745","","","survey-text","41","350368","0.0-13.0-3.2","778","List2A","white","woman","","","","","{""Q0"":""Mike is being shouted at by Dave""}","<img src=""stim_listA/shout6.gif""style=""height:400px;""></stim_listA>","is being shouted at by","","","","","",""
"null","<div style=""font-size:60px;"">+</div>","","html-keyboard-response","42","350869","0.0-13.0-0.3","778","List2A","white","woman","","","","null","","","","","","","","",""
"null","<img src=""stim_listA/challenge4.gif""style=""height:400px;""></stim_listA>","","html-keyboard-response","43","352875","0.0-13.0-1.3","778","List2A","white","woman","","","","null","","","","","","","","",""
"null","is being challenged by","","html-keyboard-response","44","354878","0.0-13.0-2.3","778","List2A","white","woman","","","","null","","","","","","","","",""
"10721.099999999627","","","survey-text","45","365601","0.0-13.0-3.3","778","List2A","white","woman","","","","","{""Q0"":""Fred is being challenged by Kate""}","<img src=""stim_listA/challenge4.gif""style=""height:400px;""></stim_listA>","is being challenged by","","","","","",""
"null","<div style=""font-size:60px;"">+</div>","","html-keyboard-response","46","366101","0.0-13.0-0.4","778","List2A","white","woman","","","","null","","","","","","","","",""
"null","<img src=""stim_listA/kiss1.gif""style=""height:400px;""></stim_listA>","","html-keyboard-response","47","368104","0.0-13.0-1.4","778","List2A","white","woman","","","","null","","","","","","","","",""
"null","is kissing","","html-keyboard-response","48","370105","0.0-13.0-2.4","778","List2A","white","woman","","","","null","","","","","","","","",""
"13887.099999999627","","","survey-text","49","383994","0.0-13.0-3.4","778","List2A","white","woman","","","","","{""Q0"":""Luke is kissing Ruth""}","<img src=""stim_listA/kiss1.gif""style=""height:400px;""></stim_listA>","is kissing","","","","","",""
"null","<div style=""font-size:60px;"">+</div>","","html-keyboard-response","50","384499","0.0-13.0-0.5","778","List2A","white","woman","","","","null","","","","","","","","",""
"null","<img src=""stim_listA/greet1.gif""style=""height:400px;""></stim_listA>","","html-keyboard-response","51","386500","0.0-13.0-1.5","778","List2A","white","woman","","","","null","","","","","","","","",""
"null","is greeting","","html-keyboard-response","52","388501","0.0-13.0-2.5","778","List2A","white","woman","","","","null","","","","","","","","",""
"11241.299999998882","","","survey-text","53","399744","0.0-13.0-3.5","778","List2A","white","woman","","","","","{""Q0"":""Ruth is greeting Dave""}","<img src=""stim_listA/greet1.gif""style=""height:400px;""></stim_listA>","is greeting","","","","","",""
"null","<div style=""font-size:60px;"">+</div>","","html-keyboard-response","54","400245","0.0-13.0-0.6","778","List2A","white","woman","","","","null","","","","","","","","",""
"null","<img src=""stim_listA/oppose3.gif""style=""height:400px;""></stim_listA>","","html-keyboard-response","55","402251","0.0-13.0-1.6","778","List2A","white","woman","","","","null","","","","","","","","",""
"null","is opposing","","html-keyboard-response","56","404256","0.0-13.0-2.6","778","List2A","white","woman","","","","null","","","","","","","","",""
"10166.800000000745","","","survey-text","57","414425","0.0-13.0-3.6","778","List2A","white","woman","","","","","{""Q0"":""Kate is opposing Mike""}","<img src=""stim_listA/oppose3.gif""style=""height:400px;""></stim_listA>","is opposing","","","","","",""
"null","<div style=""font-size:60px;"">+</div>","","html-keyboard-response","58","414926","0.0-13.0-0.7","778","List2A","white","woman","","","","null","","","","","","","","",""
"null","<img src=""stim_listA/greet5.gif""style=""height:400px;""></stim_listA>","","html-keyboard-response","59","416932","0.0-13.0-1.7","778","List2A","white","woman","","","","null","","","","","","","","",""
"null","is greeting","","html-keyboard-response","60","418937","0.0-13.0-2.7","778","List2A","white","woman","","","","null","","","","","","","","",""
"6027.199999999255","","","survey-text","61","424966","0.0-13.0-3.7","778","List2A","white","woman","","","","","{""Q0"":""Dave is greeting Fred""}","<img src=""stim_listA/greet5.gif""style=""height:400px;""></stim_listA>","is greeting","","","","","",""
"null","<div style=""font-size:60px;"">+</div>","","html-keyboard-response","62","425467","0.0-13.0-0.8","778","List2A","white","woman","","","","null","","","","","","","","",""
"null","<img src=""stim_listA/copy4.gif""style=""height:400px;""></stim_listA>","","html-keyboard-response","63","427473","0.0-13.0-1.8","778","List2A","white","woman","","","","null","","","","","","","","",""
"null","is being copied by","","html-keyboard-response","64","429475","0.0-13.0-2.8","778","List2A","white","woman","","","","null","","","","","","","","",""
"10294.5","","","survey-text","65","439771","0.0-13.0-3.8","778","List2A","white","woman","","","","","{""Q0"":""Fred is being copied by Kate""}","<img src=""stim_listA/copy4.gif""style=""height:400px;""></stim_listA>","is being copied by","","","","","",""
"null","<div style=""font-size:60px;"">+</div>","","html-keyboard-response","66","440272","0.0-13.0-0.9","778","List2A","white","woman","","","","null","","","","","","","","",""
"null","<img src=""stim_listA/look6.gif""style=""height:400px;""></stim_listA>","","html-keyboard-response","67","442278","0.0-13.0-1.9","778","List2A","white","woman","","","","null","","","","","","","","",""
"null","is being looked at by","","html-keyboard-response","68","444280","0.0-13.0-2.9","778","List2A","white","woman","","","","null","","","","","","","","",""
"19125.199999999255","","","survey-text","69","463407","0.0-13.0-3.9","778","List2A","white","woman","","","","","{""Q0"":""Mike is being looked at by Dave""}","<img src=""stim_listA/look6.gif""style=""height:400px;""></stim_listA>","is being looked at by","","","","","",""
"null","<div style=""font-size:60px;"">+</div>","","html-keyboard-response","70","463912","0.0-13.0-0.10","778","List2A","white","woman","","","","null","","","","","","","","",""
"null","<img src=""stim_listA/touch5.gif""style=""height:400px;""></stim_listA>","","html-keyboard-response","71","465918","0.0-13.0-1.10","778","List2A","white","woman","","","","null","","","","","","","","",""
"null","is touching","","html-keyboard-response","72","467923","0.0-13.0-2.10","778","List2A","white","woman","","","","null","","","","","","","","",""
"10759.800000000745","","","survey-text","73","478685","0.0-13.0-3.10","778","List2A","white","woman","","","","","{""Q0"":""Mike is touching Dave""}","<img src=""stim_listA/touch5.gif""style=""height:400px;""></stim_listA>","is touching","","","","","",""
"null","<div style=""font-size:60px;"">+</div>","","html-keyboard-response","74","479185","0.0-13.0-0.11","778","List2A","white","woman","","","","null","","","","","","","","",""
"null","<img src=""stim_listA/greet8.gif""style=""height:400px;""></stim_listA>","","html-keyboard-response","75","481191","0.0-13.0-1.11","778","List2A","white","woman","","","","null","","","","","","","","",""
"null","is being greeted by","","html-keyboard-response","76","483196","0.0-13.0-2.11","778","List2A","white","woman","","","","null","","","","","","","","",""
"11607.5","","","survey-text","77","494806","0.0-13.0-3.11","778","List2A","white","woman","","","","","{""Q0"":""Kate is being greeted by Ruth""}","<img src=""stim_listA/greet8.gif""style=""height:400px;""></stim_listA>","is being greeted by","","","","","",""
"null","<div style=""font-size:60px;"">+</div>","","html-keyboard-response","78","495307","0.0-13.0-0.12","778","List2A","white","woman","","","","null","","","","","","","","",""
"null","<img src=""stim_listA/kiss4.gif""style=""height:400px;""></stim_listA>","","html-keyboard-response","79","497309","0.0-13.0-1.12","778","List2A","white","woman","","","","null","","","","","","","","",""
"null","is being kissed by","","html-keyboard-response","80","499312","0.0-13.0-2.12","778","List2A","white","woman","","","","null","","","","","","","","",""
"11872.200000001118","","","survey-text","81","511186","0.0-13.0-3.12","778","List2A","white","woman","","","","","{""Q0"":""Mike is being kissed by Kate""}","<img src=""stim_listA/kiss4.gif""style=""height:400px;""></stim_listA>","is being kissed by","","","","","",""
"null","<div style=""font-size:60px;"">+</div>","","html-keyboard-response","82","511689","0.0-13.0-0.13","778","List2A","white","woman","","","","null","","","","","","","","",""
"null","<img src=""stim_listA/kiss3.gif""style=""height:400px;""></stim_listA>","","html-keyboard-response","83","513690","0.0-13.0-1.13","778","List2A","white","woman","","","","null","","","","","","","","",""
"null","is kissing","","html-keyboard-response","84","515691","0.0-13.0-2.13","778","List2A","white","woman","","","","null","","","","","","","","",""
"7845.5","","","survey-text","85","524004","0.0-13.0-3.13","778","List2A","white","woman","","","","","{""Q0"":""Fred is kissing Beth""}","<img src=""stim_listA/kiss3.gif""style=""height:400px;""></stim_listA>","is kissing","","","","","",""
"null","<div style=""font-size:60px;"">+</div>","","html-keyboard-response","86","524507","0.0-13.0-0.14","778","List2A","white","woman","","","","null","","","","","","","","",""
"null","<img src=""stim_listA/look2.gif""style=""height:400px;""></stim_listA>","","html-keyboard-response","87","526513","0.0-13.0-1.14","778","List2A","white","woman","","","","null","","","","","","","","",""
"null","is being looked at by","","html-keyboard-response","88","528515","0.0-13.0-2.14","778","List2A","white","woman","","","","null","","","","","","","","",""
"9188.299999998882","","","survey-text","89","537706","0.0-13.0-3.14","778","List2A","white","woman","","","","","{""Q0"":""Jane is being looked at by Dave""}","<img src=""stim_listA/look2.gif""style=""height:400px;""></stim_listA>","is being looked at by","","","","","",""
"null","<div style=""font-size:60px;"">+</div>","","html-keyboard-response","90","538207","0.0-13.0-0.15","778","List2A","white","woman","","","","null","","","","","","","","",""
"null","<img src=""stim_listA/hug2.gif""style=""height:400px;""></stim_listA>","","html-keyboard-response","91","540208","0.0-13.0-1.15","778","List2A","white","woman","","","","null","","","","","","","","",""
"null","is being hugged by","","html-keyboard-response","92","542209","0.0-13.0-2.15","778","List2A","white","woman","","","","null","","","","","","","","",""
"12628.199999999255","","","survey-text","93","554839","0.0-13.0-3.15","778","List2A","white","woman","","","","","{""Q0"":""Jane is being hugged by Dave""}","<img src=""stim_listA/hug2.gif""style=""height:400px;""></stim_listA>","is being hugged by","","","","","",""
"null","<div style=""font-size:60px;"">+</div>","","html-keyboard-response","94","555340","0.0-13.0-0.16","778","List2A","white","woman","","","","null","","","","","","","","",""
"null","<img src=""stim_listA/challenge6.gif""style=""height:400px;""></stim_listA>","","html-keyboard-response","95","557346","0.0-13.0-1.16","778","List2A","white","woman","","","","null","","","","","","","","",""
"null","is being challenged by","","html-keyboard-response","96","559349","0.0-13.0-2.16","778","List2A","white","woman","","","","null","","","","","","","","",""
"16481.099999999627","","","survey-text","97","575832","0.0-13.0-3.16","778","List2A","white","woman","","","","","{""Q0"":""Mike is being challenged by Luke""}","<img src=""stim_listA/challenge6.gif""style=""height:400px;""></stim_listA>","is being challenged by","","","","","",""
"null","<div style=""font-size:60px;"">+</div>","","html-keyboard-response","98","576333","0.0-13.0-0.17","778","List2A","white","woman","","","","null","","","","","","","","",""
"null","<img src=""stim_listA/shout7.gif""style=""height:400px;""></stim_listA>","","html-keyboard-response","99","578339","0.0-13.0-1.17","778","List2A","white","woman","","","","null","","","","","","","","",""
"null","is shouting at","","html-keyboard-response","100","580344","0.0-13.0-2.17","778","List2A","white","woman","","","","null","","","","","","","","",""
"8716.300000000745","","","survey-text","101","589062","0.0-13.0-3.17","778","List2A","white","woman","","","","","{""Q0"":""Beth is shouting at Ruth""}","<img src=""stim_listA/shout7.gif""style=""height:400px;""></stim_listA>","is shouting at","","","","","",""
"null","<div style=""font-size:60px;"">+</div>","","html-keyboard-response","102","589566","0.0-13.0-0.18","778","List2A","white","woman","","","","null","","","","","","","","",""
"null","<img src=""stim_listA/kiss8.gif""style=""height:400px;""></stim_listA>","","html-keyboard-response","103","591572","0.0-13.0-1.18","778","List2A","white","woman","","","","null","","","","","","","","",""
"null","is being kissed by","","html-keyboard-response","104","593576","0.0-13.0-2.18","778","List2A","white","woman","","","","null","","","","","","","","",""
"10783.800000000745","","","survey-text","105","604362","0.0-13.0-3.18","778","List2A","white","woman","","","","","{""Q0"":""Jane is being kissed by Kate""}","<img src=""stim_listA/kiss8.gif""style=""height:400px;""></stim_listA>","is being kissed by","","","","","",""
"null","<div style=""font-size:60px;"">+</div>","","html-keyboard-response","106","604866","0.0-13.0-0.19","778","List2A","white","woman","","","","null","","","","","","","","",""
"null","<img src=""stim_listA/challenge1.gif""style=""height:400px;""></stim_listA>","","html-keyboard-response","107","606870","0.0-13.0-1.19","778","List2A","white","woman","","","","null","","","","","","","","",""
"null","is challenging","","html-keyboard-response","108","608871","0.0-13.0-2.19","778","List2A","white","woman","","","","null","","","","","","","","",""
"10462.799999998882","","","survey-text","109","619336","0.0-13.0-3.19","778","List2A","white","woman","","","","","{""Q0"":""Dave is being challenged by Ruth""}","<img src=""stim_listA/challenge1.gif""style=""height:400px;""></stim_listA>","is challenging","","","","","",""
"11900.699999999255","<img src='img/portrait_matrix_list2.jpg' style='width:900px;height:500px;''></img><p>If you have memorised all the portraits and names and are ready to start, press Continue.</p><p><strong>Please note: Your memory of these faces will be tested 4 times during this experiment.</strong></p>","0","html-button-response","110","631238","0.0-14.0-0.0","778","List2A","white","woman","","","","","","","","","","","","",""
"2202.89999999851","<img src=""portrait/WW2.jpg""style=""height:400px;""></img>","3","html-button-response","111","634444","0.0-14.0-1.0","778","List2A","white","woman","","true","3","","","","","","","","","",""
"null","CORRECT","","html-keyboard-response","112","635950","0.0-14.0-2.0-0.0","778","List2A","white","woman","","","","null","","","","","","","","",""
"2249.7999999988824","<img src=""portrait/WM2.jpg""style=""height:400px;""></img>","7","html-button-response","113","638202","0.0-14.0-4.0","778","List2A","white","woman","","true","7","","","","","","","","","",""
"null","CORRECT","","html-keyboard-response","114","639710","0.0-14.0-5.0-0.0","778","List2A","white","woman","","","","null","","","","","","","","",""
"1662.699999999255","<img src=""portrait/BM1.jpg""style=""height:400px;""></img>","4","html-button-response","115","641374","0.0-14.0-7.0","778","List2A","white","woman","","true","4","","","","","","","","","",""
"null","CORRECT","","html-keyboard-response","116","642879","0.0-14.0-8.0-0.0","778","List2A","white","woman","","","","null","","","","","","","","",""
"2115.7999999988824","<img src=""portrait/WW1.jpg""style=""height:400px;""></img>","1","html-button-response","117","644997","0.0-14.0-10.0","778","List2A","white","woman","","true","1","","","","","","","","","",""
"null","CORRECT","","html-keyboard-response","118","646504","0.0-14.0-11.0-0.0","778","List2A","white","woman","","","","null","","","","","","","","",""
"3790.10000000149","<img src=""portrait/BW2.jpg""style=""height:400px;""></img>","2","html-button-response","119","650295","0.0-14.0-13.0","778","List2A","white","woman","","true","2","","","","","","","","","",""
"null","CORRECT","","html-keyboard-response","120","651802","0.0-14.0-14.0-0.0","778","List2A","white","woman","","","","null","","","","","","","","",""
"1788.2000000011176","<img src=""portrait/WM1.jpg""style=""height:400px;""></img>","6","html-button-response","121","653592","0.0-14.0-16.0","778","List2A","white","woman","","true","6","","","","","","","","","",""
"null","CORRECT","","html-keyboard-response","122","655103","0.0-14.0-17.0-0.0","778","List2A","white","woman","","","","null","","","","","","","","",""
"2098.5","<img src=""portrait/BW1.jpg""style=""height:400px;""></img>","0","html-button-response","123","657203","0.0-14.0-19.0","778","List2A","white","woman","","true","0","","","","","","","","","",""
"null","CORRECT","","html-keyboard-response","124","658709","0.0-14.0-20.0-0.0","778","List2A","white","woman","","","","null","","","","","","","","",""
"1709.699999999255","<img src=""portrait/BM2.jpg""style=""height:400px;""></img>","5","html-button-response","125","660420","0.0-14.0-22.0","778","List2A","white","woman","","true","5","","","","","","","","","",""
"null","CORRECT","","html-keyboard-response","126","661931","0.0-14.0-23.0-0.0","778","List2A","white","woman","","","","null","","","","","","","","",""
"4191.199999999255","<p>You got 8 out of 8 right first time. Press Continue.</p>","0","html-button-response","127","666124","0.0-14.0-25.0","778","List2A","white","woman","","","","","","","","","","","","",""
"null","<div style=""font-size:60px;"">+</div>","","html-keyboard-response","128","667629","0.0-15.0-0.0","778","List2A","white","woman","","","","null","","","","","","","","",""
"null","<img src=""stim_listA/hug4.gif""style=""height:400px;""></stim_listA>","","html-keyboard-response","129","669631","0.0-15.0-1.0","778","List2A","white","woman","","","","null","","","","","","","","",""
"null","is being hugged by","","html-keyboard-response","130","671632","0.0-15.0-2.0","778","List2A","white","woman","","","","null","","","","","","","","",""
"5324.5","","","survey-text","131","676958","0.0-15.0-3.0","778","List2A","white","woman","","","","","{""Q0"":""Mike is being hugged by Kate""}","<img src=""stim_listA/hug4.gif""style=""height:400px;""></stim_listA>","is being hugged by","","","","","",""
"null","<div style=""font-size:60px;"">+</div>","","html-keyboard-response","132","677458","0.0-15.0-0.1","778","List2A","white","woman","","","","null","","","","","","","","",""
"null","<img src=""stim_listA/look8.gif""style=""height:400px;""></stim_listA>","","html-keyboard-response","133","679465","0.0-15.0-1.1","778","List2A","white","woman","","","","null","","","","","","","","",""
"null","is being looked at by","","html-keyboard-response","134","681470","0.0-15.0-2.1","778","List2A","white","woman","","","","null","","","","","","","","",""
"7568.300000000745","","","survey-text","135","689040","0.0-15.0-3.1","778","List2A","white","woman","","","","","{""Q0"":""Jane is being looked at by Kate""}","<img src=""stim_listA/look8.gif""style=""height:400px;""></stim_listA>","is being looked at by","","","","","",""
"null","<div style=""font-size:60px;"">+</div>","","html-keyboard-response","136","689541","0.0-15.0-0.2","778","List2A","white","woman","","","","null","","","","","","","","",""
"null","<img src=""stim_listA/touch1.gif""style=""height:400px;""></stim_listA>","","html-keyboard-response","137","691547","0.0-15.0-1.2","778","List2A","white","woman","","","","null","","","","","","","","",""
"null","is touching","","html-keyboard-response","138","693548","0.0-15.0-2.2","778","List2A","white","woman","","","","null","","","","","","","","",""
"7055.299999998882","","","survey-text","139","700605","0.0-15.0-3.2","778","List2A","white","woman","","","","","{""Q0"":""Dave is touching Jane""}","<img src=""stim_listA/touch1.gif""style=""height:400px;""></stim_listA>","is touching","","","","","",""
"null","<div style=""font-size:60px;"">+</div>","","html-keyboard-response","140","701106","0.0-15.0-0.3","778","List2A","white","woman","","","","null","","","","","","","","",""
"null","<img src=""stim_listA/look4.gif""style=""height:400px;""></stim_listA>","","html-keyboard-response","141","703111","0.0-15.0-1.3","778","List2A","white","woman","","","","null","","","","","","","","",""
"null","is being looked at by","","html-keyboard-response","142","705117","0.0-15.0-2.3","778","List2A","white","woman","","","","null","","","","","","","","",""
"7647.199999999255","","","survey-text","143","712766","0.0-15.0-3.3","778","List2A","white","woman","","","","","{""Q0"":""Mike is being looked at by Kate""}","<img src=""stim_listA/look4.gif""style=""height:400px;""></stim_listA>","is being looked at by","","","","","",""
"null","<div style=""font-size:60px;"">+</div>","","html-keyboard-response","144","713271","0.0-15.0-0.4","778","List2A","white","woman","","","","null","","","","","","","","",""
"null","<img src=""stim_listA/challenge3.gif""style=""height:400px;""></stim_listA>","","html-keyboard-response","145","715277","0.0-15.0-1.4","778","List2A","white","woman","","","","null","","","","","","","","",""
"null","is challenging","","html-keyboard-response","146","717281","0.0-15.0-2.4","778","List2A","white","woman","","","","null","","","","","","","","",""
"14979.200000001118","","","survey-text","147","732263","0.0-15.0-3.4","778","List2A","white","woman","","","","","{""Q0"":""Beth is challenging Mike""}","<img src=""stim_listA/challenge3.gif""style=""height:400px;""></stim_listA>","is challenging","","","","","",""
"null","<div style=""font-size:60px;"">+</div>","","html-keyboard-response","148","732763","0.0-15.0-0.5","778","List2A","white","woman","","","","null","","","","","","","","",""
"null","<img src=""stim_listA/touch3.gif""style=""height:400px;""></stim_listA>","","html-keyboard-response","149","734769","0.0-15.0-1.5","778","List2A","white","woman","","","","null","","","","","","","","",""
"null","is touching","","html-keyboard-response","150","736772","0.0-15.0-2.5","778","List2A","white","woman","","","","null","","","","","","","","",""
"13083.800000000745","","","survey-text","151","749857","0.0-15.0-3.5","778","List2A","white","woman","","","","","{""Q0"":""Mike is touching Kate""}","<img src=""stim_listA/touch3.gif""style=""height:400px;""></stim_listA>","is touching","","","","","",""
"null","<div style=""font-size:60px;"">+</div>","","html-keyboard-response","152","750358","0.0-15.0-0.6","778","List2A","white","woman","","","","null","","","","","","","","",""
"null","<img src=""stim_listA/copy1.gif""style=""height:400px;""></stim_listA>","","html-keyboard-response","153","752364","0.0-15.0-1.6","778","List2A","white","woman","","","","null","","","","","","","","",""
"null","is copying","","html-keyboard-response","154","754370","0.0-15.0-2.6","778","List2A","white","woman","","","","null","","","","","","","","",""
"8581","","","survey-text","155","762952","0.0-15.0-3.6","778","List2A","white","woman","","","","","{""Q0"":""Dave is copying Ruth""}","<img src=""stim_listA/copy1.gif""style=""height:400px;""></stim_listA>","is copying","","","","","",""
"null","<div style=""font-size:60px;"">+</div>","","html-keyboard-response","156","763453","0.0-15.0-0.7","778","List2A","white","woman","","","","null","","","","","","","","",""
"null","<img src=""stim_listA/look7.gif""style=""height:400px;""></stim_listA>","","html-keyboard-response","157","765460","0.0-15.0-1.7","778","List2A","white","woman","","","","null","","","","","","","","",""
"null","is looking at","","html-keyboard-response","158","767465","0.0-15.0-2.7","778","List2A","white","woman","","","","null","","","","","","","","",""
"5430","","","survey-text","159","772897","0.0-15.0-3.7","778","List2A","white","woman","","","","","{""Q0"":""Ruth is looking at Beth""}","<img src=""stim_listA/look7.gif""style=""height:400px;""></stim_listA>","is looking at","","","","","",""
"null","<div style=""font-size:60px;"">+</div>","","html-keyboard-response","160","773402","0.0-15.0-0.8","778","List2A","white","woman","","","","null","","","","","","","","",""
"null","<img src=""stim_listA/greet3.gif""style=""height:400px;""></stim_listA>","","html-keyboard-response","161","775406","0.0-15.0-1.8","778","List2A","white","woman","","","","null","","","","","","","","",""
"null","is greeting","","html-keyboard-response","162","777412","0.0-15.0-2.8","778","List2A","white","woman","","","","null","","","","","","","","",""
"7262.0999999996275","","","survey-text","163","784676","0.0-15.0-3.8","778","List2A","white","woman","","","","","{""Q0"":""Beth is greeting Mike""}","<img src=""stim_listA/greet3.gif""style=""height:400px;""></stim_listA>","is greeting","","","","","",""
"null","<div style=""font-size:60px;"">+</div>","","html-keyboard-response","164","785177","0.0-15.0-0.9","778","List2A","white","woman","","","","null","","","","","","","","",""
"null","<img src=""stim_listA/seduce1.gif""style=""height:400px;""></stim_listA>","","html-keyboard-response","165","787181","0.0-15.0-1.9","778","List2A","white","woman","","","","null","","","","","","","","",""
"null","is seducing","","html-keyboard-response","166","789182","0.0-15.0-2.9","778","List2A","white","woman","","","","null","","","","","","","","",""
"13458.199999999255","","","survey-text","167","802642","0.0-15.0-3.9","778","List2A","white","woman","","","","","{""Q0"":""Jane is seducing Luke""}","<img src=""stim_listA/seduce1.gif""style=""height:400px;""></stim_listA>","is seducing","","","","","",""
"null","<div style=""font-size:60px;"">+</div>","","html-keyboard-response","168","803144","0.0-15.0-0.10","778","List2A","white","woman","","","","null","","","","","","","","",""
"null","<img src=""stim_listA/shout8.gif""style=""height:400px;""></stim_listA>","","html-keyboard-response","169","805150","0.0-15.0-1.10","778","List2A","white","woman","","","","null","","","","","","","","",""
"null","is being shouted at by","","html-keyboard-response","170","807155","0.0-15.0-2.10","778","List2A","white","woman","","","","null","","","","","","","","",""
"9817.599999999627","","","survey-text","171","816975","0.0-15.0-3.10","778","List2A","white","woman","","","","","{""Q0"":""Kate is being shouted at by Jane""}","<img src=""stim_listA/shout8.gif""style=""height:400px;""></stim_listA>","is being shouted at by","","","","","",""
"null","<div style=""font-size:60px;"">+</div>","","html-keyboard-response","172","817479","0.0-15.0-0.11","778","List2A","white","woman","","","","null","","","","","","","","",""
"null","<img src=""stim_listA/oppose1.gif""style=""height:400px;""></stim_listA>","","html-keyboard-response","173","819485","0.0-15.0-1.11","778","List2A","white","woman","","","","null","","","","","","","","",""
"null","is opposing","","html-keyboard-response","174","821488","0.0-15.0-2.11","778","List2A","white","woman","","","","null","","","","","","","","",""
"9648.10000000149","","","survey-text","175","831138","0.0-15.0-3.11","778","List2A","white","woman","","","","","{""Q0"":""Dave is opposing Jane""}","<img src=""stim_listA/oppose1.gif""style=""height:400px;""></stim_listA>","is opposing","","","","","",""
"null","<div style=""font-size:60px;"">+</div>","","html-keyboard-response","176","831639","0.0-15.0-0.12","778","List2A","white","woman","","","","null","","","","","","","","",""
"null","<img src=""stim_listA/oppose8.gif""style=""height:400px;""></stim_listA>","","html-keyboard-response","177","833645","0.0-15.0-1.12","778","List2A","white","woman","","","","null","","","","","","","","",""
"null","is being opposed by","","html-keyboard-response","178","835648","0.0-15.0-2.12","778","List2A","white","woman","","","","null","","","","","","","","",""
"6614.200000001118","","","survey-text","179","842264","0.0-15.0-3.12","778","List2A","white","woman","","","","","{""Q0"":""Ruth is being opposed by Beth""}","<img src=""stim_listA/oppose8.gif""style=""height:400px;""></stim_listA>","is being opposed by","","","","","",""
"null","<div style=""font-size:60px;"">+</div>","","html-keyboard-response","180","842768","0.0-15.0-0.13","778","List2A","white","woman","","","","null","","","","","","","","",""
"null","<img src=""stim_listA/oppose4.gif""style=""height:400px;""></stim_listA>","","html-keyboard-response","181","844772","0.0-15.0-1.13","778","List2A","white","woman","","","","null","","","","","","","","",""
"null","is being opposed by","","html-keyboard-response","182","846773","0.0-15.0-2.13","778","List2A","white","woman","","","","null","","","","","","","","",""
"9102.099999999627","","","survey-text","183","855877","0.0-15.0-3.13","778","List2A","white","woman","","","","","{""Q0"":""Beth is being opposed by Fred""}","<img src=""stim_listA/oppose4.gif""style=""height:400px;""></stim_listA>","is being opposed by","","","","","",""
"null","<div style=""font-size:60px;"">+</div>","","html-keyboard-response","184","856378","0.0-15.0-0.14","778","List2A","white","woman","","","","null","","","","","","","","",""
"null","<img src=""stim_listA/copy6.gif""style=""height:400px;""></stim_listA>","","html-keyboard-response","185","858384","0.0-15.0-1.14","778","List2A","white","woman","","","","null","","","","","","","","",""
"null","is being copied by","","html-keyboard-response","186","860384","0.0-15.0-2.14","778","List2A","white","woman","","","","null","","","","","","","","",""
"12286.900000000373","","","survey-text","187","872673","0.0-15.0-3.14","778","List2A","white","woman","","","","","{""Q0"":""Mike is being copied by Luke""}","<img src=""stim_listA/copy6.gif""style=""height:400px;""></stim_listA>","is being copied by","","","","","",""
"null","<div style=""font-size:60px;"">+</div>","","html-keyboard-response","188","873175","0.0-15.0-0.15","778","List2A","white","woman","","","","null","","","","","","","","",""
"null","<img src=""stim_listA/oppose5.gif""style=""height:400px;""></stim_listA>","","html-keyboard-response","189","875176","0.0-15.0-1.15","778","List2A","white","woman","","","","null","","","","","","","","",""
"null","is opposing","","html-keyboard-response","190","877178","0.0-15.0-2.15","778","List2A","white","woman","","","","null","","","","","","","","",""
"5539.9000000003725","","","survey-text","191","882720","0.0-15.0-3.15","778","List2A","white","woman","","","","","{""Q0"":""Dave is opposing Mike""}","<img src=""stim_listA/oppose5.gif""style=""height:400px;""></stim_listA>","is opposing","","","","","",""
"null","<div style=""font-size:60px;"">+</div>","","html-keyboard-response","192","883221","0.0-15.0-0.16","778","List2A","white","woman","","","","null","","","","","","","","",""
"null","<img src=""stim_listA/shout2.gif""style=""height:400px;""></stim_listA>","","html-keyboard-response","193","885227","0.0-15.0-1.16","778","List2A","white","woman","","","","null","","","","","","","","",""
"null","is being shouted at by","","html-keyboard-response","194","887233","0.0-15.0-2.16","778","List2A","white","woman","","","","null","","","","","","","","",""
"5891.199999999255","","","survey-text","195","893126","0.0-15.0-3.16","778","List2A","white","woman","","","","","{""Q0"":""Jane is being shouted at by Dave""}","<img src=""stim_listA/shout2.gif""style=""height:400px;""></stim_listA>","is being shouted at by","","","","","",""
"null","<div style=""font-size:60px;"">+</div>","","html-keyboard-response","196","893630","0.0-15.0-0.17","778","List2A","white","woman","","","","null","","","","","","","","",""
"null","<img src=""stim_listA/hug5.gif""style=""height:400px;""></stim_listA>","","html-keyboard-response","197","895637","0.0-15.0-1.17","778","List2A","white","woman","","","","null","","","","","","","","",""
"null","is hugging","","html-keyboard-response","198","897641","0.0-15.0-2.17","778","List2A","white","woman","","","","null","","","","","","","","",""
"15892.099999999627","","","survey-text","199","913535","0.0-15.0-3.17","778","List2A","white","woman","","","","","{""Q0"":""Luke is hugging Fred""}","<img src=""stim_listA/hug5.gif""style=""height:400px;""></stim_listA>","is hugging","","","","","",""
"null","<div style=""font-size:60px;"">+</div>","","html-keyboard-response","200","914036","0.0-15.0-0.18","778","List2A","white","woman","","","","null","","","","","","","","",""
"null","<img src=""stim_listA/oppose6.gif""style=""height:400px;""></stim_listA>","","html-keyboard-response","201","916039","0.0-15.0-1.18","778","List2A","white","woman","","","","null","","","","","","","","",""
"null","is being opposed by","","html-keyboard-response","202","918039","0.0-15.0-2.18","778","List2A","white","woman","","","","null","","","","","","","","",""
"10825.900000000373","","","survey-text","203","928867","0.0-15.0-3.18","778","List2A","white","woman","","","","","{""Q0"":""Luke is being opposed by Fred""}","<img src=""stim_listA/oppose6.gif""style=""height:400px;""></stim_listA>","is being opposed by","","","","","",""
"null","<div style=""font-size:60px;"">+</div>","","html-keyboard-response","204","929372","0.0-15.0-0.19","778","List2A","white","woman","","","","null","","","","","","","","",""
"null","<img src=""stim_listA/hug6.gif""style=""height:400px;""></stim_listA>","","html-keyboard-response","205","931377","0.0-15.0-1.19","778","List2A","white","woman","","","","null","","","","","","","","",""
"null","is being hugged by","","html-keyboard-response","206","933383","0.0-15.0-2.19","778","List2A","white","woman","","","","null","","","","","","","","",""
"6147.199999999255","","","survey-text","207","939532","0.0-15.0-3.19","778","List2A","white","woman","","","","","{""Q0"":""Mike is being hugged by Dave""}","<img src=""stim_listA/hug6.gif""style=""height:400px;""></stim_listA>","is being hugged by","","","","","",""
"13374.599999999627","<img src='img/portrait_matrix_list2.jpg' style='width:900px;height:500px;''></img><p>If you have memorised all the portraits and names and are ready to start, press Continue.</p><p><strong>Please note: Your memory of these faces will be tested 4 times during this experiment.</strong></p>","0","html-button-response","208","952908","0.0-16.0-0.0","778","List2A","white","woman","","","","","","","","","","","","",""
"2570.4000000003725","<img src=""portrait/BM2.jpg""style=""height:400px;""></img>","5","html-button-response","209","956485","0.0-16.0-1.0","778","List2A","white","woman","","true","5","","","","","","","","","",""
"null","CORRECT","","html-keyboard-response","210","957990","0.0-16.0-2.0-0.0","778","List2A","white","woman","","","","null","","","","","","","","",""
"2759.89999999851","<img src=""portrait/BW1.jpg""style=""height:400px;""></img>","0","html-button-response","211","960751","0.0-16.0-4.0","778","List2A","white","woman","","true","0","","","","","","","","","",""
"null","CORRECT","","html-keyboard-response","212","962259","0.0-16.0-5.0-0.0","778","List2A","white","woman","","","","null","","","","","","","","",""
"1504.3999999985099","<img src=""portrait/WM2.jpg""style=""height:400px;""></img>","7","html-button-response","213","963764","0.0-16.0-7.0","778","List2A","white","woman","","true","7","","","","","","","","","",""
"null","CORRECT","","html-keyboard-response","214","965273","0.0-16.0-8.0-0.0","778","List2A","white","woman","","","","null","","","","","","","","",""
"1662.9000000003725","<img src=""portrait/WW1.jpg""style=""height:400px;""></img>","1","html-button-response","215","966936","0.0-16.0-10.0","778","List2A","white","woman","","true","1","","","","","","","","","",""
"null","CORRECT","","html-keyboard-response","216","968446","0.0-16.0-11.0-0.0","778","List2A","white","woman","","","","null","","","","","","","","",""
"1695.4000000003725","<img src=""portrait/BW2.jpg""style=""height:400px;""></img>","2","html-button-response","217","970143","0.0-16.0-13.0","778","List2A","white","woman","","true","2","","","","","","","","","",""
"null","CORRECT","","html-keyboard-response","218","971645","0.0-16.0-14.0-0.0","778","List2A","white","woman","","","","null","","","","","","","","",""
"1467","<img src=""portrait/WM1.jpg""style=""height:400px;""></img>","6","html-button-response","219","973113","0.0-16.0-16.0","778","List2A","white","woman","","true","6","","","","","","","","","",""
"null","CORRECT","","html-keyboard-response","220","974624","0.0-16.0-17.0-0.0","778","List2A","white","woman","","","","null","","","","","","","","",""
"1604","<img src=""portrait/BM1.jpg""style=""height:400px;""></img>","4","html-button-response","221","976229","0.0-16.0-19.0","778","List2A","white","woman","","true","4","","","","","","","","","",""
"null","CORRECT","","html-keyboard-response","222","977732","0.0-16.0-20.0-0.0","778","List2A","white","woman","","","","null","","","","","","","","",""
"1546","<img src=""portrait/WW2.jpg""style=""height:400px;""></img>","3","html-button-response","223","979279","0.0-16.0-22.0","778","List2A","white","woman","","true","3","","","","","","","","","",""
"null","CORRECT","","html-keyboard-response","224","980784","0.0-16.0-23.0-0.0","778","List2A","white","woman","","","","null","","","","","","","","",""
"1484.699999999255","<p>You got 8 out of 8 right first time. Press Continue.</p>","0","html-button-response","225","982270","0.0-16.0-25.0","778","List2A","white","woman","","","","","","","","","","","","",""
"null","<div style=""font-size:60px;"">+</div>","","html-keyboard-response","226","983778","0.0-17.0-0.0","778","List2A","white","woman","","","","null","","","","","","","","",""
"null","<img src=""stim_listA/touch8.gif""style=""height:400px;""></stim_listA>","","html-keyboard-response","227","985781","0.0-17.0-1.0","778","List2A","white","woman","","","","null","","","","","","","","",""
"null","is being touched by","","html-keyboard-response","228","987782","0.0-17.0-2.0","778","List2A","white","woman","","","","null","","","","","","","","",""
"7108.9000000003725","","","survey-text","229","994893","0.0-17.0-3.0","778","List2A","white","woman","","","","","{""Q0"":""Beth is being touched by Ruth""}","<img src=""stim_listA/touch8.gif""style=""height:400px;""></stim_listA>","is being touched by","","","","","",""
"null","<div style=""font-size:60px;"">+</div>","","html-keyboard-response","230","995394","0.0-17.0-0.1","778","List2A","white","woman","","","","null","","","","","","","","",""
"null","<img src=""stim_listA/hug7.gif""style=""height:400px;""></stim_listA>","","html-keyboard-response","231","997396","0.0-17.0-1.1","778","List2A","white","woman","","","","null","","","","","","","","",""
"null","is hugging","","html-keyboard-response","232","999397","0.0-17.0-2.1","778","List2A","white","woman","","","","null","","","","","","","","",""
"9545.60000000149","","","survey-text","233","1008945","0.0-17.0-3.1","778","List2A","white","woman","","","","","{""Q0"":""Beth is hugging Ruth""}","<img src=""stim_listA/hug7.gif""style=""height:400px;""></stim_listA>","is hugging","","","","","",""
"null","<div style=""font-size:60px;"">+</div>","","html-keyboard-response","234","1009446","0.0-17.0-0.2","778","List2A","white","woman","","","","null","","","","","","","","",""
"null","<img src=""stim_listA/shout3.gif""style=""height:400px;""></stim_listA>","","html-keyboard-response","235","1011452","0.0-17.0-1.2","778","List2A","white","woman","","","","null","","","","","","","","",""
"null","is shouting at","","html-keyboard-response","236","1013457","0.0-17.0-2.2","778","List2A","white","woman","","","","null","","","","","","","","",""
"7848.5","","","survey-text","237","1021308","0.0-17.0-3.2","778","List2A","white","woman","","","","","{""Q0"":""Fred is shouting at Beth""}","<img src=""stim_listA/shout3.gif""style=""height:400px;""></stim_listA>","is shouting at","","","","","",""
"null","<div style=""font-size:60px;"">+</div>","","html-keyboard-response","238","1021810","0.0-17.0-0.3","778","List2A","white","woman","","","","null","","","","","","","","",""
"null","<img src=""stim_listA/seduce6.gif""style=""height:400px;""></stim_listA>","","html-keyboard-response","239","1023822","0.0-17.0-1.3","778","List2A","white","woman","","","","null","","","","","","","","",""
"null","is being seduced by","","html-keyboard-response","240","1025828","0.0-17.0-2.3","778","List2A","white","woman","","","","null","","","","","","","","",""
"11317.599999999627","","","survey-text","241","1037148","0.0-17.0-3.3","778","List2A","white","woman","","","","","{""Q0"":""Fred is being seduced by Dave""}","<img src=""stim_listA/seduce6.gif""style=""height:400px;""></stim_listA>","is being seduced by","","","","","",""
"null","<div style=""font-size:60px;"">+</div>","","html-keyboard-response","242","1037649","0.0-17.0-0.4","778","List2A","white","woman","","","","null","","","","","","","","",""
"null","<img src=""stim_listA/copy5.gif""style=""height:400px;""></stim_listA>","","html-keyboard-response","243","1039655","0.0-17.0-1.4","778","List2A","white","woman","","","","null","","","","","","","","",""
"null","is copying","","html-keyboard-response","244","1041660","0.0-17.0-2.4","778","List2A","white","woman","","","","null","","","","","","","","",""
"33465.40000000037","","","survey-text","245","1075128","0.0-17.0-3.4","778","List2A","white","woman","","","","","{""Q0"":""Dave is being copied by Fred""}","<img src=""stim_listA/copy5.gif""style=""height:400px;""></stim_listA>","is copying","","","","","",""
"null","<div style=""font-size:60px;"">+</div>","","html-keyboard-response","246","1075628","0.0-17.0-0.5","778","List2A","white","woman","","","","null","","","","","","","","",""
"null","<img src=""stim_listA/oppose2.gif""style=""height:400px;""></stim_listA>","","html-keyboard-response","247","1077634","0.0-17.0-1.5","778","List2A","white","woman","","","","null","","","","","","","","",""
"null","is being opposed by","","html-keyboard-response","248","1079637","0.0-17.0-2.5","778","List2A","white","woman","","","","null","","","","","","","","",""
"11125.400000000373","","","survey-text","249","1090765","0.0-17.0-3.5","778","List2A","white","woman","","","","","{""Q0"":""Luke is being opposed by Ruth""}","<img src=""stim_listA/oppose2.gif""style=""height:400px;""></stim_listA>","is being opposed by","","","","","",""
"null","<div style=""font-size:60px;"">+</div>","","html-keyboard-response","250","1091270","0.0-17.0-0.6","778","List2A","white","woman","","","","null","","","","","","","","",""
"null","<img src=""stim_listA/challenge8.gif""style=""height:400px;""></stim_listA>","","html-keyboard-response","251","1093275","0.0-17.0-1.6","778","List2A","white","woman","","","","null","","","","","","","","",""
"null","is being challenged by","","html-keyboard-response","252","1095281","0.0-17.0-2.6","778","List2A","white","woman","","","","null","","","","","","","","",""
"8645","","","survey-text","253","1103927","0.0-17.0-3.6","778","List2A","white","woman","","","","","{""Q0"":""Kate is being challenged by Ruth""}","<img src=""stim_listA/challenge8.gif""style=""height:400px;""></stim_listA>","is being challenged by","","","","","",""
"null","<div style=""font-size:60px;"">+</div>","","html-keyboard-response","254","1104432","0.0-17.0-0.7","778","List2A","white","woman","","","","null","","","","","","","","",""
"null","<img src=""stim_listA/hug3.gif""style=""height:400px;""></stim_listA>","","html-keyboard-response","255","1106438","0.0-17.0-1.7","778","List2A","white","woman","","","","null","","","","","","","","",""
"null","is hugging","","html-keyboard-response","256","1108441","0.0-17.0-2.7","778","List2A","white","woman","","","","null","","","","","","","","",""
"8208.299999998882","","","survey-text","257","1116651","0.0-17.0-3.7","778","List2A","white","woman","","","","","{""Q0"":""Beth is hugging Fred""}","<img src=""stim_listA/hug3.gif""style=""height:400px;""></stim_listA>","is hugging","","","","","",""
"null","<div style=""font-size:60px;"">+</div>","","html-keyboard-response","258","1117152","0.0-17.0-0.8","778","List2A","white","woman","","","","null","","","","","","","","",""
"null","<img src=""stim_listA/kiss6.gif""style=""height:400px;""></stim_listA>","","html-keyboard-response","259","1119158","0.0-17.0-1.8","778","List2A","white","woman","","","","null","","","","","","","","",""
"null","is being kissed by","","html-keyboard-response","260","1121164","0.0-17.0-2.8","778","List2A","white","woman","","","","null","","","","","","","","",""
"8456.5","","","survey-text","261","1129622","0.0-17.0-3.8","778","List2A","white","woman","","","","","{""Q0"":""Dave is being kissed by Mike""}","<img src=""stim_listA/kiss6.gif""style=""height:400px;""></stim_listA>","is being kissed by","","","","","",""
"null","<div style=""font-size:60px;"">+</div>","","html-keyboard-response","262","1130123","0.0-17.0-0.9","778","List2A","white","woman","","","","null","","","","","","","","",""
"null","<img src=""stim_listA/seduce7.gif""style=""height:400px;""></stim_listA>","","html-keyboard-response","263","1132124","0.0-17.0-1.9","778","List2A","white","woman","","","","null","","","","","","","","",""
"null","is seducing","","html-keyboard-response","264","1134126","0.0-17.0-2.9","778","List2A","white","woman","","","","null","","","","","","","","",""
"8375.799999998882","","","survey-text","265","1142503","0.0-17.0-3.9","778","List2A","white","woman","","","","","{""Q0"":""Ruth is seducing Kate""}","<img src=""stim_listA/seduce7.gif""style=""height:400px;""></stim_listA>","is seducing","","","","","",""
"null","<div style=""font-size:60px;"">+</div>","","html-keyboard-response","266","1143008","0.0-17.0-0.10","778","List2A","white","woman","","","","null","","","","","","","","",""
"null","<img src=""stim_listA/look1.gif""style=""height:400px;""></stim_listA>","","html-keyboard-response","267","1145014","0.0-17.0-1.10","778","List2A","white","woman","","","","null","","","","","","","","",""
"null","is looking at","","html-keyboard-response","268","1147018","0.0-17.0-2.10","778","List2A","white","woman","","","","null","","","","","","","","",""
"6947","","","survey-text","269","1153967","0.0-17.0-3.10","778","List2A","white","woman","","","","","{""Q0"":""Luke is looking at Ruth""}","<img src=""stim_listA/look1.gif""style=""height:400px;""></stim_listA>","is looking at","","","","","",""
"null","<div style=""font-size:60px;"">+</div>","","html-keyboard-response","270","1154468","0.0-17.0-0.11","778","List2A","white","woman","","","","null","","","","","","","","",""
"null","<img src=""stim_listA/touch6.gif""style=""height:400px;""></stim_listA>","","html-keyboard-response","271","1156474","0.0-17.0-1.11","778","List2A","white","woman","","","","null","","","","","","","","",""
"null","is being touched by","","html-keyboard-response","272","1158475","0.0-17.0-2.11","778","List2A","white","woman","","","","null","","","","","","","","",""
"6976.5","","","survey-text","273","1165453","0.0-17.0-3.11","778","List2A","white","woman","","","","","{""Q0"":""Fred is being touched by Luke""}","<img src=""stim_listA/touch6.gif""style=""height:400px;""></stim_listA>","is being touched by","","","","","",""
"null","<div style=""font-size:60px;"">+</div>","","html-keyboard-response","274","1165954","0.0-17.0-0.12","778","List2A","white","woman","","","","null","","","","","","","","",""
"null","<img src=""stim_listA/touch4.gif""style=""height:400px;""></stim_listA>","","html-keyboard-response","275","1167957","0.0-17.0-1.12","778","List2A","white","woman","","","","null","","","","","","","","",""
"null","is being touched by","","html-keyboard-response","276","1169963","0.0-17.0-2.12","778","List2A","white","woman","","","","null","","","","","","","","",""
"6096.9000000003725","","","survey-text","277","1176062","0.0-17.0-3.12","778","List2A","white","woman","","","","","{""Q0"":""Beth is being touched by Fred""}","<img src=""stim_listA/touch4.gif""style=""height:400px;""></stim_listA>","is being touched by","","","","","",""
"null","<div style=""font-size:60px;"">+</div>","","html-keyboard-response","278","1176567","0.0-17.0-0.13","778","List2A","white","woman","","","","null","","","","","","","","",""
"null","<img src=""stim_listA/shout4.gif""style=""height:400px;""></stim_listA>","","html-keyboard-response","279","1178573","0.0-17.0-1.13","778","List2A","white","woman","","","","null","","","","","","","","",""
"null","is being shouted at by","","html-keyboard-response","280","1180575","0.0-17.0-2.13","778","List2A","white","woman","","","","null","","","","","","","","",""
"8816.199999999255","","","survey-text","281","1189393","0.0-17.0-3.13","778","List2A","white","woman","","","","","{""Q0"":""Kate is being shouted at by Mike""}","<img src=""stim_listA/shout4.gif""style=""height:400px;""></stim_listA>","is being shouted at by","","","","","",""
"null","<div style=""font-size:60px;"">+</div>","","html-keyboard-response","282","1189896","0.0-17.0-0.14","778","List2A","white","woman","","","","null","","","","","","","","",""
"null","<img src=""stim_listA/challenge7.gif""style=""height:400px;""></stim_listA>","","html-keyboard-response","283","1191902","0.0-17.0-1.14","778","List2A","white","woman","","","","null","","","","","","","","",""
"null","is challenging","","html-keyboard-response","284","1193908","0.0-17.0-2.14","778","List2A","white","woman","","","","null","","","","","","","","",""
"18309.699999999255","","","survey-text","285","1212220","0.0-17.0-3.14","778","List2A","white","woman","","","","","{""Q0"":""Jane is challenging Beth""}","<img src=""stim_listA/challenge7.gif""style=""height:400px;""></stim_listA>","is challenging","","","","","",""
"null","<div style=""font-size:60px;"">+</div>","","html-keyboard-response","286","1212723","0.0-17.0-0.15","778","List2A","white","woman","","","","null","","","","","","","","",""
"null","<img src=""stim_listA/seduce8.gif""style=""height:400px;""></stim_listA>","","html-keyboard-response","287","1214729","0.0-17.0-1.15","778","List2A","white","woman","","","","null","","","","","","","","",""
"null","is being seduced by","","html-keyboard-response","288","1216730","0.0-17.0-2.15","778","List2A","white","woman","","","","null","","","","","","","","",""
"12767.300000000745","","","survey-text","289","1229499","0.0-17.0-3.15","778","List2A","white","woman","","","","","{""Q0"":""Jane is being seduced by Beth""}","<img src=""stim_listA/seduce8.gif""style=""height:400px;""></stim_listA>","is being seduced by","","","","","",""
"null","<div style=""font-size:60px;"">+</div>","","html-keyboard-response","290","1230000","0.0-17.0-0.16","778","List2A","white","woman","","","","null","","","","","","","","",""
"null","<img src=""stim_listA/copy2.gif""style=""height:400px;""></stim_listA>","","html-keyboard-response","291","1232006","0.0-17.0-1.16","778","List2A","white","woman","","","","null","","","","","","","","",""
"null","is being copied by","","html-keyboard-response","292","1234011","0.0-17.0-2.16","778","List2A","white","woman","","","","null","","","","","","","","",""
"11090.5","","","survey-text","293","1245103","0.0-17.0-3.16","778","List2A","white","woman","","","","","{""Q0"":""Luke is being copied by Jane""}","<img src=""stim_listA/copy2.gif""style=""height:400px;""></stim_listA>","is being copied by","","","","","",""
"null","<div style=""font-size:60px;"">+</div>","","html-keyboard-response","294","1245604","0.0-17.0-0.17","778","List2A","white","woman","","","","null","","","","","","","","",""
"null","<img src=""stim_listA/look3.gif""style=""height:400px;""></stim_listA>","","html-keyboard-response","295","1247606","0.0-17.0-1.17","778","List2A","white","woman","","","","null","","","","","","","","",""
"null","is looking at","","html-keyboard-response","296","1249607","0.0-17.0-2.17","778","List2A","white","woman","","","","null","","","","","","","","",""
"8757.800000000745","","","survey-text","297","1258367","0.0-17.0-3.17","778","List2A","white","woman","","","","","{""Q0"":""Fred is looking at Beth""}","<img src=""stim_listA/look3.gif""style=""height:400px;""></stim_listA>","is looking at","","","","","",""
"null","<div style=""font-size:60px;"">+</div>","","html-keyboard-response","298","1258868","0.0-17.0-0.18","778","List2A","white","woman","","","","null","","","","","","","","",""
"null","<img src=""stim_listA/look5.gif""style=""height:400px;""></stim_listA>","","html-keyboard-response","299","1260874","0.0-17.0-1.18","778","List2A","white","woman","","","","null","","","","","","","","",""
"null","is looking at","","html-keyboard-response","300","1262880","0.0-17.0-2.18","778","List2A","white","woman","","","","null","","","","","","","","",""
"6487.9000000003725","","","survey-text","301","1269369","0.0-17.0-3.18","778","List2A","white","woman","","","","","{""Q0"":""Fred is looking at Luke""}","<img src=""stim_listA/look5.gif""style=""height:400px;""></stim_listA>","is looking at","","","","","",""
"null","<div style=""font-size:60px;"">+</div>","","html-keyboard-response","302","1269874","0.0-17.0-0.19","778","List2A","white","woman","","","","null","","","","","","","","",""
"null","<img src=""stim_listA/oppose7.gif""style=""height:400px;""></stim_listA>","","html-keyboard-response","303","1271880","0.0-17.0-1.19","778","List2A","white","woman","","","","null","","","","","","","","",""
"null","is opposing","","html-keyboard-response","304","1273886","0.0-17.0-2.19","778","List2A","white","woman","","","","null","","","","","","","","",""
"4920.5","","","survey-text","305","1278808","0.0-17.0-3.19","778","List2A","white","woman","","","","","{""Q0"":""Jane is opposing Kate""}","<img src=""stim_listA/oppose7.gif""style=""height:400px;""></stim_listA>","is opposing","","","","","",""
"13554.599999999627","<img src='img/portrait_matrix_list2.jpg' style='width:900px;height:500px;''></img><p>If you have memorised all the portraits and names and are ready to start, press Continue.</p><p><strong>Please note: Your memory of these faces will be tested 4 times during this experiment.</strong></p>","0","html-button-response","306","1292364","0.0-18.0-0.0","778","List2A","white","woman","","","","","","","","","","","","",""
"2111.800000000745","<img src=""portrait/WW1.jpg""style=""height:400px;""></img>","1","html-button-response","307","1295481","0.0-18.0-1.0","778","List2A","white","woman","","true","1","","","","","","","","","",""
"null","CORRECT","","html-keyboard-response","308","1296991","0.0-18.0-2.0-0.0","778","List2A","white","woman","","","","null","","","","","","","","",""
"1300.8999999985099","<img src=""portrait/WW2.jpg""style=""height:400px;""></img>","3","html-button-response","309","1298293","0.0-18.0-4.0","778","List2A","white","woman","","true","3","","","","","","","","","",""
"null","CORRECT","","html-keyboard-response","310","1299799","0.0-18.0-5.0-0.0","778","List2A","white","woman","","","","null","","","","","","","","",""
"1710.1000000014901","<img src=""portrait/BM2.jpg""style=""height:400px;""></img>","5","html-button-response","311","1301511","0.0-18.0-7.0","778","List2A","white","woman","","true","5","","","","","","","","","",""
"null","CORRECT","","html-keyboard-response","312","1303012","0.0-18.0-8.0-0.0","778","List2A","white","woman","","","","null","","","","","","","","",""
"1365.9000000003725","<img src=""portrait/BW2.jpg""style=""height:400px;""></img>","2","html-button-response","313","1304379","0.0-18.0-10.0","778","List2A","white","woman","","true","2","","","","","","","","","",""
"null","CORRECT","","html-keyboard-response","314","1305881","0.0-18.0-11.0-0.0","778","List2A","white","woman","","","","null","","","","","","","","",""
"1445","<img src=""portrait/BM1.jpg""style=""height:400px;""></img>","4","html-button-response","315","1307327","0.0-18.0-13.0","778","List2A","white","woman","","true","4","","","","","","","","","",""
"null","CORRECT","","html-keyboard-response","316","1308833","0.0-18.0-14.0-0.0","778","List2A","white","woman","","","","null","","","","","","","","",""
"3408.800000000745","<img src=""portrait/WM2.jpg""style=""height:400px;""></img>","7","html-button-response","317","1312243","0.0-18.0-16.0","778","List2A","white","woman","","true","7","","","","","","","","","",""
"null","CORRECT","","html-keyboard-response","318","1313753","0.0-18.0-17.0-0.0","778","List2A","white","woman","","","","null","","","","","","","","",""
"4147.800000000745","<img src=""portrait/BW1.jpg""style=""height:400px;""></img>","0","html-button-response","319","1317902","0.0-18.0-19.0","778","List2A","white","woman","","true","0","","","","","","","","","",""
"null","CORRECT","","html-keyboard-response","320","1319407","0.0-18.0-20.0-0.0","778","List2A","white","woman","","","","null","","","","","","","","",""
"2487","<img src=""portrait/WM1.jpg""style=""height:400px;""></img>","6","html-button-response","321","1321896","0.0-18.0-22.0","778","List2A","white","woman","","true","6","","","","","","","","","",""
"null","CORRECT","","html-keyboard-response","322","1323407","0.0-18.0-23.0-0.0","778","List2A","white","woman","","","","null","","","","","","","","",""
"1594.300000000745","<p>You got 8 out of 8 right first time. Press Continue.</p>","0","html-button-response","323","1325023","0.0-18.0-25.0","778","List2A","white","woman","","","","","","","","","","","","",""
"null","<div style=""font-size:60px;"">+</div>","","html-keyboard-response","324","1326528","0.0-19.0-0.0","778","List2A","white","woman","","","","null","","","","","","","","",""
"null","<img src=""stim_listA/seduce3.gif""style=""height:400px;""></stim_listA>","","html-keyboard-response","325","1328535","0.0-19.0-1.0","778","List2A","white","woman","","","","null","","","","","","","","",""
"null","is seducing","","html-keyboard-response","326","1330541","0.0-19.0-2.0","778","List2A","white","woman","","","","null","","","","","","","","",""
"8936.099999999627","","","survey-text","327","1339479","0.0-19.0-3.0","778","List2A","white","woman","","","","","{""Q0"":""Fred is seducing Kate""}","<img src=""stim_listA/seduce3.gif""style=""height:400px;""></stim_listA>","is seducing","","","","","",""
"null","<div style=""font-size:60px;"">+</div>","","html-keyboard-response","328","1339980","0.0-19.0-0.1","778","List2A","white","woman","","","","null","","","","","","","","",""
"null","<img src=""stim_listA/hug8.gif""style=""height:400px;""></stim_listA>","","html-keyboard-response","329","1341986","0.0-19.0-1.1","778","List2A","white","woman","","","","null","","","","","","","","",""
"null","is being hugged by","","html-keyboard-response","330","1343991","0.0-19.0-2.1","778","List2A","white","woman","","","","null","","","","","","","","",""
"9897.89999999851","","","survey-text","331","1353890","0.0-19.0-3.1","778","List2A","white","woman","","","","","{""Q0"":""Kate is being hugged by Jane""}","<img src=""stim_listA/hug8.gif""style=""height:400px;""></stim_listA>","is being hugged by","","","","","",""
"null","<div style=""font-size:60px;"">+</div>","","html-keyboard-response","332","1354391","0.0-19.0-0.2","778","List2A","white","woman","","","","null","","","","","","","","",""
"null","<img src=""stim_listA/touch2.gif""style=""height:400px;""></stim_listA>","","html-keyboard-response","333","1356397","0.0-19.0-1.2","778","List2A","white","woman","","","","null","","","","","","","","",""
"null","is being touched by","","html-keyboard-response","334","1358398","0.0-19.0-2.2","778","List2A","white","woman","","","","null","","","","","","","","",""
"7426.89999999851","","","survey-text","335","1365827","0.0-19.0-3.2","778","List2A","white","woman","","","","","{""Q0"":""Ruth is being touched by Luke""}","<img src=""stim_listA/touch2.gif""style=""height:400px;""></stim_listA>","is being touched by","","","","","",""
"null","<div style=""font-size:60px;"">+</div>","","html-keyboard-response","336","1366328","0.0-19.0-0.3","778","List2A","white","woman","","","","null","","","","","","","","",""
"null","<img src=""stim_listA/kiss2.gif""style=""height:400px;""></stim_listA>","","html-keyboard-response","337","1368334","0.0-19.0-1.3","778","List2A","white","woman","","","","null","","","","","","","","",""
"null","is being kissed by","","html-keyboard-response","338","1370335","0.0-19.0-2.3","778","List2A","white","woman","","","","null","","","","","","","","",""
"15311.599999999627","","","survey-text","339","1385649","0.0-19.0-3.3","778","List2A","white","woman","","","","","{""Q0"":""Dave is being kissed by Jane""}","<img src=""stim_listA/kiss2.gif""style=""height:400px;""></stim_listA>","is being kissed by","","","","","",""
"null","<div style=""font-size:60px;"">+</div>","","html-keyboard-response","340","1386154","0.0-19.0-0.4","778","List2A","white","woman","","","","null","","","","","","","","",""
"null","<img src=""stim_listA/seduce5.gif""style=""height:400px;""></stim_listA>","","html-keyboard-response","341","1388155","0.0-19.0-1.4","778","List2A","white","woman","","","","null","","","","","","","","",""
"null","is seducing","","html-keyboard-response","342","1390156","0.0-19.0-2.4","778","List2A","white","woman","","","","null","","","","","","","","",""
"6954.800000000745","","","survey-text","343","1397113","0.0-19.0-3.4","778","List2A","white","woman","","","","","{""Q0"":""Luke is seducing Mike""}","<img src=""stim_listA/seduce5.gif""style=""height:400px;""></stim_listA>","is seducing","","","","","",""
"null","<div style=""font-size:60px;"">+</div>","","html-keyboard-response","344","1397614","0.0-19.0-0.5","778","List2A","white","woman","","","","null","","","","","","","","",""
"null","<img src=""stim_listA/kiss7.gif""style=""height:400px;""></stim_listA>","","html-keyboard-response","345","1399620","0.0-19.0-1.5","778","List2A","white","woman","","","","null","","","","","","","","",""
"null","is kissing","","html-keyboard-response","346","1401626","0.0-19.0-2.5","778","List2A","white","woman","","","","null","","","","","","","","",""
"4057.5999999996275","","","survey-text","347","1405685","0.0-19.0-3.5","778","List2A","white","woman","","","","","{""Q0"":""Ruth is kissing Beth""}","<img src=""stim_listA/kiss7.gif""style=""height:400px;""></stim_listA>","is kissing","","","","","",""
"null","<div style=""font-size:60px;"">+</div>","","html-keyboard-response","348","1406188","0.0-19.0-0.6","778","List2A","white","woman","","","","null","","","","","","","","",""
"null","<img src=""stim_listA/challenge5.gif""style=""height:400px;""></stim_listA>","","html-keyboard-response","349","1408194","0.0-19.0-1.6","778","List2A","white","woman","","","","null","","","","","","","","",""
"null","is challenging","","html-keyboard-response","350","1410198","0.0-19.0-2.6","778","List2A","white","woman","","","","null","","","","","","","","",""
"5553.700000001118","","","survey-text","351","1415754","0.0-19.0-3.6","778","List2A","white","woman","","","","","{""Q0"":""Dave is challenging Fred""}","<img src=""stim_listA/challenge5.gif""style=""height:400px;""></stim_listA>","is challenging","","","","","",""
"null","<div style=""font-size:60px;"">+</div>","","html-keyboard-response","352","1416255","0.0-19.0-0.7","778","List2A","white","woman","","","","null","","","","","","","","",""
"null","<img src=""stim_listA/challenge2.gif""style=""height:400px;""></stim_listA>","","html-keyboard-response","353","1418258","0.0-19.0-1.7","778","List2A","white","woman","","","","null","","","","","","","","",""
"null","is being challenged by","","html-keyboard-response","354","1420261","0.0-19.0-2.7","778","List2A","white","woman","","","","null","","","","","","","","",""
"7618","","","survey-text","355","1427881","0.0-19.0-3.7","778","List2A","white","woman","","","","","{""Q0"":""Jane is being challenged by Luke""}","<img src=""stim_listA/challenge2.gif""style=""height:400px;""></stim_listA>","is being challenged by","","","","","",""
"null","<div style=""font-size:60px;"">+</div>","","html-keyboard-response","356","1428382","0.0-19.0-0.8","778","List2A","white","woman","","","","null","","","","","","","","",""
"null","<img src=""stim_listA/shout5.gif""style=""height:400px;""></stim_listA>","","html-keyboard-response","357","1430385","0.0-19.0-1.8","778","List2A","white","woman","","","","null","","","","","","","","",""
"null","is shouting at","","html-keyboard-response","358","1432391","0.0-19.0-2.8","778","List2A","white","woman","","","","null","","","","","","","","",""
"10135.700000001118","","","survey-text","359","1442529","0.0-19.0-3.8","778","List2A","white","woman","","","","","{""Q0"":""Fred is shouting at Luke""}","<img src=""stim_listA/shout5.gif""style=""height:400px;""></stim_listA>","is shouting at","","","","","",""
"null","<div style=""font-size:60px;"">+</div>","","html-keyboard-response","360","1443030","0.0-19.0-0.9","778","List2A","white","woman","","","","null","","","","","","","","",""
"null","<img src=""stim_listA/kiss5.gif""style=""height:400px;""></stim_listA>","","html-keyboard-response","361","1445036","0.0-19.0-1.9","778","List2A","white","woman","","","","null","","","","","","","","",""
"null","is kissing","","html-keyboard-response","362","1447037","0.0-19.0-2.9","778","List2A","white","woman","","","","null","","","","","","","","",""
"6728.699999999255","","","survey-text","363","1453767","0.0-19.0-3.9","778","List2A","white","woman","","","","","{""Q0"":""Luke is kissing Fred""}","<img src=""stim_listA/kiss5.gif""style=""height:400px;""></stim_listA>","is kissing","","","","","",""
"null","<div style=""font-size:60px;"">+</div>","","html-keyboard-response","364","1454268","0.0-19.0-0.10","778","List2A","white","woman","","","","null","","","","","","","","",""
"null","<img src=""stim_listA/shout1.gif""style=""height:400px;""></stim_listA>","","html-keyboard-response","365","1456274","0.0-19.0-1.10","778","List2A","white","woman","","","","null","","","","","","","","",""
"null","is shouting at","","html-keyboard-response","366","1458280","0.0-19.0-2.10","778","List2A","white","woman","","","","null","","","","","","","","",""
"6803.0999999996275","","","survey-text","367","1465085","0.0-19.0-3.10","778","List2A","white","woman","","","","","{""Q0"":""Ruth is shouting at Luke""}","<img src=""stim_listA/shout1.gif""style=""height:400px;""></stim_listA>","is shouting at","","","","","",""
"null","<div style=""font-size:60px;"">+</div>","","html-keyboard-response","368","1465586","0.0-19.0-0.11","778","List2A","white","woman","","","","null","","","","","","","","",""
"null","<img src=""stim_listA/greet7.gif""style=""height:400px;""></stim_listA>","","html-keyboard-response","369","1467592","0.0-19.0-1.11","778","List2A","white","woman","","","","null","","","","","","","","",""
"null","is greeting","","html-keyboard-response","370","1469596","0.0-19.0-2.11","778","List2A","white","woman","","","","null","","","","","","","","",""
"4318.0999999996275","","","survey-text","371","1473916","0.0-19.0-3.11","778","List2A","white","woman","","","","","{""Q0"":""Jane is greeting Beth""}","<img src=""stim_listA/greet7.gif""style=""height:400px;""></stim_listA>","is greeting","","","","","",""
"null","<div style=""font-size:60px;"">+</div>","","html-keyboard-response","372","1474417","0.0-19.0-0.12","778","List2A","white","woman","","","","null","","","","","","","","",""
"null","<img src=""stim_listA/seduce4.gif""style=""height:400px;""></stim_listA>","","html-keyboard-response","373","1476423","0.0-19.0-1.12","778","List2A","white","woman","","","","null","","","","","","","","",""
"null","is being seduced by","","html-keyboard-response","374","1478429","0.0-19.0-2.12","778","List2A","white","woman","","","","null","","","","","","","","",""
"6082.9000000003725","","","survey-text","375","1484514","0.0-19.0-3.12","778","List2A","white","woman","","","","","{""Q0"":""Beth is being seduced by Mike""}","<img src=""stim_listA/seduce4.gif""style=""height:400px;""></stim_listA>","is being seduced by","","","","","",""
"null","<div style=""font-size:60px;"">+</div>","","html-keyboard-response","376","1485018","0.0-19.0-0.13","778","List2A","white","woman","","","","null","","","","","","","","",""
"null","<img src=""stim_listA/touch7.gif""style=""height:400px;""></stim_listA>","","html-keyboard-response","377","1487021","0.0-19.0-1.13","778","List2A","white","woman","","","","null","","","","","","","","",""
"null","is touching","","html-keyboard-response","378","1489026","0.0-19.0-2.13","778","List2A","white","woman","","","","null","","","","","","","","",""
"9671.400000000373","","","survey-text","379","1498699","0.0-19.0-3.13","778","List2A","white","woman","","","","","{""Q0"":""Jane is touching Kate""}","<img src=""stim_listA/touch7.gif""style=""height:400px;""></stim_listA>","is touching","","","","","",""
"null","<div style=""font-size:60px;"">+</div>","","html-keyboard-response","380","1499200","0.0-19.0-0.14","778","List2A","white","woman","","","","null","","","","","","","","",""
"null","<img src=""stim_listA/greet4.gif""style=""height:400px;""></stim_listA>","","html-keyboard-response","381","1501202","0.0-19.0-1.14","778","List2A","white","woman","","","","null","","","","","","","","",""
"null","is being greeted by","","html-keyboard-response","382","1503203","0.0-19.0-2.14","778","List2A","white","woman","","","","null","","","","","","","","",""
"6396.300000000745","","","survey-text","383","1509601","0.0-19.0-3.14","778","List2A","white","woman","","","","","{""Q0"":""Kate is being greeted by Fred""}","<img src=""stim_listA/greet4.gif""style=""height:400px;""></stim_listA>","is being greeted by","","","","","",""
"null","<div style=""font-size:60px;"">+</div>","","html-keyboard-response","384","1510105","0.0-19.0-0.15","778","List2A","white","woman","","","","null","","","","","","","","",""
"null","<img src=""stim_listA/copy7.gif""style=""height:400px;""></stim_listA>","","html-keyboard-response","385","1512109","0.0-19.0-1.15","778","List2A","white","woman","","","","null","","","","","","","","",""
"null","is copying","","html-keyboard-response","386","1514111","0.0-19.0-2.15","778","List2A","white","woman","","","","null","","","","","","","","",""
"4769.5","","","survey-text","387","1518882","0.0-19.0-3.15","778","List2A","white","woman","","","","","{""Q0"":""Jane is copying Beth""}","<img src=""stim_listA/copy7.gif""style=""height:400px;""></stim_listA>","is copying","","","","","",""
"null","<div style=""font-size:60px;"">+</div>","","html-keyboard-response","388","1519387","0.0-19.0-0.16","778","List2A","white","woman","","","","null","","","","","","","","",""
"null","<img src=""stim_listA/copy3.gif""style=""height:400px;""></stim_listA>","","html-keyboard-response","389","1521394","0.0-19.0-1.16","778","List2A","white","woman","","","","null","","","","","","","","",""
"null","is copying","","html-keyboard-response","390","1523400","0.0-19.0-2.16","778","List2A","white","woman","","","","null","","","","","","","","",""
"7474","","","survey-text","391","1530876","0.0-19.0-3.16","778","List2A","white","woman","","","","","{""Q0"":""Mike is copying Beth""}","<img src=""stim_listA/copy3.gif""style=""height:400px;""></stim_listA>","is copying","","","","","",""
"null","<div style=""font-size:60px;"">+</div>","","html-keyboard-response","392","1531379","0.0-19.0-0.17","778","List2A","white","woman","","","","null","","","","","","","","",""
"null","<img src=""stim_listA/seduce2.gif""style=""height:400px;""></stim_listA>","","html-keyboard-response","393","1533381","0.0-19.0-1.17","778","List2A","white","woman","","","","null","","","","","","","","",""
"null","is being seduced by","","html-keyboard-response","394","1535387","0.0-19.0-2.17","778","List2A","white","woman","","","","null","","","","","","","","",""
"7343.5","","","survey-text","395","1542732","0.0-19.0-3.17","778","List2A","white","woman","","","","","{""Q0"":""Ruth is being seduced by Dave""}","<img src=""stim_listA/seduce2.gif""style=""height:400px;""></stim_listA>","is being seduced by","","","","","",""
"null","<div style=""font-size:60px;"">+</div>","","html-keyboard-response","396","1543233","0.0-19.0-0.18","778","List2A","white","woman","","","","null","","","","","","","","",""
"null","<img src=""stim_listA/hug1.gif""style=""height:400px;""></stim_listA>","","html-keyboard-response","397","1545239","0.0-19.0-1.18","778","List2A","white","woman","","","","null","","","","","","","","",""
"null","is hugging","","html-keyboard-response","398","1547245","0.0-19.0-2.18","778","List2A","white","woman","","","","null","","","","","","","","",""
"7241.300000000745","","","survey-text","399","1554488","0.0-19.0-3.18","778","List2A","white","woman","","","","","{""Q0"":""Ruth is hugging Luke""}","<img src=""stim_listA/hug1.gif""style=""height:400px;""></stim_listA>","is hugging","","","","","",""
"null","<div style=""font-size:60px;"">+</div>","","html-keyboard-response","400","1554990","0.0-19.0-0.19","778","List2A","white","woman","","","","null","","","","","","","","",""
"null","<img src=""stim_listA/greet6.gif""style=""height:400px;""></stim_listA>","","html-keyboard-response","401","1556992","0.0-19.0-1.19","778","List2A","white","woman","","","","null","","","","","","","","",""
"null","is being greeted by","","html-keyboard-response","402","1558998","0.0-19.0-2.19","778","List2A","white","woman","","","","null","","","","","","","","",""
"6592","","","survey-text","403","1565592","0.0-19.0-3.19","778","List2A","white","woman","","","","","{""Q0"":""Mike is being greeted by Luke""}","<img src=""stim_listA/greet6.gif""style=""height:400px;""></stim_listA>","is being greeted by","","","","","",""
"3024.9000000003725","<p>Thank you for completing that task.</p><p>The final part of this session is a questionnaire that will take about 4 minutes.</p><p>Press Continue.</p>","0","html-button-response","404","1568618","0.0-20.0","778","List2A","white","woman","","","","","","","","","","","","",""
"66473.5","","","survey-text","405","1636096","0.0-21.0","778","List2A","white","woman","","","","","{""Q0"":""35"",""Q1"":""English"",""Q2"":""English"",""Q3"":""United States"",""Q4"":""American"",""Q5"":""White"",""Q6"":""Female""}","","","demographics","","","","",""
"5881.700000001118","<p>Have you lived in the USA for the last 5 years or more?</p>","0","html-button-response","406","1641979","0.0-22.0","778","List2A","white","woman","","","","","","","","fiveyears","","","","",""
"3482.5","<p>Move the slider to show the extent to which you agree with the following statements.</p>","0","html-button-response","407","1646468","0.0-23.0","778","List2A","white","woman","","","","","","","","","","","","",""
"12516.099999999627","","","html-slider-response","408","1659990","0.0-24.0-0.0-0.0","778","List2A","white","woman","","","","","","","","survey_race","37","","","I have a lot in common with the average person of my race.","average"
"6107.0999999996275","","","html-slider-response","409","1666099","0.0-24.0-0.0-0.1","778","List2A","white","woman","","","","","","","","survey_race","60","","","I often think about the fact that I am my race.","often"
"8581.900000000373","","","html-slider-response","410","1674683","0.0-24.0-0.0-0.2","778","List2A","white","woman","","","","","","","","survey_race","21","","","I feel committed to my race.","committed"
"8019.5999999996275","","","html-slider-response","411","1682704","0.0-24.0-0.0-0.3","778","List2A","white","woman","","","","","","","","survey_race","17","","","I think that my race has a lot to be proud of.","proud"
"5499.5","","","html-slider-response","412","1688205","0.0-24.0-0.0-0.4","778","List2A","white","woman","","","","","","","","survey_race","73","","","I feel solidarity with people the same age as me.","filler"
"3620.7999999988824","","","html-slider-response","413","1691828","0.0-24.0-0.0-0.5","778","List2A","white","woman","","","","","","","","survey_race","24","","","I feel solidarity with my race.","solidarity"
"4554.800000000745","","","html-slider-response","414","1696383","0.0-24.0-0.0-0.6","778","List2A","white","woman","","","","","","","","survey_race","9","","","I consider myself an extrovert.","filler"
"4532.5999999996275","","","html-slider-response","415","1700917","0.0-24.0-0.0-0.7","778","List2A","white","woman","","","","","","","","survey_race","72","","","The older I get, the wiser I feel.","filler"
"6860.9000000003725","","","html-slider-response","416","1707780","0.0-24.0-0.0-0.8","778","List2A","white","woman","","","","","","","","survey_race","23","","","People of my race are very similar to each other.","verysimilar"
"8863.299999998882","","","html-slider-response","417","1716642","0.0-24.0-0.0-0.9","778","List2A","white","woman","","","","","","","","survey_race","34","","","Being my age gives me a good feeling.","filler"
"2912.2000000011176","","","html-slider-response","418","1719556","0.0-24.0-0.0-0.10","778","List2A","white","woman","","","","","","","","survey_race","30","","","Being my race gives me a good feeling.","feeling"
"5850","","","html-slider-response","419","1725406","0.0-24.0-0.0-0.11","778","List2A","white","woman","","","","","","","","survey_race","79","","","My age is not an important part of who I am.","filler"
"3743.699999999255","","","html-slider-response","420","1729151","0.0-24.0-0.0-0.12","778","List2A","white","woman","","","","","","","","survey_race","76","","","I often think about the fact that I am my age.","filler"
"7502.0999999996275","","","html-slider-response","421","1736654","0.0-24.0-0.0-0.13","778","List2A","white","woman","","","","","","","","survey_race","23","","","Getting older does not worry me.","filler"
"7141.9000000003725","","","html-slider-response","422","1743798","0.0-24.0-0.0-0.14","778","List2A","white","woman","","","","","","","","survey_race","40","","","I have a lot in common with people of a similar age to me.","filler"
"3024.5999999996275","","","html-slider-response","423","1746824","0.0-24.0-0.0-0.15","778","List2A","white","woman","","","","","","","","survey_race","91","","","I consider myself an introvert.","filler"
"5152.300000000745","","","html-slider-response","424","1751977","0.0-24.0-0.0-0.16","778","List2A","white","woman","","","","","","","","survey_race","68","","","I feel a bond with people the same age as me.","filler"
"7782.4000000003725","","","html-slider-response","425","1759761","0.0-24.0-0.0-0.17","778","List2A","white","woman","","","","","","","","survey_race","23","","","People of my race have a lot in common with each other.","common"
"3418.4000000003725","","","html-slider-response","426","1763181","0.0-24.0-0.0-0.18","778","List2A","white","woman","","","","","","","","survey_race","18","","","I feel a bond with my race.","bond"
"4937.4000000003725","","","html-slider-response","427","1768120","0.0-24.0-0.0-0.19","778","List2A","white","woman","","","","","","","","survey_race","8","","","The fact that I am my race is an important part of my identity.","identity"
"7749.5999999996275","","","html-slider-response","428","1775871","0.0-24.0-0.0-0.20","778","List2A","white","woman","","","","","","","","survey_race","59","","","It is pleasant to be my race.","pleasant"
"3429.5","","","html-slider-response","429","1779302","0.0-24.0-0.0-0.21","778","List2A","white","woman","","","","","","","","survey_race","64","","","I am glad to be my age.","filler"
"3137.0999999996275","","","html-slider-response","430","1782441","0.0-24.0-0.0-0.22","778","List2A","white","woman","","","","","","","","survey_race","6","","","I enjoy being in large groups.","filler"
"3689.300000000745","","","html-slider-response","431","1786132","0.0-24.0-0.0-0.23","778","List2A","white","woman","","","","","","","","survey_race","68","","","I am glad to be the age I am.","filler"
"4790.9000000003725","","","html-slider-response","432","1790924","0.0-24.0-0.0-0.24","778","List2A","white","woman","","","","","","","","survey_race","9","","","Being my race is an important part of how I see myself.","important"
"7613.60000000149","","","html-slider-response","433","1798539","0.0-24.0-0.0-0.25","778","List2A","white","woman","","","","","","","","survey_race","54","","","I am glad to be my race.","glad"
"4995.200000001118","","","html-slider-response","434","1803536","0.0-24.0-0.0-0.26","778","List2A","white","woman","","","","","","","","survey_race","26","","","I am similar to the average person of my race.","similar"
"5464.200000001118","","","html-slider-response","435","1809001","0.0-24.0-0.0-0.27","778","List2A","white","woman","","","","","","","","survey_race","66","","","People my age have a lot in common with each other.","filler"
"5477.199999999255","","","html-slider-response","436","1814480","0.0-24.0-1.0-0.0","778","List2A","white","woman","","","","","","","","survey_gender","75","","","Most of the friends in my life are very similar to me.","filler"
"4340.9000000003725","","","html-slider-response","437","1818823","0.0-24.0-1.0-0.1","778","List2A","white","woman","","","","","","","","survey_gender","61","","","People of my gender have a lot in common with each other.","common"
"5589.5999999996275","","","html-slider-response","438","1824414","0.0-24.0-1.0-0.2","778","List2A","white","woman","","","","","","","","survey_gender","59","","","I think that my gender has a lot to be proud of.","proud"
"3531","","","html-slider-response","439","1827947","0.0-24.0-1.0-0.3","778","List2A","white","woman","","","","","","","","survey_gender","14","","","Routine is not important to me.","filler"
"4351.89999999851","","","html-slider-response","440","1832300","0.0-24.0-1.0-0.4","778","List2A","white","woman","","","","","","","","survey_gender","77","","","My friends have a lot in common with each other.","filler"
"3508.4000000003725","","","html-slider-response","441","1835810","0.0-24.0-1.0-0.5","778","List2A","white","woman","","","","","","","","survey_gender","92","","","I often think about my actions.","filler"
"2507","","","html-slider-response","442","1838319","0.0-24.0-1.0-0.6","778","List2A","white","woman","","","","","","","","survey_gender","85","","","My friends understand me.","filler"
"2608.699999999255","","","html-slider-response","443","1840929","0.0-24.0-1.0-0.7","778","List2A","white","woman","","","","","","","","survey_gender","61","","","I feel a bond with my gender.","bond"
"4262.10000000149","","","html-slider-response","444","1845192","0.0-24.0-1.0-0.8","778","List2A","white","woman","","","","","","","","survey_gender","44","","","I feel committed to my gender.","committed"
"2203.5999999996275","","","html-slider-response","445","1847397","0.0-24.0-1.0-0.9","778","List2A","white","woman","","","","","","","","survey_gender","79","","","I feel a bond with my friends.","filler"
"3328.9000000003725","","","html-slider-response","446","1850727","0.0-24.0-1.0-0.10","778","List2A","white","woman","","","","","","","","survey_gender","83","","","I am glad to have the friends that I have.","filler"
"6703.5999999996275","","","html-slider-response","447","1857432","0.0-24.0-1.0-0.11","778","List2A","white","woman","","","","","","","","survey_gender","61","","","I am similar to the average person of my gender.","similar"
"4183.299999998882","","","html-slider-response","448","1861617","0.0-24.0-1.0-0.12","778","List2A","white","woman","","","","","","","","survey_gender","72","","","Being my gender gives me a good feeling.","feeling"
"5004.700000001118","","","html-slider-response","449","1866623","0.0-24.0-1.0-0.13","778","List2A","white","woman","","","","","","","","survey_gender","99","","","Being around my friends gives me a good feeling.","filler"
"4453.299999998882","","","html-slider-response","450","1871078","0.0-24.0-1.0-0.14","778","List2A","white","woman","","","","","","","","survey_gender","70","","","It is not always easy for people to know what I am thinking.","filler"
"7378.300000000745","","","html-slider-response","451","1878458","0.0-24.0-1.0-0.15","778","List2A","white","woman","","","","","","","","survey_gender","90","","","I would say I am an animal person.","filler"
"3474.5","","","html-slider-response","452","1881934","0.0-24.0-1.0-0.16","778","List2A","white","woman","","","","","","","","survey_gender","94","","","I consider myself a highly empathetic person.","filler"
"2878.699999999255","","","html-slider-response","453","1884814","0.0-24.0-1.0-0.17","778","List2A","white","woman","","","","","","","","survey_gender","81","","","I feel solidarity with my friends.","filler"
"5657.300000000745","","","html-slider-response","454","1890473","0.0-24.0-1.0-0.18","778","List2A","white","woman","","","","","","","","survey_gender","21","","","People of my gender are very similar to each other.","verysimilar"
"7108.4000000003725","","","html-slider-response","455","1897583","0.0-24.0-1.0-0.19","778","List2A","white","woman","","","","","","","","survey_gender","61","","","The fact that I am my gender is an important part of my identity.","identity"
"2563.5","","","html-slider-response","456","1900148","0.0-24.0-1.0-0.20","778","List2A","white","woman","","","","","","","","survey_gender","71","","","I am glad to be my gender.","glad"
"4093.800000000745","","","html-slider-response","457","1904243","0.0-24.0-1.0-0.21","778","List2A","white","woman","","","","","","","","survey_gender","59","","","I have a lot in common with the average person of my gender.","average"
"5364.9000000003725","","","html-slider-response","458","1909610","0.0-24.0-1.0-0.22","778","List2A","white","woman","","","","","","","","survey_gender","68","","","Being my gender is an important part of how I see myself.","important"
"7288.199999999255","","","html-slider-response","459","1916899","0.0-24.0-1.0-0.23","778","List2A","white","woman","","","","","","","","survey_gender","75","","","Family is not more important to me than friendship.","filler"
"3485.300000000745","","","html-slider-response","460","1920387","0.0-24.0-1.0-0.24","778","List2A","white","woman","","","","","","","","survey_gender","59","","","I feel solidarity with my gender.","solidarity"
"4791","","","html-slider-response","461","1925179","0.0-24.0-1.0-0.25","778","List2A","white","woman","","","","","","","","survey_gender","72","","","I often think about the fact that I am my gender.","often"
"3879.7000000011176","","","html-slider-response","462","1929061","0.0-24.0-1.0-0.26","778","List2A","white","woman","","","","","","","","survey_gender","70","","","It is pleasant to be my gender.","pleasant"
"2833.4000000003725","","","html-slider-response","463","1931895","0.0-24.0-1.0-0.27","778","List2A","white","woman","","","","","","","","survey_gender","83","","","I have a lot in common with my friends.","filler"
"9583.199999999255","","","survey-text","464","1941480","0.0-25.0","778","List2A","white","woman","","","","","{""Q0"":""61648e1fb6b5b390ab3e4341""}","","","worker_id","","","","",""
"40816.40000000037","","","external-html","465","1982588","0.0-26.0","778","List2A","white","woman","debrief.html","","","","","","","","","","","",""
