"rt","stimulus","button_pressed","trial_type","trial_index","time_elapsed","internal_node_id","subject","list","ppt_race","ppt_gender","url","first_guess","correct","key_press","responses","image_type","phrase_type","test_part","response","stimulus1","stimulus2","question_type","survey_item"
"2866.899999976158","Welcome to the experiment. Press Continue to begin.","0","html-button-response","0","2869","0.0-0.0","77917","List1A","black","woman","","","","","","","","","","","","",""
"6249.399999976158","","","external-html","1","10295","0.0-1.0","77917","List1A","black","woman","consent.html","","","","","","","","","","","",""
"27347.400000095367","<p>On the next page, you will see portraits of 8 people and their names.</p><p>Your first task is to take a few minutes to memorise the names of these people.</p><p>You will have to recall their names during the rest of the experiment, so it is</p><p>essential that you try to memorise these people and their names as best as you can.</p><br><p><strong>You will then be tested on your memory of these names and portraits.</strong></p><br><p>The experiment will start after you have completed this memory test.</p><br><p>Ready?</p>","0","html-button-response","2","37644","0.0-2.0","77917","List1A","black","woman","","","","","","","","","","","","",""
"111562.70000004768","<img src='img/portrait_matrix_list1.jpg' style='width:900px;height:500px;''></img><p>If you have memorised all the portraits and names and are ready to start, press Continue.</p><p><strong>Please note: Your memory of these faces will be tested 4 times during this experiment.</strong></p>","0","html-button-response","3","150210","0.0-3.0-0.0","77917","List1A","black","woman","","","","","","","","","","","","",""
"22147","<img src=""portrait/BM1.jpg""style=""height:400px;""></img>","5","html-button-response","4","173359","0.0-3.0-1.0","77917","List1A","black","woman","","true","4","","","","","","","","","",""
"26560.399999976158","<img src=""portrait/BM1.jpg""style=""height:400px;""></img>","4","html-button-response","5","200939","0.0-3.0-3.0-0.0","77917","List1A","black","woman","","false","4","","","","","","","","","",""
"null","CORRECT","","html-keyboard-response","6","202448","0.0-3.0-3.0-1.0-0.0","77917","List1A","black","woman","","","","null","","","","","","","","",""
"41571.700000047684","<img src=""portrait/WW2.jpg""style=""height:400px;""></img>","3","html-button-response","7","244022","0.0-3.0-4.0","77917","List1A","black","woman","","true","3","","","","","","","","","",""
"null","CORRECT","","html-keyboard-response","8","245532","0.0-3.0-5.0-0.0","77917","List1A","black","woman","","","","null","","","","","","","","",""
"2852.399999976158","<img src=""portrait/WM1.jpg""style=""height:400px;""></img>","6","html-button-response","9","248386","0.0-3.0-7.0","77917","List1A","black","woman","","true","6","","","","","","","","","",""
"null","CORRECT","","html-keyboard-response","10","249905","0.0-3.0-8.0-0.0","77917","List1A","black","woman","","","","null","","","","","","","","",""
"7388.899999976158","<img src=""portrait/WW1.jpg""style=""height:400px;""></img>","1","html-button-response","11","257296","0.0-3.0-10.0","77917","List1A","black","woman","","true","1","","","","","","","","","",""
"null","CORRECT","","html-keyboard-response","12","258815","0.0-3.0-11.0-0.0","77917","List1A","black","woman","","","","null","","","","","","","","",""
"8991.200000047684","<img src=""portrait/BW2.jpg""style=""height:400px;""></img>","2","html-button-response","13","267807","0.0-3.0-13.0","77917","List1A","black","woman","","true","2","","","","","","","","","",""
"null","CORRECT","","html-keyboard-response","14","269320","0.0-3.0-14.0-0.0","77917","List1A","black","woman","","","","null","","","","","","","","",""
"17722.799999952316","<img src=""portrait/WM2.jpg""style=""height:400px;""></img>","7","html-button-response","15","287045","0.0-3.0-16.0","77917","List1A","black","woman","","true","7","","","","","","","","","",""
"null","CORRECT","","html-keyboard-response","16","288549","0.0-3.0-17.0-0.0","77917","List1A","black","woman","","","","null","","","","","","","","",""
"21427.799999952316","<img src=""portrait/BW1.jpg""style=""height:400px;""></img>","1","html-button-response","17","309978","0.0-3.0-19.0","77917","List1A","black","woman","","true","0","","","","","","","","","",""
"6625.300000071526","<img src=""portrait/BW1.jpg""style=""height:400px;""></img>","0","html-button-response","18","317620","0.0-3.0-21.0-0.0","77917","List1A","black","woman","","false","0","","","","","","","","","",""
"null","CORRECT","","html-keyboard-response","19","319122","0.0-3.0-21.0-1.0-0.0","77917","List1A","black","woman","","","","null","","","","","","","","",""
"11644.5","<img src=""portrait/BM2.jpg""style=""height:400px;""></img>","5","html-button-response","20","330768","0.0-3.0-22.0","77917","List1A","black","woman","","true","5","","","","","","","","","",""
"null","CORRECT","","html-keyboard-response","21","332273","0.0-3.0-23.0-0.0","77917","List1A","black","woman","","","","null","","","","","","","","",""
"4240.400000095367","<p>You got 6 out of 8 right first time. Press Continue.</p>","0","html-button-response","22","336515","0.0-3.0-25.0","77917","List1A","black","woman","","","","","","","","","","","","",""
"4505.5","As you did not score 100%, the memory game will repeat. Press Continue.","0","html-button-response","23","342023","0.0-3.0-26.0-0.0","77917","List1A","black","woman","","","","","","","","","","","","",""
"116319.20000004768","<img src='img/portrait_matrix_list1.jpg' style='width:900px;height:500px;''></img><p>If you have memorised all the portraits and names and are ready to start, press Continue.</p><p><strong>Please note: Your memory of these faces will be tested 4 times during this experiment.</strong></p>","0","html-button-response","24","459348","0.0-3.1-0.1","77917","List1A","black","woman","","","","","","","","","","","","",""
"5684.700000047684","<img src=""portrait/BM1.jpg""style=""height:400px;""></img>","4","html-button-response","25","466043","0.0-3.1-1.1","77917","List1A","black","woman","","true","4","","","","","","","","","",""
"null","CORRECT","","html-keyboard-response","26","467550","0.0-3.1-2.1-0.1","77917","List1A","black","woman","","","","null","","","","","","","","",""
"54200.59999990463","<img src=""portrait/WW2.jpg""style=""height:400px;""></img>","3","html-button-response","27","521752","0.0-3.1-4.1","77917","List1A","black","woman","","true","3","","","","","","","","","",""
"null","CORRECT","","html-keyboard-response","28","523271","0.0-3.1-5.1-0.1","77917","List1A","black","woman","","","","null","","","","","","","","",""
"3060.899999976158","<img src=""portrait/WM1.jpg""style=""height:400px;""></img>","6","html-button-response","29","526334","0.0-3.1-7.1","77917","List1A","black","woman","","true","6","","","","","","","","","",""
"null","CORRECT","","html-keyboard-response","30","527849","0.0-3.1-8.1-0.1","77917","List1A","black","woman","","","","null","","","","","","","","",""
"15040.199999928474","<img src=""portrait/WW1.jpg""style=""height:400px;""></img>","1","html-button-response","31","542891","0.0-3.1-10.1","77917","List1A","black","woman","","true","1","","","","","","","","","",""
"null","CORRECT","","html-keyboard-response","32","544410","0.0-3.1-11.1-0.1","77917","List1A","black","woman","","","","null","","","","","","","","",""
"5534.799999952316","<img src=""portrait/BW2.jpg""style=""height:400px;""></img>","2","html-button-response","33","549947","0.0-3.1-13.1","77917","List1A","black","woman","","true","2","","","","","","","","","",""
"null","CORRECT","","html-keyboard-response","34","551466","0.0-3.1-14.1-0.1","77917","List1A","black","woman","","","","null","","","","","","","","",""
"6228.100000023842","<img src=""portrait/WM2.jpg""style=""height:400px;""></img>","7","html-button-response","35","557695","0.0-3.1-16.1","77917","List1A","black","woman","","true","7","","","","","","","","","",""
"null","CORRECT","","html-keyboard-response","36","559212","0.0-3.1-17.1-0.1","77917","List1A","black","woman","","","","null","","","","","","","","",""
"7726.399999976158","<img src=""portrait/BW1.jpg""style=""height:400px;""></img>","0","html-button-response","37","566940","0.0-3.1-19.1","77917","List1A","black","woman","","true","0","","","","","","","","","",""
"null","CORRECT","","html-keyboard-response","38","568446","0.0-3.1-20.1-0.1","77917","List1A","black","woman","","","","null","","","","","","","","",""
"4194.300000071526","<img src=""portrait/BM2.jpg""style=""height:400px;""></img>","5","html-button-response","39","572641","0.0-3.1-22.1","77917","List1A","black","woman","","true","5","","","","","","","","","",""
"null","CORRECT","","html-keyboard-response","40","574153","0.0-3.1-23.1-0.1","77917","List1A","black","woman","","","","null","","","","","","","","",""
"6773.199999928474","<p>You got 8 out of 8 right first time. Press Continue.</p>","0","html-button-response","41","580928","0.0-3.1-25.1","77917","List1A","black","woman","","","","","","","","","","","","",""
"68121.90000009537","<p>In this experiment, you will view photographs of the people from the memory game interacting.</p><p>By using the <strong>exact</strong> phrase given <i>after</i> the photograph appears and recalling the correct names of the people in the photographs, form a sentence describing the interaction. You do not need to capitalise names.</p><p>Type your answer in the space provided. Please complete every sentence before moving onto the next trial.</p><p>You will only have a few seconds to memorise each given photograph and phrase before you can respond, so try your best to focus.</p><p>An example is given below. Press 'Continue' when you are ready.</p><img src='img/speaking_example.jpg' style='width:800px;height:460px;''></img>","0","html-button-response","42","650052","0.0-4.0","77917","List1A","black","woman","","","","","","","","","","","","",""
"4014.6999999284744","<p>Before the experiment starts, you will watch two example trials. Press 'Continue'.</p>","0","html-button-response","43","655081","0.0-5.0","77917","List1A","black","woman","","","","","","","","","","","","",""
"null","<img src='img/play_eg.gif' style='height:400px;''></img>","","html-keyboard-response","44","658084","0.0-6.0","77917","List1A","black","woman","","","","null","","","","","","","","",""
"null","<p>is playing with</p>","","html-keyboard-response","45","660092","0.0-7.0","77917","List1A","black","woman","","","","null","","","","","","","","",""
"4242.700000047684","<p><b>Answer:</b> kate is playing with beth</p>","0","html-button-response","46","664336","0.0-8.0","77917","List1A","black","woman","","","","","","","","","","","","",""
"null","<img src='img/dance_eg.gif' style='height:400px;''></img>","","html-keyboard-response","47","667341","0.0-9.0","77917","List1A","black","woman","","","","null","","","","","","","","",""
"null","<p>is being entertained by</p>","","html-keyboard-response","48","669344","0.0-10.0","77917","List1A","black","woman","","","","null","","","","","","","","",""
"2729.100000023842","<p><b>Answer:</b> luke is being entertained by dave</p>","0","html-button-response","49","672074","0.0-11.0","77917","List1A","black","woman","","","","","","","","","","","","",""
"17052.699999928474","<p>Ready to start the experiment?</p><br><p><strong>Remember to describe the picture using a full sentence,</strong></p><p><strong>that combines the names of the people with the <i>exact</i> phrase given.</strong></p><p><strong>To receive full payment you must do this correctly.</strong></p><p><strong> You do not need to capitalise names or use punctuation.</strong></p><br><p>Press 'Continue' to begin.</p>","0","html-button-response","50","690143","0.0-12.0","77917","List1A","black","woman","","","","","","","","","","","","",""
"null","<div style=""font-size:60px;"">+</div>","","html-keyboard-response","51","691672","0.0-13.0-0.0","77917","List1A","black","woman","","","","null","","","","","","","","",""
"null","<img src=""stim_listA/shout6.gif""style=""height:400px;""></stim_listA>","","html-keyboard-response","52","693680","0.0-13.0-1.0","77917","List1A","black","woman","","","","null","","","","","","","","",""
"null","is being shouted at by","","html-keyboard-response","53","695683","0.0-13.0-2.0","77917","List1A","black","woman","","","","null","","","","","","","","",""
"30784","","","survey-text","54","726471","0.0-13.0-3.0","77917","List1A","black","woman","","","","","{""Q0"":""dave is being disgusted by mike""}","<img src=""stim_listA/shout6.gif""style=""height:400px;""></stim_listA>","is being shouted at by","","","","","",""
"null","<div style=""font-size:60px;"">+</div>","","html-keyboard-response","55","726972","0.0-13.0-0.1","77917","List1A","black","woman","","","","null","","","","","","","","",""
"null","<img src=""stim_listA/touch7.gif""style=""height:400px;""></stim_listA>","","html-keyboard-response","56","728975","0.0-13.0-1.1","77917","List1A","black","woman","","","","null","","","","","","","","",""
"null","is touching","","html-keyboard-response","57","730985","0.0-13.0-2.1","77917","List1A","black","woman","","","","null","","","","","","","","",""
"34128.5","","","survey-text","58","765120","0.0-13.0-3.1","77917","List1A","black","woman","","","","","{""Q0"":""kate is touching jane""}","<img src=""stim_listA/touch7.gif""style=""height:400px;""></stim_listA>","is touching","","","","","",""
"null","<div style=""font-size:60px;"">+</div>","","html-keyboard-response","59","765630","0.0-13.0-0.2","77917","List1A","black","woman","","","","null","","","","","","","","",""
"null","<img src=""stim_listA/challenge2.gif""style=""height:400px;""></stim_listA>","","html-keyboard-response","60","767646","0.0-13.0-1.2","77917","List1A","black","woman","","","","null","","","","","","","","",""
"null","is being challenged by","","html-keyboard-response","61","769649","0.0-13.0-2.2","77917","List1A","black","woman","","","","null","","","","","","","","",""
"14527.199999928474","","","survey-text","62","784178","0.0-13.0-3.2","77917","List1A","black","woman","","","","","{""Q0"":""fred is being challenged by kate""}","<img src=""stim_listA/challenge2.gif""style=""height:400px;""></stim_listA>","is being challenged by","","","","","",""
"null","<div style=""font-size:60px;"">+</div>","","html-keyboard-response","63","784694","0.0-13.0-0.3","77917","List1A","black","woman","","","","null","","","","","","","","",""
"null","<img src=""stim_listA/touch5.gif""style=""height:400px;""></stim_listA>","","html-keyboard-response","64","786697","0.0-13.0-1.3","77917","List1A","black","woman","","","","null","","","","","","","","",""
"null","is touching","","html-keyboard-response","65","788701","0.0-13.0-2.3","77917","List1A","black","woman","","","","null","","","","","","","","",""
"13106.100000023842","","","survey-text","66","801809","0.0-13.0-3.3","77917","List1A","black","woman","","","","","{""Q0"":""dave is touching mike""}","<img src=""stim_listA/touch5.gif""style=""height:400px;""></stim_listA>","is touching","","","","","",""
"null","<div style=""font-size:60px;"">+</div>","","html-keyboard-response","67","802324","0.0-13.0-0.4","77917","List1A","black","woman","","","","null","","","","","","","","",""
"null","<img src=""stim_listA/touch4.gif""style=""height:400px;""></stim_listA>","","html-keyboard-response","68","804325","0.0-13.0-1.4","77917","List1A","black","woman","","","","null","","","","","","","","",""
"null","is being touched by","","html-keyboard-response","69","806331","0.0-13.0-2.4","77917","List1A","black","woman","","","","null","","","","","","","","",""
"26866.900000095367","","","survey-text","70","833200","0.0-13.0-3.4","77917","List1A","black","woman","","","","","{""Q0"":""ruth is being touched by luke""}","<img src=""stim_listA/touch4.gif""style=""height:400px;""></stim_listA>","is being touched by","","","","","",""
"null","<div style=""font-size:60px;"">+</div>","","html-keyboard-response","71","833713","0.0-13.0-0.5","77917","List1A","black","woman","","","","null","","","","","","","","",""
"null","<img src=""stim_listA/seduce4.gif""style=""height:400px;""></stim_listA>","","html-keyboard-response","72","835730","0.0-13.0-1.5","77917","List1A","black","woman","","","","null","","","","","","","","",""
"null","is being seduced by","","html-keyboard-response","73","837742","0.0-13.0-2.5","77917","List1A","black","woman","","","","null","","","","","","","","",""
"16900.800000071526","","","survey-text","74","854646","0.0-13.0-3.5","77917","List1A","black","woman","","","","","{""Q0"":""ruth is being seduced by dave""}","<img src=""stim_listA/seduce4.gif""style=""height:400px;""></stim_listA>","is being seduced by","","","","","",""
"null","<div style=""font-size:60px;"">+</div>","","html-keyboard-response","75","855159","0.0-13.0-0.6","77917","List1A","black","woman","","","","null","","","","","","","","",""
"null","<img src=""stim_listA/copy4.gif""style=""height:400px;""></stim_listA>","","html-keyboard-response","76","857174","0.0-13.0-1.6","77917","List1A","black","woman","","","","null","","","","","","","","",""
"null","is being copied by","","html-keyboard-response","77","859180","0.0-13.0-2.6","77917","List1A","black","woman","","","","null","","","","","","","","",""
"24959.700000047684","","","survey-text","78","884143","0.0-13.0-3.6","77917","List1A","black","woman","","","","","{""Q0"":""jane is being copied by luke""}","<img src=""stim_listA/copy4.gif""style=""height:400px;""></stim_listA>","is being copied by","","","","","",""
"null","<div style=""font-size:60px;"">+</div>","","html-keyboard-response","79","884653","0.0-13.0-0.7","77917","List1A","black","woman","","","","null","","","","","","","","",""
"null","<img src=""stim_listA/oppose2.gif""style=""height:400px;""></stim_listA>","","html-keyboard-response","80","886665","0.0-13.0-1.7","77917","List1A","black","woman","","","","null","","","","","","","","",""
"null","is being opposed by","","html-keyboard-response","81","888678","0.0-13.0-2.7","77917","List1A","black","woman","","","","null","","","","","","","","",""
"82928.60000002384","","","survey-text","82","971609","0.0-13.0-3.7","77917","List1A","black","woman","","","","","{""Q0"":""beth is being opposed by fred""}","<img src=""stim_listA/oppose2.gif""style=""height:400px;""></stim_listA>","is being opposed by","","","","","",""
"null","<div style=""font-size:60px;"">+</div>","","html-keyboard-response","83","972124","0.0-13.0-0.8","77917","List1A","black","woman","","","","null","","","","","","","","",""
"null","<img src=""stim_listA/copy5.gif""style=""height:400px;""></stim_listA>","","html-keyboard-response","84","974132","0.0-13.0-1.8","77917","List1A","black","woman","","","","null","","","","","","","","",""
"null","is copying","","html-keyboard-response","85","976141","0.0-13.0-2.8","77917","List1A","black","woman","","","","null","","","","","","","","",""
"11380.400000095367","","","survey-text","86","987525","0.0-13.0-3.8","77917","List1A","black","woman","","","","","{""Q0"":""mike is coping luke""}","<img src=""stim_listA/copy5.gif""style=""height:400px;""></stim_listA>","is copying","","","","","",""
"null","<div style=""font-size:60px;"">+</div>","","html-keyboard-response","87","988040","0.0-13.0-0.9","77917","List1A","black","woman","","","","null","","","","","","","","",""
"null","<img src=""stim_listA/oppose5.gif""style=""height:400px;""></stim_listA>","","html-keyboard-response","88","990051","0.0-13.0-1.9","77917","List1A","black","woman","","","","null","","","","","","","","",""
"null","is opposing","","html-keyboard-response","89","992055","0.0-13.0-2.9","77917","List1A","black","woman","","","","null","","","","","","","","",""
"8926.899999976158","","","survey-text","90","1000984","0.0-13.0-3.9","77917","List1A","black","woman","","","","","{""Q0"":""dave is opposing mike""}","<img src=""stim_listA/oppose5.gif""style=""height:400px;""></stim_listA>","is opposing","","","","","",""
"null","<div style=""font-size:60px;"">+</div>","","html-keyboard-response","91","1001494","0.0-13.0-0.10","77917","List1A","black","woman","","","","null","","","","","","","","",""
"null","<img src=""stim_listA/seduce7.gif""style=""height:400px;""></stim_listA>","","html-keyboard-response","92","1003513","0.0-13.0-1.10","77917","List1A","black","woman","","","","null","","","","","","","","",""
"null","is seducing","","html-keyboard-response","93","1005520","0.0-13.0-2.10","77917","List1A","black","woman","","","","null","","","","","","","","",""
"36409.199999928474","","","survey-text","94","1041931","0.0-13.0-3.10","77917","List1A","black","woman","","","","","{""Q0"":""jane is seducing beth""}","<img src=""stim_listA/seduce7.gif""style=""height:400px;""></stim_listA>","is seducing","","","","","",""
"null","<div style=""font-size:60px;"">+</div>","","html-keyboard-response","95","1042442","0.0-13.0-0.11","77917","List1A","black","woman","","","","null","","","","","","","","",""
"null","<img src=""stim_listA/greet1.gif""style=""height:400px;""></stim_listA>","","html-keyboard-response","96","1044446","0.0-13.0-1.11","77917","List1A","black","woman","","","","null","","","","","","","","",""
"null","is greeting","","html-keyboard-response","97","1046461","0.0-13.0-2.11","77917","List1A","black","woman","","","","null","","","","","","","","",""
"32525","","","survey-text","98","1078987","0.0-13.0-3.11","77917","List1A","black","woman","","","","","{""Q0"":""beth is greeting mike""}","<img src=""stim_listA/greet1.gif""style=""height:400px;""></stim_listA>","is greeting","","","","","",""
"null","<div style=""font-size:60px;"">+</div>","","html-keyboard-response","99","1079501","0.0-13.0-0.12","77917","List1A","black","woman","","","","null","","","","","","","","",""
"null","<img src=""stim_listA/greet2.gif""style=""height:400px;""></stim_listA>","","html-keyboard-response","100","1081512","0.0-13.0-1.12","77917","List1A","black","woman","","","","null","","","","","","","","",""
"null","is being greeted by","","html-keyboard-response","101","1083519","0.0-13.0-2.12","77917","List1A","black","woman","","","","null","","","","","","","","",""
"8736.100000023842","","","survey-text","102","1092257","0.0-13.0-3.12","77917","List1A","black","woman","","","","","{""Q0"":""fred is being greeted by kate""}","<img src=""stim_listA/greet2.gif""style=""height:400px;""></stim_listA>","is being greeted by","","","","","",""
"null","<div style=""font-size:60px;"">+</div>","","html-keyboard-response","103","1092771","0.0-13.0-0.13","77917","List1A","black","woman","","","","null","","","","","","","","",""
"null","<img src=""stim_listA/hug5.gif""style=""height:400px;""></stim_listA>","","html-keyboard-response","104","1094781","0.0-13.0-1.13","77917","List1A","black","woman","","","","null","","","","","","","","",""
"null","is hugging","","html-keyboard-response","105","1096786","0.0-13.0-2.13","77917","List1A","black","woman","","","","null","","","","","","","","",""
"6318.300000071526","","","survey-text","106","1103108","0.0-13.0-3.13","77917","List1A","black","woman","","","","","{""Q0"":""fred is hugging luke""}","<img src=""stim_listA/hug5.gif""style=""height:400px;""></stim_listA>","is hugging","","","","","",""
"null","<div style=""font-size:60px;"">+</div>","","html-keyboard-response","107","1103621","0.0-13.0-0.14","77917","List1A","black","woman","","","","null","","","","","","","","",""
"null","<img src=""stim_listA/kiss7.gif""style=""height:400px;""></stim_listA>","","html-keyboard-response","108","1105624","0.0-13.0-1.14","77917","List1A","black","woman","","","","null","","","","","","","","",""
"null","is kissing","","html-keyboard-response","109","1107629","0.0-13.0-2.14","77917","List1A","black","woman","","","","null","","","","","","","","",""
"10638.100000023842","","","survey-text","110","1118272","0.0-13.0-3.14","77917","List1A","black","woman","","","","","{""Q0"":""ruth is kissing beth""}","<img src=""stim_listA/kiss7.gif""style=""height:400px;""></stim_listA>","is kissing","","","","","",""
"null","<div style=""font-size:60px;"">+</div>","","html-keyboard-response","111","1118783","0.0-13.0-0.15","77917","List1A","black","woman","","","","null","","","","","","","","",""
"null","<img src=""stim_listA/seduce3.gif""style=""height:400px;""></stim_listA>","","html-keyboard-response","112","1120792","0.0-13.0-1.15","77917","List1A","black","woman","","","","null","","","","","","","","",""
"null","is seducing","","html-keyboard-response","113","1122806","0.0-13.0-2.15","77917","List1A","black","woman","","","","null","","","","","","","","",""
"9173.800000071526","","","survey-text","114","1131984","0.0-13.0-3.15","77917","List1A","black","woman","","","","","{""Q0"":""luke is seducing jane""}","<img src=""stim_listA/seduce3.gif""style=""height:400px;""></stim_listA>","is seducing","","","","","",""
"null","<div style=""font-size:60px;"">+</div>","","html-keyboard-response","115","1132491","0.0-13.0-0.16","77917","List1A","black","woman","","","","null","","","","","","","","",""
"null","<img src=""stim_listA/copy3.gif""style=""height:400px;""></stim_listA>","","html-keyboard-response","116","1134494","0.0-13.0-1.16","77917","List1A","black","woman","","","","null","","","","","","","","",""
"null","is copying","","html-keyboard-response","117","1136505","0.0-13.0-2.16","77917","List1A","black","woman","","","","null","","","","","","","","",""
"13188","","","survey-text","118","1149696","0.0-13.0-3.16","77917","List1A","black","woman","","","","","{""Q0"":""dave is copying ruth""}","<img src=""stim_listA/copy3.gif""style=""height:400px;""></stim_listA>","is copying","","","","","",""
"null","<div style=""font-size:60px;"">+</div>","","html-keyboard-response","119","1150198","0.0-13.0-0.17","77917","List1A","black","woman","","","","null","","","","","","","","",""
"null","<img src=""stim_listA/greet5.gif""style=""height:400px;""></stim_listA>","","html-keyboard-response","120","1152211","0.0-13.0-1.17","77917","List1A","black","woman","","","","null","","","","","","","","",""
"null","is greeting","","html-keyboard-response","121","1154226","0.0-13.0-2.17","77917","List1A","black","woman","","","","null","","","","","","","","",""
"11065.700000047684","","","survey-text","122","1165295","0.0-13.0-3.17","77917","List1A","black","woman","","","","","{""Q0"":""luke is greeting mike""}","<img src=""stim_listA/greet5.gif""style=""height:400px;""></stim_listA>","is greeting","","","","","",""
"null","<div style=""font-size:60px;"">+</div>","","html-keyboard-response","123","1165806","0.0-13.0-0.18","77917","List1A","black","woman","","","","null","","","","","","","","",""
"null","<img src=""stim_listA/challenge8.gif""style=""height:400px;""></stim_listA>","","html-keyboard-response","124","1167823","0.0-13.0-1.18","77917","List1A","black","woman","","","","null","","","","","","","","",""
"null","is being challenged by","","html-keyboard-response","125","1169834","0.0-13.0-2.18","77917","List1A","black","woman","","","","null","","","","","","","","",""
"15981.899999976158","","","survey-text","126","1185818","0.0-13.0-3.18","77917","List1A","black","woman","","","","","{""Q0"":""beth is being challenged by jane""}","<img src=""stim_listA/challenge8.gif""style=""height:400px;""></stim_listA>","is being challenged by","","","","","",""
"null","<div style=""font-size:60px;"">+</div>","","html-keyboard-response","127","1186323","0.0-13.0-0.19","77917","List1A","black","woman","","","","null","","","","","","","","",""
"null","<img src=""stim_listA/shout5.gif""style=""height:400px;""></stim_listA>","","html-keyboard-response","128","1188339","0.0-13.0-1.19","77917","List1A","black","woman","","","","null","","","","","","","","",""
"null","is shouting at","","html-keyboard-response","129","1190353","0.0-13.0-2.19","77917","List1A","black","woman","","","","null","","","","","","","","",""
"6619.299999952316","","","survey-text","130","1196975","0.0-13.0-3.19","77917","List1A","black","woman","","","","","{""Q0"":""fred is shouting at luke""}","<img src=""stim_listA/shout5.gif""style=""height:400px;""></stim_listA>","is shouting at","","","","","",""
"91310.39999997616","<img src='img/portrait_matrix_list1.jpg' style='width:900px;height:500px;''></img><p>If you have memorised all the portraits and names and are ready to start, press Continue.</p><p><strong>Please note: Your memory of these faces will be tested 4 times during this experiment.</strong></p>","0","html-button-response","131","1288287","0.0-14.0-0.0","77917","List1A","black","woman","","","","","","","","","","","","",""
"6854.200000047684","<img src=""portrait/WW2.jpg""style=""height:400px;""></img>","3","html-button-response","132","1296147","0.0-14.0-1.0","77917","List1A","black","woman","","true","3","","","","","","","","","",""
"null","CORRECT","","html-keyboard-response","133","1297652","0.0-14.0-2.0-0.0","77917","List1A","black","woman","","","","null","","","","","","","","",""
"5056.700000047684","<img src=""portrait/BW2.jpg""style=""height:400px;""></img>","2","html-button-response","134","1302709","0.0-14.0-4.0","77917","List1A","black","woman","","true","2","","","","","","","","","",""
"null","CORRECT","","html-keyboard-response","135","1304221","0.0-14.0-5.0-0.0","77917","List1A","black","woman","","","","null","","","","","","","","",""
"3430.3000000715256","<img src=""portrait/BM1.jpg""style=""height:400px;""></img>","4","html-button-response","136","1307653","0.0-14.0-7.0","77917","List1A","black","woman","","true","4","","","","","","","","","",""
"null","CORRECT","","html-keyboard-response","137","1309174","0.0-14.0-8.0-0.0","77917","List1A","black","woman","","","","null","","","","","","","","",""
"3605.899999976158","<img src=""portrait/BM2.jpg""style=""height:400px;""></img>","5","html-button-response","138","1312784","0.0-14.0-10.0","77917","List1A","black","woman","","true","5","","","","","","","","","",""
"null","CORRECT","","html-keyboard-response","139","1314310","0.0-14.0-11.0-0.0","77917","List1A","black","woman","","","","null","","","","","","","","",""
"2598.9000000953674","<img src=""portrait/WM1.jpg""style=""height:400px;""></img>","6","html-button-response","140","1316911","0.0-14.0-13.0","77917","List1A","black","woman","","true","6","","","","","","","","","",""
"null","CORRECT","","html-keyboard-response","141","1318442","0.0-14.0-14.0-0.0","77917","List1A","black","woman","","","","null","","","","","","","","",""
"3957.5","<img src=""portrait/WM2.jpg""style=""height:400px;""></img>","7","html-button-response","142","1322404","0.0-14.0-16.0","77917","List1A","black","woman","","true","7","","","","","","","","","",""
"null","CORRECT","","html-keyboard-response","143","1323920","0.0-14.0-17.0-0.0","77917","List1A","black","woman","","","","null","","","","","","","","",""
"6148.600000023842","<img src=""portrait/WW1.jpg""style=""height:400px;""></img>","1","html-button-response","144","1330071","0.0-14.0-19.0","77917","List1A","black","woman","","true","1","","","","","","","","","",""
"null","CORRECT","","html-keyboard-response","145","1331581","0.0-14.0-20.0-0.0","77917","List1A","black","woman","","","","null","","","","","","","","",""
"4292.100000023842","<img src=""portrait/BW1.jpg""style=""height:400px;""></img>","0","html-button-response","146","1335876","0.0-14.0-22.0","77917","List1A","black","woman","","true","0","","","","","","","","","",""
"null","CORRECT","","html-keyboard-response","147","1337395","0.0-14.0-23.0-0.0","77917","List1A","black","woman","","","","null","","","","","","","","",""
"1752.1999999284744","<p>You got 8 out of 8 right first time. Press Continue.</p>","0","html-button-response","148","1339150","0.0-14.0-25.0","77917","List1A","black","woman","","","","","","","","","","","","",""
"null","<div style=""font-size:60px;"">+</div>","","html-keyboard-response","149","1340670","0.0-15.0-0.0","77917","List1A","black","woman","","","","null","","","","","","","","",""
"null","<img src=""stim_listA/greet4.gif""style=""height:400px;""></stim_listA>","","html-keyboard-response","150","1342674","0.0-15.0-1.0","77917","List1A","black","woman","","","","null","","","","","","","","",""
"null","is being greeted by","","html-keyboard-response","151","1344688","0.0-15.0-2.0","77917","List1A","black","woman","","","","null","","","","","","","","",""
"27243.800000071526","","","survey-text","152","1371933","0.0-15.0-3.0","77917","List1A","black","woman","","","","","{""Q0"":""jane is being greeted by luke""}","<img src=""stim_listA/greet4.gif""style=""height:400px;""></stim_listA>","is being greeted by","","","","","",""
"null","<div style=""font-size:60px;"">+</div>","","html-keyboard-response","153","1372441","0.0-15.0-0.1","77917","List1A","black","woman","","","","null","","","","","","","","",""
"null","<img src=""stim_listA/copy1.gif""style=""height:400px;""></stim_listA>","","html-keyboard-response","154","1374456","0.0-15.0-1.1","77917","List1A","black","woman","","","","null","","","","","","","","",""
"null","is copying","","html-keyboard-response","155","1376469","0.0-15.0-2.1","77917","List1A","black","woman","","","","null","","","","","","","","",""
"32515.5","","","survey-text","156","1408988","0.0-15.0-3.1","77917","List1A","black","woman","","","","","{""Q0"":""mike is copying beth""}","<img src=""stim_listA/copy1.gif""style=""height:400px;""></stim_listA>","is copying","","","","","",""
"null","<div style=""font-size:60px;"">+</div>","","html-keyboard-response","157","1409500","0.0-15.0-0.2","77917","List1A","black","woman","","","","null","","","","","","","","",""
"null","<img src=""stim_listA/challenge7.gif""style=""height:400px;""></stim_listA>","","html-keyboard-response","158","1411511","0.0-15.0-1.2","77917","List1A","black","woman","","","","null","","","","","","","","",""
"null","is challenging","","html-keyboard-response","159","1413522","0.0-15.0-2.2","77917","List1A","black","woman","","","","null","","","","","","","","",""
"12246.900000095367","","","survey-text","160","1425771","0.0-15.0-3.2","77917","List1A","black","woman","","","","","{""Q0"":""jane is challenging kate""}","<img src=""stim_listA/challenge7.gif""style=""height:400px;""></stim_listA>","is challenging","","","","","",""
"null","<div style=""font-size:60px;"">+</div>","","html-keyboard-response","161","1426275","0.0-15.0-0.3","77917","List1A","black","woman","","","","null","","","","","","","","",""
"null","<img src=""stim_listA/look1.gif""style=""height:400px;""></stim_listA>","","html-keyboard-response","162","1428276","0.0-15.0-1.3","77917","List1A","black","woman","","","","null","","","","","","","","",""
"null","is looking at","","html-keyboard-response","163","1430287","0.0-15.0-2.3","77917","List1A","black","woman","","","","null","","","","","","","","",""
"8060.699999928474","","","survey-text","164","1438351","0.0-15.0-3.3","77917","List1A","black","woman","","","","","{""Q0"":""beth is looking at fred""}","<img src=""stim_listA/look1.gif""style=""height:400px;""></stim_listA>","is looking at","","","","","",""
"null","<div style=""font-size:60px;"">+</div>","","html-keyboard-response","165","1438863","0.0-15.0-0.4","77917","List1A","black","woman","","","","null","","","","","","","","",""
"null","<img src=""stim_listA/shout1.gif""style=""height:400px;""></stim_listA>","","html-keyboard-response","166","1440874","0.0-15.0-1.4","77917","List1A","black","woman","","","","null","","","","","","","","",""
"null","is shouting at","","html-keyboard-response","167","1442881","0.0-15.0-2.4","77917","List1A","black","woman","","","","null","","","","","","","","",""
"5184","","","survey-text","168","1448066","0.0-15.0-3.4","77917","List1A","black","woman","","","","","{""Q0"":""beth is shouting at fred""}","<img src=""stim_listA/shout1.gif""style=""height:400px;""></stim_listA>","is shouting at","","","","","",""
"null","<div style=""font-size:60px;"">+</div>","","html-keyboard-response","169","1448579","0.0-15.0-0.5","77917","List1A","black","woman","","","","null","","","","","","","","",""
"null","<img src=""stim_listA/touch8.gif""style=""height:400px;""></stim_listA>","","html-keyboard-response","170","1450593","0.0-15.0-1.5","77917","List1A","black","woman","","","","null","","","","","","","","",""
"null","is being touched by","","html-keyboard-response","171","1452607","0.0-15.0-2.5","77917","List1A","black","woman","","","","null","","","","","","","","",""
"9486.899999976158","","","survey-text","172","1462095","0.0-15.0-3.5","77917","List1A","black","woman","","","","","{""Q0"":""beth is being touched by ruth""}","<img src=""stim_listA/touch8.gif""style=""height:400px;""></stim_listA>","is being touched by","","","","","",""
"null","<div style=""font-size:60px;"">+</div>","","html-keyboard-response","173","1462610","0.0-15.0-0.6","77917","List1A","black","woman","","","","null","","","","","","","","",""
"null","<img src=""stim_listA/kiss3.gif""style=""height:400px;""></stim_listA>","","html-keyboard-response","174","1464613","0.0-15.0-1.6","77917","List1A","black","woman","","","","null","","","","","","","","",""
"null","is kissing","","html-keyboard-response","175","1466625","0.0-15.0-2.6","77917","List1A","black","woman","","","","null","","","","","","","","",""
"7699.799999952316","","","survey-text","176","1474326","0.0-15.0-3.6","77917","List1A","black","woman","","","","","{""Q0"":""ruth is kissing luke""}","<img src=""stim_listA/kiss3.gif""style=""height:400px;""></stim_listA>","is kissing","","","","","",""
"null","<div style=""font-size:60px;"">+</div>","","html-keyboard-response","177","1474839","0.0-15.0-0.7","77917","List1A","black","woman","","","","null","","","","","","","","",""
"null","<img src=""stim_listA/seduce1.gif""style=""height:400px;""></stim_listA>","","html-keyboard-response","178","1476851","0.0-15.0-1.7","77917","List1A","black","woman","","","","null","","","","","","","","",""
"null","is seducing","","html-keyboard-response","179","1478868","0.0-15.0-2.7","77917","List1A","black","woman","","","","null","","","","","","","","",""
"6909.600000023842","","","survey-text","180","1485780","0.0-15.0-3.7","77917","List1A","black","woman","","","","","{""Q0"":""fred is seducing kate""}","<img src=""stim_listA/seduce1.gif""style=""height:400px;""></stim_listA>","is seducing","","","","","",""
"null","<div style=""font-size:60px;"">+</div>","","html-keyboard-response","181","1486287","0.0-15.0-0.8","77917","List1A","black","woman","","","","null","","","","","","","","",""
"null","<img src=""stim_listA/hug7.gif""style=""height:400px;""></stim_listA>","","html-keyboard-response","182","1488305","0.0-15.0-1.8","77917","List1A","black","woman","","","","null","","","","","","","","",""
"null","is hugging","","html-keyboard-response","183","1490309","0.0-15.0-2.8","77917","List1A","black","woman","","","","null","","","","","","","","",""
"5861.5","","","survey-text","184","1496173","0.0-15.0-3.8","77917","List1A","black","woman","","","","","{""Q0"":""ruth is hugging beth ""}","<img src=""stim_listA/hug7.gif""style=""height:400px;""></stim_listA>","is hugging","","","","","",""
"null","<div style=""font-size:60px;"">+</div>","","html-keyboard-response","185","1496675","0.0-15.0-0.9","77917","List1A","black","woman","","","","null","","","","","","","","",""
"null","<img src=""stim_listA/shout2.gif""style=""height:400px;""></stim_listA>","","html-keyboard-response","186","1498692","0.0-15.0-1.9","77917","List1A","black","woman","","","","null","","","","","","","","",""
"null","is being shouted at by","","html-keyboard-response","187","1500693","0.0-15.0-2.9","77917","List1A","black","woman","","","","null","","","","","","","","",""
"16751.700000047684","","","survey-text","188","1517447","0.0-15.0-3.9","77917","List1A","black","woman","","","","","{""Q0"":""beth is being shouted out by mike""}","<img src=""stim_listA/shout2.gif""style=""height:400px;""></stim_listA>","is being shouted at by","","","","","",""
"null","<div style=""font-size:60px;"">+</div>","","html-keyboard-response","189","1517951","0.0-15.0-0.10","77917","List1A","black","woman","","","","null","","","","","","","","",""
"null","<img src=""stim_listA/copy2.gif""style=""height:400px;""></stim_listA>","","html-keyboard-response","190","1519965","0.0-15.0-1.10","77917","List1A","black","woman","","","","null","","","","","","","","",""
"null","is being copied by","","html-keyboard-response","191","1521971","0.0-15.0-2.10","77917","List1A","black","woman","","","","null","","","","","","","","",""
"10142.300000071526","","","survey-text","192","1532116","0.0-15.0-3.10","77917","List1A","black","woman","","","","","{""Q0"":""fred is being copied by kate""}","<img src=""stim_listA/copy2.gif""style=""height:400px;""></stim_listA>","is being copied by","","","","","",""
"null","<div style=""font-size:60px;"">+</div>","","html-keyboard-response","193","1532632","0.0-15.0-0.11","77917","List1A","black","woman","","","","null","","","","","","","","",""
"null","<img src=""stim_listA/kiss6.gif""style=""height:400px;""></stim_listA>","","html-keyboard-response","194","1534644","0.0-15.0-1.11","77917","List1A","black","woman","","","","null","","","","","","","","",""
"null","is being kissed by","","html-keyboard-response","195","1536647","0.0-15.0-2.11","77917","List1A","black","woman","","","","null","","","","","","","","",""
"6225.799999952316","","","survey-text","196","1542876","0.0-15.0-3.11","77917","List1A","black","woman","","","","","{""Q0"":""dave is being kissed by mike""}","<img src=""stim_listA/kiss6.gif""style=""height:400px;""></stim_listA>","is being kissed by","","","","","",""
"null","<div style=""font-size:60px;"">+</div>","","html-keyboard-response","197","1543381","0.0-15.0-0.12","77917","List1A","black","woman","","","","null","","","","","","","","",""
"null","<img src=""stim_listA/copy6.gif""style=""height:400px;""></stim_listA>","","html-keyboard-response","198","1545384","0.0-15.0-1.12","77917","List1A","black","woman","","","","null","","","","","","","","",""
"null","is being copied by","","html-keyboard-response","199","1547396","0.0-15.0-2.12","77917","List1A","black","woman","","","","null","","","","","","","","",""
"4879","","","survey-text","200","1552276","0.0-15.0-3.12","77917","List1A","black","woman","","","","","{""Q0"":""fred is being copied by dave""}","<img src=""stim_listA/copy6.gif""style=""height:400px;""></stim_listA>","is being copied by","","","","","",""
"null","<div style=""font-size:60px;"">+</div>","","html-keyboard-response","201","1552787","0.0-15.0-0.13","77917","List1A","black","woman","","","","null","","","","","","","","",""
"null","<img src=""stim_listA/challenge4.gif""style=""height:400px;""></stim_listA>","","html-keyboard-response","202","1554797","0.0-15.0-1.13","77917","List1A","black","woman","","","","null","","","","","","","","",""
"null","is being challenged by","","html-keyboard-response","203","1556808","0.0-15.0-2.13","77917","List1A","black","woman","","","","null","","","","","","","","",""
"6625.199999928474","","","survey-text","204","1563436","0.0-15.0-3.13","77917","List1A","black","woman","","","","","{""Q0"":""luke is being challenged by jane""}","<img src=""stim_listA/challenge4.gif""style=""height:400px;""></stim_listA>","is being challenged by","","","","","",""
"null","<div style=""font-size:60px;"">+</div>","","html-keyboard-response","205","1563941","0.0-15.0-0.14","77917","List1A","black","woman","","","","null","","","","","","","","",""
"null","<img src=""stim_listA/kiss4.gif""style=""height:400px;""></stim_listA>","","html-keyboard-response","206","1565950","0.0-15.0-1.14","77917","List1A","black","woman","","","","null","","","","","","","","",""
"null","is being kissed by","","html-keyboard-response","207","1567966","0.0-15.0-2.14","77917","List1A","black","woman","","","","null","","","","","","","","",""
"6629.299999952316","","","survey-text","208","1574599","0.0-15.0-3.14","77917","List1A","black","woman","","","","","{""Q0"":""jane is being kissed by dave""}","<img src=""stim_listA/kiss4.gif""style=""height:400px;""></stim_listA>","is being kissed by","","","","","",""
"null","<div style=""font-size:60px;"">+</div>","","html-keyboard-response","209","1575104","0.0-15.0-0.15","77917","List1A","black","woman","","","","null","","","","","","","","",""
"null","<img src=""stim_listA/shout8.gif""style=""height:400px;""></stim_listA>","","html-keyboard-response","210","1577114","0.0-15.0-1.15","77917","List1A","black","woman","","","","null","","","","","","","","",""
"null","is being shouted at by","","html-keyboard-response","211","1579126","0.0-15.0-2.15","77917","List1A","black","woman","","","","null","","","","","","","","",""
"11408.800000071526","","","survey-text","212","1590538","0.0-15.0-3.15","77917","List1A","black","woman","","","","","{""Q0"":""kate is being shouted at by jane""}","<img src=""stim_listA/shout8.gif""style=""height:400px;""></stim_listA>","is being shouted at by","","","","","",""
"null","<div style=""font-size:60px;"">+</div>","","html-keyboard-response","213","1591041","0.0-15.0-0.16","77917","List1A","black","woman","","","","null","","","","","","","","",""
"null","<img src=""stim_listA/challenge5.gif""style=""height:400px;""></stim_listA>","","html-keyboard-response","214","1593057","0.0-15.0-1.16","77917","List1A","black","woman","","","","null","","","","","","","","",""
"null","is challenging","","html-keyboard-response","215","1595070","0.0-15.0-2.16","77917","List1A","black","woman","","","","null","","","","","","","","",""
"5444.799999952316","","","survey-text","216","1600518","0.0-15.0-3.16","77917","List1A","black","woman","","","","","{""Q0"":""luke is challenging mike""}","<img src=""stim_listA/challenge5.gif""style=""height:400px;""></stim_listA>","is challenging","","","","","",""
"null","<div style=""font-size:60px;"">+</div>","","html-keyboard-response","217","1601025","0.0-15.0-0.17","77917","List1A","black","woman","","","","null","","","","","","","","",""
"null","<img src=""stim_listA/oppose1.gif""style=""height:400px;""></stim_listA>","","html-keyboard-response","218","1603028","0.0-15.0-1.17","77917","List1A","black","woman","","","","null","","","","","","","","",""
"null","is opposing","","html-keyboard-response","219","1605044","0.0-15.0-2.17","77917","List1A","black","woman","","","","null","","","","","","","","",""
"4851.300000071526","","","survey-text","220","1609899","0.0-15.0-3.17","77917","List1A","black","woman","","","","","{""Q0"":""mike is opposing kate""}","<img src=""stim_listA/oppose1.gif""style=""height:400px;""></stim_listA>","is opposing","","","","","",""
"null","<div style=""font-size:60px;"">+</div>","","html-keyboard-response","221","1610417","0.0-15.0-0.18","77917","List1A","black","woman","","","","null","","","","","","","","",""
"null","<img src=""stim_listA/copy8.gif""style=""height:400px;""></stim_listA>","","html-keyboard-response","222","1612428","0.0-15.0-1.18","77917","List1A","black","woman","","","","null","","","","","","","","",""
"null","is being copied by","","html-keyboard-response","223","1614441","0.0-15.0-2.18","77917","List1A","black","woman","","","","null","","","","","","","","",""
"5602.200000047684","","","survey-text","224","1620045","0.0-15.0-3.18","77917","List1A","black","woman","","","","","{""Q0"":""beth is being copied by jane""}","<img src=""stim_listA/copy8.gif""style=""height:400px;""></stim_listA>","is being copied by","","","","","",""
"null","<div style=""font-size:60px;"">+</div>","","html-keyboard-response","225","1620558","0.0-15.0-0.19","77917","List1A","black","woman","","","","null","","","","","","","","",""
"null","<img src=""stim_listA/hug6.gif""style=""height:400px;""></stim_listA>","","html-keyboard-response","226","1622573","0.0-15.0-1.19","77917","List1A","black","woman","","","","null","","","","","","","","",""
"null","is being hugged by","","html-keyboard-response","227","1624576","0.0-15.0-2.19","77917","List1A","black","woman","","","","null","","","","","","","","",""
"7514.299999952316","","","survey-text","228","1632095","0.0-15.0-3.19","77917","List1A","black","woman","","","","","{""Q0"":""dave is being hugged by mike""}","<img src=""stim_listA/hug6.gif""style=""height:400px;""></stim_listA>","is being hugged by","","","","","",""
"28501.399999976158","<img src='img/portrait_matrix_list1.jpg' style='width:900px;height:500px;''></img><p>If you have memorised all the portraits and names and are ready to start, press Continue.</p><p><strong>Please note: Your memory of these faces will be tested 4 times during this experiment.</strong></p>","0","html-button-response","229","1660598","0.0-16.0-0.0","77917","List1A","black","woman","","","","","","","","","","","","",""
"4552.199999928474","<img src=""portrait/WW1.jpg""style=""height:400px;""></img>","1","html-button-response","230","1666153","0.0-16.0-1.0","77917","List1A","black","woman","","true","1","","","","","","","","","",""
"null","CORRECT","","html-keyboard-response","231","1667672","0.0-16.0-2.0-0.0","77917","List1A","black","woman","","","","null","","","","","","","","",""
"5562.099999904633","<img src=""portrait/BW1.jpg""style=""height:400px;""></img>","0","html-button-response","232","1673236","0.0-16.0-4.0","77917","List1A","black","woman","","true","0","","","","","","","","","",""
"null","CORRECT","","html-keyboard-response","233","1674766","0.0-16.0-5.0-0.0","77917","List1A","black","woman","","","","null","","","","","","","","",""
"2805.100000023842","<img src=""portrait/WM2.jpg""style=""height:400px;""></img>","7","html-button-response","234","1677574","0.0-16.0-7.0","77917","List1A","black","woman","","true","7","","","","","","","","","",""
"null","CORRECT","","html-keyboard-response","235","1679089","0.0-16.0-8.0-0.0","77917","List1A","black","woman","","","","null","","","","","","","","",""
"2100.600000023842","<img src=""portrait/BM2.jpg""style=""height:400px;""></img>","5","html-button-response","236","1681192","0.0-16.0-10.0","77917","List1A","black","woman","","true","5","","","","","","","","","",""
"null","CORRECT","","html-keyboard-response","237","1682697","0.0-16.0-11.0-0.0","77917","List1A","black","woman","","","","null","","","","","","","","",""
"2292.5","<img src=""portrait/BM1.jpg""style=""height:400px;""></img>","4","html-button-response","238","1684990","0.0-16.0-13.0","77917","List1A","black","woman","","true","4","","","","","","","","","",""
"null","CORRECT","","html-keyboard-response","239","1686498","0.0-16.0-14.0-0.0","77917","List1A","black","woman","","","","null","","","","","","","","",""
"2336.1999999284744","<img src=""portrait/WM1.jpg""style=""height:400px;""></img>","6","html-button-response","240","1688836","0.0-16.0-16.0","77917","List1A","black","woman","","true","6","","","","","","","","","",""
"null","CORRECT","","html-keyboard-response","241","1690344","0.0-16.0-17.0-0.0","77917","List1A","black","woman","","","","null","","","","","","","","",""
"2306.100000023842","<img src=""portrait/BW2.jpg""style=""height:400px;""></img>","2","html-button-response","242","1692652","0.0-16.0-19.0","77917","List1A","black","woman","","true","2","","","","","","","","","",""
"null","CORRECT","","html-keyboard-response","243","1694160","0.0-16.0-20.0-0.0","77917","List1A","black","woman","","","","null","","","","","","","","",""
"2648.7999999523163","<img src=""portrait/WW2.jpg""style=""height:400px;""></img>","3","html-button-response","244","1696810","0.0-16.0-22.0","77917","List1A","black","woman","","true","3","","","","","","","","","",""
"null","CORRECT","","html-keyboard-response","245","1698317","0.0-16.0-23.0-0.0","77917","List1A","black","woman","","","","null","","","","","","","","",""
"2219.899999976158","<p>You got 8 out of 8 right first time. Press Continue.</p>","0","html-button-response","246","1700539","0.0-16.0-25.0","77917","List1A","black","woman","","","","","","","","","","","","",""
"null","<div style=""font-size:60px;"">+</div>","","html-keyboard-response","247","1702041","0.0-17.0-0.0","77917","List1A","black","woman","","","","null","","","","","","","","",""
"null","<img src=""stim_listA/shout4.gif""style=""height:400px;""></stim_listA>","","html-keyboard-response","248","1704052","0.0-17.0-1.0","77917","List1A","black","woman","","","","null","","","","","","","","",""
"null","is being shouted at by","","html-keyboard-response","249","1706059","0.0-17.0-2.0","77917","List1A","black","woman","","","","null","","","","","","","","",""
"18999","","","survey-text","250","1725061","0.0-17.0-3.0","77917","List1A","black","woman","","","","","{""Q0"":""dave is being shouted at by jane""}","<img src=""stim_listA/shout4.gif""style=""height:400px;""></stim_listA>","is being shouted at by","","","","","",""
"null","<div style=""font-size:60px;"">+</div>","","html-keyboard-response","251","1725574","0.0-17.0-0.1","77917","List1A","black","woman","","","","null","","","","","","","","",""
"null","<img src=""stim_listA/hug4.gif""style=""height:400px;""></stim_listA>","","html-keyboard-response","252","1727585","0.0-17.0-1.1","77917","List1A","black","woman","","","","null","","","","","","","","",""
"null","is being hugged by","","html-keyboard-response","253","1729597","0.0-17.0-2.1","77917","List1A","black","woman","","","","null","","","","","","","","",""
"5522","","","survey-text","254","1735122","0.0-17.0-3.1","77917","List1A","black","woman","","","","","{""Q0"":""dave is being hugged by jane""}","<img src=""stim_listA/hug4.gif""style=""height:400px;""></stim_listA>","is being hugged by","","","","","",""
"null","<div style=""font-size:60px;"">+</div>","","html-keyboard-response","255","1735638","0.0-17.0-0.2","77917","List1A","black","woman","","","","null","","","","","","","","",""
"null","<img src=""stim_listA/touch2.gif""style=""height:400px;""></stim_listA>","","html-keyboard-response","256","1737655","0.0-17.0-1.2","77917","List1A","black","woman","","","","null","","","","","","","","",""
"null","is being touched by","","html-keyboard-response","257","1739658","0.0-17.0-2.2","77917","List1A","black","woman","","","","null","","","","","","","","",""
"16827.5","","","survey-text","258","1756489","0.0-17.0-3.2","77917","List1A","black","woman","","","","","{""Q0"":""fred is being touched by beth""}","<img src=""stim_listA/touch2.gif""style=""height:400px;""></stim_listA>","is being touched by","","","","","",""
"null","<div style=""font-size:60px;"">+</div>","","html-keyboard-response","259","1756993","0.0-17.0-0.3","77917","List1A","black","woman","","","","null","","","","","","","","",""
"null","<img src=""stim_listA/greet6.gif""style=""height:400px;""></stim_listA>","","html-keyboard-response","260","1758998","0.0-17.0-1.3","77917","List1A","black","woman","","","","null","","","","","","","","",""
"null","is being greeted by","","html-keyboard-response","261","1761007","0.0-17.0-2.3","77917","List1A","black","woman","","","","null","","","","","","","","",""
"10337.100000023842","","","survey-text","262","1771348","0.0-17.0-3.3","77917","List1A","black","woman","","","","","{""Q0"":""fred is being greeted by dave""}","<img src=""stim_listA/greet6.gif""style=""height:400px;""></stim_listA>","is being greeted by","","","","","",""
"null","<div style=""font-size:60px;"">+</div>","","html-keyboard-response","263","1771859","0.0-17.0-0.4","77917","List1A","black","woman","","","","null","","","","","","","","",""
"null","<img src=""stim_listA/seduce6.gif""style=""height:400px;""></stim_listA>","","html-keyboard-response","264","1773864","0.0-17.0-1.4","77917","List1A","black","woman","","","","null","","","","","","","","",""
"null","is being seduced by","","html-keyboard-response","265","1775878","0.0-17.0-2.4","77917","List1A","black","woman","","","","null","","","","","","","","",""
"5610.800000071526","","","survey-text","266","1781493","0.0-17.0-3.4","77917","List1A","black","woman","","","","","{""Q0"":""luke is being seduced by mike""}","<img src=""stim_listA/seduce6.gif""style=""height:400px;""></stim_listA>","is being seduced by","","","","","",""
"null","<div style=""font-size:60px;"">+</div>","","html-keyboard-response","267","1782008","0.0-17.0-0.5","77917","List1A","black","woman","","","","null","","","","","","","","",""
"null","<img src=""stim_listA/shout3.gif""style=""height:400px;""></stim_listA>","","html-keyboard-response","268","1784024","0.0-17.0-1.5","77917","List1A","black","woman","","","","null","","","","","","","","",""
"null","is shouting at","","html-keyboard-response","269","1786037","0.0-17.0-2.5","77917","List1A","black","woman","","","","null","","","","","","","","",""
"10689.399999976158","","","survey-text","270","1796729","0.0-17.0-3.5","77917","List1A","black","woman","","","","","{""Q0"":""luke is shouting at ruth""}","<img src=""stim_listA/shout3.gif""style=""height:400px;""></stim_listA>","is shouting at","","","","","",""
"null","<div style=""font-size:60px;"">+</div>","","html-keyboard-response","271","1797245","0.0-17.0-0.6","77917","List1A","black","woman","","","","null","","","","","","","","",""
"null","<img src=""stim_listA/touch6.gif""style=""height:400px;""></stim_listA>","","html-keyboard-response","272","1799256","0.0-17.0-1.6","77917","List1A","black","woman","","","","null","","","","","","","","",""
"null","is being touched by","","html-keyboard-response","273","1801271","0.0-17.0-2.6","77917","List1A","black","woman","","","","null","","","","","","","","",""
"8993.100000023842","","","survey-text","274","1810268","0.0-17.0-3.6","77917","List1A","black","woman","","","","","{""Q0"":""luke is being touched by fred""}","<img src=""stim_listA/touch6.gif""style=""height:400px;""></stim_listA>","is being touched by","","","","","",""
"null","<div style=""font-size:60px;"">+</div>","","html-keyboard-response","275","1810779","0.0-17.0-0.7","77917","List1A","black","woman","","","","null","","","","","","","","",""
"null","<img src=""stim_listA/greet8.gif""style=""height:400px;""></stim_listA>","","html-keyboard-response","276","1812793","0.0-17.0-1.7","77917","List1A","black","woman","","","","null","","","","","","","","",""
"null","is being greeted by","","html-keyboard-response","277","1814802","0.0-17.0-2.7","77917","List1A","black","woman","","","","null","","","","","","","","",""
"9762.399999976158","","","survey-text","278","1824566","0.0-17.0-3.7","77917","List1A","black","woman","","","","","{""Q0"":""jane is being greeted by beth""}","<img src=""stim_listA/greet8.gif""style=""height:400px;""></stim_listA>","is being greeted by","","","","","",""
"null","<div style=""font-size:60px;"">+</div>","","html-keyboard-response","279","1825073","0.0-17.0-0.8","77917","List1A","black","woman","","","","null","","","","","","","","",""
"null","<img src=""stim_listA/look4.gif""style=""height:400px;""></stim_listA>","","html-keyboard-response","280","1827081","0.0-17.0-1.8","77917","List1A","black","woman","","","","null","","","","","","","","",""
"null","is being looked at by","","html-keyboard-response","281","1829090","0.0-17.0-2.8","77917","List1A","black","woman","","","","null","","","","","","","","",""
"17501","","","survey-text","282","1846594","0.0-17.0-3.8","77917","List1A","black","woman","","","","","{""Q0"":""dave is being looked at by jane ""}","<img src=""stim_listA/look4.gif""style=""height:400px;""></stim_listA>","is being looked at by","","","","","",""
"null","<div style=""font-size:60px;"">+</div>","","html-keyboard-response","283","1847108","0.0-17.0-0.9","77917","List1A","black","woman","","","","null","","","","","","","","",""
"null","<img src=""stim_listA/hug8.gif""style=""height:400px;""></stim_listA>","","html-keyboard-response","284","1849110","0.0-17.0-1.9","77917","List1A","black","woman","","","","null","","","","","","","","",""
"null","is being hugged by","","html-keyboard-response","285","1851122","0.0-17.0-2.9","77917","List1A","black","woman","","","","null","","","","","","","","",""
"23332.5","","","survey-text","286","1874458","0.0-17.0-3.9","77917","List1A","black","woman","","","","","{""Q0"":""beth is being hugged by jane""}","<img src=""stim_listA/hug8.gif""style=""height:400px;""></stim_listA>","is being hugged by","","","","","",""
"null","<div style=""font-size:60px;"">+</div>","","html-keyboard-response","287","1874962","0.0-17.0-0.10","77917","List1A","black","woman","","","","null","","","","","","","","",""
"null","<img src=""stim_listA/challenge3.gif""style=""height:400px;""></stim_listA>","","html-keyboard-response","288","1876964","0.0-17.0-1.10","77917","List1A","black","woman","","","","null","","","","","","","","",""
"null","is challenging","","html-keyboard-response","289","1878965","0.0-17.0-2.10","77917","List1A","black","woman","","","","null","","","","","","","","",""
"7095.200000047684","","","survey-text","290","1886062","0.0-17.0-3.10","77917","List1A","black","woman","","","","","{""Q0"":""dave is challenging ruth ""}","<img src=""stim_listA/challenge3.gif""style=""height:400px;""></stim_listA>","is challenging","","","","","",""
"null","<div style=""font-size:60px;"">+</div>","","html-keyboard-response","291","1886574","0.0-17.0-0.11","77917","List1A","black","woman","","","","null","","","","","","","","",""
"null","<img src=""stim_listA/oppose3.gif""style=""height:400px;""></stim_listA>","","html-keyboard-response","292","1888578","0.0-17.0-1.11","77917","List1A","black","woman","","","","null","","","","","","","","",""
"null","is opposing","","html-keyboard-response","293","1890583","0.0-17.0-2.11","77917","List1A","black","woman","","","","null","","","","","","","","",""
"5956.100000023842","","","survey-text","294","1896542","0.0-17.0-3.11","77917","List1A","black","woman","","","","","{""Q0"":""dave is opposing jane""}","<img src=""stim_listA/oppose3.gif""style=""height:400px;""></stim_listA>","is opposing","","","","","",""
"null","<div style=""font-size:60px;"">+</div>","","html-keyboard-response","295","1897052","0.0-17.0-0.12","77917","List1A","black","woman","","","","null","","","","","","","","",""
"null","<img src=""stim_listA/touch1.gif""style=""height:400px;""></stim_listA>","","html-keyboard-response","296","1899056","0.0-17.0-1.12","77917","List1A","black","woman","","","","null","","","","","","","","",""
"null","is touching","","html-keyboard-response","297","1901059","0.0-17.0-2.12","77917","List1A","black","woman","","","","null","","","","","","","","",""
"6322.299999952316","","","survey-text","298","1907385","0.0-17.0-3.12","77917","List1A","black","woman","","","","","{""Q0"":""mike is touching kate""}","<img src=""stim_listA/touch1.gif""style=""height:400px;""></stim_listA>","is touching","","","","","",""
"null","<div style=""font-size:60px;"">+</div>","","html-keyboard-response","299","1907898","0.0-17.0-0.13","77917","List1A","black","woman","","","","null","","","","","","","","",""
"null","<img src=""stim_listA/kiss1.gif""style=""height:400px;""></stim_listA>","","html-keyboard-response","300","1909901","0.0-17.0-1.13","77917","List1A","black","woman","","","","null","","","","","","","","",""
"null","is kissing","","html-keyboard-response","301","1911911","0.0-17.0-2.13","77917","List1A","black","woman","","","","null","","","","","","","","",""
"4352.599999904633","","","survey-text","302","1916266","0.0-17.0-3.13","77917","List1A","black","woman","","","","","{""Q0"":""fred is kissing beth""}","<img src=""stim_listA/kiss1.gif""style=""height:400px;""></stim_listA>","is kissing","","","","","",""
"null","<div style=""font-size:60px;"">+</div>","","html-keyboard-response","303","1916781","0.0-17.0-0.14","77917","List1A","black","woman","","","","null","","","","","","","","",""
"null","<img src=""stim_listA/hug1.gif""style=""height:400px;""></stim_listA>","","html-keyboard-response","304","1918785","0.0-17.0-1.14","77917","List1A","black","woman","","","","null","","","","","","","","",""
"null","is hugging","","html-keyboard-response","305","1920800","0.0-17.0-2.14","77917","List1A","black","woman","","","","null","","","","","","","","",""
"8721.600000023842","","","survey-text","306","1929525","0.0-17.0-3.14","77917","List1A","black","woman","","","","","{""Q0"":""fred is hugging beth ""}","<img src=""stim_listA/hug1.gif""style=""height:400px;""></stim_listA>","is hugging","","","","","",""
"null","<div style=""font-size:60px;"">+</div>","","html-keyboard-response","307","1930041","0.0-17.0-0.15","77917","List1A","black","woman","","","","null","","","","","","","","",""
"null","<img src=""stim_listA/look7.gif""style=""height:400px;""></stim_listA>","","html-keyboard-response","308","1932056","0.0-17.0-1.15","77917","List1A","black","woman","","","","null","","","","","","","","",""
"null","is looking at","","html-keyboard-response","309","1934067","0.0-17.0-2.15","77917","List1A","black","woman","","","","null","","","","","","","","",""
"5873","","","survey-text","310","1939943","0.0-17.0-3.15","77917","List1A","black","woman","","","","","{""Q0"":""beth is looking at ruth""}","<img src=""stim_listA/look7.gif""style=""height:400px;""></stim_listA>","is looking at","","","","","",""
"null","<div style=""font-size:60px;"">+</div>","","html-keyboard-response","311","1940458","0.0-17.0-0.16","77917","List1A","black","woman","","","","null","","","","","","","","",""
"null","<img src=""stim_listA/hug3.gif""style=""height:400px;""></stim_listA>","","html-keyboard-response","312","1942464","0.0-17.0-1.16","77917","List1A","black","woman","","","","null","","","","","","","","",""
"null","is hugging","","html-keyboard-response","313","1944472","0.0-17.0-2.16","77917","List1A","black","woman","","","","null","","","","","","","","",""
"6141.5","","","survey-text","314","1950616","0.0-17.0-3.16","77917","List1A","black","woman","","","","","{""Q0"":""ruth is hugging luke""}","<img src=""stim_listA/hug3.gif""style=""height:400px;""></stim_listA>","is hugging","","","","","",""
"null","<div style=""font-size:60px;"">+</div>","","html-keyboard-response","315","1951129","0.0-17.0-0.17","77917","List1A","black","woman","","","","null","","","","","","","","",""
"null","<img src=""stim_listA/challenge1.gif""style=""height:400px;""></stim_listA>","","html-keyboard-response","316","1953136","0.0-17.0-1.17","77917","List1A","black","woman","","","","null","","","","","","","","",""
"null","is challenging","","html-keyboard-response","317","1955139","0.0-17.0-2.17","77917","List1A","black","woman","","","","null","","","","","","","","",""
"7214.199999928474","","","survey-text","318","1962356","0.0-17.0-3.17","77917","List1A","black","woman","","","","","{""Q0"":""beth is challenging mike""}","<img src=""stim_listA/challenge1.gif""style=""height:400px;""></stim_listA>","is challenging","","","","","",""
"null","<div style=""font-size:60px;"">+</div>","","html-keyboard-response","319","1962870","0.0-17.0-0.18","77917","List1A","black","woman","","","","null","","","","","","","","",""
"null","<img src=""stim_listA/look2.gif""style=""height:400px;""></stim_listA>","","html-keyboard-response","320","1964873","0.0-17.0-1.18","77917","List1A","black","woman","","","","null","","","","","","","","",""
"null","is being looked at by","","html-keyboard-response","321","1966877","0.0-17.0-2.18","77917","List1A","black","woman","","","","null","","","","","","","","",""
"12515.5","","","survey-text","322","1979394","0.0-17.0-3.18","77917","List1A","black","woman","","","","","{""Q0"":""mike is being looked at by kate""}","<img src=""stim_listA/look2.gif""style=""height:400px;""></stim_listA>","is being looked at by","","","","","",""
"null","<div style=""font-size:60px;"">+</div>","","html-keyboard-response","323","1979910","0.0-17.0-0.19","77917","List1A","black","woman","","","","null","","","","","","","","",""
"null","<img src=""stim_listA/seduce5.gif""style=""height:400px;""></stim_listA>","","html-keyboard-response","324","1981924","0.0-17.0-1.19","77917","List1A","black","woman","","","","null","","","","","","","","",""
"null","is seducing","","html-keyboard-response","325","1983935","0.0-17.0-2.19","77917","List1A","black","woman","","","","null","","","","","","","","",""
"5792.200000047684","","","survey-text","326","1989731","0.0-17.0-3.19","77917","List1A","black","woman","","","","","{""Q0"":""dave is seducing fred""}","<img src=""stim_listA/seduce5.gif""style=""height:400px;""></stim_listA>","is seducing","","","","","",""
"10380.100000023842","<img src='img/portrait_matrix_list1.jpg' style='width:900px;height:500px;''></img><p>If you have memorised all the portraits and names and are ready to start, press Continue.</p><p><strong>Please note: Your memory of these faces will be tested 4 times during this experiment.</strong></p>","0","html-button-response","327","2000113","0.0-18.0-0.0","77917","List1A","black","woman","","","","","","","","","","","","",""
"3403.600000023842","<img src=""portrait/WW1.jpg""style=""height:400px;""></img>","1","html-button-response","328","2004522","0.0-18.0-1.0","77917","List1A","black","woman","","true","1","","","","","","","","","",""
"null","CORRECT","","html-keyboard-response","329","2006049","0.0-18.0-2.0-0.0","77917","List1A","black","woman","","","","null","","","","","","","","",""
"3108.2000000476837","<img src=""portrait/BM2.jpg""style=""height:400px;""></img>","5","html-button-response","330","2009161","0.0-18.0-4.0","77917","List1A","black","woman","","true","5","","","","","","","","","",""
"null","CORRECT","","html-keyboard-response","331","2010666","0.0-18.0-5.0-0.0","77917","List1A","black","woman","","","","null","","","","","","","","",""
"5013.899999976158","<img src=""portrait/WM2.jpg""style=""height:400px;""></img>","7","html-button-response","332","2015683","0.0-18.0-7.0","77917","List1A","black","woman","","true","7","","","","","","","","","",""
"null","CORRECT","","html-keyboard-response","333","2017190","0.0-18.0-8.0-0.0","77917","List1A","black","woman","","","","null","","","","","","","","",""
"3998.100000023842","<img src=""portrait/BW1.jpg""style=""height:400px;""></img>","0","html-button-response","334","2021190","0.0-18.0-10.0","77917","List1A","black","woman","","true","0","","","","","","","","","",""
"null","CORRECT","","html-keyboard-response","335","2022700","0.0-18.0-11.0-0.0","77917","List1A","black","woman","","","","null","","","","","","","","",""
"2389.399999976158","<img src=""portrait/WM1.jpg""style=""height:400px;""></img>","6","html-button-response","336","2025092","0.0-18.0-13.0","77917","List1A","black","woman","","true","6","","","","","","","","","",""
"null","CORRECT","","html-keyboard-response","337","2026611","0.0-18.0-14.0-0.0","77917","List1A","black","woman","","","","null","","","","","","","","",""
"2436.5","<img src=""portrait/BM1.jpg""style=""height:400px;""></img>","4","html-button-response","338","2029050","0.0-18.0-16.0","77917","List1A","black","woman","","true","4","","","","","","","","","",""
"null","CORRECT","","html-keyboard-response","339","2030556","0.0-18.0-17.0-0.0","77917","List1A","black","woman","","","","null","","","","","","","","",""
"3230.5999999046326","<img src=""portrait/BW2.jpg""style=""height:400px;""></img>","2","html-button-response","340","2033790","0.0-18.0-19.0","77917","List1A","black","woman","","true","2","","","","","","","","","",""
"null","CORRECT","","html-keyboard-response","341","2035307","0.0-18.0-20.0-0.0","77917","List1A","black","woman","","","","null","","","","","","","","",""
"1589.1999999284744","<img src=""portrait/WW2.jpg""style=""height:400px;""></img>","3","html-button-response","342","2036898","0.0-18.0-22.0","77917","List1A","black","woman","","true","3","","","","","","","","","",""
"null","CORRECT","","html-keyboard-response","343","2038418","0.0-18.0-23.0-0.0","77917","List1A","black","woman","","","","null","","","","","","","","",""
"1724.8000000715256","<p>You got 8 out of 8 right first time. Press Continue.</p>","0","html-button-response","344","2040144","0.0-18.0-25.0","77917","List1A","black","woman","","","","","","","","","","","","",""
"null","<div style=""font-size:60px;"">+</div>","","html-keyboard-response","345","2041651","0.0-19.0-0.0","77917","List1A","black","woman","","","","null","","","","","","","","",""
"null","<img src=""stim_listA/touch3.gif""style=""height:400px;""></stim_listA>","","html-keyboard-response","346","2043664","0.0-19.0-1.0","77917","List1A","black","woman","","","","null","","","","","","","","",""
"null","is touching","","html-keyboard-response","347","2045680","0.0-19.0-2.0","77917","List1A","black","woman","","","","null","","","","","","","","",""
"6963.700000047684","","","survey-text","348","2052646","0.0-19.0-3.0","77917","List1A","black","woman","","","","","{""Q0"":""dave is touching jane""}","<img src=""stim_listA/touch3.gif""style=""height:400px;""></stim_listA>","is touching","","","","","",""
"null","<div style=""font-size:60px;"">+</div>","","html-keyboard-response","349","2053149","0.0-19.0-0.1","77917","List1A","black","woman","","","","null","","","","","","","","",""
"null","<img src=""stim_listA/challenge6.gif""style=""height:400px;""></stim_listA>","","html-keyboard-response","350","2055167","0.0-19.0-1.1","77917","List1A","black","woman","","","","null","","","","","","","","",""
"null","is being challenged by","","html-keyboard-response","351","2057182","0.0-19.0-2.1","77917","List1A","black","woman","","","","null","","","","","","","","",""
"8475.100000023842","","","survey-text","352","2065661","0.0-19.0-3.1","77917","List1A","black","woman","","","","","{""Q0"":""dave is being challenged by fred""}","<img src=""stim_listA/challenge6.gif""style=""height:400px;""></stim_listA>","is being challenged by","","","","","",""
"null","<div style=""font-size:60px;"">+</div>","","html-keyboard-response","353","2066175","0.0-19.0-0.2","77917","List1A","black","woman","","","","null","","","","","","","","",""
"null","<img src=""stim_listA/shout7.gif""style=""height:400px;""></stim_listA>","","html-keyboard-response","354","2068177","0.0-19.0-1.2","77917","List1A","black","woman","","","","null","","","","","","","","",""
"null","is shouting at","","html-keyboard-response","355","2070191","0.0-19.0-2.2","77917","List1A","black","woman","","","","null","","","","","","","","",""
"5480.300000071526","","","survey-text","356","2075675","0.0-19.0-3.2","77917","List1A","black","woman","","","","","{""Q0"":""beth is shouting at ruth""}","<img src=""stim_listA/shout7.gif""style=""height:400px;""></stim_listA>","is shouting at","","","","","",""
"null","<div style=""font-size:60px;"">+</div>","","html-keyboard-response","357","2076190","0.0-19.0-0.3","77917","List1A","black","woman","","","","null","","","","","","","","",""
"null","<img src=""stim_listA/oppose6.gif""style=""height:400px;""></stim_listA>","","html-keyboard-response","358","2078191","0.0-19.0-1.3","77917","List1A","black","woman","","","","null","","","","","","","","",""
"null","is being opposed by","","html-keyboard-response","359","2080204","0.0-19.0-2.3","77917","List1A","black","woman","","","","null","","","","","","","","",""
"8481.899999976158","","","survey-text","360","2088689","0.0-19.0-3.3","77917","List1A","black","woman","","","","","{""Q0"":""fred is being opposed by luke""}","<img src=""stim_listA/oppose6.gif""style=""height:400px;""></stim_listA>","is being opposed by","","","","","",""
"null","<div style=""font-size:60px;"">+</div>","","html-keyboard-response","361","2089197","0.0-19.0-0.4","77917","List1A","black","woman","","","","null","","","","","","","","",""
"null","<img src=""stim_listA/look5.gif""style=""height:400px;""></stim_listA>","","html-keyboard-response","362","2091206","0.0-19.0-1.4","77917","List1A","black","woman","","","","null","","","","","","","","",""
"null","is looking at","","html-keyboard-response","363","2093222","0.0-19.0-2.4","77917","List1A","black","woman","","","","null","","","","","","","","",""
"7856.799999952316","","","survey-text","364","2101082","0.0-19.0-3.4","77917","List1A","black","woman","","","","","{""Q0"":""luke is looking at fred""}","<img src=""stim_listA/look5.gif""style=""height:400px;""></stim_listA>","is looking at","","","","","",""
"null","<div style=""font-size:60px;"">+</div>","","html-keyboard-response","365","2101583","0.0-19.0-0.5","77917","List1A","black","woman","","","","null","","","","","","","","",""
"null","<img src=""stim_listA/seduce2.gif""style=""height:400px;""></stim_listA>","","html-keyboard-response","366","2103598","0.0-19.0-1.5","77917","List1A","black","woman","","","","null","","","","","","","","",""
"null","is being seduced by","","html-keyboard-response","367","2105610","0.0-19.0-2.5","77917","List1A","black","woman","","","","null","","","","","","","","",""
"6509.200000047684","","","survey-text","368","2112121","0.0-19.0-3.5","77917","List1A","black","woman","","","","","{""Q0"":""mike is being seduced by beth""}","<img src=""stim_listA/seduce2.gif""style=""height:400px;""></stim_listA>","is being seduced by","","","","","",""
"null","<div style=""font-size:60px;"">+</div>","","html-keyboard-response","369","2112632","0.0-19.0-0.6","77917","List1A","black","woman","","","","null","","","","","","","","",""
"null","<img src=""stim_listA/kiss8.gif""style=""height:400px;""></stim_listA>","","html-keyboard-response","370","2114647","0.0-19.0-1.6","77917","List1A","black","woman","","","","null","","","","","","","","",""
"null","is being kissed by","","html-keyboard-response","371","2116654","0.0-19.0-2.6","77917","List1A","black","woman","","","","null","","","","","","","","",""
"10755.200000047684","","","survey-text","372","2127410","0.0-19.0-3.6","77917","List1A","black","woman","","","","","{""Q0"":""jane is being kissed by kate""}","<img src=""stim_listA/kiss8.gif""style=""height:400px;""></stim_listA>","is being kissed by","","","","","",""
"null","<div style=""font-size:60px;"">+</div>","","html-keyboard-response","373","2127916","0.0-19.0-0.7","77917","List1A","black","woman","","","","null","","","","","","","","",""
"null","<img src=""stim_listA/oppose8.gif""style=""height:400px;""></stim_listA>","","html-keyboard-response","374","2129929","0.0-19.0-1.7","77917","List1A","black","woman","","","","null","","","","","","","","",""
"null","is being opposed by","","html-keyboard-response","375","2131937","0.0-19.0-2.7","77917","List1A","black","woman","","","","null","","","","","","","","",""
"8107.800000071526","","","survey-text","376","2140046","0.0-19.0-3.7","77917","List1A","black","woman","","","","","{""Q0"":""ruth is being opposed by beth""}","<img src=""stim_listA/oppose8.gif""style=""height:400px;""></stim_listA>","is being opposed by","","","","","",""
"null","<div style=""font-size:60px;"">+</div>","","html-keyboard-response","377","2140551","0.0-19.0-0.8","77917","List1A","black","woman","","","","null","","","","","","","","",""
"null","<img src=""stim_listA/hug2.gif""style=""height:400px;""></stim_listA>","","html-keyboard-response","378","2142553","0.0-19.0-1.8","77917","List1A","black","woman","","","","null","","","","","","","","",""
"null","is being hugged by","","html-keyboard-response","379","2144566","0.0-19.0-2.8","77917","List1A","black","woman","","","","null","","","","","","","","",""
"10938.200000047684","","","survey-text","380","2155506","0.0-19.0-3.8","77917","List1A","black","woman","","","","","{""Q0"":""mike is being hugged by kate""}","<img src=""stim_listA/hug2.gif""style=""height:400px;""></stim_listA>","is being hugged by","","","","","",""
"null","<div style=""font-size:60px;"">+</div>","","html-keyboard-response","381","2156022","0.0-19.0-0.9","77917","List1A","black","woman","","","","null","","","","","","","","",""
"null","<img src=""stim_listA/greet7.gif""style=""height:400px;""></stim_listA>","","html-keyboard-response","382","2158028","0.0-19.0-1.9","77917","List1A","black","woman","","","","null","","","","","","","","",""
"null","is greeting","","html-keyboard-response","383","2160030","0.0-19.0-2.9","77917","List1A","black","woman","","","","null","","","","","","","","",""
"7719.5","","","survey-text","384","2167754","0.0-19.0-3.9","77917","List1A","black","woman","","","","","{""Q0"":""kate is greeting ruth""}","<img src=""stim_listA/greet7.gif""style=""height:400px;""></stim_listA>","is greeting","","","","","",""
"null","<div style=""font-size:60px;"">+</div>","","html-keyboard-response","385","2168264","0.0-19.0-0.10","77917","List1A","black","woman","","","","null","","","","","","","","",""
"null","<img src=""stim_listA/copy7.gif""style=""height:400px;""></stim_listA>","","html-keyboard-response","386","2170272","0.0-19.0-1.10","77917","List1A","black","woman","","","","null","","","","","","","","",""
"null","is copying","","html-keyboard-response","387","2172277","0.0-19.0-2.10","77917","List1A","black","woman","","","","null","","","","","","","","",""
"9325.100000023842","","","survey-text","388","2181605","0.0-19.0-3.10","77917","List1A","black","woman","","","","","{""Q0"":""ruth is copying kate""}","<img src=""stim_listA/copy7.gif""style=""height:400px;""></stim_listA>","is copying","","","","","",""
"null","<div style=""font-size:60px;"">+</div>","","html-keyboard-response","389","2182109","0.0-19.0-0.11","77917","List1A","black","woman","","","","null","","","","","","","","",""
"null","<img src=""stim_listA/look8.gif""style=""height:400px;""></stim_listA>","","html-keyboard-response","390","2184119","0.0-19.0-1.11","77917","List1A","black","woman","","","","null","","","","","","","","",""
"null","is being looked at by","","html-keyboard-response","391","2186123","0.0-19.0-2.11","77917","List1A","black","woman","","","","null","","","","","","","","",""
"10056.200000047684","","","survey-text","392","2196183","0.0-19.0-3.11","77917","List1A","black","woman","","","","","{""Q0"":""kate is being looked at by jane""}","<img src=""stim_listA/look8.gif""style=""height:400px;""></stim_listA>","is being looked at by","","","","","",""
"null","<div style=""font-size:60px;"">+</div>","","html-keyboard-response","393","2196694","0.0-19.0-0.12","77917","List1A","black","woman","","","","null","","","","","","","","",""
"null","<img src=""stim_listA/look3.gif""style=""height:400px;""></stim_listA>","","html-keyboard-response","394","2198699","0.0-19.0-1.12","77917","List1A","black","woman","","","","null","","","","","","","","",""
"null","is looking at","","html-keyboard-response","395","2200708","0.0-19.0-2.12","77917","List1A","black","woman","","","","null","","","","","","","","",""
"8037.399999976158","","","survey-text","396","2208747","0.0-19.0-3.12","77917","List1A","black","woman","","","","","{""Q0"":""ruth is looking at luke ""}","<img src=""stim_listA/look3.gif""style=""height:400px;""></stim_listA>","is looking at","","","","","",""
"null","<div style=""font-size:60px;"">+</div>","","html-keyboard-response","397","2209258","0.0-19.0-0.13","77917","List1A","black","woman","","","","null","","","","","","","","",""
"null","<img src=""stim_listA/kiss2.gif""style=""height:400px;""></stim_listA>","","html-keyboard-response","398","2211261","0.0-19.0-1.13","77917","List1A","black","woman","","","","null","","","","","","","","",""
"null","is being kissed by","","html-keyboard-response","399","2213274","0.0-19.0-2.13","77917","List1A","black","woman","","","","null","","","","","","","","",""
"20420.699999928474","","","survey-text","400","2233698","0.0-19.0-3.13","77917","List1A","black","woman","","","","","{""Q0"":""luke is being kissed by ruth ""}","<img src=""stim_listA/kiss2.gif""style=""height:400px;""></stim_listA>","is being kissed by","","","","","",""
"null","<div style=""font-size:60px;"">+</div>","","html-keyboard-response","401","2234205","0.0-19.0-0.14","77917","List1A","black","woman","","","","null","","","","","","","","",""
"null","<img src=""stim_listA/look6.gif""style=""height:400px;""></stim_listA>","","html-keyboard-response","402","2236219","0.0-19.0-1.14","77917","List1A","black","woman","","","","null","","","","","","","","",""
"null","is being looked at by","","html-keyboard-response","403","2238233","0.0-19.0-2.14","77917","List1A","black","woman","","","","null","","","","","","","","",""
"12793.599999904633","","","survey-text","404","2251029","0.0-19.0-3.14","77917","List1A","black","woman","","","","","{""Q0"":""dave is being looked at by mike""}","<img src=""stim_listA/look6.gif""style=""height:400px;""></stim_listA>","is being looked at by","","","","","",""
"null","<div style=""font-size:60px;"">+</div>","","html-keyboard-response","405","2251536","0.0-19.0-0.15","77917","List1A","black","woman","","","","null","","","","","","","","",""
"null","<img src=""stim_listA/oppose7.gif""style=""height:400px;""></stim_listA>","","html-keyboard-response","406","2253552","0.0-19.0-1.15","77917","List1A","black","woman","","","","null","","","","","","","","",""
"null","is opposing","","html-keyboard-response","407","2255567","0.0-19.0-2.15","77917","List1A","black","woman","","","","null","","","","","","","","",""
"7285.600000023842","","","survey-text","408","2262855","0.0-19.0-3.15","77917","List1A","black","woman","","","","","{""Q0"":""jane is opposing kate ""}","<img src=""stim_listA/oppose7.gif""style=""height:400px;""></stim_listA>","is opposing","","","","","",""
"null","<div style=""font-size:60px;"">+</div>","","html-keyboard-response","409","2263370","0.0-19.0-0.16","77917","List1A","black","woman","","","","null","","","","","","","","",""
"null","<img src=""stim_listA/seduce8.gif""style=""height:400px;""></stim_listA>","","html-keyboard-response","410","2265373","0.0-19.0-1.16","77917","List1A","black","woman","","","","null","","","","","","","","",""
"null","is being seduced by","","html-keyboard-response","411","2267385","0.0-19.0-2.16","77917","List1A","black","woman","","","","null","","","","","","","","",""
"6889.5","","","survey-text","412","2274278","0.0-19.0-3.16","77917","List1A","black","woman","","","","","{""Q0"":""ruth is being seduced kate""}","<img src=""stim_listA/seduce8.gif""style=""height:400px;""></stim_listA>","is being seduced by","","","","","",""
"null","<div style=""font-size:60px;"">+</div>","","html-keyboard-response","413","2274780","0.0-19.0-0.17","77917","List1A","black","woman","","","","null","","","","","","","","",""
"null","<img src=""stim_listA/greet3.gif""style=""height:400px;""></stim_listA>","","html-keyboard-response","414","2276792","0.0-19.0-1.17","77917","List1A","black","woman","","","","null","","","","","","","","",""
"null","is greeting","","html-keyboard-response","415","2278796","0.0-19.0-2.17","77917","List1A","black","woman","","","","null","","","","","","","","",""
"3997.2999999523163","","","survey-text","416","2282795","0.0-19.0-3.17","77917","List1A","black","woman","","","","","{""Q0"":""ruth is greeting dave""}","<img src=""stim_listA/greet3.gif""style=""height:400px;""></stim_listA>","is greeting","","","","","",""
"null","<div style=""font-size:60px;"">+</div>","","html-keyboard-response","417","2283305","0.0-19.0-0.18","77917","List1A","black","woman","","","","null","","","","","","","","",""
"null","<img src=""stim_listA/kiss5.gif""style=""height:400px;""></stim_listA>","","html-keyboard-response","418","2285307","0.0-19.0-1.18","77917","List1A","black","woman","","","","null","","","","","","","","",""
"null","is kissing","","html-keyboard-response","419","2287315","0.0-19.0-2.18","77917","List1A","black","woman","","","","null","","","","","","","","",""
"4699.700000047684","","","survey-text","420","2292017","0.0-19.0-3.18","77917","List1A","black","woman","","","","","{""Q0"":""fred is kissing luke""}","<img src=""stim_listA/kiss5.gif""style=""height:400px;""></stim_listA>","is kissing","","","","","",""
"null","<div style=""font-size:60px;"">+</div>","","html-keyboard-response","421","2292530","0.0-19.0-0.19","77917","List1A","black","woman","","","","null","","","","","","","","",""
"null","<img src=""stim_listA/oppose4.gif""style=""height:400px;""></stim_listA>","","html-keyboard-response","422","2294544","0.0-19.0-1.19","77917","List1A","black","woman","","","","null","","","","","","","","",""
"null","is being opposed by","","html-keyboard-response","423","2296553","0.0-19.0-2.19","77917","List1A","black","woman","","","","null","","","","","","","","",""
"12480.5","","","survey-text","424","2309036","0.0-19.0-3.19","77917","List1A","black","woman","","","","","{""Q0"":""luke is being opposed by ruth""}","<img src=""stim_listA/oppose4.gif""style=""height:400px;""></stim_listA>","is being opposed by","","","","","",""
"5227.899999976158","<p>Thank you for completing that task.</p><p>The final part of this session is a questionnaire that will take about 4 minutes.</p><p>Press Continue.</p>","0","html-button-response","425","2314266","0.0-20.0","77917","List1A","black","woman","","","","","","","","","","","","",""
"35407.199999928474","","","survey-text","426","2350693","0.0-21.0","77917","List1A","black","woman","","","","","{""Q0"":""28"",""Q1"":""english "",""Q2"":""english "",""Q3"":""united states"",""Q4"":""African "",""Q5"":""African American "",""Q6"":""female ""}","","","demographics","","","","",""
"5333","<p>Have you lived in the USA for the last 5 years or more?</p>","0","html-button-response","427","2356027","0.0-22.0","77917","List1A","black","woman","","","","","","","","fiveyears","","","","",""
"4093.399999976158","<p>Move the slider to show the extent to which you agree with the following statements.</p>","0","html-button-response","428","2361129","0.0-23.0","77917","List1A","black","woman","","","","","","","","","","","","",""
"7859.100000023842","","","html-slider-response","429","2370003","0.0-24.0-0.0-0.0","77917","List1A","black","woman","","","","","","","","survey_race","100","","","The fact that I am my race is an important part of my identity.","identity"
"6766.399999976158","","","html-slider-response","430","2376773","0.0-24.0-0.0-0.1","77917","List1A","black","woman","","","","","","","","survey_race","28","","","I feel a bond with people the same age as me.","filler"
"10995.399999976158","","","html-slider-response","431","2387772","0.0-24.0-0.0-0.2","77917","List1A","black","woman","","","","","","","","survey_race","100","","","I have a lot in common with the average person of my race.","average"
"4471.599999904633","","","html-slider-response","432","2392248","0.0-24.0-0.0-0.3","77917","List1A","black","woman","","","","","","","","survey_race","41","","","I am glad to be my age.","filler"
"4618.5","","","html-slider-response","433","2396870","0.0-24.0-0.0-0.4","77917","List1A","black","woman","","","","","","","","survey_race","100","","","Being my race is an important part of how I see myself.","important"
"4522.300000071526","","","html-slider-response","434","2401396","0.0-24.0-0.0-0.5","77917","List1A","black","woman","","","","","","","","survey_race","83","","","I enjoy being in large groups.","filler"
"5330.099999904633","","","html-slider-response","435","2406728","0.0-24.0-0.0-0.6","77917","List1A","black","woman","","","","","","","","survey_race","93","","","I am similar to the average person of my race.","similar"
"3262.2999999523163","","","html-slider-response","436","2409993","0.0-24.0-0.0-0.7","77917","List1A","black","woman","","","","","","","","survey_race","100","","","I feel solidarity with my race.","solidarity"
"4691.800000071526","","","html-slider-response","437","2414687","0.0-24.0-0.0-0.8","77917","List1A","black","woman","","","","","","","","survey_race","23","","","I feel solidarity with people the same age as me.","filler"
"6262.800000071526","","","html-slider-response","438","2420953","0.0-24.0-0.0-0.9","77917","List1A","black","woman","","","","","","","","survey_race","76","","","I often think about the fact that I am my race.","often"
"3742.5","","","html-slider-response","439","2424697","0.0-24.0-0.0-0.10","77917","List1A","black","woman","","","","","","","","survey_race","83","","","The older I get, the wiser I feel.","filler"
"4353.400000095367","","","html-slider-response","440","2429054","0.0-24.0-0.0-0.11","77917","List1A","black","woman","","","","","","","","survey_race","100","","","I think that my race has a lot to be proud of.","proud"
"5558.599999904633","","","html-slider-response","441","2434616","0.0-24.0-0.0-0.12","77917","List1A","black","woman","","","","","","","","survey_race","78","","","My age is not an important part of who I am.","filler"
"6186.699999928474","","","html-slider-response","442","2440806","0.0-24.0-0.0-0.13","77917","List1A","black","woman","","","","","","","","survey_race","53","","","I am glad to be the age I am.","filler"
"5238.099999904633","","","html-slider-response","443","2446047","0.0-24.0-0.0-0.14","77917","List1A","black","woman","","","","","","","","survey_race","17","","","People my age have a lot in common with each other.","filler"
"4277.899999976158","","","html-slider-response","444","2450329","0.0-24.0-0.0-0.15","77917","List1A","black","woman","","","","","","","","survey_race","93","","","People of my race are very similar to each other.","verysimilar"
"4760.5","","","html-slider-response","445","2455093","0.0-24.0-0.0-0.16","77917","List1A","black","woman","","","","","","","","survey_race","78","","","Getting older does not worry me.","filler"
"4737","","","html-slider-response","446","2459833","0.0-24.0-0.0-0.17","77917","List1A","black","woman","","","","","","","","survey_race","0","","","I consider myself an extrovert.","filler"
"5077.599999904633","","","html-slider-response","447","2464914","0.0-24.0-0.0-0.18","77917","List1A","black","woman","","","","","","","","survey_race","24","","","I often think about the fact that I am my age.","filler"
"3261.899999976158","","","html-slider-response","448","2468179","0.0-24.0-0.0-0.19","77917","List1A","black","woman","","","","","","","","survey_race","100","","","I feel committed to my race.","committed"
"4214.299999952316","","","html-slider-response","449","2472395","0.0-24.0-0.0-0.20","77917","List1A","black","woman","","","","","","","","survey_race","100","","","Being my race gives me a good feeling.","feeling"
"3959.399999976158","","","html-slider-response","450","2476356","0.0-24.0-0.0-0.21","77917","List1A","black","woman","","","","","","","","survey_race","100","","","I feel a bond with my race.","bond"
"5510.299999952316","","","html-slider-response","451","2481869","0.0-24.0-0.0-0.22","77917","List1A","black","woman","","","","","","","","survey_race","35","","","Being my age gives me a good feeling.","filler"
"3344.2000000476837","","","html-slider-response","452","2485214","0.0-24.0-0.0-0.23","77917","List1A","black","woman","","","","","","","","survey_race","100","","","I am glad to be my race.","glad"
"3425.1999999284744","","","html-slider-response","453","2488641","0.0-24.0-0.0-0.24","77917","List1A","black","woman","","","","","","","","survey_race","100","","","It is pleasant to be my race.","pleasant"
"3374.899999976158","","","html-slider-response","454","2492018","0.0-24.0-0.0-0.25","77917","List1A","black","woman","","","","","","","","survey_race","100","","","I consider myself an introvert.","filler"
"3940.5","","","html-slider-response","455","2495962","0.0-24.0-0.0-0.26","77917","List1A","black","woman","","","","","","","","survey_race","19","","","I have a lot in common with people of a similar age to me.","filler"
"4232","","","html-slider-response","456","2500197","0.0-24.0-0.0-0.27","77917","List1A","black","woman","","","","","","","","survey_race","100","","","People of my race have a lot in common with each other.","common"
"4254.400000095367","","","html-slider-response","457","2504455","0.0-24.0-1.0-0.0","77917","List1A","black","woman","","","","","","","","survey_gender","39","","","I consider myself a highly empathetic person.","filler"
"5250.800000071526","","","html-slider-response","458","2509709","0.0-24.0-1.0-0.1","77917","List1A","black","woman","","","","","","","","survey_gender","100","","","I often think about the fact that I am my gender.","often"
"3786.600000023842","","","html-slider-response","459","2513497","0.0-24.0-1.0-0.2","77917","List1A","black","woman","","","","","","","","survey_gender","20","","","Most of the friends in my life are very similar to me.","filler"
"5344.799999952316","","","html-slider-response","460","2518845","0.0-24.0-1.0-0.3","77917","List1A","black","woman","","","","","","","","survey_gender","36","","","People of my gender are very similar to each other.","verysimilar"
"3602.899999976158","","","html-slider-response","461","2522452","0.0-24.0-1.0-0.4","77917","List1A","black","woman","","","","","","","","survey_gender","31","","","I have a lot in common with my friends.","filler"
"4564.599999904633","","","html-slider-response","462","2527019","0.0-24.0-1.0-0.5","77917","List1A","black","woman","","","","","","","","survey_gender","100","","","It is not always easy for people to know what I am thinking.","filler"
"3839.8000000715256","","","html-slider-response","463","2530862","0.0-24.0-1.0-0.6","77917","List1A","black","woman","","","","","","","","survey_gender","40","","","I am glad to be my gender.","glad"
"5647.600000023842","","","html-slider-response","464","2536513","0.0-24.0-1.0-0.7","77917","List1A","black","woman","","","","","","","","survey_gender","45","","","It is pleasant to be my gender.","pleasant"
"6014.799999952316","","","html-slider-response","465","2542529","0.0-24.0-1.0-0.8","77917","List1A","black","woman","","","","","","","","survey_gender","7","","","Routine is not important to me.","filler"
"8338.5","","","html-slider-response","466","2550869","0.0-24.0-1.0-0.9","77917","List1A","black","woman","","","","","","","","survey_gender","57","","","Being my gender is an important part of how I see myself.","important"
"11593","","","html-slider-response","467","2562465","0.0-24.0-1.0-0.10","77917","List1A","black","woman","","","","","","","","survey_gender","67","","","I have a lot in common with the average person of my gender.","average"
"5065.899999976158","","","html-slider-response","468","2567532","0.0-24.0-1.0-0.11","77917","List1A","black","woman","","","","","","","","survey_gender","40","","","My friends have a lot in common with each other.","filler"
"4200.5","","","html-slider-response","469","2571734","0.0-24.0-1.0-0.12","77917","List1A","black","woman","","","","","","","","survey_gender","43","","","I feel a bond with my friends.","filler"
"7463.700000047684","","","html-slider-response","470","2579200","0.0-24.0-1.0-0.13","77917","List1A","black","woman","","","","","","","","survey_gender","48","","","I feel a bond with my gender.","bond"
"5655.399999976158","","","html-slider-response","471","2584859","0.0-24.0-1.0-0.14","77917","List1A","black","woman","","","","","","","","survey_gender","100","","","I feel committed to my gender.","committed"
"5999.799999952316","","","html-slider-response","472","2590862","0.0-24.0-1.0-0.15","77917","List1A","black","woman","","","","","","","","survey_gender","64","","","The fact that I am my gender is an important part of my identity.","identity"
"5626.5","","","html-slider-response","473","2596492","0.0-24.0-1.0-0.16","77917","List1A","black","woman","","","","","","","","survey_gender","19","","","I feel solidarity with my friends.","filler"
"4666","","","html-slider-response","474","2601162","0.0-24.0-1.0-0.17","77917","List1A","black","woman","","","","","","","","survey_gender","76","","","Being around my friends gives me a good feeling.","filler"
