rt,stimulus,button_pressed,trial_type,trial_index,time_elapsed,internal_node_id,subject,list,ppt_race,ppt_gender,url,first_guess,correct,key_press,responses,image_type,phrase_type,test_part,response,stimulus1,stimulus2,question_type,survey_item
1424,Welcome to the experiment. Press Continue to begin.,0,html-button-response,0,1426,0.0-0.0,79529,List1A,white,man,,,,,,,,,,,,,
26658,,,external-html,1,29227,0.0-1.0,79529,List1A,white,man,consent.html,,,,,,,,,,,,
4982,"<p>On the next page, you will see portraits of 8 people and their names.</p><p>Your first task is to take a few minutes to memorise the names of these people.</p><p>You will have to recall their names during the rest of the experiment, so it is</p><p>essential that you try to memorise these people and their names as best as you can.</p><br><p><strong>You will then be tested on your memory of these names and portraits.</strong></p><br><p>The experiment will start after you have completed this memory test.</p><br><p>Ready?</p>",0,html-button-response,2,34210,0.0-2.0,79529,List1A,white,man,,,,,,,,,,,,,
45387.3,"<img src='img/portrait_matrix_list1.jpg' style='width:900px;height:500px;''></img><p>If you have memorised all the portraits and names and are ready to start, press Continue.</p><p><strong>Please note: Your memory of these faces will be tested 4 times during this experiment.</strong></p>",0,html-button-response,3,80604,0.0-3.0-0.0,79529,List1A,white,man,,,,,,,,,,,,,
2109.7,"<img src=""portrait/WW2.jpg""style=""height:400px;""></img>",3,html-button-response,4,83716,0.0-3.0-1.0,79529,List1A,white,man,,TRUE,3,,,,,,,,,,
null,CORRECT,,html-keyboard-response,5,85222,0.0-3.0-2.0-0.0,79529,List1A,white,man,,,,null,,,,,,,,,
3293,"<img src=""portrait/WM1.jpg""style=""height:400px;""></img>",6,html-button-response,6,88516,0.0-3.0-4.0,79529,List1A,white,man,,TRUE,6,,,,,,,,,,
null,CORRECT,,html-keyboard-response,7,90023,0.0-3.0-5.0-0.0,79529,List1A,white,man,,,,null,,,,,,,,,
1812.7,"<img src=""portrait/BM1.jpg""style=""height:400px;""></img>",4,html-button-response,8,91836,0.0-3.0-7.0,79529,List1A,white,man,,TRUE,4,,,,,,,,,,
null,CORRECT,,html-keyboard-response,9,93339,0.0-3.0-8.0-0.0,79529,List1A,white,man,,,,null,,,,,,,,,
3080.6,"<img src=""portrait/BW2.jpg""style=""height:400px;""></img>",2,html-button-response,10,96420,0.0-3.0-10.0,79529,List1A,white,man,,TRUE,2,,,,,,,,,,
null,CORRECT,,html-keyboard-response,11,97926,0.0-3.0-11.0-0.0,79529,List1A,white,man,,,,null,,,,,,,,,
5237.9,"<img src=""portrait/BM2.jpg""style=""height:400px;""></img>",5,html-button-response,12,103165,0.0-3.0-13.0,79529,List1A,white,man,,TRUE,5,,,,,,,,,,
null,CORRECT,,html-keyboard-response,13,104667,0.0-3.0-14.0-0.0,79529,List1A,white,man,,,,null,,,,,,,,,
4648.4,"<img src=""portrait/BW1.jpg""style=""height:400px;""></img>",1,html-button-response,14,109317,0.0-3.0-16.0,79529,List1A,white,man,,TRUE,0,,,,,,,,,,
2731.2,"<img src=""portrait/BW1.jpg""style=""height:400px;""></img>",0,html-button-response,15,113053,0.0-3.0-18.0-0.0,79529,List1A,white,man,,FALSE,0,,,,,,,,,,
null,CORRECT,,html-keyboard-response,16,114556,0.0-3.0-18.0-1.0-0.0,79529,List1A,white,man,,,,null,,,,,,,,,
1544.4,"<img src=""portrait/WW1.jpg""style=""height:400px;""></img>",1,html-button-response,17,116101,0.0-3.0-19.0,79529,List1A,white,man,,TRUE,1,,,,,,,,,,
null,CORRECT,,html-keyboard-response,18,117606,0.0-3.0-20.0-0.0,79529,List1A,white,man,,,,null,,,,,,,,,
2253.7,"<img src=""portrait/WM2.jpg""style=""height:400px;""></img>",7,html-button-response,19,119861,0.0-3.0-22.0,79529,List1A,white,man,,TRUE,7,,,,,,,,,,
null,CORRECT,,html-keyboard-response,20,121366,0.0-3.0-23.0-0.0,79529,List1A,white,man,,,,null,,,,,,,,,
1733.7,<p>You got 7 out of 8 right first time. Press Continue.</p>,0,html-button-response,21,123101,0.0-3.0-25.0,79529,List1A,white,man,,,,,,,,,,,,,
1087579.3,"As you did not score 100%, the memory game will repeat. Press Continue.",0,html-button-response,22,1211721,0.0-3.0-26.0-0.0,79529,List1A,white,man,,,,,,,,,,,,,
6018.2,"<img src='img/portrait_matrix_list1.jpg' style='width:900px;height:500px;''></img><p>If you have memorised all the portraits and names and are ready to start, press Continue.</p><p><strong>Please note: Your memory of these faces will be tested 4 times during this experiment.</strong></p>",0,html-button-response,23,1218746,0.0-3.1-0.1,79529,List1A,white,man,,,,,,,,,,,,,
2187,"<img src=""portrait/WW2.jpg""style=""height:400px;""></img>",3,html-button-response,24,1221938,0.0-3.1-1.1,79529,List1A,white,man,,TRUE,3,,,,,,,,,,
null,CORRECT,,html-keyboard-response,25,1223440,0.0-3.1-2.1-0.1,79529,List1A,white,man,,,,null,,,,,,,,,
2768.7,"<img src=""portrait/WM1.jpg""style=""height:400px;""></img>",6,html-button-response,26,1226210,0.0-3.1-4.1,79529,List1A,white,man,,TRUE,6,,,,,,,,,,
null,CORRECT,,html-keyboard-response,27,1227713,0.0-3.1-5.1-0.1,79529,List1A,white,man,,,,null,,,,,,,,,
1520.5,"<img src=""portrait/BM1.jpg""style=""height:400px;""></img>",4,html-button-response,28,1229234,0.0-3.1-7.1,79529,List1A,white,man,,TRUE,4,,,,,,,,,,
null,CORRECT,,html-keyboard-response,29,1230737,0.0-3.1-8.1-0.1,79529,List1A,white,man,,,,null,,,,,,,,,
5120.7,"<img src=""portrait/BW2.jpg""style=""height:400px;""></img>",2,html-button-response,30,1235858,0.0-3.1-10.1,79529,List1A,white,man,,TRUE,2,,,,,,,,,,
null,CORRECT,,html-keyboard-response,31,1237361,0.0-3.1-11.1-0.1,79529,List1A,white,man,,,,null,,,,,,,,,
2496.3,"<img src=""portrait/BM2.jpg""style=""height:400px;""></img>",5,html-button-response,32,1239858,0.0-3.1-13.1,79529,List1A,white,man,,TRUE,5,,,,,,,,,,
null,CORRECT,,html-keyboard-response,33,1241361,0.0-3.1-14.1-0.1,79529,List1A,white,man,,,,null,,,,,,,,,
3408.3,"<img src=""portrait/BW1.jpg""style=""height:400px;""></img>",0,html-button-response,34,1244770,0.0-3.1-16.1,79529,List1A,white,man,,TRUE,0,,,,,,,,,,
null,CORRECT,,html-keyboard-response,35,1246273,0.0-3.1-17.1-0.1,79529,List1A,white,man,,,,null,,,,,,,,,
1336.4,"<img src=""portrait/WW1.jpg""style=""height:400px;""></img>",1,html-button-response,36,1247611,0.0-3.1-19.1,79529,List1A,white,man,,TRUE,1,,,,,,,,,,
null,CORRECT,,html-keyboard-response,37,1249116,0.0-3.1-20.1-0.1,79529,List1A,white,man,,,,null,,,,,,,,,
1325.9,"<img src=""portrait/WM2.jpg""style=""height:400px;""></img>",7,html-button-response,38,1250443,0.0-3.1-22.1,79529,List1A,white,man,,TRUE,7,,,,,,,,,,
null,CORRECT,,html-keyboard-response,39,1251948,0.0-3.1-23.1-0.1,79529,List1A,white,man,,,,null,,,,,,,,,
1389.5,<p>You got 8 out of 8 right first time. Press Continue.</p>,0,html-button-response,40,1253338,0.0-3.1-25.1,79529,List1A,white,man,,,,,,,,,,,,,
22683.2,"<p>In this experiment, you will view photographs of the people from the memory game interacting.</p><p>By using the <strong>exact</strong> phrase given <i>after</i> the photograph appears and recalling the correct names of the people in the photographs, form a sentence describing the interaction. You do not need to capitalise names.</p><p>Type your answer in the space provided. Please complete every sentence before moving onto the next trial.</p><p>You will only have a few seconds to memorise each given photograph and phrase before you can respond, so try your best to focus.</p><p>An example is given below. Press 'Continue' when you are ready.</p><img src='img/speaking_example.jpg' style='width:800px;height:460px;''></img>",0,html-button-response,41,1277027,0.0-4.0,79529,List1A,white,man,,,,,,,,,,,,,
1883.3,"<p>Before the experiment starts, you will watch two example trials. Press 'Continue'.</p>",0,html-button-response,42,1279915,0.0-5.0,79529,List1A,white,man,,,,,,,,,,,,,
null,<img src='img/play_eg.gif' style='height:400px;''></img>,,html-keyboard-response,43,1282925,0.0-6.0,79529,List1A,white,man,,,,null,,,,,,,,,
null,<p>is playing with</p>,,html-keyboard-response,44,1284930,0.0-7.0,79529,List1A,white,man,,,,null,,,,,,,,,
4360.8,<p><b>Answer:</b> kate is playing with beth</p>,0,html-button-response,45,1289292,0.0-8.0,79529,List1A,white,man,,,,,,,,,,,,,
null,<img src='img/dance_eg.gif' style='height:400px;''></img>,,html-keyboard-response,46,1292301,0.0-9.0,79529,List1A,white,man,,,,null,,,,,,,,,
null,<p>is being entertained by</p>,,html-keyboard-response,47,1294306,0.0-10.0,79529,List1A,white,man,,,,null,,,,,,,,,
2793.4,<p><b>Answer:</b> luke is being entertained by dave</p>,0,html-button-response,48,1297100,0.0-11.0,79529,List1A,white,man,,,,,,,,,,,,,
3931.9,"<p>Ready to start the experiment?</p><br><p><strong>Remember to describe the picture using a full sentence,</strong></p><p><strong>that combines the names of the people with the <i>exact</i> phrase given.</strong></p><p><strong>To receive full payment you must do this correctly.</strong></p><p><strong> You do not need to capitalise names or use punctuation.</strong></p><br><p>Press 'Continue' to begin.</p>",0,html-button-response,49,1302036,0.0-12.0,79529,List1A,white,man,,,,,,,,,,,,,
null,"<div style=""font-size:60px;"">+</div>",,html-keyboard-response,50,1303539,0.0-13.0-0.0,79529,List1A,white,man,,,,null,,,,,,,,,
null,"<img src=""stim_listA/challenge2.gif""style=""height:400px;""></stim_listA>",,html-keyboard-response,51,1305544,0.0-13.0-1.0,79529,List1A,white,man,,,,null,,,,,,,,,
null,is being challenged by,,html-keyboard-response,52,1307550,0.0-13.0-2.0,79529,List1A,white,man,,,,null,,,,,,,,,
14900.8,,,survey-text,53,1322453,0.0-13.0-3.0,79529,List1A,white,man,,,,,"{""Q0"":""Fred is being challenged by kate""}","<img src=""stim_listA/challenge2.gif""style=""height:400px;""></stim_listA>",is being challenged by,,,,,,
null,"<div style=""font-size:60px;"">+</div>",,html-keyboard-response,54,1322955,0.0-13.0-0.1,79529,List1A,white,man,,,,null,,,,,,,,,
null,"<img src=""stim_listA/kiss2.gif""style=""height:400px;""></stim_listA>",,html-keyboard-response,55,1324958,0.0-13.0-1.1,79529,List1A,white,man,,,,null,,,,,,,,,
null,is being kissed by,,html-keyboard-response,56,1326964,0.0-13.0-2.1,79529,List1A,white,man,,,,null,,,,,,,,,
8015.9,,,survey-text,57,1334981,0.0-13.0-3.1,79529,List1A,white,man,,,,,"{""Q0"":""mike is being kissed by kate""}","<img src=""stim_listA/kiss2.gif""style=""height:400px;""></stim_listA>",is being kissed by,,,,,,
null,"<div style=""font-size:60px;"">+</div>",,html-keyboard-response,58,1335487,0.0-13.0-0.2,79529,List1A,white,man,,,,null,,,,,,,,,
null,"<img src=""stim_listA/oppose8.gif""style=""height:400px;""></stim_listA>",,html-keyboard-response,59,1337492,0.0-13.0-1.2,79529,List1A,white,man,,,,null,,,,,,,,,
null,is being opposed by,,html-keyboard-response,60,1339497,0.0-13.0-2.2,79529,List1A,white,man,,,,null,,,,,,,,,
9177.2,,,survey-text,61,1348678,0.0-13.0-3.2,79529,List1A,white,man,,,,,"{""Q0"":""ruth is being opposed by beth""}","<img src=""stim_listA/oppose8.gif""style=""height:400px;""></stim_listA>",is being opposed by,,,,,,
null,"<div style=""font-size:60px;"">+</div>",,html-keyboard-response,62,1349183,0.0-13.0-0.3,79529,List1A,white,man,,,,null,,,,,,,,,
null,"<img src=""stim_listA/greet8.gif""style=""height:400px;""></stim_listA>",,html-keyboard-response,63,1351188,0.0-13.0-1.3,79529,List1A,white,man,,,,null,,,,,,,,,
null,is being greeted by,,html-keyboard-response,64,1353189,0.0-13.0-2.3,79529,List1A,white,man,,,,null,,,,,,,,,
21990.8,,,survey-text,65,1375182,0.0-13.0-3.3,79529,List1A,white,man,,,,,"{""Q0"":""beth is being greeted by ruth""}","<img src=""stim_listA/greet8.gif""style=""height:400px;""></stim_listA>",is being greeted by,,,,,,
null,"<div style=""font-size:60px;"">+</div>",,html-keyboard-response,66,1375685,0.0-13.0-0.4,79529,List1A,white,man,,,,null,,,,,,,,,
null,"<img src=""stim_listA/seduce5.gif""style=""height:400px;""></stim_listA>",,html-keyboard-response,67,1377690,0.0-13.0-1.4,79529,List1A,white,man,,,,null,,,,,,,,,
null,is seducing,,html-keyboard-response,68,1379693,0.0-13.0-2.4,79529,List1A,white,man,,,,null,,,,,,,,,
8032.5,,,survey-text,69,1387727,0.0-13.0-3.4,79529,List1A,white,man,,,,,"{""Q0"":""fred is seducing dave""}","<img src=""stim_listA/seduce5.gif""style=""height:400px;""></stim_listA>",is seducing,,,,,,
null,"<div style=""font-size:60px;"">+</div>",,html-keyboard-response,70,1388230,0.0-13.0-0.5,79529,List1A,white,man,,,,null,,,,,,,,,
null,"<img src=""stim_listA/look4.gif""style=""height:400px;""></stim_listA>",,html-keyboard-response,71,1390235,0.0-13.0-1.5,79529,List1A,white,man,,,,null,,,,,,,,,
null,is being looked at by,,html-keyboard-response,72,1392240,0.0-13.0-2.5,79529,List1A,white,man,,,,null,,,,,,,,,
6797.3,,,survey-text,73,1399040,0.0-13.0-3.5,79529,List1A,white,man,,,,,"{""Q0"":""dave is looking at beth""}","<img src=""stim_listA/look4.gif""style=""height:400px;""></stim_listA>",is being looked at by,,,,,,
null,"<div style=""font-size:60px;"">+</div>",,html-keyboard-response,74,1399542,0.0-13.0-0.6,79529,List1A,white,man,,,,null,,,,,,,,,
null,"<img src=""stim_listA/shout2.gif""style=""height:400px;""></stim_listA>",,html-keyboard-response,75,1401547,0.0-13.0-1.6,79529,List1A,white,man,,,,null,,,,,,,,,
null,is being shouted at by,,html-keyboard-response,76,1403553,0.0-13.0-2.6,79529,List1A,white,man,,,,null,,,,,,,,,
8781.5,,,survey-text,77,1412336,0.0-13.0-3.6,79529,List1A,white,man,,,,,"{""Q0"":""mike is being shouted at by kate""}","<img src=""stim_listA/shout2.gif""style=""height:400px;""></stim_listA>",is being shouted at by,,,,,,
null,"<div style=""font-size:60px;"">+</div>",,html-keyboard-response,78,1412837,0.0-13.0-0.7,79529,List1A,white,man,,,,null,,,,,,,,,
null,"<img src=""stim_listA/copy5.gif""style=""height:400px;""></stim_listA>",,html-keyboard-response,79,1414839,0.0-13.0-1.7,79529,List1A,white,man,,,,null,,,,,,,,,
null,is copying,,html-keyboard-response,80,1416840,0.0-13.0-2.7,79529,List1A,white,man,,,,null,,,,,,,,,
12590.2,,,survey-text,81,1429432,0.0-13.0-3.7,79529,List1A,white,man,,,,,"{""Q0"":""mike is copying dave""}","<img src=""stim_listA/copy5.gif""style=""height:400px;""></stim_listA>",is copying,,,,,,
null,"<div style=""font-size:60px;"">+</div>",,html-keyboard-response,82,1429937,0.0-13.0-0.8,79529,List1A,white,man,,,,null,,,,,,,,,
null,"<img src=""stim_listA/shout3.gif""style=""height:400px;""></stim_listA>",,html-keyboard-response,83,1431943,0.0-13.0-1.8,79529,List1A,white,man,,,,null,,,,,,,,,
null,is shouting at,,html-keyboard-response,84,1433944,0.0-13.0-2.8,79529,List1A,white,man,,,,null,,,,,,,,,
6526.6,,,survey-text,85,1440473,0.0-13.0-3.8,79529,List1A,white,man,,,,,"{""Q0"":""luke is shouting at beth""}","<img src=""stim_listA/shout3.gif""style=""height:400px;""></stim_listA>",is shouting at,,,,,,
null,"<div style=""font-size:60px;"">+</div>",,html-keyboard-response,86,1440978,0.0-13.0-0.9,79529,List1A,white,man,,,,null,,,,,,,,,
null,"<img src=""stim_listA/copy6.gif""style=""height:400px;""></stim_listA>",,html-keyboard-response,87,1442983,0.0-13.0-1.9,79529,List1A,white,man,,,,null,,,,,,,,,
null,is being copied by,,html-keyboard-response,88,1444989,0.0-13.0-2.9,79529,List1A,white,man,,,,null,,,,,,,,,
10338.8,,,survey-text,89,1455330,0.0-13.0-3.9,79529,List1A,white,man,,,,,"{""Q0"":""fred is being copied by dave""}","<img src=""stim_listA/copy6.gif""style=""height:400px;""></stim_listA>",is being copied by,,,,,,
null,"<div style=""font-size:60px;"">+</div>",,html-keyboard-response,90,1455832,0.0-13.0-0.10,79529,List1A,white,man,,,,null,,,,,,,,,
null,"<img src=""stim_listA/oppose4.gif""style=""height:400px;""></stim_listA>",,html-keyboard-response,91,1457837,0.0-13.0-1.10,79529,List1A,white,man,,,,null,,,,,,,,,
null,is being opposed by,,html-keyboard-response,92,1459839,0.0-13.0-2.10,79529,List1A,white,man,,,,null,,,,,,,,,
7199.8,,,survey-text,93,1467041,0.0-13.0-3.10,79529,List1A,white,man,,,,,"{""Q0"":""luke is being opposed by beth""}","<img src=""stim_listA/oppose4.gif""style=""height:400px;""></stim_listA>",is being opposed by,,,,,,
null,"<div style=""font-size:60px;"">+</div>",,html-keyboard-response,94,1467544,0.0-13.0-0.11,79529,List1A,white,man,,,,null,,,,,,,,,
null,"<img src=""stim_listA/seduce1.gif""style=""height:400px;""></stim_listA>",,html-keyboard-response,95,1469549,0.0-13.0-1.11,79529,List1A,white,man,,,,null,,,,,,,,,
null,is seducing,,html-keyboard-response,96,1471555,0.0-13.0-2.11,79529,List1A,white,man,,,,null,,,,,,,,,
5293,,,survey-text,97,1476850,0.0-13.0-3.11,79529,List1A,white,man,,,,,"{""Q0"":""fred is seducing kate""}","<img src=""stim_listA/seduce1.gif""style=""height:400px;""></stim_listA>",is seducing,,,,,,
null,"<div style=""font-size:60px;"">+</div>",,html-keyboard-response,98,1477352,0.0-13.0-0.12,79529,List1A,white,man,,,,null,,,,,,,,,
null,"<img src=""stim_listA/challenge5.gif""style=""height:400px;""></stim_listA>",,html-keyboard-response,99,1479358,0.0-13.0-1.12,79529,List1A,white,man,,,,null,,,,,,,,,
null,is challenging,,html-keyboard-response,100,1481363,0.0-13.0-2.12,79529,List1A,white,man,,,,null,,,,,,,,,
10869.3,,,survey-text,101,1492234,0.0-13.0-3.12,79529,List1A,white,man,,,,,"{""Q0"":""mike is challenging luke""}","<img src=""stim_listA/challenge5.gif""style=""height:400px;""></stim_listA>",is challenging,,,,,,
null,"<div style=""font-size:60px;"">+</div>",,html-keyboard-response,102,1492739,0.0-13.0-0.13,79529,List1A,white,man,,,,null,,,,,,,,,
null,"<img src=""stim_listA/hug1.gif""style=""height:400px;""></stim_listA>",,html-keyboard-response,103,1494745,0.0-13.0-1.13,79529,List1A,white,man,,,,null,,,,,,,,,
null,is hugging,,html-keyboard-response,104,1496745,0.0-13.0-2.13,79529,List1A,white,man,,,,null,,,,,,,,,
9063.2,,,survey-text,105,1505811,0.0-13.0-3.13,79529,List1A,white,man,,,,,"{""Q0"":""fred and ruth are hugging""}","<img src=""stim_listA/hug1.gif""style=""height:400px;""></stim_listA>",is hugging,,,,,,
null,"<div style=""font-size:60px;"">+</div>",,html-keyboard-response,106,1506313,0.0-13.0-0.14,79529,List1A,white,man,,,,null,,,,,,,,,
null,"<img src=""stim_listA/kiss5.gif""style=""height:400px;""></stim_listA>",,html-keyboard-response,107,1508318,0.0-13.0-1.14,79529,List1A,white,man,,,,null,,,,,,,,,
null,is kissing,,html-keyboard-response,108,1510322,0.0-13.0-2.14,79529,List1A,white,man,,,,null,,,,,,,,,
5166.6,,,survey-text,109,1515491,0.0-13.0-3.14,79529,List1A,white,man,,,,,"{""Q0"":""luke is kissing fred""}","<img src=""stim_listA/kiss5.gif""style=""height:400px;""></stim_listA>",is kissing,,,,,,
null,"<div style=""font-size:60px;"">+</div>",,html-keyboard-response,110,1515993,0.0-13.0-0.15,79529,List1A,white,man,,,,null,,,,,,,,,
null,"<img src=""stim_listA/seduce8.gif""style=""height:400px;""></stim_listA>",,html-keyboard-response,111,1517999,0.0-13.0-1.15,79529,List1A,white,man,,,,null,,,,,,,,,
null,is being seduced by,,html-keyboard-response,112,1520004,0.0-13.0-2.15,79529,List1A,white,man,,,,null,,,,,,,,,
6885.2,,,survey-text,113,1526891,0.0-13.0-3.15,79529,List1A,white,man,,,,,"{""Q0"":""kate is being seduced by beth""}","<img src=""stim_listA/seduce8.gif""style=""height:400px;""></stim_listA>",is being seduced by,,,,,,
null,"<div style=""font-size:60px;"">+</div>",,html-keyboard-response,114,1527393,0.0-13.0-0.16,79529,List1A,white,man,,,,null,,,,,,,,,
null,"<img src=""stim_listA/oppose2.gif""style=""height:400px;""></stim_listA>",,html-keyboard-response,115,1529396,0.0-13.0-1.16,79529,List1A,white,man,,,,null,,,,,,,,,
null,is being opposed by,,html-keyboard-response,116,1531402,0.0-13.0-2.16,79529,List1A,white,man,,,,null,,,,,,,,,
9944,,,survey-text,117,1541348,0.0-13.0-3.16,79529,List1A,white,man,,,,,"{""Q0"":""ruth is beingopposed by fred""}","<img src=""stim_listA/oppose2.gif""style=""height:400px;""></stim_listA>",is being opposed by,,,,,,
null,"<div style=""font-size:60px;"">+</div>",,html-keyboard-response,118,1541850,0.0-13.0-0.17,79529,List1A,white,man,,,,null,,,,,,,,,
null,"<img src=""stim_listA/greet2.gif""style=""height:400px;""></stim_listA>",,html-keyboard-response,119,1543856,0.0-13.0-1.17,79529,List1A,white,man,,,,null,,,,,,,,,
null,is being greeted by,,html-keyboard-response,120,1545856,0.0-13.0-2.17,79529,List1A,white,man,,,,null,,,,,,,,,
7577.6,,,survey-text,121,1553436,0.0-13.0-3.17,79529,List1A,white,man,,,,,"{""Q0"":""fred is being greeted by kate""}","<img src=""stim_listA/greet2.gif""style=""height:400px;""></stim_listA>",is being greeted by,,,,,,
null,"<div style=""font-size:60px;"">+</div>",,html-keyboard-response,122,1553937,0.0-13.0-0.18,79529,List1A,white,man,,,,null,,,,,,,,,
null,"<img src=""stim_listA/touch6.gif""style=""height:400px;""></stim_listA>",,html-keyboard-response,123,1555941,0.0-13.0-1.18,79529,List1A,white,man,,,,null,,,,,,,,,
null,is being touched by,,html-keyboard-response,124,1557947,0.0-13.0-2.18,79529,List1A,white,man,,,,null,,,,,,,,,
6415.9,,,survey-text,125,1564364,0.0-13.0-3.18,79529,List1A,white,man,,,,,"{""Q0"":""fred is being touched by luke""}","<img src=""stim_listA/touch6.gif""style=""height:400px;""></stim_listA>",is being touched by,,,,,,
null,"<div style=""font-size:60px;"">+</div>",,html-keyboard-response,126,1564870,0.0-13.0-0.19,79529,List1A,white,man,,,,null,,,,,,,,,
null,"<img src=""stim_listA/hug4.gif""style=""height:400px;""></stim_listA>",,html-keyboard-response,127,1566874,0.0-13.0-1.19,79529,List1A,white,man,,,,null,,,,,,,,,
null,is being hugged by,,html-keyboard-response,128,1568878,0.0-13.0-2.19,79529,List1A,white,man,,,,null,,,,,,,,,
8524.6,,,survey-text,129,1577405,0.0-13.0-3.19,79529,List1A,white,man,,,,,"{""Q0"":""dave is being hugged by beth""}","<img src=""stim_listA/hug4.gif""style=""height:400px;""></stim_listA>",is being hugged by,,,,,,
15782.6,"<img src='img/portrait_matrix_list1.jpg' style='width:900px;height:500px;''></img><p>If you have memorised all the portraits and names and are ready to start, press Continue.</p><p><strong>Please note: Your memory of these faces will be tested 4 times during this experiment.</strong></p>",0,html-button-response,130,1593189,0.0-14.0-0.0,79529,List1A,white,man,,,,,,,,,,,,,
4139.6,"<img src=""portrait/BW1.jpg""style=""height:400px;""></img>",0,html-button-response,131,1598333,0.0-14.0-1.0,79529,List1A,white,man,,TRUE,0,,,,,,,,,,
null,CORRECT,,html-keyboard-response,132,1599836,0.0-14.0-2.0-0.0,79529,List1A,white,man,,,,null,,,,,,,,,
1720.3,"<img src=""portrait/BM2.jpg""style=""height:400px;""></img>",5,html-button-response,133,1601557,0.0-14.0-4.0,79529,List1A,white,man,,TRUE,5,,,,,,,,,,
null,CORRECT,,html-keyboard-response,134,1603063,0.0-14.0-5.0-0.0,79529,List1A,white,man,,,,null,,,,,,,,,
1133.9,"<img src=""portrait/WW2.jpg""style=""height:400px;""></img>",3,html-button-response,135,1604198,0.0-14.0-7.0,79529,List1A,white,man,,TRUE,3,,,,,,,,,,
null,CORRECT,,html-keyboard-response,136,1605706,0.0-14.0-8.0-0.0,79529,List1A,white,man,,,,null,,,,,,,,,
1250.2,"<img src=""portrait/WM2.jpg""style=""height:400px;""></img>",7,html-button-response,137,1606958,0.0-14.0-10.0,79529,List1A,white,man,,TRUE,7,,,,,,,,,,
null,CORRECT,,html-keyboard-response,138,1608466,0.0-14.0-11.0-0.0,79529,List1A,white,man,,,,null,,,,,,,,,
3642.6,"<img src=""portrait/BW2.jpg""style=""height:400px;""></img>",2,html-button-response,139,1612110,0.0-14.0-13.0,79529,List1A,white,man,,TRUE,2,,,,,,,,,,
null,CORRECT,,html-keyboard-response,140,1613612,0.0-14.0-14.0-0.0,79529,List1A,white,man,,,,null,,,,,,,,,
4048.2,"<img src=""portrait/WW1.jpg""style=""height:400px;""></img>",1,html-button-response,141,1617662,0.0-14.0-16.0,79529,List1A,white,man,,TRUE,1,,,,,,,,,,
null,CORRECT,,html-keyboard-response,142,1619165,0.0-14.0-17.0-0.0,79529,List1A,white,man,,,,null,,,,,,,,,
3080.1,"<img src=""portrait/WM1.jpg""style=""height:400px;""></img>",6,html-button-response,143,1622246,0.0-14.0-19.0,79529,List1A,white,man,,TRUE,6,,,,,,,,,,
null,CORRECT,,html-keyboard-response,144,1623751,0.0-14.0-20.0-0.0,79529,List1A,white,man,,,,null,,,,,,,,,
1741.4,"<img src=""portrait/BM1.jpg""style=""height:400px;""></img>",4,html-button-response,145,1625494,0.0-14.0-22.0,79529,List1A,white,man,,TRUE,4,,,,,,,,,,
null,CORRECT,,html-keyboard-response,146,1627002,0.0-14.0-23.0-0.0,79529,List1A,white,man,,,,null,,,,,,,,,
1307.1,<p>You got 8 out of 8 right first time. Press Continue.</p>,0,html-button-response,147,1628310,0.0-14.0-25.0,79529,List1A,white,man,,,,,,,,,,,,,
null,"<div style=""font-size:60px;"">+</div>",,html-keyboard-response,148,1629816,0.0-15.0-0.0,79529,List1A,white,man,,,,null,,,,,,,,,
null,"<img src=""stim_listA/look6.gif""style=""height:400px;""></stim_listA>",,html-keyboard-response,149,1631821,0.0-15.0-1.0,79529,List1A,white,man,,,,null,,,,,,,,,
null,is being looked at by,,html-keyboard-response,150,1633826,0.0-15.0-2.0,79529,List1A,white,man,,,,null,,,,,,,,,
11810.3,,,survey-text,151,1645639,0.0-15.0-3.0,79529,List1A,white,man,,,,,"{""Q0"":""mike is being looked at  dave""}","<img src=""stim_listA/look6.gif""style=""height:400px;""></stim_listA>",is being looked at by,,,,,,
null,"<div style=""font-size:60px;"">+</div>",,html-keyboard-response,152,1646141,0.0-15.0-0.1,79529,List1A,white,man,,,,null,,,,,,,,,
null,"<img src=""stim_listA/copy3.gif""style=""height:400px;""></stim_listA>",,html-keyboard-response,153,1648147,0.0-15.0-1.1,79529,List1A,white,man,,,,null,,,,,,,,,
null,is copying,,html-keyboard-response,154,1650152,0.0-15.0-2.1,79529,List1A,white,man,,,,null,,,,,,,,,
7469.2,,,survey-text,155,1657623,0.0-15.0-3.1,79529,List1A,white,man,,,,,"{""Q0"":""dave is copying ruth""}","<img src=""stim_listA/copy3.gif""style=""height:400px;""></stim_listA>",is copying,,,,,,
null,"<div style=""font-size:60px;"">+</div>",,html-keyboard-response,156,1658126,0.0-15.0-0.2,79529,List1A,white,man,,,,null,,,,,,,,,
null,"<img src=""stim_listA/look2.gif""style=""height:400px;""></stim_listA>",,html-keyboard-response,157,1660131,0.0-15.0-1.2,79529,List1A,white,man,,,,null,,,,,,,,,
null,is being looked at by,,html-keyboard-response,158,1662137,0.0-15.0-2.2,79529,List1A,white,man,,,,null,,,,,,,,,
10100.9,,,survey-text,159,1672240,0.0-15.0-3.2,79529,List1A,white,man,,,,,"{""Q0"":""mike is being looked at by kate""}","<img src=""stim_listA/look2.gif""style=""height:400px;""></stim_listA>",is being looked at by,,,,,,
null,"<div style=""font-size:60px;"">+</div>",,html-keyboard-response,160,1672744,0.0-15.0-0.3,79529,List1A,white,man,,,,null,,,,,,,,,
null,"<img src=""stim_listA/look1.gif""style=""height:400px;""></stim_listA>",,html-keyboard-response,161,1674750,0.0-15.0-1.3,79529,List1A,white,man,,,,null,,,,,,,,,
null,is looking at,,html-keyboard-response,162,1676752,0.0-15.0-2.3,79529,List1A,white,man,,,,null,,,,,,,,,
6886.3,,,survey-text,163,1683640,0.0-15.0-3.3,79529,List1A,white,man,,,,,"{""Q0"":""fred is looking beth""}","<img src=""stim_listA/look1.gif""style=""height:400px;""></stim_listA>",is looking at,,,,,,
null,"<div style=""font-size:60px;"">+</div>",,html-keyboard-response,164,1684143,0.0-15.0-0.4,79529,List1A,white,man,,,,null,,,,,,,,,
null,"<img src=""stim_listA/hug8.gif""style=""height:400px;""></stim_listA>",,html-keyboard-response,165,1686148,0.0-15.0-1.4,79529,List1A,white,man,,,,null,,,,,,,,,
null,is being hugged by,,html-keyboard-response,166,1688153,0.0-15.0-2.4,79529,List1A,white,man,,,,null,,,,,,,,,
7276.9,,,survey-text,167,1695432,0.0-15.0-3.4,79529,List1A,white,man,,,,,"{""Q0"":""jane is being hugged by kate""}","<img src=""stim_listA/hug8.gif""style=""height:400px;""></stim_listA>",is being hugged by,,,,,,
null,"<div style=""font-size:60px;"">+</div>",,html-keyboard-response,168,1695935,0.0-15.0-0.5,79529,List1A,white,man,,,,null,,,,,,,,,
null,"<img src=""stim_listA/touch2.gif""style=""height:400px;""></stim_listA>",,html-keyboard-response,169,1697940,0.0-15.0-1.5,79529,List1A,white,man,,,,null,,,,,,,,,
null,is being touched by,,html-keyboard-response,170,1699946,0.0-15.0-2.5,79529,List1A,white,man,,,,null,,,,,,,,,
9829,,,survey-text,171,1709777,0.0-15.0-3.5,79529,List1A,white,man,,,,,"{""Q0"":""beth is being touched by fred""}","<img src=""stim_listA/touch2.gif""style=""height:400px;""></stim_listA>",is being touched by,,,,,,
null,"<div style=""font-size:60px;"">+</div>",,html-keyboard-response,172,1710282,0.0-15.0-0.6,79529,List1A,white,man,,,,null,,,,,,,,,
null,"<img src=""stim_listA/kiss8.gif""style=""height:400px;""></stim_listA>",,html-keyboard-response,173,1712287,0.0-15.0-1.6,79529,List1A,white,man,,,,null,,,,,,,,,
null,is being kissed by,,html-keyboard-response,174,1714290,0.0-15.0-2.6,79529,List1A,white,man,,,,null,,,,,,,,,
6580.5,,,survey-text,175,1720873,0.0-15.0-3.6,79529,List1A,white,man,,,,,"{""Q0"":""jane is being kissed by kate""}","<img src=""stim_listA/kiss8.gif""style=""height:400px;""></stim_listA>",is being kissed by,,,,,,
null,"<div style=""font-size:60px;"">+</div>",,html-keyboard-response,176,1721376,0.0-15.0-0.7,79529,List1A,white,man,,,,null,,,,,,,,,
null,"<img src=""stim_listA/shout1.gif""style=""height:400px;""></stim_listA>",,html-keyboard-response,177,1723381,0.0-15.0-1.7,79529,List1A,white,man,,,,null,,,,,,,,,
null,is shouting at,,html-keyboard-response,178,1725386,0.0-15.0-2.7,79529,List1A,white,man,,,,null,,,,,,,,,
9460.8,,,survey-text,179,1734850,0.0-15.0-3.7,79529,List1A,white,man,,,,,"{""Q0"":""beth is shouting at fred""}","<img src=""stim_listA/shout1.gif""style=""height:400px;""></stim_listA>",is shouting at,,,,,,
null,"<div style=""font-size:60px;"">+</div>",,html-keyboard-response,180,1735355,0.0-15.0-0.8,79529,List1A,white,man,,,,null,,,,,,,,,
null,"<img src=""stim_listA/greet7.gif""style=""height:400px;""></stim_listA>",,html-keyboard-response,181,1737360,0.0-15.0-1.8,79529,List1A,white,man,,,,null,,,,,,,,,
null,is greeting,,html-keyboard-response,182,1739362,0.0-15.0-2.8,79529,List1A,white,man,,,,null,,,,,,,,,
7462.2,,,survey-text,183,1746826,0.0-15.0-3.8,79529,List1A,white,man,,,,,"{""Q0"":""kate is greeting ruth""}","<img src=""stim_listA/greet7.gif""style=""height:400px;""></stim_listA>",is greeting,,,,,,
null,"<div style=""font-size:60px;"">+</div>",,html-keyboard-response,184,1747328,0.0-15.0-0.9,79529,List1A,white,man,,,,null,,,,,,,,,
null,"<img src=""stim_listA/copy2.gif""style=""height:400px;""></stim_listA>",,html-keyboard-response,185,1749334,0.0-15.0-1.9,79529,List1A,white,man,,,,null,,,,,,,,,
null,is being copied by,,html-keyboard-response,186,1751339,0.0-15.0-2.9,79529,List1A,white,man,,,,null,,,,,,,,,
7157.4,,,survey-text,187,1758498,0.0-15.0-3.9,79529,List1A,white,man,,,,,"{""Q0"":""fred is being copied by kate""}","<img src=""stim_listA/copy2.gif""style=""height:400px;""></stim_listA>",is being copied by,,,,,,
null,"<div style=""font-size:60px;"">+</div>",,html-keyboard-response,188,1759003,0.0-15.0-0.10,79529,List1A,white,man,,,,null,,,,,,,,,
null,"<img src=""stim_listA/challenge7.gif""style=""height:400px;""></stim_listA>",,html-keyboard-response,189,1761009,0.0-15.0-1.10,79529,List1A,white,man,,,,null,,,,,,,,,
null,is challenging,,html-keyboard-response,190,1763014,0.0-15.0-2.10,79529,List1A,white,man,,,,null,,,,,,,,,
7946.5,,,survey-text,191,1770962,0.0-15.0-3.10,79529,List1A,white,man,,,,,"{""Q0"":""kate is challenging ruth""}","<img src=""stim_listA/challenge7.gif""style=""height:400px;""></stim_listA>",is challenging,,,,,,
null,"<div style=""font-size:60px;"">+</div>",,html-keyboard-response,192,1771468,0.0-15.0-0.11,79529,List1A,white,man,,,,null,,,,,,,,,
null,"<img src=""stim_listA/seduce6.gif""style=""height:400px;""></stim_listA>",,html-keyboard-response,193,1773473,0.0-15.0-1.11,79529,List1A,white,man,,,,null,,,,,,,,,
null,is being seduced by,,html-keyboard-response,194,1775474,0.0-15.0-2.11,79529,List1A,white,man,,,,null,,,,,,,,,
7831.3,,,survey-text,195,1783307,0.0-15.0-3.11,79529,List1A,white,man,,,,,"{""Q0"":""mike is being seduced by luke""}","<img src=""stim_listA/seduce6.gif""style=""height:400px;""></stim_listA>",is being seduced by,,,,,,
null,"<div style=""font-size:60px;"">+</div>",,html-keyboard-response,196,1783809,0.0-15.0-0.12,79529,List1A,white,man,,,,null,,,,,,,,,
null,"<img src=""stim_listA/touch4.gif""style=""height:400px;""></stim_listA>",,html-keyboard-response,197,1785815,0.0-15.0-1.12,79529,List1A,white,man,,,,null,,,,,,,,,
null,is being touched by,,html-keyboard-response,198,1787820,0.0-15.0-2.12,79529,List1A,white,man,,,,null,,,,,,,,,
8797.4,,,survey-text,199,1796619,0.0-15.0-3.12,79529,List1A,white,man,,,,,"{""Q0"":""luke is being touched by ruth""}","<img src=""stim_listA/touch4.gif""style=""height:400px;""></stim_listA>",is being touched by,,,,,,
null,"<div style=""font-size:60px;"">+</div>",,html-keyboard-response,200,1797122,0.0-15.0-0.13,79529,List1A,white,man,,,,null,,,,,,,,,
null,"<img src=""stim_listA/seduce4.gif""style=""height:400px;""></stim_listA>",,html-keyboard-response,201,1799127,0.0-15.0-1.13,79529,List1A,white,man,,,,null,,,,,,,,,
null,is being seduced by,,html-keyboard-response,202,1801133,0.0-15.0-2.13,79529,List1A,white,man,,,,null,,,,,,,,,
9605,,,survey-text,203,1810740,0.0-15.0-3.13,79529,List1A,white,man,,,,,"{""Q0"":""ruth is being seduced by dave""}","<img src=""stim_listA/seduce4.gif""style=""height:400px;""></stim_listA>",is being seduced by,,,,,,
null,"<div style=""font-size:60px;"">+</div>",,html-keyboard-response,204,1811245,0.0-15.0-0.14,79529,List1A,white,man,,,,null,,,,,,,,,
null,"<img src=""stim_listA/shout5.gif""style=""height:400px;""></stim_listA>",,html-keyboard-response,205,1813250,0.0-15.0-1.14,79529,List1A,white,man,,,,null,,,,,,,,,
null,is shouting at,,html-keyboard-response,206,1815251,0.0-15.0-2.14,79529,List1A,white,man,,,,null,,,,,,,,,
13447,,,survey-text,207,1828700,0.0-15.0-3.14,79529,List1A,white,man,,,,,"{""Q0"":""fred is shouting at dave""}","<img src=""stim_listA/shout5.gif""style=""height:400px;""></stim_listA>",is shouting at,,,,,,
null,"<div style=""font-size:60px;"">+</div>",,html-keyboard-response,208,1829203,0.0-15.0-0.15,79529,List1A,white,man,,,,null,,,,,,,,,
null,"<img src=""stim_listA/oppose6.gif""style=""height:400px;""></stim_listA>",,html-keyboard-response,209,1831208,0.0-15.0-1.15,79529,List1A,white,man,,,,null,,,,,,,,,
null,is being opposed by,,html-keyboard-response,210,1833209,0.0-15.0-2.15,79529,List1A,white,man,,,,null,,,,,,,,,
13713.7,,,survey-text,211,1846925,0.0-15.0-3.15,79529,List1A,white,man,,,,,"{""Q0"":""fred is being opposed by luke""}","<img src=""stim_listA/oppose6.gif""style=""height:400px;""></stim_listA>",is being opposed by,,,,,,
null,"<div style=""font-size:60px;"">+</div>",,html-keyboard-response,212,1847427,0.0-15.0-0.16,79529,List1A,white,man,,,,null,,,,,,,,,
null,"<img src=""stim_listA/touch5.gif""style=""height:400px;""></stim_listA>",,html-keyboard-response,213,1849433,0.0-15.0-1.16,79529,List1A,white,man,,,,null,,,,,,,,,
null,is touching,,html-keyboard-response,214,1851434,0.0-15.0-2.16,79529,List1A,white,man,,,,null,,,,,,,,,
5209.5,,,survey-text,215,1856645,0.0-15.0-3.16,79529,List1A,white,man,,,,,"{""Q0"":""mike is touching dave""}","<img src=""stim_listA/touch5.gif""style=""height:400px;""></stim_listA>",is touching,,,,,,
null,"<div style=""font-size:60px;"">+</div>",,html-keyboard-response,216,1857150,0.0-15.0-0.17,79529,List1A,white,man,,,,null,,,,,,,,,
null,"<img src=""stim_listA/hug5.gif""style=""height:400px;""></stim_listA>",,html-keyboard-response,217,1859155,0.0-15.0-1.17,79529,List1A,white,man,,,,null,,,,,,,,,
null,is hugging,,html-keyboard-response,218,1861161,0.0-15.0-2.17,79529,List1A,white,man,,,,null,,,,,,,,,
4594.5,,,survey-text,219,1865757,0.0-15.0-3.17,79529,List1A,white,man,,,,,"{""Q0"":""luke is hugging fred""}","<img src=""stim_listA/hug5.gif""style=""height:400px;""></stim_listA>",is hugging,,,,,,
null,"<div style=""font-size:60px;"">+</div>",,html-keyboard-response,220,1866260,0.0-15.0-0.18,79529,List1A,white,man,,,,null,,,,,,,,,
null,"<img src=""stim_listA/look8.gif""style=""height:400px;""></stim_listA>",,html-keyboard-response,221,1868265,0.0-15.0-1.18,79529,List1A,white,man,,,,null,,,,,,,,,
null,is being looked at by,,html-keyboard-response,222,1870271,0.0-15.0-2.18,79529,List1A,white,man,,,,null,,,,,,,,,
8101.1,,,survey-text,223,1878374,0.0-15.0-3.18,79529,List1A,white,man,,,,,"{""Q0"":""jane is being looked at by jane""}","<img src=""stim_listA/look8.gif""style=""height:400px;""></stim_listA>",is being looked at by,,,,,,
null,"<div style=""font-size:60px;"">+</div>",,html-keyboard-response,224,1878879,0.0-15.0-0.19,79529,List1A,white,man,,,,null,,,,,,,,,
null,"<img src=""stim_listA/look7.gif""style=""height:400px;""></stim_listA>",,html-keyboard-response,225,1880884,0.0-15.0-1.19,79529,List1A,white,man,,,,null,,,,,,,,,
null,is looking at,,html-keyboard-response,226,1882887,0.0-15.0-2.19,79529,List1A,white,man,,,,null,,,,,,,,,
6245,,,survey-text,227,1889134,0.0-15.0-3.19,79529,List1A,white,man,,,,,"{""Q0"":""ruth is looking at beth""}","<img src=""stim_listA/look7.gif""style=""height:400px;""></stim_listA>",is looking at,,,,,,
2526.8,"<img src='img/portrait_matrix_list1.jpg' style='width:900px;height:500px;''></img><p>If you have memorised all the portraits and names and are ready to start, press Continue.</p><p><strong>Please note: Your memory of these faces will be tested 4 times during this experiment.</strong></p>",0,html-button-response,228,1891662,0.0-16.0-0.0,79529,List1A,white,man,,,,,,,,,,,,,
1130.7,"<img src=""portrait/BM1.jpg""style=""height:400px;""></img>",4,html-button-response,229,1893798,0.0-16.0-1.0,79529,List1A,white,man,,TRUE,4,,,,,,,,,,
null,CORRECT,,html-keyboard-response,230,1895301,0.0-16.0-2.0-0.0,79529,List1A,white,man,,,,null,,,,,,,,,
992.1,"<img src=""portrait/WM2.jpg""style=""height:400px;""></img>",7,html-button-response,231,1896294,0.0-16.0-4.0,79529,List1A,white,man,,TRUE,7,,,,,,,,,,
null,CORRECT,,html-keyboard-response,232,1897797,0.0-16.0-5.0-0.0,79529,List1A,white,man,,,,null,,,,,,,,,
6551.4,"<img src=""portrait/WW1.jpg""style=""height:400px;""></img>",1,html-button-response,233,1904350,0.0-16.0-7.0,79529,List1A,white,man,,TRUE,1,,,,,,,,,,
null,CORRECT,,html-keyboard-response,234,1905855,0.0-16.0-8.0-0.0,79529,List1A,white,man,,,,null,,,,,,,,,
1302.1,"<img src=""portrait/BW2.jpg""style=""height:400px;""></img>",2,html-button-response,235,1907159,0.0-16.0-10.0,79529,List1A,white,man,,TRUE,2,,,,,,,,,,
null,CORRECT,,html-keyboard-response,236,1908661,0.0-16.0-11.0-0.0,79529,List1A,white,man,,,,null,,,,,,,,,
1143.9,"<img src=""portrait/BW1.jpg""style=""height:400px;""></img>",0,html-button-response,237,1909807,0.0-16.0-13.0,79529,List1A,white,man,,TRUE,0,,,,,,,,,,
null,CORRECT,,html-keyboard-response,238,1911312,0.0-16.0-14.0-0.0,79529,List1A,white,man,,,,null,,,,,,,,,
1117.6,"<img src=""portrait/WW2.jpg""style=""height:400px;""></img>",3,html-button-response,239,1912431,0.0-16.0-16.0,79529,List1A,white,man,,TRUE,3,,,,,,,,,,
null,CORRECT,,html-keyboard-response,240,1913936,0.0-16.0-17.0-0.0,79529,List1A,white,man,,,,null,,,,,,,,,
3637.4,"<img src=""portrait/WM1.jpg""style=""height:400px;""></img>",6,html-button-response,241,1917575,0.0-16.0-19.0,79529,List1A,white,man,,TRUE,6,,,,,,,,,,
null,CORRECT,,html-keyboard-response,242,1919078,0.0-16.0-20.0-0.0,79529,List1A,white,man,,,,null,,,,,,,,,
1032,"<img src=""portrait/BM2.jpg""style=""height:400px;""></img>",5,html-button-response,243,1920111,0.0-16.0-22.0,79529,List1A,white,man,,TRUE,5,,,,,,,,,,
null,CORRECT,,html-keyboard-response,244,1921616,0.0-16.0-23.0-0.0,79529,List1A,white,man,,,,null,,,,,,,,,
1133.3,<p>You got 8 out of 8 right first time. Press Continue.</p>,0,html-button-response,245,1922751,0.0-16.0-25.0,79529,List1A,white,man,,,,,,,,,,,,,
null,"<div style=""font-size:60px;"">+</div>",,html-keyboard-response,246,1924256,0.0-17.0-0.0,79529,List1A,white,man,,,,null,,,,,,,,,
null,"<img src=""stim_listA/challenge4.gif""style=""height:400px;""></stim_listA>",,html-keyboard-response,247,1926262,0.0-17.0-1.0,79529,List1A,white,man,,,,null,,,,,,,,,
null,is being challenged by,,html-keyboard-response,248,1928267,0.0-17.0-2.0,79529,List1A,white,man,,,,null,,,,,,,,,
8786.2,,,survey-text,249,1937056,0.0-17.0-3.0,79529,List1A,white,man,,,,,"{""Q0"":""luke is being challenged jane""}","<img src=""stim_listA/challenge4.gif""style=""height:400px;""></stim_listA>",is being challenged by,,,,,,
null,"<div style=""font-size:60px;"">+</div>",,html-keyboard-response,250,1937558,0.0-17.0-0.1,79529,List1A,white,man,,,,null,,,,,,,,,
null,"<img src=""stim_listA/kiss4.gif""style=""height:400px;""></stim_listA>",,html-keyboard-response,251,1939564,0.0-17.0-1.1,79529,List1A,white,man,,,,null,,,,,,,,,
null,is being kissed by,,html-keyboard-response,252,1941569,0.0-17.0-2.1,79529,List1A,white,man,,,,null,,,,,,,,,
12404.1,,,survey-text,253,1953976,0.0-17.0-3.1,79529,List1A,white,man,,,,,"{""Q0"":""jane is being kissed by dave""}","<img src=""stim_listA/kiss4.gif""style=""height:400px;""></stim_listA>",is being kissed by,,,,,,
null,"<div style=""font-size:60px;"">+</div>",,html-keyboard-response,254,1954481,0.0-17.0-0.2,79529,List1A,white,man,,,,null,,,,,,,,,
null,"<img src=""stim_listA/copy4.gif""style=""height:400px;""></stim_listA>",,html-keyboard-response,255,1956487,0.0-17.0-1.2,79529,List1A,white,man,,,,null,,,,,,,,,
null,is being copied by,,html-keyboard-response,256,1958488,0.0-17.0-2.2,79529,List1A,white,man,,,,null,,,,,,,,,
10286.6,,,survey-text,257,1968777,0.0-17.0-3.2,79529,List1A,white,man,,,,,"{""Q0"":""jane is being copied by luke""}","<img src=""stim_listA/copy4.gif""style=""height:400px;""></stim_listA>",is being copied by,,,,,,
null,"<div style=""font-size:60px;"">+</div>",,html-keyboard-response,258,1969282,0.0-17.0-0.3,79529,List1A,white,man,,,,null,,,,,,,,,
null,"<img src=""stim_listA/kiss6.gif""style=""height:400px;""></stim_listA>",,html-keyboard-response,259,1971287,0.0-17.0-1.3,79529,List1A,white,man,,,,null,,,,,,,,,
null,is being kissed by,,html-keyboard-response,260,1973289,0.0-17.0-2.3,79529,List1A,white,man,,,,null,,,,,,,,,
7598,,,survey-text,261,1980889,0.0-17.0-3.3,79529,List1A,white,man,,,,,"{""Q0"":""mike is being kissed dave""}","<img src=""stim_listA/kiss6.gif""style=""height:400px;""></stim_listA>",is being kissed by,,,,,,
null,"<div style=""font-size:60px;"">+</div>",,html-keyboard-response,262,1981394,0.0-17.0-0.4,79529,List1A,white,man,,,,null,,,,,,,,,
null,"<img src=""stim_listA/challenge6.gif""style=""height:400px;""></stim_listA>",,html-keyboard-response,263,1983398,0.0-17.0-1.4,79529,List1A,white,man,,,,null,,,,,,,,,
null,is being challenged by,,html-keyboard-response,264,1985400,0.0-17.0-2.4,79529,List1A,white,man,,,,null,,,,,,,,,
8127.2,,,survey-text,265,1993529,0.0-17.0-3.4,79529,List1A,white,man,,,,,"{""Q0"":""dave is challenging fred""}","<img src=""stim_listA/challenge6.gif""style=""height:400px;""></stim_listA>",is being challenged by,,,,,,
null,"<div style=""font-size:60px;"">+</div>",,html-keyboard-response,266,1994033,0.0-17.0-0.5,79529,List1A,white,man,,,,null,,,,,,,,,
null,"<img src=""stim_listA/greet3.gif""style=""height:400px;""></stim_listA>",,html-keyboard-response,267,1996035,0.0-17.0-1.5,79529,List1A,white,man,,,,null,,,,,,,,,
null,is greeting,,html-keyboard-response,268,1998040,0.0-17.0-2.5,79529,List1A,white,man,,,,null,,,,,,,,,
5199.5,,,survey-text,269,2003242,0.0-17.0-3.5,79529,List1A,white,man,,,,,"{""Q0"":""ruth is greeting dave""}","<img src=""stim_listA/greet3.gif""style=""height:400px;""></stim_listA>",is greeting,,,,,,
null,"<div style=""font-size:60px;"">+</div>",,html-keyboard-response,270,2003747,0.0-17.0-0.6,79529,List1A,white,man,,,,null,,,,,,,,,
null,"<img src=""stim_listA/hug7.gif""style=""height:400px;""></stim_listA>",,html-keyboard-response,271,2005752,0.0-17.0-1.6,79529,List1A,white,man,,,,null,,,,,,,,,
null,is hugging,,html-keyboard-response,272,2007758,0.0-17.0-2.6,79529,List1A,white,man,,,,null,,,,,,,,,
5738.2,,,survey-text,273,2013498,0.0-17.0-3.6,79529,List1A,white,man,,,,,"{""Q0"":""beth is hugging ruth""}","<img src=""stim_listA/hug7.gif""style=""height:400px;""></stim_listA>",is hugging,,,,,,
null,"<div style=""font-size:60px;"">+</div>",,html-keyboard-response,274,2014003,0.0-17.0-0.7,79529,List1A,white,man,,,,null,,,,,,,,,
null,"<img src=""stim_listA/challenge1.gif""style=""height:400px;""></stim_listA>",,html-keyboard-response,275,2016009,0.0-17.0-1.7,79529,List1A,white,man,,,,null,,,,,,,,,
null,is challenging,,html-keyboard-response,276,2018014,0.0-17.0-2.7,79529,List1A,white,man,,,,null,,,,,,,,,
7922.2,,,survey-text,277,2025938,0.0-17.0-3.7,79529,List1A,white,man,,,,,"{""Q0"":""beth is challenging mike""}","<img src=""stim_listA/challenge1.gif""style=""height:400px;""></stim_listA>",is challenging,,,,,,
null,"<div style=""font-size:60px;"">+</div>",,html-keyboard-response,278,2026441,0.0-17.0-0.8,79529,List1A,white,man,,,,null,,,,,,,,,
null,"<img src=""stim_listA/oppose1.gif""style=""height:400px;""></stim_listA>",,html-keyboard-response,279,2028442,0.0-17.0-1.8,79529,List1A,white,man,,,,null,,,,,,,,,
null,is opposing,,html-keyboard-response,280,2030444,0.0-17.0-2.8,79529,List1A,white,man,,,,null,,,,,,,,,
6653,,,survey-text,281,2037099,0.0-17.0-3.8,79529,List1A,white,man,,,,,"{""Q0"":""kate is opposing mike""}","<img src=""stim_listA/oppose1.gif""style=""height:400px;""></stim_listA>",is opposing,,,,,,
null,"<div style=""font-size:60px;"">+</div>",,html-keyboard-response,282,2037604,0.0-17.0-0.9,79529,List1A,white,man,,,,null,,,,,,,,,
null,"<img src=""stim_listA/greet5.gif""style=""height:400px;""></stim_listA>",,html-keyboard-response,283,2039609,0.0-17.0-1.9,79529,List1A,white,man,,,,null,,,,,,,,,
null,is greeting,,html-keyboard-response,284,2041614,0.0-17.0-2.9,79529,List1A,white,man,,,,null,,,,,,,,,
5170.6,,,survey-text,285,2046787,0.0-17.0-3.9,79529,List1A,white,man,,,,,"{""Q0"":""mike is greeting luke""}","<img src=""stim_listA/greet5.gif""style=""height:400px;""></stim_listA>",is greeting,,,,,,
null,"<div style=""font-size:60px;"">+</div>",,html-keyboard-response,286,2047289,0.0-17.0-0.10,79529,List1A,white,man,,,,null,,,,,,,,,
null,"<img src=""stim_listA/hug2.gif""style=""height:400px;""></stim_listA>",,html-keyboard-response,287,2049295,0.0-17.0-1.10,79529,List1A,white,man,,,,null,,,,,,,,,
null,is being hugged by,,html-keyboard-response,288,2051299,0.0-17.0-2.10,79529,List1A,white,man,,,,null,,,,,,,,,
9446.5,,,survey-text,289,2060747,0.0-17.0-3.10,79529,List1A,white,man,,,,,"{""Q0"":""mike is being hugged by kate""}","<img src=""stim_listA/hug2.gif""style=""height:400px;""></stim_listA>",is being hugged by,,,,,,
null,"<div style=""font-size:60px;"">+</div>",,html-keyboard-response,290,2061252,0.0-17.0-0.11,79529,List1A,white,man,,,,null,,,,,,,,,
null,"<img src=""stim_listA/oppose7.gif""style=""height:400px;""></stim_listA>",,html-keyboard-response,291,2063258,0.0-17.0-1.11,79529,List1A,white,man,,,,null,,,,,,,,,
null,is opposing,,html-keyboard-response,292,2065259,0.0-17.0-2.11,79529,List1A,white,man,,,,null,,,,,,,,,
5063.1,,,survey-text,293,2070324,0.0-17.0-3.11,79529,List1A,white,man,,,,,"{""Q0"":""kate is opposing jane""}","<img src=""stim_listA/oppose7.gif""style=""height:400px;""></stim_listA>",is opposing,,,,,,
null,"<div style=""font-size:60px;"">+</div>",,html-keyboard-response,294,2070826,0.0-17.0-0.12,79529,List1A,white,man,,,,null,,,,,,,,,
null,"<img src=""stim_listA/hug3.gif""style=""height:400px;""></stim_listA>",,html-keyboard-response,295,2072831,0.0-17.0-1.12,79529,List1A,white,man,,,,null,,,,,,,,,
null,is hugging,,html-keyboard-response,296,2074837,0.0-17.0-2.12,79529,List1A,white,man,,,,null,,,,,,,,,
8205.2,,,survey-text,297,2083044,0.0-17.0-3.12,79529,List1A,white,man,,,,,"{""Q0"":""ruth is hugging luke""}","<img src=""stim_listA/hug3.gif""style=""height:400px;""></stim_listA>",is hugging,,,,,,
null,"<div style=""font-size:60px;"">+</div>",,html-keyboard-response,298,2083546,0.0-17.0-0.13,79529,List1A,white,man,,,,null,,,,,,,,,
null,"<img src=""stim_listA/touch8.gif""style=""height:400px;""></stim_listA>",,html-keyboard-response,299,2085552,0.0-17.0-1.13,79529,List1A,white,man,,,,null,,,,,,,,,
null,is being touched by,,html-keyboard-response,300,2087553,0.0-17.0-2.13,79529,List1A,white,man,,,,null,,,,,,,,,
7833.3,,,survey-text,301,2095388,0.0-17.0-3.13,79529,List1A,white,man,,,,,"{""Q0"":""ruth is being touched by beth""}","<img src=""stim_listA/touch8.gif""style=""height:400px;""></stim_listA>",is being touched by,,,,,,
null,"<div style=""font-size:60px;"">+</div>",,html-keyboard-response,302,2095893,0.0-17.0-0.14,79529,List1A,white,man,,,,null,,,,,,,,,
null,"<img src=""stim_listA/shout8.gif""style=""height:400px;""></stim_listA>",,html-keyboard-response,303,2097899,0.0-17.0-1.14,79529,List1A,white,man,,,,null,,,,,,,,,
null,is being shouted at by,,html-keyboard-response,304,2099904,0.0-17.0-2.14,79529,List1A,white,man,,,,null,,,,,,,,,
8154.7,,,survey-text,305,2108061,0.0-17.0-3.14,79529,List1A,white,man,,,,,"{""Q0"":""jane is shouting at kate""}","<img src=""stim_listA/shout8.gif""style=""height:400px;""></stim_listA>",is being shouted at by,,,,,,
null,"<div style=""font-size:60px;"">+</div>",,html-keyboard-response,306,2108566,0.0-17.0-0.15,79529,List1A,white,man,,,,null,,,,,,,,,
null,"<img src=""stim_listA/greet6.gif""style=""height:400px;""></stim_listA>",,html-keyboard-response,307,2110570,0.0-17.0-1.15,79529,List1A,white,man,,,,null,,,,,,,,,
null,is being greeted by,,html-keyboard-response,308,2112572,0.0-17.0-2.15,79529,List1A,white,man,,,,null,,,,,,,,,
11495.9,,,survey-text,309,2124072,0.0-17.0-3.15,79529,List1A,white,man,,,,,"{""Q0"":""luke is being greeted by dave""}","<img src=""stim_listA/greet6.gif""style=""height:400px;""></stim_listA>",is being greeted by,,,,,,
null,"<div style=""font-size:60px;"">+</div>",,html-keyboard-response,310,2124574,0.0-17.0-0.16,79529,List1A,white,man,,,,null,,,,,,,,,
null,"<img src=""stim_listA/touch7.gif""style=""height:400px;""></stim_listA>",,html-keyboard-response,311,2126580,0.0-17.0-1.16,79529,List1A,white,man,,,,null,,,,,,,,,
null,is touching,,html-keyboard-response,312,2128581,0.0-17.0-2.16,79529,List1A,white,man,,,,null,,,,,,,,,
4769.6,,,survey-text,313,2133353,0.0-17.0-3.16,79529,List1A,white,man,,,,,"{""Q0"":""jane is touching kate""}","<img src=""stim_listA/touch7.gif""style=""height:400px;""></stim_listA>",is touching,,,,,,
null,"<div style=""font-size:60px;"">+</div>",,html-keyboard-response,314,2133855,0.0-17.0-0.17,79529,List1A,white,man,,,,null,,,,,,,,,
null,"<img src=""stim_listA/shout7.gif""style=""height:400px;""></stim_listA>",,html-keyboard-response,315,2135861,0.0-17.0-1.17,79529,List1A,white,man,,,,null,,,,,,,,,
null,is shouting at,,html-keyboard-response,316,2137866,0.0-17.0-2.17,79529,List1A,white,man,,,,null,,,,,,,,,
5229,,,survey-text,317,2143097,0.0-17.0-3.17,79529,List1A,white,man,,,,,"{""Q0"":""beth is shouting at ruth""}","<img src=""stim_listA/shout7.gif""style=""height:400px;""></stim_listA>",is shouting at,,,,,,
null,"<div style=""font-size:60px;"">+</div>",,html-keyboard-response,318,2143600,0.0-17.0-0.18,79529,List1A,white,man,,,,null,,,,,,,,,
null,"<img src=""stim_listA/oppose5.gif""style=""height:400px;""></stim_listA>",,html-keyboard-response,319,2145605,0.0-17.0-1.18,79529,List1A,white,man,,,,null,,,,,,,,,
null,is opposing,,html-keyboard-response,320,2147611,0.0-17.0-2.18,79529,List1A,white,man,,,,null,,,,,,,,,
4821.6,,,survey-text,321,2152434,0.0-17.0-3.18,79529,List1A,white,man,,,,,"{""Q0"":""mike is opposing dave""}","<img src=""stim_listA/oppose5.gif""style=""height:400px;""></stim_listA>",is opposing,,,,,,
null,"<div style=""font-size:60px;"">+</div>",,html-keyboard-response,322,2152935,0.0-17.0-0.19,79529,List1A,white,man,,,,null,,,,,,,,,
null,"<img src=""stim_listA/look5.gif""style=""height:400px;""></stim_listA>",,html-keyboard-response,323,2154939,0.0-17.0-1.19,79529,List1A,white,man,,,,null,,,,,,,,,
null,is looking at,,html-keyboard-response,324,2156944,0.0-17.0-2.19,79529,List1A,white,man,,,,null,,,,,,,,,
6264,,,survey-text,325,2163210,0.0-17.0-3.19,79529,List1A,white,man,,,,,"{""Q0"":""fred is looking at luke""}","<img src=""stim_listA/look5.gif""style=""height:400px;""></stim_listA>",is looking at,,,,,,
1638.5,"<img src='img/portrait_matrix_list1.jpg' style='width:900px;height:500px;''></img><p>If you have memorised all the portraits and names and are ready to start, press Continue.</p><p><strong>Please note: Your memory of these faces will be tested 4 times during this experiment.</strong></p>",0,html-button-response,326,2164850,0.0-18.0-0.0,79529,List1A,white,man,,,,,,,,,,,,,
1333.6,"<img src=""portrait/WM2.jpg""style=""height:400px;""></img>",7,html-button-response,327,2167186,0.0-18.0-1.0,79529,List1A,white,man,,TRUE,7,,,,,,,,,,
null,CORRECT,,html-keyboard-response,328,2168689,0.0-18.0-2.0-0.0,79529,List1A,white,man,,,,null,,,,,,,,,
1391.9,"<img src=""portrait/WW2.jpg""style=""height:400px;""></img>",3,html-button-response,329,2170082,0.0-18.0-4.0,79529,List1A,white,man,,TRUE,3,,,,,,,,,,
null,CORRECT,,html-keyboard-response,330,2171585,0.0-18.0-5.0-0.0,79529,List1A,white,man,,,,null,,,,,,,,,
2568.1,"<img src=""portrait/WW1.jpg""style=""height:400px;""></img>",1,html-button-response,331,2174155,0.0-18.0-7.0,79529,List1A,white,man,,TRUE,1,,,,,,,,,,
null,CORRECT,,html-keyboard-response,332,2175660,0.0-18.0-8.0-0.0,79529,List1A,white,man,,,,null,,,,,,,,,
1101.5,"<img src=""portrait/BW1.jpg""style=""height:400px;""></img>",0,html-button-response,333,2176763,0.0-18.0-10.0,79529,List1A,white,man,,TRUE,0,,,,,,,,,,
null,CORRECT,,html-keyboard-response,334,2178268,0.0-18.0-11.0-0.0,79529,List1A,white,man,,,,null,,,,,,,,,
2053.3,"<img src=""portrait/WM1.jpg""style=""height:400px;""></img>",6,html-button-response,335,2180323,0.0-18.0-13.0,79529,List1A,white,man,,TRUE,6,,,,,,,,,,
null,CORRECT,,html-keyboard-response,336,2181825,0.0-18.0-14.0-0.0,79529,List1A,white,man,,,,null,,,,,,,,,
1624.3,"<img src=""portrait/BW2.jpg""style=""height:400px;""></img>",2,html-button-response,337,2183451,0.0-18.0-16.0,79529,List1A,white,man,,TRUE,2,,,,,,,,,,
null,CORRECT,,html-keyboard-response,338,2184956,0.0-18.0-17.0-0.0,79529,List1A,white,man,,,,null,,,,,,,,,
1477.3,"<img src=""portrait/BM2.jpg""style=""height:400px;""></img>",5,html-button-response,339,2186435,0.0-18.0-19.0,79529,List1A,white,man,,TRUE,5,,,,,,,,,,
null,CORRECT,,html-keyboard-response,340,2187938,0.0-18.0-20.0-0.0,79529,List1A,white,man,,,,null,,,,,,,,,
1512.1,"<img src=""portrait/BM1.jpg""style=""height:400px;""></img>",4,html-button-response,341,2189451,0.0-18.0-22.0,79529,List1A,white,man,,TRUE,4,,,,,,,,,,
null,CORRECT,,html-keyboard-response,342,2190956,0.0-18.0-23.0-0.0,79529,List1A,white,man,,,,null,,,,,,,,,
1261.3,<p>You got 8 out of 8 right first time. Press Continue.</p>,0,html-button-response,343,2192219,0.0-18.0-25.0,79529,List1A,white,man,,,,,,,,,,,,,
null,"<div style=""font-size:60px;"">+</div>",,html-keyboard-response,344,2193724,0.0-19.0-0.0,79529,List1A,white,man,,,,null,,,,,,,,,
null,"<img src=""stim_listA/kiss3.gif""style=""height:400px;""></stim_listA>",,html-keyboard-response,345,2195730,0.0-19.0-1.0,79529,List1A,white,man,,,,null,,,,,,,,,
null,is kissing,,html-keyboard-response,346,2197735,0.0-19.0-2.0,79529,List1A,white,man,,,,null,,,,,,,,,
6642.5,,,survey-text,347,2204380,0.0-19.0-3.0,79529,List1A,white,man,,,,,"{""Q0"":""luke is kissing ruth""}","<img src=""stim_listA/kiss3.gif""style=""height:400px;""></stim_listA>",is kissing,,,,,,
null,"<div style=""font-size:60px;"">+</div>",,html-keyboard-response,348,2204882,0.0-19.0-0.1,79529,List1A,white,man,,,,null,,,,,,,,,
null,"<img src=""stim_listA/hug6.gif""style=""height:400px;""></stim_listA>",,html-keyboard-response,349,2206888,0.0-19.0-1.1,79529,List1A,white,man,,,,null,,,,,,,,,
null,is being hugged by,,html-keyboard-response,350,2208893,0.0-19.0-2.1,79529,List1A,white,man,,,,null,,,,,,,,,
6221,,,survey-text,351,2215116,0.0-19.0-3.1,79529,List1A,white,man,,,,,"{""Q0"":""mike is being hugged by dave""}","<img src=""stim_listA/hug6.gif""style=""height:400px;""></stim_listA>",is being hugged by,,,,,,
null,"<div style=""font-size:60px;"">+</div>",,html-keyboard-response,352,2215619,0.0-19.0-0.2,79529,List1A,white,man,,,,null,,,,,,,,,
null,"<img src=""stim_listA/oppose3.gif""style=""height:400px;""></stim_listA>",,html-keyboard-response,353,2217624,0.0-19.0-1.2,79529,List1A,white,man,,,,null,,,,,,,,,
null,is opposing,,html-keyboard-response,354,2219629,0.0-19.0-2.2,79529,List1A,white,man,,,,null,,,,,,,,,
5340.8,,,survey-text,355,2224972,0.0-19.0-3.2,79529,List1A,white,man,,,,,"{""Q0"":""jane is opposing dave""}","<img src=""stim_listA/oppose3.gif""style=""height:400px;""></stim_listA>",is opposing,,,,,,
null,"<div style=""font-size:60px;"">+</div>",,html-keyboard-response,356,2225474,0.0-19.0-0.3,79529,List1A,white,man,,,,null,,,,,,,,,
null,"<img src=""stim_listA/touch1.gif""style=""height:400px;""></stim_listA>",,html-keyboard-response,357,2227480,0.0-19.0-1.3,79529,List1A,white,man,,,,null,,,,,,,,,
null,is touching,,html-keyboard-response,358,2229485,0.0-19.0-2.3,79529,List1A,white,man,,,,null,,,,,,,,,
12974,,,survey-text,359,2242461,0.0-19.0-3.3,79529,List1A,white,man,,,,,"{""Q0"":""mike is touching kate""}","<img src=""stim_listA/touch1.gif""style=""height:400px;""></stim_listA>",is touching,,,,,,
null,"<div style=""font-size:60px;"">+</div>",,html-keyboard-response,360,2242963,0.0-19.0-0.4,79529,List1A,white,man,,,,null,,,,,,,,,
null,"<img src=""stim_listA/copy1.gif""style=""height:400px;""></stim_listA>",,html-keyboard-response,361,2244969,0.0-19.0-1.4,79529,List1A,white,man,,,,null,,,,,,,,,
null,is copying,,html-keyboard-response,362,2246972,0.0-19.0-2.4,79529,List1A,white,man,,,,null,,,,,,,,,
8679.3,,,survey-text,363,2255653,0.0-19.0-3.4,79529,List1A,white,man,,,,,"{""Q0"":""mike is copying beth""}","<img src=""stim_listA/copy1.gif""style=""height:400px;""></stim_listA>",is copying,,,,,,
null,"<div style=""font-size:60px;"">+</div>",,html-keyboard-response,364,2256158,0.0-19.0-0.5,79529,List1A,white,man,,,,null,,,,,,,,,
null,"<img src=""stim_listA/copy7.gif""style=""height:400px;""></stim_listA>",,html-keyboard-response,365,2258164,0.0-19.0-1.5,79529,List1A,white,man,,,,null,,,,,,,,,
null,is copying,,html-keyboard-response,366,2260169,0.0-19.0-2.5,79529,List1A,white,man,,,,null,,,,,,,,,
9202.1,,,survey-text,367,2269374,0.0-19.0-3.5,79529,List1A,white,man,,,,,"{""Q0"":""ruth is copying kate""}","<img src=""stim_listA/copy7.gif""style=""height:400px;""></stim_listA>",is copying,,,,,,
null,"<div style=""font-size:60px;"">+</div>",,html-keyboard-response,368,2269876,0.0-19.0-0.6,79529,List1A,white,man,,,,null,,,,,,,,,
null,"<img src=""stim_listA/seduce3.gif""style=""height:400px;""></stim_listA>",,html-keyboard-response,369,2271882,0.0-19.0-1.6,79529,List1A,white,man,,,,null,,,,,,,,,
null,is seducing,,html-keyboard-response,370,2273883,0.0-19.0-2.6,79529,List1A,white,man,,,,null,,,,,,,,,
5032.8,,,survey-text,371,2278918,0.0-19.0-3.6,79529,List1A,white,man,,,,,"{""Q0"":""jane is seducing luke""}","<img src=""stim_listA/seduce3.gif""style=""height:400px;""></stim_listA>",is seducing,,,,,,
null,"<div style=""font-size:60px;"">+</div>",,html-keyboard-response,372,2279423,0.0-19.0-0.7,79529,List1A,white,man,,,,null,,,,,,,,,
null,"<img src=""stim_listA/challenge3.gif""style=""height:400px;""></stim_listA>",,html-keyboard-response,373,2281429,0.0-19.0-1.7,79529,List1A,white,man,,,,null,,,,,,,,,
null,is challenging,,html-keyboard-response,374,2283434,0.0-19.0-2.7,79529,List1A,white,man,,,,null,,,,,,,,,
6538,,,survey-text,375,2289974,0.0-19.0-3.7,79529,List1A,white,man,,,,,"{""Q0"":""dave is challenging ruth""}","<img src=""stim_listA/challenge3.gif""style=""height:400px;""></stim_listA>",is challenging,,,,,,
null,"<div style=""font-size:60px;"">+</div>",,html-keyboard-response,376,2290479,0.0-19.0-0.8,79529,List1A,white,man,,,,null,,,,,,,,,
null,"<img src=""stim_listA/copy8.gif""style=""height:400px;""></stim_listA>",,html-keyboard-response,377,2292485,0.0-19.0-1.8,79529,List1A,white,man,,,,null,,,,,,,,,
null,is being copied by,,html-keyboard-response,378,2294490,0.0-19.0-2.8,79529,List1A,white,man,,,,null,,,,,,,,,
8537.9,,,survey-text,379,2303031,0.0-19.0-3.8,79529,List1A,white,man,,,,,"{""Q0"":""jane is being copied by beth""}","<img src=""stim_listA/copy8.gif""style=""height:400px;""></stim_listA>",is being copied by,,,,,,
null,"<div style=""font-size:60px;"">+</div>",,html-keyboard-response,380,2303536,0.0-19.0-0.9,79529,List1A,white,man,,,,null,,,,,,,,,
null,"<img src=""stim_listA/shout6.gif""style=""height:400px;""></stim_listA>",,html-keyboard-response,381,2305541,0.0-19.0-1.9,79529,List1A,white,man,,,,null,,,,,,,,,
null,is being shouted at by,,html-keyboard-response,382,2307547,0.0-19.0-2.9,79529,List1A,white,man,,,,null,,,,,,,,,
9953.9,,,survey-text,383,2317503,0.0-19.0-3.9,79529,List1A,white,man,,,,,"{""Q0"":""dave is being shouted at by mike""}","<img src=""stim_listA/shout6.gif""style=""height:400px;""></stim_listA>",is being shouted at by,,,,,,
null,"<div style=""font-size:60px;"">+</div>",,html-keyboard-response,384,2318005,0.0-19.0-0.10,79529,List1A,white,man,,,,null,,,,,,,,,
null,"<img src=""stim_listA/touch3.gif""style=""height:400px;""></stim_listA>",,html-keyboard-response,385,2320011,0.0-19.0-1.10,79529,List1A,white,man,,,,null,,,,,,,,,
null,is touching,,html-keyboard-response,386,2322012,0.0-19.0-2.10,79529,List1A,white,man,,,,null,,,,,,,,,
6224.8,,,survey-text,387,2328239,0.0-19.0-3.10,79529,List1A,white,man,,,,,"{""Q0"":""dave is touching jane""}","<img src=""stim_listA/touch3.gif""style=""height:400px;""></stim_listA>",is touching,,,,,,
null,"<div style=""font-size:60px;"">+</div>",,html-keyboard-response,388,2328742,0.0-19.0-0.11,79529,List1A,white,man,,,,null,,,,,,,,,
null,"<img src=""stim_listA/kiss1.gif""style=""height:400px;""></stim_listA>",,html-keyboard-response,389,2330747,0.0-19.0-1.11,79529,List1A,white,man,,,,null,,,,,,,,,
null,is kissing,,html-keyboard-response,390,2332752,0.0-19.0-2.11,79529,List1A,white,man,,,,null,,,,,,,,,
7797.5,,,survey-text,391,2340552,0.0-19.0-3.11,79529,List1A,white,man,,,,,"{""Q0"":""fred is kissing beth""}","<img src=""stim_listA/kiss1.gif""style=""height:400px;""></stim_listA>",is kissing,,,,,,
null,"<div style=""font-size:60px;"">+</div>",,html-keyboard-response,392,2341057,0.0-19.0-0.12,79529,List1A,white,man,,,,null,,,,,,,,,
null,"<img src=""stim_listA/kiss7.gif""style=""height:400px;""></stim_listA>",,html-keyboard-response,393,2343062,0.0-19.0-1.12,79529,List1A,white,man,,,,null,,,,,,,,,
null,is kissing,,html-keyboard-response,394,2345068,0.0-19.0-2.12,79529,List1A,white,man,,,,null,,,,,,,,,
6730.5,,,survey-text,395,2351800,0.0-19.0-3.12,79529,List1A,white,man,,,,,"{""Q0"":""beth is kissing ruth""}","<img src=""stim_listA/kiss7.gif""style=""height:400px;""></stim_listA>",is kissing,,,,,,
null,"<div style=""font-size:60px;"">+</div>",,html-keyboard-response,396,2352303,0.0-19.0-0.13,79529,List1A,white,man,,,,null,,,,,,,,,
null,"<img src=""stim_listA/challenge8.gif""style=""height:400px;""></stim_listA>",,html-keyboard-response,397,2354305,0.0-19.0-1.13,79529,List1A,white,man,,,,null,,,,,,,,,
null,is being challenged by,,html-keyboard-response,398,2356310,0.0-19.0-2.13,79529,List1A,white,man,,,,null,,,,,,,,,
9184.6,,,survey-text,399,2365496,0.0-19.0-3.13,79529,List1A,white,man,,,,,"{""Q0"":""jane is being challenged by beth""}","<img src=""stim_listA/challenge8.gif""style=""height:400px;""></stim_listA>",is being challenged by,,,,,,
null,"<div style=""font-size:60px;"">+</div>",,html-keyboard-response,400,2366002,0.0-19.0-0.14,79529,List1A,white,man,,,,null,,,,,,,,,
null,"<img src=""stim_listA/seduce7.gif""style=""height:400px;""></stim_listA>",,html-keyboard-response,401,2368007,0.0-19.0-1.14,79529,List1A,white,man,,,,null,,,,,,,,,
null,is seducing,,html-keyboard-response,402,2370012,0.0-19.0-2.14,79529,List1A,white,man,,,,null,,,,,,,,,
4874.6,,,survey-text,403,2374889,0.0-19.0-3.14,79529,List1A,white,man,,,,,"{""Q0"":""beth is seducing jane""}","<img src=""stim_listA/seduce7.gif""style=""height:400px;""></stim_listA>",is seducing,,,,,,
null,"<div style=""font-size:60px;"">+</div>",,html-keyboard-response,404,2375394,0.0-19.0-0.15,79529,List1A,white,man,,,,null,,,,,,,,,
null,"<img src=""stim_listA/greet4.gif""style=""height:400px;""></stim_listA>",,html-keyboard-response,405,2377399,0.0-19.0-1.15,79529,List1A,white,man,,,,null,,,,,,,,,
null,is being greeted by,,html-keyboard-response,406,2379405,0.0-19.0-2.15,79529,List1A,white,man,,,,null,,,,,,,,,
8058.6,,,survey-text,407,2387465,0.0-19.0-3.15,79529,List1A,white,man,,,,,"{""Q0"":""jane is being greeted by luke""}","<img src=""stim_listA/greet4.gif""style=""height:400px;""></stim_listA>",is being greeted by,,,,,,
null,"<div style=""font-size:60px;"">+</div>",,html-keyboard-response,408,2387970,0.0-19.0-0.16,79529,List1A,white,man,,,,null,,,,,,,,,
null,"<img src=""stim_listA/shout4.gif""style=""height:400px;""></stim_listA>",,html-keyboard-response,409,2389976,0.0-19.0-1.16,79529,List1A,white,man,,,,null,,,,,,,,,
null,is being shouted at by,,html-keyboard-response,410,2391981,0.0-19.0-2.16,79529,List1A,white,man,,,,null,,,,,,,,,
6586.5,,,survey-text,411,2398569,0.0-19.0-3.16,79529,List1A,white,man,,,,,"{""Q0"":""jane is being shouted at by dave""}","<img src=""stim_listA/shout4.gif""style=""height:400px;""></stim_listA>",is being shouted at by,,,,,,
null,"<div style=""font-size:60px;"">+</div>",,html-keyboard-response,412,2399074,0.0-19.0-0.17,79529,List1A,white,man,,,,null,,,,,,,,,
null,"<img src=""stim_listA/seduce2.gif""style=""height:400px;""></stim_listA>",,html-keyboard-response,413,2401080,0.0-19.0-1.17,79529,List1A,white,man,,,,null,,,,,,,,,
null,is being seduced by,,html-keyboard-response,414,2403085,0.0-19.0-2.17,79529,List1A,white,man,,,,null,,,,,,,,,
11282.6,,,survey-text,415,2414370,0.0-19.0-3.17,79529,List1A,white,man,,,,,"{""Q0"":""beth is being seduced by mike""}","<img src=""stim_listA/seduce2.gif""style=""height:400px;""></stim_listA>",is being seduced by,,,,,,
null,"<div style=""font-size:60px;"">+</div>",,html-keyboard-response,416,2414872,0.0-19.0-0.18,79529,List1A,white,man,,,,null,,,,,,,,,
null,"<img src=""stim_listA/look3.gif""style=""height:400px;""></stim_listA>",,html-keyboard-response,417,2416878,0.0-19.0-1.18,79529,List1A,white,man,,,,null,,,,,,,,,
null,is looking at,,html-keyboard-response,418,2418879,0.0-19.0-2.18,79529,List1A,white,man,,,,null,,,,,,,,,
5401.4,,,survey-text,419,2424282,0.0-19.0-3.18,79529,List1A,white,man,,,,,"{""Q0"":""ruth is looking at luke""}","<img src=""stim_listA/look3.gif""style=""height:400px;""></stim_listA>",is looking at,,,,,,
null,"<div style=""font-size:60px;"">+</div>",,html-keyboard-response,420,2424787,0.0-19.0-0.19,79529,List1A,white,man,,,,null,,,,,,,,,
null,"<img src=""stim_listA/greet1.gif""style=""height:400px;""></stim_listA>",,html-keyboard-response,421,2426793,0.0-19.0-1.19,79529,List1A,white,man,,,,null,,,,,,,,,
null,is greeting,,html-keyboard-response,422,2428798,0.0-19.0-2.19,79529,List1A,white,man,,,,null,,,,,,,,,
6442.5,,,survey-text,423,2435243,0.0-19.0-3.19,79529,List1A,white,man,,,,,"{""Q0"":""mike is greeting beth""}","<img src=""stim_listA/greet1.gif""style=""height:400px;""></stim_listA>",is greeting,,,,,,
4086.5,<p>Thank you for completing that task.</p><p>The final part of this session is a questionnaire that will take about 4 minutes.</p><p>Press Continue.</p>,0,html-button-response,424,2439330,0.0-20.0,79529,List1A,white,man,,,,,,,,,,,,,
34857.8,,,survey-text,425,2475196,0.0-21.0,79529,List1A,white,man,,,,,"{""Q0"":""35"",""Q1"":""English"",""Q2"":""English"",""Q3"":""United States"",""Q4"":""American"",""Q5"":""White"",""Q6"":""Male""}",,,demographics,,,,,
2525.9,<p>Have you lived in the USA for the last 5 years or more?</p>,0,html-button-response,426,2477724,0.0-22.0,79529,List1A,white,man,,,,,,,,fiveyears,,,,,
3133.9,<p>Move the slider to show the extent to which you agree with the following statements.</p>,0,html-button-response,427,2481860,0.0-23.0,79529,List1A,white,man,,,,,,,,,,,,,
8146.4,,,html-slider-response,428,2491012,0.0-24.0-0.0-0.0,79529,List1A,white,man,,,,,,,,survey_race,59,,,I often think about the fact that I am my age.,filler
4005.8,,,html-slider-response,429,2495020,0.0-24.0-0.0-0.1,79529,List1A,white,man,,,,,,,,survey_race,66,,,Being my race is an important part of how I see myself.,important
3221.8,,,html-slider-response,430,2498244,0.0-24.0-0.0-0.2,79529,List1A,white,man,,,,,,,,survey_race,72,,,I consider myself an extrovert.,filler
3598.2,,,html-slider-response,431,2501844,0.0-24.0-0.0-0.3,79529,List1A,white,man,,,,,,,,survey_race,69,,,I have a lot in common with people of a similar age to me.,filler
3702.5,,,html-slider-response,432,2505548,0.0-24.0-0.0-0.4,79529,List1A,white,man,,,,,,,,survey_race,80,,,I feel a bond with people the same age as me.,filler
4350.6,,,html-slider-response,433,2509900,0.0-24.0-0.0-0.5,79529,List1A,white,man,,,,,,,,survey_race,51,,,I am glad to be my race.,glad
4030.4,,,html-slider-response,434,2513932,0.0-24.0-0.0-0.6,79529,List1A,white,man,,,,,,,,survey_race,31,,,I feel committed to my race.,committed
6558.8,,,html-slider-response,435,2520493,0.0-24.0-0.0-0.7,79529,List1A,white,man,,,,,,,,survey_race,15,,,It is pleasant to be my race.,pleasant
4678.4,,,html-slider-response,436,2525173,0.0-24.0-0.0-0.8,79529,List1A,white,man,,,,,,,,survey_race,4,,,People of my race are very similar to each other.,verysimilar
3902.7,,,html-slider-response,437,2529077,0.0-24.0-0.0-0.9,79529,List1A,white,man,,,,,,,,survey_race,23,,,People of my race have a lot in common with each other.,common
4278.1,,,html-slider-response,438,2533357,0.0-24.0-0.0-0.10,79529,List1A,white,man,,,,,,,,survey_race,61,,,I am similar to the average person of my race.,similar
4510.4,,,html-slider-response,439,2537870,0.0-24.0-0.0-0.11,79529,List1A,white,man,,,,,,,,survey_race,55,,,I often think about the fact that I am my race.,often
2750.3,,,html-slider-response,440,2540622,0.0-24.0-0.0-0.12,79529,List1A,white,man,,,,,,,,survey_race,52,,,I have a lot in common with the average person of my race.,average
3655,,,html-slider-response,441,2544278,0.0-24.0-0.0-0.13,79529,List1A,white,man,,,,,,,,survey_race,39,,,Being my age gives me a good feeling.,filler
3734.2,,,html-slider-response,442,2548014,0.0-24.0-0.0-0.14,79529,List1A,white,man,,,,,,,,survey_race,51,,,The fact that I am my race is an important part of my identity.,identity
4078.6,,,html-slider-response,443,2552094,0.0-24.0-0.0-0.15,79529,List1A,white,man,,,,,,,,survey_race,47,,,My age is not an important part of who I am.,filler
2406,,,html-slider-response,444,2554502,0.0-24.0-0.0-0.16,79529,List1A,white,man,,,,,,,,survey_race,27,,,I consider myself an introvert.,filler
4030.4,,,html-slider-response,445,2558534,0.0-24.0-0.0-0.17,79529,List1A,white,man,,,,,,,,survey_race,0,,,I think that my race has a lot to be proud of.,proud
4006.2,,,html-slider-response,446,2562542,0.0-24.0-0.0-0.18,79529,List1A,white,man,,,,,,,,survey_race,40,,,I feel solidarity with people the same age as me.,filler
2398.3,,,html-slider-response,447,2564942,0.0-24.0-0.0-0.19,79529,List1A,white,man,,,,,,,,survey_race,59,,,I am glad to be the age I am.,filler
4151.1,,,html-slider-response,448,2569094,0.0-24.0-0.0-0.20,79529,List1A,white,man,,,,,,,,survey_race,17,,,Being my race gives me a good feeling.,feeling
3166.6,,,html-slider-response,449,2572262,0.0-24.0-0.0-0.21,79529,List1A,white,man,,,,,,,,survey_race,18,,,I feel a bond with my race.,bond
4086.7,,,html-slider-response,450,2576351,0.0-24.0-0.0-0.22,79529,List1A,white,man,,,,,,,,survey_race,41,,,People my age have a lot in common with each other.,filler
2022.2,,,html-slider-response,451,2578375,0.0-24.0-0.0-0.23,79529,List1A,white,man,,,,,,,,survey_race,38,,,I feel solidarity with my race.,solidarity
1911,,,html-slider-response,452,2580287,0.0-24.0-0.0-0.24,79529,List1A,white,man,,,,,,,,survey_race,52,,,I am glad to be my age.,filler
2182.8,,,html-slider-response,453,2582471,0.0-24.0-0.0-0.25,79529,List1A,white,man,,,,,,,,survey_race,38,,,I enjoy being in large groups.,filler
2254.8,,,html-slider-response,454,2584727,0.0-24.0-0.0-0.26,79529,List1A,white,man,,,,,,,,survey_race,76,,,"The older I get, the wiser I feel.",filler
3142.8,,,html-slider-response,455,2587871,0.0-24.0-0.0-0.27,79529,List1A,white,man,,,,,,,,survey_race,86,,,Getting older does not worry me.,filler
3222.4,,,html-slider-response,456,2591095,0.0-24.0-1.0-0.0,79529,List1A,white,man,,,,,,,,survey_gender,17,,,I feel a bond with my gender.,bond
2286.7,,,html-slider-response,457,2593383,0.0-24.0-1.0-0.1,79529,List1A,white,man,,,,,,,,survey_gender,60,,,I feel solidarity with my friends.,filler
3398.4,,,html-slider-response,458,2596783,0.0-24.0-1.0-0.2,79529,List1A,white,man,,,,,,,,survey_gender,23,,,I feel solidarity with my gender.,solidarity
2662.7,,,html-slider-response,459,2599447,0.0-24.0-1.0-0.3,79529,List1A,white,man,,,,,,,,survey_gender,83,,,I consider myself a highly empathetic person.,filler
3158.3,,,html-slider-response,460,2602608,0.0-24.0-1.0-0.4,79529,List1A,white,man,,,,,,,,survey_gender,79,,,Most of the friends in my life are very similar to me.,filler
2718.7,,,html-slider-response,461,2605328,0.0-24.0-1.0-0.5,79529,List1A,white,man,,,,,,,,survey_gender,32,,,Being my gender gives me a good feeling.,feeling
2190,,,html-slider-response,462,2607519,0.0-24.0-1.0-0.6,79529,List1A,white,man,,,,,,,,survey_gender,82,,,I feel a bond with my friends.,filler
2462.8,,,html-slider-response,463,2609984,0.0-24.0-1.0-0.7,79529,List1A,white,man,,,,,,,,survey_gender,38,,,I feel committed to my gender.,committed
3838.6,,,html-slider-response,464,2613824,0.0-24.0-1.0-0.8,79529,List1A,white,man,,,,,,,,survey_gender,14,,,I often think about my actions.,filler
2446.1,,,html-slider-response,465,2616272,0.0-24.0-1.0-0.9,79529,List1A,white,man,,,,,,,,survey_gender,89,,,I would say I am an animal person.,filler
4814.7,,,html-slider-response,466,2621088,0.0-24.0-1.0-0.10,79529,List1A,white,man,,,,,,,,survey_gender,40,,,The fact that I am my gender is an important part of my identity.,identity
2158.6,,,html-slider-response,467,2623248,0.0-24.0-1.0-0.11,79529,List1A,white,man,,,,,,,,survey_gender,62,,,I have a lot in common with my friends.,filler
2639.4,,,html-slider-response,468,2625889,0.0-24.0-1.0-0.12,79529,List1A,white,man,,,,,,,,survey_gender,60,,,People of my gender are very similar to each other.,verysimilar
2949.8,,,html-slider-response,469,2628840,0.0-24.0-1.0-0.13,79529,List1A,white,man,,,,,,,,survey_gender,32,,,I often think about the fact that I am my gender.,often
2343.2,,,html-slider-response,470,2631184,0.0-24.0-1.0-0.14,79529,List1A,white,man,,,,,,,,survey_gender,81,,,I am glad to have the friends that I have.,filler
2150.8,,,html-slider-response,471,2633336,0.0-24.0-1.0-0.15,79529,List1A,white,man,,,,,,,,survey_gender,35,,,It is pleasant to be my gender.,pleasant
3734.6,,,html-slider-response,472,2637072,0.0-24.0-1.0-0.16,79529,List1A,white,man,,,,,,,,survey_gender,39,,,Family is not more important to me than friendship.,filler
3086.9,,,html-slider-response,473,2640161,0.0-24.0-1.0-0.17,79529,List1A,white,man,,,,,,,,survey_gender,18,,,I think that my gender has a lot to be proud of.,proud
2278.6,,,html-slider-response,474,2642441,0.0-24.0-1.0-0.18,79529,List1A,white,man,,,,,,,,survey_gender,37,,,I am glad to be my gender.,glad
2006.8,,,html-slider-response,475,2644449,0.0-24.0-1.0-0.19,79529,List1A,white,man,,,,,,,,survey_gender,94,,,My friends understand me.,filler
8358.3,,,html-slider-response,476,2652809,0.0-24.0-1.0-0.20,79529,List1A,white,man,,,,,,,,survey_gender,100,,,It is not always easy for people to know what I am thinking.,filler
3038.9,,,html-slider-response,477,2655849,0.0-24.0-1.0-0.21,79529,List1A,white,man,,,,,,,,survey_gender,39,,,I am similar to the average person of my gender.,similar
2902.3,,,html-slider-response,478,2658753,0.0-24.0-1.0-0.22,79529,List1A,white,man,,,,,,,,survey_gender,100,,,Being around my friends gives me a good feeling.,filler
2398.7,,,html-slider-response,479,2661153,0.0-24.0-1.0-0.23,79529,List1A,white,man,,,,,,,,survey_gender,19,,,Being my gender is an important part of how I see myself.,important
3070.6,,,html-slider-response,480,2664225,0.0-24.0-1.0-0.24,79529,List1A,white,man,,,,,,,,survey_gender,37,,,I have a lot in common with the average person of my gender.,average
2542.3,,,html-slider-response,481,2666769,0.0-24.0-1.0-0.25,79529,List1A,white,man,,,,,,,,survey_gender,80,,,My friends have a lot in common with each other.,filler
2742.8,,,html-slider-response,482,2669514,0.0-24.0-1.0-0.26,79529,List1A,white,man,,,,,,,,survey_gender,0,,,Routine is not important to me.,filler
2933.9,,,html-slider-response,483,2672449,0.0-24.0-1.0-0.27,79529,List1A,white,man,,,,,,,,survey_gender,39,,,People of my gender have a lot in common with each other.,common
29518.5,,,survey-text,484,2701970,0.0-25.0,79529,List1A,white,man,,,,,"{""Q0"":""ccc""}",,,worker_id,,,,,
4907.6,,,external-html,485,2707147,0.0-26.0,79529,List1A,white,man,debrief.html,,,,,,,,,,,,
