rt,stimulus,button_pressed,trial_type,trial_index,time_elapsed,internal_node_id,subject,list,ppt_race,ppt_gender,url,first_guess,correct,key_press,responses,image_type,phrase_type,test_part,response,stimulus1,stimulus2,question_type,survey_item
5589.6,Welcome to the experiment. Press Continue to begin.,0,html-button-response,0,5605,0.0-0.0,80487,List1B,white,man,,,,,,,,,,,,,
10665.5,,,external-html,1,18707,0.0-1.0,80487,List1B,white,man,consent.html,,,,,,,,,,,,
21337.7,"<p>On the next page, you will see portraits of 8 people and their names.</p><p>Your first task is to take a few minutes to memorise the names of these people.</p><p>You will have to recall their names during the rest of the experiment, so it is</p><p>essential that you try to memorise these people and their names as best as you can.</p><br><p><strong>You will then be tested on your memory of these names and portraits.</strong></p><br><p>The experiment will start after you have completed this memory test.</p><br><p>Ready?</p>",0,html-button-response,2,40052,0.0-2.0,80487,List1B,white,man,,,,,,,,,,,,,
208743.2,"<img src='img/portrait_matrix_list1.jpg' style='width:900px;height:500px;''></img><p>If you have memorised all the portraits and names and are ready to start, press Continue.</p><p><strong>Please note: Your memory of these faces will be tested 4 times during this experiment.</strong></p>",0,html-button-response,3,249811,0.0-3.0-0.0,80487,List1B,white,man,,,,,,,,,,,,,
9933.6,"<img src=""portrait/BM1.jpg""style=""height:400px;""></img>",4,html-button-response,4,260776,0.0-3.0-1.0,80487,List1B,white,man,,TRUE,4,,,,,,,,,,
null,CORRECT,,html-keyboard-response,5,262302,0.0-3.0-2.0-0.0,80487,List1B,white,man,,,,null,,,,,,,,,
13037.5,"<img src=""portrait/WW2.jpg""style=""height:400px;""></img>",3,html-button-response,6,275351,0.0-3.0-4.0,80487,List1B,white,man,,TRUE,3,,,,,,,,,,
null,CORRECT,,html-keyboard-response,7,276879,0.0-3.0-5.0-0.0,80487,List1B,white,man,,,,null,,,,,,,,,
12100.6,"<img src=""portrait/BW2.jpg""style=""height:400px;""></img>",2,html-button-response,8,288989,0.0-3.0-7.0,80487,List1B,white,man,,TRUE,2,,,,,,,,,,
null,CORRECT,,html-keyboard-response,9,290496,0.0-3.0-8.0-0.0,80487,List1B,white,man,,,,null,,,,,,,,,
6623.3,"<img src=""portrait/WW1.jpg""style=""height:400px;""></img>",1,html-button-response,10,297129,0.0-3.0-10.0,80487,List1B,white,man,,TRUE,1,,,,,,,,,,
null,CORRECT,,html-keyboard-response,11,298637,0.0-3.0-11.0-0.0,80487,List1B,white,man,,,,null,,,,,,,,,
7263.6,"<img src=""portrait/WM2.jpg""style=""height:400px;""></img>",7,html-button-response,12,305910,0.0-3.0-13.0,80487,List1B,white,man,,TRUE,7,,,,,,,,,,
null,CORRECT,,html-keyboard-response,13,307417,0.0-3.0-14.0-0.0,80487,List1B,white,man,,,,null,,,,,,,,,
10806.2,"<img src=""portrait/BW1.jpg""style=""height:400px;""></img>",0,html-button-response,14,318231,0.0-3.0-16.0,80487,List1B,white,man,,TRUE,0,,,,,,,,,,
null,CORRECT,,html-keyboard-response,15,319737,0.0-3.0-17.0-0.0,80487,List1B,white,man,,,,null,,,,,,,,,
5338.9,"<img src=""portrait/WM1.jpg""style=""height:400px;""></img>",6,html-button-response,16,325086,0.0-3.0-19.0,80487,List1B,white,man,,TRUE,6,,,,,,,,,,
null,CORRECT,,html-keyboard-response,17,326592,0.0-3.0-20.0-0.0,80487,List1B,white,man,,,,null,,,,,,,,,
9204.6,"<img src=""portrait/BM2.jpg""style=""height:400px;""></img>",5,html-button-response,18,335806,0.0-3.0-22.0,80487,List1B,white,man,,TRUE,5,,,,,,,,,,
null,CORRECT,,html-keyboard-response,19,337312,0.0-3.0-23.0-0.0,80487,List1B,white,man,,,,null,,,,,,,,,
5148.1,<p>You got 8 out of 8 right first time. Press Continue.</p>,0,html-button-response,20,342472,0.0-3.0-25.0,80487,List1B,white,man,,,,,,,,,,,,,
158419.2,"<p>In this experiment, you will view photographs of the people from the memory game interacting.</p><p>By using the <strong>exact</strong> phrase given <i>after</i> the photograph appears and recalling the correct names of the people in the photographs, form a sentence describing the interaction. You do not need to capitalise names.</p><p>Type your answer in the space provided. Please complete every sentence before moving onto the next trial.</p><p>You will only have a few seconds to memorise each given photograph and phrase before you can respond, so try your best to focus.</p><p>An example is given below. Press 'Continue' when you are ready.</p><img src='img/speaking_example.jpg' style='width:800px;height:460px;''></img>",0,html-button-response,21,501908,0.0-4.0,80487,List1B,white,man,,,,,,,,,,,,,
5361.5,"<p>Before the experiment starts, you will watch two example trials. Press 'Continue'.</p>",0,html-button-response,22,508278,0.0-5.0,80487,List1B,white,man,,,,,,,,,,,,,
null,<img src='img/play_eg.gif' style='height:400px;''></img>,,html-keyboard-response,23,511287,0.0-6.0,80487,List1B,white,man,,,,null,,,,,,,,,
null,<p>is playing with</p>,,html-keyboard-response,24,513292,0.0-7.0,80487,List1B,white,man,,,,null,,,,,,,,,
9433.4,<p><b>Answer:</b> kate is playing with beth</p>,0,html-button-response,25,522731,0.0-8.0,80487,List1B,white,man,,,,,,,,,,,,,
null,<img src='img/dance_eg.gif' style='height:400px;''></img>,,html-keyboard-response,26,525740,0.0-9.0,80487,List1B,white,man,,,,null,,,,,,,,,
null,<p>is being entertained by</p>,,html-keyboard-response,27,527745,0.0-10.0,80487,List1B,white,man,,,,null,,,,,,,,,
3684.6,<p><b>Answer:</b> luke is being entertained by dave</p>,0,html-button-response,28,531436,0.0-11.0,80487,List1B,white,man,,,,,,,,,,,,,
7293.5,"<p>Ready to start the experiment?</p><br><p><strong>Remember to describe the picture using a full sentence,</strong></p><p><strong>that combines the names of the people with the <i>exact</i> phrase given.</strong></p><p><strong>To receive full payment you must do this correctly.</strong></p><p><strong> You do not need to capitalise names or use punctuation.</strong></p><br><p>Press 'Continue' to begin.</p>",0,html-button-response,29,539737,0.0-12.0,80487,List1B,white,man,,,,,,,,,,,,,
null,"<div style=""font-size:60px;"">+</div>",,html-keyboard-response,30,541246,0.0-13.0-0.0,80487,List1B,white,man,,,,null,,,,,,,,,
null,"<img src=""stim_listB/oppose8.gif""style=""height:400px;""></stim_listB>",,html-keyboard-response,31,543266,0.0-13.0-1.0,80487,List1B,white,man,,,,null,,,,,,,,,
null,is being opposed by,,html-keyboard-response,32,545270,0.0-13.0-2.0,80487,List1B,white,man,,,,null,,,,,,,,,
30828.2,,,survey-text,33,576170,0.0-13.0-3.0,80487,List1B,white,man,,,,,"{""Q0"":""Ruth is fighting with beth""}","<img src=""stim_listB/oppose8.gif""style=""height:400px;""></stim_listB>",is being opposed by,,,,,,
null,"<div style=""font-size:60px;"">+</div>",,html-keyboard-response,34,576679,0.0-13.0-0.1,80487,List1B,white,man,,,,null,,,,,,,,,
null,"<img src=""stim_listB/seduce2.gif""style=""height:400px;""></stim_listB>",,html-keyboard-response,35,578689,0.0-13.0-1.1,80487,List1B,white,man,,,,null,,,,,,,,,
null,is being seduced by,,html-keyboard-response,36,580694,0.0-13.0-2.1,80487,List1B,white,man,,,,null,,,,,,,,,
27792.2,,,survey-text,37,608504,0.0-13.0-3.1,80487,List1B,white,man,,,,,"{""Q0"":""Mike is having a nice time with kate""}","<img src=""stim_listB/seduce2.gif""style=""height:400px;""></stim_listB>",is being seduced by,,,,,,
null,"<div style=""font-size:60px;"">+</div>",,html-keyboard-response,38,609011,0.0-13.0-0.2,80487,List1B,white,man,,,,null,,,,,,,,,
null,"<img src=""stim_listB/greet1.gif""style=""height:400px;""></stim_listB>",,html-keyboard-response,39,611019,0.0-13.0-1.2,80487,List1B,white,man,,,,null,,,,,,,,,
null,is greeting,,html-keyboard-response,40,613024,0.0-13.0-2.2,80487,List1B,white,man,,,,null,,,,,,,,,
15774.8,,,survey-text,41,628816,0.0-13.0-3.2,80487,List1B,white,man,,,,,"{""Q0"":""Mike is greeting kate""}","<img src=""stim_listB/greet1.gif""style=""height:400px;""></stim_listB>",is greeting,,,,,,
null,"<div style=""font-size:60px;"">+</div>",,html-keyboard-response,42,629322,0.0-13.0-0.3,80487,List1B,white,man,,,,null,,,,,,,,,
null,"<img src=""stim_listB/touch7.gif""style=""height:400px;""></stim_listB>",,html-keyboard-response,43,631330,0.0-13.0-1.3,80487,List1B,white,man,,,,null,,,,,,,,,
null,is touching,,html-keyboard-response,44,633336,0.0-13.0-2.3,80487,List1B,white,man,,,,null,,,,,,,,,
47543.6,,,survey-text,45,680900,0.0-13.0-3.3,80487,List1B,white,man,,,,,"{""Q0"":""Kate is touching jane""}","<img src=""stim_listB/touch7.gif""style=""height:400px;""></stim_listB>",is touching,,,,,,
null,"<div style=""font-size:60px;"">+</div>",,html-keyboard-response,46,681405,0.0-13.0-0.4,80487,List1B,white,man,,,,null,,,,,,,,,
null,"<img src=""stim_listB/oppose5.gif""style=""height:400px;""></stim_listB>",,html-keyboard-response,47,683414,0.0-13.0-1.4,80487,List1B,white,man,,,,null,,,,,,,,,
null,is opposing,,html-keyboard-response,48,685419,0.0-13.0-2.4,80487,List1B,white,man,,,,null,,,,,,,,,
22858.7,,,survey-text,49,708297,0.0-13.0-3.4,80487,List1B,white,man,,,,,"{""Q0"":""Mike is opposing dave""}","<img src=""stim_listB/oppose5.gif""style=""height:400px;""></stim_listB>",is opposing,,,,,,
null,"<div style=""font-size:60px;"">+</div>",,html-keyboard-response,50,708803,0.0-13.0-0.5,80487,List1B,white,man,,,,null,,,,,,,,,
null,"<img src=""stim_listB/challenge7.gif""style=""height:400px;""></stim_listB>",,html-keyboard-response,51,710812,0.0-13.0-1.5,80487,List1B,white,man,,,,null,,,,,,,,,
null,is challenging,,html-keyboard-response,52,712818,0.0-13.0-2.5,80487,List1B,white,man,,,,null,,,,,,,,,
21320.9,,,survey-text,53,734155,0.0-13.0-3.5,80487,List1B,white,man,,,,,"{""Q0"":""Ruth is challenging kate""}","<img src=""stim_listB/challenge7.gif""style=""height:400px;""></stim_listB>",is challenging,,,,,,
null,"<div style=""font-size:60px;"">+</div>",,html-keyboard-response,54,734660,0.0-13.0-0.6,80487,List1B,white,man,,,,null,,,,,,,,,
null,"<img src=""stim_listB/oppose4.gif""style=""height:400px;""></stim_listB>",,html-keyboard-response,55,736668,0.0-13.0-1.6,80487,List1B,white,man,,,,null,,,,,,,,,
null,is being opposed by,,html-keyboard-response,56,738673,0.0-13.0-2.6,80487,List1B,white,man,,,,null,,,,,,,,,
22663.2,,,survey-text,57,761355,0.0-13.0-3.6,80487,List1B,white,man,,,,,"{""Q0"":""Ruth is being opposed by Luke""}","<img src=""stim_listB/oppose4.gif""style=""height:400px;""></stim_listB>",is being opposed by,,,,,,
null,"<div style=""font-size:60px;"">+</div>",,html-keyboard-response,58,761861,0.0-13.0-0.7,80487,List1B,white,man,,,,null,,,,,,,,,
null,"<img src=""stim_listB/look8.gif""style=""height:400px;""></stim_listB>",,html-keyboard-response,59,763871,0.0-13.0-1.7,80487,List1B,white,man,,,,null,,,,,,,,,
null,is being looked at by,,html-keyboard-response,60,765877,0.0-13.0-2.7,80487,List1B,white,man,,,,null,,,,,,,,,
33421.7,,,survey-text,61,799314,0.0-13.0-3.7,80487,List1B,white,man,,,,,"{""Q0"":""Kate is being looked by jane""}","<img src=""stim_listB/look8.gif""style=""height:400px;""></stim_listB>",is being looked at by,,,,,,
null,"<div style=""font-size:60px;"">+</div>",,html-keyboard-response,62,799819,0.0-13.0-0.8,80487,List1B,white,man,,,,null,,,,,,,,,
null,"<img src=""stim_listB/hug1.gif""style=""height:400px;""></stim_listB>",,html-keyboard-response,63,801829,0.0-13.0-1.8,80487,List1B,white,man,,,,null,,,,,,,,,
null,is hugging,,html-keyboard-response,64,803834,0.0-13.0-2.8,80487,List1B,white,man,,,,null,,,,,,,,,
14231.3,,,survey-text,65,818081,0.0-13.0-3.8,80487,List1B,white,man,,,,,"{""Q0"":""Fred is hugging beth""}","<img src=""stim_listB/hug1.gif""style=""height:400px;""></stim_listB>",is hugging,,,,,,
null,"<div style=""font-size:60px;"">+</div>",,html-keyboard-response,66,818588,0.0-13.0-0.9,80487,List1B,white,man,,,,null,,,,,,,,,
null,"<img src=""stim_listB/greet7.gif""style=""height:400px;""></stim_listB>",,html-keyboard-response,67,820598,0.0-13.0-1.9,80487,List1B,white,man,,,,null,,,,,,,,,
null,is greeting,,html-keyboard-response,68,822645,0.0-13.0-2.9,80487,List1B,white,man,,,,null,,,,,,,,,
16353.2,,,survey-text,69,839016,0.0-13.0-3.9,80487,List1B,white,man,,,,,"{""Q0"":""Ruth is greeting kate""}","<img src=""stim_listB/greet7.gif""style=""height:400px;""></stim_listB>",is greeting,,,,,,
null,"<div style=""font-size:60px;"">+</div>",,html-keyboard-response,70,839522,0.0-13.0-0.10,80487,List1B,white,man,,,,null,,,,,,,,,
null,"<img src=""stim_listB/seduce4.gif""style=""height:400px;""></stim_listB>",,html-keyboard-response,71,841530,0.0-13.0-1.10,80487,List1B,white,man,,,,null,,,,,,,,,
null,is being seduced by,,html-keyboard-response,72,843535,0.0-13.0-2.10,80487,List1B,white,man,,,,null,,,,,,,,,
53290.3,,,survey-text,73,896841,0.0-13.0-3.10,80487,List1B,white,man,,,,,"{""Q0"":""Ruth is being seduced by dave""}","<img src=""stim_listB/seduce4.gif""style=""height:400px;""></stim_listB>",is being seduced by,,,,,,
null,"<div style=""font-size:60px;"">+</div>",,html-keyboard-response,74,897348,0.0-13.0-0.11,80487,List1B,white,man,,,,null,,,,,,,,,
null,"<img src=""stim_listB/hug5.gif""style=""height:400px;""></stim_listB>",,html-keyboard-response,75,899356,0.0-13.0-1.11,80487,List1B,white,man,,,,null,,,,,,,,,
null,is hugging,,html-keyboard-response,76,901363,0.0-13.0-2.11,80487,List1B,white,man,,,,null,,,,,,,,,
13550.2,,,survey-text,77,914928,0.0-13.0-3.11,80487,List1B,white,man,,,,,"{""Q0"":""Fred is hugging Luke""}","<img src=""stim_listB/hug5.gif""style=""height:400px;""></stim_listB>",is hugging,,,,,,
null,"<div style=""font-size:60px;"">+</div>",,html-keyboard-response,78,915432,0.0-13.0-0.12,80487,List1B,white,man,,,,null,,,,,,,,,
null,"<img src=""stim_listB/kiss5.gif""style=""height:400px;""></stim_listB>",,html-keyboard-response,79,917440,0.0-13.0-1.12,80487,List1B,white,man,,,,null,,,,,,,,,
null,is kissing,,html-keyboard-response,80,919445,0.0-13.0-2.12,80487,List1B,white,man,,,,null,,,,,,,,,
16542.2,,,survey-text,81,936007,0.0-13.0-3.12,80487,List1B,white,man,,,,,"{""Q0"":""Fred is kissing Luke""}","<img src=""stim_listB/kiss5.gif""style=""height:400px;""></stim_listB>",is kissing,,,,,,
null,"<div style=""font-size:60px;"">+</div>",,html-keyboard-response,82,936512,0.0-13.0-0.13,80487,List1B,white,man,,,,null,,,,,,,,,
null,"<img src=""stim_listB/seduce7.gif""style=""height:400px;""></stim_listB>",,html-keyboard-response,83,938517,0.0-13.0-1.13,80487,List1B,white,man,,,,null,,,,,,,,,
null,is seducing,,html-keyboard-response,84,940522,0.0-13.0-2.13,80487,List1B,white,man,,,,null,,,,,,,,,
24013.2,,,survey-text,85,964553,0.0-13.0-3.13,80487,List1B,white,man,,,,,"{""Q0"":""Kate is seducing beth""}","<img src=""stim_listB/seduce7.gif""style=""height:400px;""></stim_listB>",is seducing,,,,,,
null,"<div style=""font-size:60px;"">+</div>",,html-keyboard-response,86,965058,0.0-13.0-0.14,80487,List1B,white,man,,,,null,,,,,,,,,
null,"<img src=""stim_listB/look4.gif""style=""height:400px;""></stim_listB>",,html-keyboard-response,87,967065,0.0-13.0-1.14,80487,List1B,white,man,,,,null,,,,,,,,,
null,is being looked at by,,html-keyboard-response,88,969068,0.0-13.0-2.14,80487,List1B,white,man,,,,null,,,,,,,,,
16129.1,,,survey-text,89,985213,0.0-13.0-3.14,80487,List1B,white,man,,,,,"{""Q0"":""Dave is being looked at jane""}","<img src=""stim_listB/look4.gif""style=""height:400px;""></stim_listB>",is being looked at by,,,,,,
null,"<div style=""font-size:60px;"">+</div>",,html-keyboard-response,90,985719,0.0-13.0-0.15,80487,List1B,white,man,,,,null,,,,,,,,,
null,"<img src=""stim_listB/challenge8.gif""style=""height:400px;""></stim_listB>",,html-keyboard-response,91,987729,0.0-13.0-1.15,80487,List1B,white,man,,,,null,,,,,,,,,
null,is being challenged by,,html-keyboard-response,92,989735,0.0-13.0-2.15,80487,List1B,white,man,,,,null,,,,,,,,,
20769.8,,,survey-text,93,1010525,0.0-13.0-3.15,80487,List1B,white,man,,,,,"{""Q0"":""Jane is being challenged by beth""}","<img src=""stim_listB/challenge8.gif""style=""height:400px;""></stim_listB>",is being challenged by,,,,,,
null,"<div style=""font-size:60px;"">+</div>",,html-keyboard-response,94,1011032,0.0-13.0-0.16,80487,List1B,white,man,,,,null,,,,,,,,,
null,"<img src=""stim_listB/seduce1.gif""style=""height:400px;""></stim_listB>",,html-keyboard-response,95,1013039,0.0-13.0-1.16,80487,List1B,white,man,,,,null,,,,,,,,,
null,is seducing,,html-keyboard-response,96,1015044,0.0-13.0-2.16,80487,List1B,white,man,,,,null,,,,,,,,,
14932.1,,,survey-text,97,1029992,0.0-13.0-3.16,80487,List1B,white,man,,,,,"{""Q0"":""Fred is seducing kate""}","<img src=""stim_listB/seduce1.gif""style=""height:400px;""></stim_listB>",is seducing,,,,,,
null,"<div style=""font-size:60px;"">+</div>",,html-keyboard-response,98,1030496,0.0-13.0-0.17,80487,List1B,white,man,,,,null,,,,,,,,,
null,"<img src=""stim_listB/touch6.gif""style=""height:400px;""></stim_listB>",,html-keyboard-response,99,1032504,0.0-13.0-1.17,80487,List1B,white,man,,,,null,,,,,,,,,
null,is being touched by,,html-keyboard-response,100,1034509,0.0-13.0-2.17,80487,List1B,white,man,,,,null,,,,,,,,,
13462.8,,,survey-text,101,1047989,0.0-13.0-3.17,80487,List1B,white,man,,,,,"{""Q0"":""Fred is being touched by Luke""}","<img src=""stim_listB/touch6.gif""style=""height:400px;""></stim_listB>",is being touched by,,,,,,
null,"<div style=""font-size:60px;"">+</div>",,html-keyboard-response,102,1048495,0.0-13.0-0.18,80487,List1B,white,man,,,,null,,,,,,,,,
null,"<img src=""stim_listB/shout6.gif""style=""height:400px;""></stim_listB>",,html-keyboard-response,103,1050503,0.0-13.0-1.18,80487,List1B,white,man,,,,null,,,,,,,,,
null,is being shouted at by,,html-keyboard-response,104,1052507,0.0-13.0-2.18,80487,List1B,white,man,,,,null,,,,,,,,,
41520.6,,,survey-text,105,1094045,0.0-13.0-3.18,80487,List1B,white,man,,,,,"{""Q0"":""Dave is being shouted by mike""}","<img src=""stim_listB/shout6.gif""style=""height:400px;""></stim_listB>",is being shouted at by,,,,,,
null,"<div style=""font-size:60px;"">+</div>",,html-keyboard-response,106,1094551,0.0-13.0-0.19,80487,List1B,white,man,,,,null,,,,,,,,,
null,"<img src=""stim_listB/kiss7.gif""style=""height:400px;""></stim_listB>",,html-keyboard-response,107,1096560,0.0-13.0-1.19,80487,List1B,white,man,,,,null,,,,,,,,,
null,is kissing,,html-keyboard-response,108,1098563,0.0-13.0-2.19,80487,List1B,white,man,,,,null,,,,,,,,,
17759.9,,,survey-text,109,1116336,0.0-13.0-3.19,80487,List1B,white,man,,,,,"{""Q0"":""Ruth is kissing beth""}","<img src=""stim_listB/kiss7.gif""style=""height:400px;""></stim_listB>",is kissing,,,,,,
10462.3,"<img src='img/portrait_matrix_list1.jpg' style='width:900px;height:500px;''></img><p>If you have memorised all the portraits and names and are ready to start, press Continue.</p><p><strong>Please note: Your memory of these faces will be tested 4 times during this experiment.</strong></p>",0,html-button-response,110,1126840,0.0-14.0-0.0,80487,List1B,white,man,,,,,,,,,,,,,
20123,"<img src=""portrait/WW2.jpg""style=""height:400px;""></img>",3,html-button-response,111,1147977,0.0-14.0-1.0,80487,List1B,white,man,,TRUE,3,,,,,,,,,,
null,CORRECT,,html-keyboard-response,112,1149493,0.0-14.0-2.0-0.0,80487,List1B,white,man,,,,null,,,,,,,,,
2339.2,"<img src=""portrait/WM2.jpg""style=""height:400px;""></img>",7,html-button-response,113,1151841,0.0-14.0-4.0,80487,List1B,white,man,,TRUE,7,,,,,,,,,,
null,CORRECT,,html-keyboard-response,114,1153347,0.0-14.0-5.0-0.0,80487,List1B,white,man,,,,null,,,,,,,,,
2352,"<img src=""portrait/WW1.jpg""style=""height:400px;""></img>",1,html-button-response,115,1155707,0.0-14.0-7.0,80487,List1B,white,man,,TRUE,1,,,,,,,,,,
null,CORRECT,,html-keyboard-response,116,1157214,0.0-14.0-8.0-0.0,80487,List1B,white,man,,,,null,,,,,,,,,
5657.8,"<img src=""portrait/BW2.jpg""style=""height:400px;""></img>",2,html-button-response,117,1162880,0.0-14.0-10.0,80487,List1B,white,man,,TRUE,2,,,,,,,,,,
null,CORRECT,,html-keyboard-response,118,1164387,0.0-14.0-11.0-0.0,80487,List1B,white,man,,,,null,,,,,,,,,
2555.9,"<img src=""portrait/BM2.jpg""style=""height:400px;""></img>",5,html-button-response,119,1166951,0.0-14.0-13.0,80487,List1B,white,man,,TRUE,5,,,,,,,,,,
null,CORRECT,,html-keyboard-response,120,1168461,0.0-14.0-14.0-0.0,80487,List1B,white,man,,,,null,,,,,,,,,
2481.2,"<img src=""portrait/WM1.jpg""style=""height:400px;""></img>",6,html-button-response,121,1170949,0.0-14.0-16.0,80487,List1B,white,man,,TRUE,6,,,,,,,,,,
null,CORRECT,,html-keyboard-response,122,1172455,0.0-14.0-17.0-0.0,80487,List1B,white,man,,,,null,,,,,,,,,
1852.3,"<img src=""portrait/BM1.jpg""style=""height:400px;""></img>",4,html-button-response,123,1174315,0.0-14.0-19.0,80487,List1B,white,man,,TRUE,4,,,,,,,,,,
null,CORRECT,,html-keyboard-response,124,1175822,0.0-14.0-20.0-0.0,80487,List1B,white,man,,,,null,,,,,,,,,
5090,"<img src=""portrait/BW1.jpg""style=""height:400px;""></img>",0,html-button-response,125,1180918,0.0-14.0-22.0,80487,List1B,white,man,,TRUE,0,,,,,,,,,,
null,CORRECT,,html-keyboard-response,126,1182424,0.0-14.0-23.0-0.0,80487,List1B,white,man,,,,null,,,,,,,,,
1729,<p>You got 8 out of 8 right first time. Press Continue.</p>,0,html-button-response,127,1184171,0.0-14.0-25.0,80487,List1B,white,man,,,,,,,,,,,,,
null,"<div style=""font-size:60px;"">+</div>",,html-keyboard-response,128,1185684,0.0-15.0-0.0,80487,List1B,white,man,,,,null,,,,,,,,,
null,"<img src=""stim_listB/seduce5.gif""style=""height:400px;""></stim_listB>",,html-keyboard-response,129,1187691,0.0-15.0-1.0,80487,List1B,white,man,,,,null,,,,,,,,,
null,is seducing,,html-keyboard-response,130,1189696,0.0-15.0-2.0,80487,List1B,white,man,,,,null,,,,,,,,,
9052.4,,,survey-text,131,1198763,0.0-15.0-3.0,80487,List1B,white,man,,,,,"{""Q0"":""Fred is seducing dave""}","<img src=""stim_listB/seduce5.gif""style=""height:400px;""></stim_listB>",is seducing,,,,,,
null,"<div style=""font-size:60px;"">+</div>",,html-keyboard-response,132,1199270,0.0-15.0-0.1,80487,List1B,white,man,,,,null,,,,,,,,,
null,"<img src=""stim_listB/kiss6.gif""style=""height:400px;""></stim_listB>",,html-keyboard-response,133,1201279,0.0-15.0-1.1,80487,List1B,white,man,,,,null,,,,,,,,,
null,is being kissed by,,html-keyboard-response,134,1203285,0.0-15.0-2.1,80487,List1B,white,man,,,,null,,,,,,,,,
14555,,,survey-text,135,1217857,0.0-15.0-3.1,80487,List1B,white,man,,,,,"{""Q0"":""Mike is being kissed by dave""}","<img src=""stim_listB/kiss6.gif""style=""height:400px;""></stim_listB>",is being kissed by,,,,,,
null,"<div style=""font-size:60px;"">+</div>",,html-keyboard-response,136,1218363,0.0-15.0-0.2,80487,List1B,white,man,,,,null,,,,,,,,,
null,"<img src=""stim_listB/oppose2.gif""style=""height:400px;""></stim_listB>",,html-keyboard-response,137,1220370,0.0-15.0-1.2,80487,List1B,white,man,,,,null,,,,,,,,,
null,is being opposed by,,html-keyboard-response,138,1222376,0.0-15.0-2.2,80487,List1B,white,man,,,,null,,,,,,,,,
12420.4,,,survey-text,139,1234813,0.0-15.0-3.2,80487,List1B,white,man,,,,,"{""Q0"":""Beth is being opposed by fred""}","<img src=""stim_listB/oppose2.gif""style=""height:400px;""></stim_listB>",is being opposed by,,,,,,
null,"<div style=""font-size:60px;"">+</div>",,html-keyboard-response,140,1235320,0.0-15.0-0.3,80487,List1B,white,man,,,,null,,,,,,,,,
null,"<img src=""stim_listB/greet4.gif""style=""height:400px;""></stim_listB>",,html-keyboard-response,141,1237329,0.0-15.0-1.3,80487,List1B,white,man,,,,null,,,,,,,,,
null,is being greeted by,,html-keyboard-response,142,1239335,0.0-15.0-2.3,80487,List1B,white,man,,,,null,,,,,,,,,
15989.3,,,survey-text,143,1255341,0.0-15.0-3.3,80487,List1B,white,man,,,,,"{""Q0"":""Jane is being touched by Luke""}","<img src=""stim_listB/greet4.gif""style=""height:400px;""></stim_listB>",is being greeted by,,,,,,
null,"<div style=""font-size:60px;"">+</div>",,html-keyboard-response,144,1255848,0.0-15.0-0.4,80487,List1B,white,man,,,,null,,,,,,,,,
null,"<img src=""stim_listB/shout4.gif""style=""height:400px;""></stim_listB>",,html-keyboard-response,145,1257860,0.0-15.0-1.4,80487,List1B,white,man,,,,null,,,,,,,,,
null,is being shouted at by,,html-keyboard-response,146,1259866,0.0-15.0-2.4,80487,List1B,white,man,,,,null,,,,,,,,,
15597.6,,,survey-text,147,1275484,0.0-15.0-3.4,80487,List1B,white,man,,,,,"{""Q0"":""Dave is being shouted by jane""}","<img src=""stim_listB/shout4.gif""style=""height:400px;""></stim_listB>",is being shouted at by,,,,,,
null,"<div style=""font-size:60px;"">+</div>",,html-keyboard-response,148,1275990,0.0-15.0-0.5,80487,List1B,white,man,,,,null,,,,,,,,,
null,"<img src=""stim_listB/kiss2.gif""style=""height:400px;""></stim_listB>",,html-keyboard-response,149,1277999,0.0-15.0-1.5,80487,List1B,white,man,,,,null,,,,,,,,,
null,is being kissed by,,html-keyboard-response,150,1280005,0.0-15.0-2.5,80487,List1B,white,man,,,,null,,,,,,,,,
23437,,,survey-text,151,1303460,0.0-15.0-3.5,80487,List1B,white,man,,,,,"{""Q0"":""Mike is being kissed by kate""}","<img src=""stim_listB/kiss2.gif""style=""height:400px;""></stim_listB>",is being kissed by,,,,,,
null,"<div style=""font-size:60px;"">+</div>",,html-keyboard-response,152,1303966,0.0-15.0-0.6,80487,List1B,white,man,,,,null,,,,,,,,,
null,"<img src=""stim_listB/hug3.gif""style=""height:400px;""></stim_listB>",,html-keyboard-response,153,1305973,0.0-15.0-1.6,80487,List1B,white,man,,,,null,,,,,,,,,
null,is hugging,,html-keyboard-response,154,1307979,0.0-15.0-2.6,80487,List1B,white,man,,,,null,,,,,,,,,
12549.9,,,survey-text,155,1320547,0.0-15.0-3.6,80487,List1B,white,man,,,,,"{""Q0"":""Ruth is hugging Luke""}","<img src=""stim_listB/hug3.gif""style=""height:400px;""></stim_listB>",is hugging,,,,,,
null,"<div style=""font-size:60px;"">+</div>",,html-keyboard-response,156,1321052,0.0-15.0-0.7,80487,List1B,white,man,,,,null,,,,,,,,,
null,"<img src=""stim_listB/copy2.gif""style=""height:400px;""></stim_listB>",,html-keyboard-response,157,1323061,0.0-15.0-1.7,80487,List1B,white,man,,,,null,,,,,,,,,
null,is being copied by,,html-keyboard-response,158,1325067,0.0-15.0-2.7,80487,List1B,white,man,,,,null,,,,,,,,,
12824.7,,,survey-text,159,1337908,0.0-15.0-3.7,80487,List1B,white,man,,,,,"{""Q0"":""Fred is copied by beth""}","<img src=""stim_listB/copy2.gif""style=""height:400px;""></stim_listB>",is being copied by,,,,,,
null,"<div style=""font-size:60px;"">+</div>",,html-keyboard-response,160,1338413,0.0-15.0-0.8,80487,List1B,white,man,,,,null,,,,,,,,,
null,"<img src=""stim_listB/copy7.gif""style=""height:400px;""></stim_listB>",,html-keyboard-response,161,1340421,0.0-15.0-1.8,80487,List1B,white,man,,,,null,,,,,,,,,
null,is copying,,html-keyboard-response,162,1342427,0.0-15.0-2.8,80487,List1B,white,man,,,,null,,,,,,,,,
15601,,,survey-text,163,1358045,0.0-15.0-3.8,80487,List1B,white,man,,,,,"{""Q0"":""Kate is copying ruth""}","<img src=""stim_listB/copy7.gif""style=""height:400px;""></stim_listB>",is copying,,,,,,
null,"<div style=""font-size:60px;"">+</div>",,html-keyboard-response,164,1358551,0.0-15.0-0.9,80487,List1B,white,man,,,,null,,,,,,,,,
null,"<img src=""stim_listB/hug7.gif""style=""height:400px;""></stim_listB>",,html-keyboard-response,165,1360560,0.0-15.0-1.9,80487,List1B,white,man,,,,null,,,,,,,,,
null,is hugging,,html-keyboard-response,166,1362565,0.0-15.0-2.9,80487,List1B,white,man,,,,null,,,,,,,,,
15758.3,,,survey-text,167,1378342,0.0-15.0-3.9,80487,List1B,white,man,,,,,"{""Q0"":""Beth is hugged by ruth""}","<img src=""stim_listB/hug7.gif""style=""height:400px;""></stim_listB>",is hugging,,,,,,
null,"<div style=""font-size:60px;"">+</div>",,html-keyboard-response,168,1378849,0.0-15.0-0.10,80487,List1B,white,man,,,,null,,,,,,,,,
null,"<img src=""stim_listB/oppose1.gif""style=""height:400px;""></stim_listB>",,html-keyboard-response,169,1380858,0.0-15.0-1.10,80487,List1B,white,man,,,,null,,,,,,,,,
null,is opposing,,html-keyboard-response,170,1382864,0.0-15.0-2.10,80487,List1B,white,man,,,,null,,,,,,,,,
11799.5,,,survey-text,171,1394681,0.0-15.0-3.10,80487,List1B,white,man,,,,,"{""Q0"":""Kate is opposing mike""}","<img src=""stim_listB/oppose1.gif""style=""height:400px;""></stim_listB>",is opposing,,,,,,
null,"<div style=""font-size:60px;"">+</div>",,html-keyboard-response,172,1395187,0.0-15.0-0.11,80487,List1B,white,man,,,,null,,,,,,,,,
null,"<img src=""stim_listB/touch4.gif""style=""height:400px;""></stim_listB>",,html-keyboard-response,173,1397196,0.0-15.0-1.11,80487,List1B,white,man,,,,null,,,,,,,,,
null,is being touched by,,html-keyboard-response,174,1399201,0.0-15.0-2.11,80487,List1B,white,man,,,,null,,,,,,,,,
14090.3,,,survey-text,175,1413310,0.0-15.0-3.11,80487,List1B,white,man,,,,,"{""Q0"":""Luke is being touched by ruth""}","<img src=""stim_listB/touch4.gif""style=""height:400px;""></stim_listB>",is being touched by,,,,,,
null,"<div style=""font-size:60px;"">+</div>",,html-keyboard-response,176,1413818,0.0-15.0-0.12,80487,List1B,white,man,,,,null,,,,,,,,,
null,"<img src=""stim_listB/copy1.gif""style=""height:400px;""></stim_listB>",,html-keyboard-response,177,1415827,0.0-15.0-1.12,80487,List1B,white,man,,,,null,,,,,,,,,
null,is copying,,html-keyboard-response,178,1417832,0.0-15.0-2.12,80487,List1B,white,man,,,,null,,,,,,,,,
10646.7,,,survey-text,179,1428496,0.0-15.0-3.12,80487,List1B,white,man,,,,,"{""Q0"":""Mike is copying beth""}","<img src=""stim_listB/copy1.gif""style=""height:400px;""></stim_listB>",is copying,,,,,,
null,"<div style=""font-size:60px;"">+</div>",,html-keyboard-response,180,1429001,0.0-15.0-0.13,80487,List1B,white,man,,,,null,,,,,,,,,
null,"<img src=""stim_listB/challenge4.gif""style=""height:400px;""></stim_listB>",,html-keyboard-response,181,1431010,0.0-15.0-1.13,80487,List1B,white,man,,,,null,,,,,,,,,
null,is being challenged by,,html-keyboard-response,182,1433015,0.0-15.0-2.13,80487,List1B,white,man,,,,null,,,,,,,,,
12024.3,,,survey-text,183,1445052,0.0-15.0-3.13,80487,List1B,white,man,,,,,"{""Q0"":""Luke is being challenged by jane""}","<img src=""stim_listB/challenge4.gif""style=""height:400px;""></stim_listB>",is being challenged by,,,,,,
null,"<div style=""font-size:60px;"">+</div>",,html-keyboard-response,184,1445559,0.0-15.0-0.14,80487,List1B,white,man,,,,null,,,,,,,,,
null,"<img src=""stim_listB/kiss3.gif""style=""height:400px;""></stim_listB>",,html-keyboard-response,185,1447568,0.0-15.0-1.14,80487,List1B,white,man,,,,null,,,,,,,,,
null,is kissing,,html-keyboard-response,186,1449573,0.0-15.0-2.14,80487,List1B,white,man,,,,null,,,,,,,,,
13036.4,,,survey-text,187,1462625,0.0-15.0-3.14,80487,List1B,white,man,,,,,"{""Q0"":""Luke is kissing Ruth""}","<img src=""stim_listB/kiss3.gif""style=""height:400px;""></stim_listB>",is kissing,,,,,,
null,"<div style=""font-size:60px;"">+</div>",,html-keyboard-response,188,1463130,0.0-15.0-0.15,80487,List1B,white,man,,,,null,,,,,,,,,
null,"<img src=""stim_listB/seduce6.gif""style=""height:400px;""></stim_listB>",,html-keyboard-response,189,1465137,0.0-15.0-1.15,80487,List1B,white,man,,,,null,,,,,,,,,
null,is being seduced by,,html-keyboard-response,190,1467143,0.0-15.0-2.15,80487,List1B,white,man,,,,null,,,,,,,,,
14755,,,survey-text,191,1481916,0.0-15.0-3.15,80487,List1B,white,man,,,,,"{""Q0"":""Mike is being seduced by Luke""}","<img src=""stim_listB/seduce6.gif""style=""height:400px;""></stim_listB>",is being seduced by,,,,,,
null,"<div style=""font-size:60px;"">+</div>",,html-keyboard-response,192,1482423,0.0-15.0-0.16,80487,List1B,white,man,,,,null,,,,,,,,,
null,"<img src=""stim_listB/greet8.gif""style=""height:400px;""></stim_listB>",,html-keyboard-response,193,1484432,0.0-15.0-1.16,80487,List1B,white,man,,,,null,,,,,,,,,
null,is being greeted by,,html-keyboard-response,194,1486437,0.0-15.0-2.16,80487,List1B,white,man,,,,null,,,,,,,,,
17622.2,,,survey-text,195,1504077,0.0-15.0-3.16,80487,List1B,white,man,,,,,"{""Q0"":""Ruth is touched by beth""}","<img src=""stim_listB/greet8.gif""style=""height:400px;""></stim_listB>",is being greeted by,,,,,,
null,"<div style=""font-size:60px;"">+</div>",,html-keyboard-response,196,1504583,0.0-15.0-0.17,80487,List1B,white,man,,,,null,,,,,,,,,
null,"<img src=""stim_listB/kiss8.gif""style=""height:400px;""></stim_listB>",,html-keyboard-response,197,1506592,0.0-15.0-1.17,80487,List1B,white,man,,,,null,,,,,,,,,
null,is being kissed by,,html-keyboard-response,198,1508597,0.0-15.0-2.17,80487,List1B,white,man,,,,null,,,,,,,,,
15084.5,,,survey-text,199,1523701,0.0-15.0-3.17,80487,List1B,white,man,,,,,"{""Q0"":""Jane is kissed by kate""}","<img src=""stim_listB/kiss8.gif""style=""height:400px;""></stim_listB>",is being kissed by,,,,,,
null,"<div style=""font-size:60px;"">+</div>",,html-keyboard-response,200,1524207,0.0-15.0-0.18,80487,List1B,white,man,,,,null,,,,,,,,,
null,"<img src=""stim_listB/kiss1.gif""style=""height:400px;""></stim_listB>",,html-keyboard-response,201,1526217,0.0-15.0-1.18,80487,List1B,white,man,,,,null,,,,,,,,,
null,is kissing,,html-keyboard-response,202,1528222,0.0-15.0-2.18,80487,List1B,white,man,,,,null,,,,,,,,,
24343,,,survey-text,203,1552581,0.0-15.0-3.18,80487,List1B,white,man,,,,,"{""Q0"":""Fred is kissing beth""}","<img src=""stim_listB/kiss1.gif""style=""height:400px;""></stim_listB>",is kissing,,,,,,
null,"<div style=""font-size:60px;"">+</div>",,html-keyboard-response,204,1553088,0.0-15.0-0.19,80487,List1B,white,man,,,,null,,,,,,,,,
null,"<img src=""stim_listB/shout3.gif""style=""height:400px;""></stim_listB>",,html-keyboard-response,205,1555096,0.0-15.0-1.19,80487,List1B,white,man,,,,null,,,,,,,,,
null,is shouting at,,html-keyboard-response,206,1557102,0.0-15.0-2.19,80487,List1B,white,man,,,,null,,,,,,,,,
21586.7,,,survey-text,207,1578708,0.0-15.0-3.19,80487,List1B,white,man,,,,,"{""Q0"":""Ruth is shouting at Luke""}","<img src=""stim_listB/shout3.gif""style=""height:400px;""></stim_listB>",is shouting at,,,,,,
10087.1,"<img src='img/portrait_matrix_list1.jpg' style='width:900px;height:500px;''></img><p>If you have memorised all the portraits and names and are ready to start, press Continue.</p><p><strong>Please note: Your memory of these faces will be tested 4 times during this experiment.</strong></p>",0,html-button-response,208,1588840,0.0-16.0-0.0,80487,List1B,white,man,,,,,,,,,,,,,
5742.4,"<img src=""portrait/BM1.jpg""style=""height:400px;""></img>",4,html-button-response,209,1595595,0.0-16.0-1.0,80487,List1B,white,man,,TRUE,4,,,,,,,,,,
null,CORRECT,,html-keyboard-response,210,1597113,0.0-16.0-2.0-0.0,80487,List1B,white,man,,,,null,,,,,,,,,
2552.8,"<img src=""portrait/BW1.jpg""style=""height:400px;""></img>",0,html-button-response,211,1599674,0.0-16.0-4.0,80487,List1B,white,man,,TRUE,0,,,,,,,,,,
null,CORRECT,,html-keyboard-response,212,1601181,0.0-16.0-5.0-0.0,80487,List1B,white,man,,,,null,,,,,,,,,
2304.1,"<img src=""portrait/BW2.jpg""style=""height:400px;""></img>",2,html-button-response,213,1603495,0.0-16.0-7.0,80487,List1B,white,man,,TRUE,2,,,,,,,,,,
null,CORRECT,,html-keyboard-response,214,1605003,0.0-16.0-8.0-0.0,80487,List1B,white,man,,,,null,,,,,,,,,
4251.9,"<img src=""portrait/WW1.jpg""style=""height:400px;""></img>",1,html-button-response,215,1609263,0.0-16.0-10.0,80487,List1B,white,man,,TRUE,1,,,,,,,,,,
null,CORRECT,,html-keyboard-response,216,1610770,0.0-16.0-11.0-0.0,80487,List1B,white,man,,,,null,,,,,,,,,
2787.3,"<img src=""portrait/BM2.jpg""style=""height:400px;""></img>",5,html-button-response,217,1613567,0.0-16.0-13.0,80487,List1B,white,man,,TRUE,5,,,,,,,,,,
null,CORRECT,,html-keyboard-response,218,1615074,0.0-16.0-14.0-0.0,80487,List1B,white,man,,,,null,,,,,,,,,
5799.6,"<img src=""portrait/WW2.jpg""style=""height:400px;""></img>",3,html-button-response,219,1620882,0.0-16.0-16.0,80487,List1B,white,man,,TRUE,3,,,,,,,,,,
null,CORRECT,,html-keyboard-response,220,1622390,0.0-16.0-17.0-0.0,80487,List1B,white,man,,,,null,,,,,,,,,
13342.9,"<img src=""portrait/WM1.jpg""style=""height:400px;""></img>",6,html-button-response,221,1635743,0.0-16.0-19.0,80487,List1B,white,man,,TRUE,6,,,,,,,,,,
null,CORRECT,,html-keyboard-response,222,1637249,0.0-16.0-20.0-0.0,80487,List1B,white,man,,,,null,,,,,,,,,
2204.8,"<img src=""portrait/WM2.jpg""style=""height:400px;""></img>",7,html-button-response,223,1639463,0.0-16.0-22.0,80487,List1B,white,man,,TRUE,7,,,,,,,,,,
null,CORRECT,,html-keyboard-response,224,1640970,0.0-16.0-23.0-0.0,80487,List1B,white,man,,,,null,,,,,,,,,
15454.1,<p>You got 8 out of 8 right first time. Press Continue.</p>,0,html-button-response,225,1656434,0.0-16.0-25.0,80487,List1B,white,man,,,,,,,,,,,,,
null,"<div style=""font-size:60px;"">+</div>",,html-keyboard-response,226,1657948,0.0-17.0-0.0,80487,List1B,white,man,,,,null,,,,,,,,,
null,"<img src=""stim_listB/greet5.gif""style=""height:400px;""></stim_listB>",,html-keyboard-response,227,1659955,0.0-17.0-1.0,80487,List1B,white,man,,,,null,,,,,,,,,
null,is greeting,,html-keyboard-response,228,1661961,0.0-17.0-2.0,80487,List1B,white,man,,,,null,,,,,,,,,
10494,,,survey-text,229,1672493,0.0-17.0-3.0,80487,List1B,white,man,,,,,"{""Q0"":""Mike is greeting Luke""}","<img src=""stim_listB/greet5.gif""style=""height:400px;""></stim_listB>",is greeting,,,,,,
null,"<div style=""font-size:60px;"">+</div>",,html-keyboard-response,230,1673003,0.0-17.0-0.1,80487,List1B,white,man,,,,null,,,,,,,,,
null,"<img src=""stim_listB/look2.gif""style=""height:400px;""></stim_listB>",,html-keyboard-response,231,1675011,0.0-17.0-1.1,80487,List1B,white,man,,,,null,,,,,,,,,
null,is being looked at by,,html-keyboard-response,232,1677016,0.0-17.0-2.1,80487,List1B,white,man,,,,null,,,,,,,,,
29494.7,,,survey-text,233,1706529,0.0-17.0-3.1,80487,List1B,white,man,,,,,"{""Q0"":""Mike is being looked by kate""}","<img src=""stim_listB/look2.gif""style=""height:400px;""></stim_listB>",is being looked at by,,,,,,
null,"<div style=""font-size:60px;"">+</div>",,html-keyboard-response,234,1707035,0.0-17.0-0.2,80487,List1B,white,man,,,,null,,,,,,,,,
null,"<img src=""stim_listB/touch2.gif""style=""height:400px;""></stim_listB>",,html-keyboard-response,235,1709044,0.0-17.0-1.2,80487,List1B,white,man,,,,null,,,,,,,,,
null,is being touched by,,html-keyboard-response,236,1711049,0.0-17.0-2.2,80487,List1B,white,man,,,,null,,,,,,,,,
20586.6,,,survey-text,237,1731656,0.0-17.0-3.2,80487,List1B,white,man,,,,,"{""Q0"":""Jane is being touched by beth""}","<img src=""stim_listB/touch2.gif""style=""height:400px;""></stim_listB>",is being touched by,,,,,,
null,"<div style=""font-size:60px;"">+</div>",,html-keyboard-response,238,1732163,0.0-17.0-0.3,80487,List1B,white,man,,,,null,,,,,,,,,
null,"<img src=""stim_listB/oppose7.gif""style=""height:400px;""></stim_listB>",,html-keyboard-response,239,1734172,0.0-17.0-1.3,80487,List1B,white,man,,,,null,,,,,,,,,
null,is opposing,,html-keyboard-response,240,1736178,0.0-17.0-2.3,80487,List1B,white,man,,,,null,,,,,,,,,
15104.4,,,survey-text,241,1751303,0.0-17.0-3.3,80487,List1B,white,man,,,,,"{""Q0"":""Jane is opposing kate""}","<img src=""stim_listB/oppose7.gif""style=""height:400px;""></stim_listB>",is opposing,,,,,,
null,"<div style=""font-size:60px;"">+</div>",,html-keyboard-response,242,1751812,0.0-17.0-0.4,80487,List1B,white,man,,,,null,,,,,,,,,
null,"<img src=""stim_listB/greet2.gif""style=""height:400px;""></stim_listB>",,html-keyboard-response,243,1753821,0.0-17.0-1.4,80487,List1B,white,man,,,,null,,,,,,,,,
null,is being greeted by,,html-keyboard-response,244,1755827,0.0-17.0-2.4,80487,List1B,white,man,,,,null,,,,,,,,,
13996.3,,,survey-text,245,1769844,0.0-17.0-3.4,80487,List1B,white,man,,,,,"{""Q0"":""Fred is greeted by kate""}","<img src=""stim_listB/greet2.gif""style=""height:400px;""></stim_listB>",is being greeted by,,,,,,
null,"<div style=""font-size:60px;"">+</div>",,html-keyboard-response,246,1770351,0.0-17.0-0.5,80487,List1B,white,man,,,,null,,,,,,,,,
null,"<img src=""stim_listB/greet6.gif""style=""height:400px;""></stim_listB>",,html-keyboard-response,247,1772360,0.0-17.0-1.5,80487,List1B,white,man,,,,null,,,,,,,,,
null,is being greeted by,,html-keyboard-response,248,1774367,0.0-17.0-2.5,80487,List1B,white,man,,,,null,,,,,,,,,
21378.5,,,survey-text,249,1795763,0.0-17.0-3.5,80487,List1B,white,man,,,,,"{""Q0"":""Fred is greeted by dave""}","<img src=""stim_listB/greet6.gif""style=""height:400px;""></stim_listB>",is being greeted by,,,,,,
null,"<div style=""font-size:60px;"">+</div>",,html-keyboard-response,250,1796270,0.0-17.0-0.6,80487,List1B,white,man,,,,null,,,,,,,,,
null,"<img src=""stim_listB/hug6.gif""style=""height:400px;""></stim_listB>",,html-keyboard-response,251,1798278,0.0-17.0-1.6,80487,List1B,white,man,,,,null,,,,,,,,,
null,is being hugged by,,html-keyboard-response,252,1800285,0.0-17.0-2.6,80487,List1B,white,man,,,,null,,,,,,,,,
21487.7,,,survey-text,253,1821791,0.0-17.0-3.6,80487,List1B,white,man,,,,,"{""Q0"":""Dave is been hugged mike""}","<img src=""stim_listB/hug6.gif""style=""height:400px;""></stim_listB>",is being hugged by,,,,,,
null,"<div style=""font-size:60px;"">+</div>",,html-keyboard-response,254,1822298,0.0-17.0-0.7,80487,List1B,white,man,,,,null,,,,,,,,,
null,"<img src=""stim_listB/shout1.gif""style=""height:400px;""></stim_listB>",,html-keyboard-response,255,1824307,0.0-17.0-1.7,80487,List1B,white,man,,,,null,,,,,,,,,
null,is shouting at,,html-keyboard-response,256,1826313,0.0-17.0-2.7,80487,List1B,white,man,,,,null,,,,,,,,,
21019.2,,,survey-text,257,1847351,0.0-17.0-3.7,80487,List1B,white,man,,,,,"{""Q0"":""Fred is shouting at the dave""}","<img src=""stim_listB/shout1.gif""style=""height:400px;""></stim_listB>",is shouting at,,,,,,
null,"<div style=""font-size:60px;"">+</div>",,html-keyboard-response,258,1847857,0.0-17.0-0.8,80487,List1B,white,man,,,,null,,,,,,,,,
null,"<img src=""stim_listB/shout2.gif""style=""height:400px;""></stim_listB>",,html-keyboard-response,259,1849866,0.0-17.0-1.8,80487,List1B,white,man,,,,null,,,,,,,,,
null,is being shouted at by,,html-keyboard-response,260,1851871,0.0-17.0-2.8,80487,List1B,white,man,,,,null,,,,,,,,,
20788.6,,,survey-text,261,1872678,0.0-17.0-3.8,80487,List1B,white,man,,,,,"{""Q0"":""Mike is being shouted by jane""}","<img src=""stim_listB/shout2.gif""style=""height:400px;""></stim_listB>",is being shouted at by,,,,,,
null,"<div style=""font-size:60px;"">+</div>",,html-keyboard-response,262,1873185,0.0-17.0-0.9,80487,List1B,white,man,,,,null,,,,,,,,,
null,"<img src=""stim_listB/look3.gif""style=""height:400px;""></stim_listB>",,html-keyboard-response,263,1875193,0.0-17.0-1.9,80487,List1B,white,man,,,,null,,,,,,,,,
null,is looking at,,html-keyboard-response,264,1877199,0.0-17.0-2.9,80487,List1B,white,man,,,,null,,,,,,,,,
20486.3,,,survey-text,265,1897705,0.0-17.0-3.9,80487,List1B,white,man,,,,,"{""Q0"":""Luke is looking at Ruth""}","<img src=""stim_listB/look3.gif""style=""height:400px;""></stim_listB>",is looking at,,,,,,
null,"<div style=""font-size:60px;"">+</div>",,html-keyboard-response,266,1898213,0.0-17.0-0.10,80487,List1B,white,man,,,,null,,,,,,,,,
null,"<img src=""stim_listB/challenge5.gif""style=""height:400px;""></stim_listB>",,html-keyboard-response,267,1900223,0.0-17.0-1.10,80487,List1B,white,man,,,,null,,,,,,,,,
null,is challenging,,html-keyboard-response,268,1902228,0.0-17.0-2.10,80487,List1B,white,man,,,,null,,,,,,,,,
12483.2,,,survey-text,269,1914726,0.0-17.0-3.10,80487,List1B,white,man,,,,,"{""Q0"":""Mike is challenging luke""}","<img src=""stim_listB/challenge5.gif""style=""height:400px;""></stim_listB>",is challenging,,,,,,
null,"<div style=""font-size:60px;"">+</div>",,html-keyboard-response,270,1915233,0.0-17.0-0.11,80487,List1B,white,man,,,,null,,,,,,,,,
null,"<img src=""stim_listB/shout7.gif""style=""height:400px;""></stim_listB>",,html-keyboard-response,271,1917242,0.0-17.0-1.11,80487,List1B,white,man,,,,null,,,,,,,,,
null,is shouting at,,html-keyboard-response,272,1919248,0.0-17.0-2.11,80487,List1B,white,man,,,,null,,,,,,,,,
15770.8,,,survey-text,273,1935036,0.0-17.0-3.11,80487,List1B,white,man,,,,,"{""Q0"":""Beth is shouting at ruth""}","<img src=""stim_listB/shout7.gif""style=""height:400px;""></stim_listB>",is shouting at,,,,,,
null,"<div style=""font-size:60px;"">+</div>",,html-keyboard-response,274,1935542,0.0-17.0-0.12,80487,List1B,white,man,,,,null,,,,,,,,,
null,"<img src=""stim_listB/copy5.gif""style=""height:400px;""></stim_listB>",,html-keyboard-response,275,1937551,0.0-17.0-1.12,80487,List1B,white,man,,,,null,,,,,,,,,
null,is copying,,html-keyboard-response,276,1939557,0.0-17.0-2.12,80487,List1B,white,man,,,,null,,,,,,,,,
19701.1,,,survey-text,277,1959275,0.0-17.0-3.12,80487,List1B,white,man,,,,,"{""Q0"":""Mike is copying Luke""}","<img src=""stim_listB/copy5.gif""style=""height:400px;""></stim_listB>",is copying,,,,,,
null,"<div style=""font-size:60px;"">+</div>",,html-keyboard-response,278,1959781,0.0-17.0-0.13,80487,List1B,white,man,,,,null,,,,,,,,,
null,"<img src=""stim_listB/touch8.gif""style=""height:400px;""></stim_listB>",,html-keyboard-response,279,1961789,0.0-17.0-1.13,80487,List1B,white,man,,,,null,,,,,,,,,
null,is being touched by,,html-keyboard-response,280,1963795,0.0-17.0-2.13,80487,List1B,white,man,,,,null,,,,,,,,,
31999.5,,,survey-text,281,1995812,0.0-17.0-3.13,80487,List1B,white,man,,,,,"{""Q0"":""Ruth is being touched by beth""}","<img src=""stim_listB/touch8.gif""style=""height:400px;""></stim_listB>",is being touched by,,,,,,
null,"<div style=""font-size:60px;"">+</div>",,html-keyboard-response,282,1996318,0.0-17.0-0.14,80487,List1B,white,man,,,,null,,,,,,,,,
null,"<img src=""stim_listB/seduce3.gif""style=""height:400px;""></stim_listB>",,html-keyboard-response,283,1998327,0.0-17.0-1.14,80487,List1B,white,man,,,,null,,,,,,,,,
null,is seducing,,html-keyboard-response,284,2000333,0.0-17.0-2.14,80487,List1B,white,man,,,,null,,,,,,,,,
14198.1,,,survey-text,285,2014549,0.0-17.0-3.14,80487,List1B,white,man,,,,,"{""Q0"":""Jane is seducing Luke""}","<img src=""stim_listB/seduce3.gif""style=""height:400px;""></stim_listB>",is seducing,,,,,,
null,"<div style=""font-size:60px;"">+</div>",,html-keyboard-response,286,2015055,0.0-17.0-0.15,80487,List1B,white,man,,,,null,,,,,,,,,
null,"<img src=""stim_listB/look7.gif""style=""height:400px;""></stim_listB>",,html-keyboard-response,287,2017064,0.0-17.0-1.15,80487,List1B,white,man,,,,null,,,,,,,,,
null,is looking at,,html-keyboard-response,288,2019069,0.0-17.0-2.15,80487,List1B,white,man,,,,null,,,,,,,,,
12207.1,,,survey-text,289,2031295,0.0-17.0-3.15,80487,List1B,white,man,,,,,"{""Q0"":""Beth is looking at Ruth""}","<img src=""stim_listB/look7.gif""style=""height:400px;""></stim_listB>",is looking at,,,,,,
null,"<div style=""font-size:60px;"">+</div>",,html-keyboard-response,290,2031801,0.0-17.0-0.16,80487,List1B,white,man,,,,null,,,,,,,,,
null,"<img src=""stim_listB/seduce8.gif""style=""height:400px;""></stim_listB>",,html-keyboard-response,291,2033810,0.0-17.0-1.16,80487,List1B,white,man,,,,null,,,,,,,,,
null,is being seduced by,,html-keyboard-response,292,2035816,0.0-17.0-2.16,80487,List1B,white,man,,,,null,,,,,,,,,
17620.5,,,survey-text,293,2053455,0.0-17.0-3.16,80487,List1B,white,man,,,,,"{""Q0"":""Jane touched beth""}","<img src=""stim_listB/seduce8.gif""style=""height:400px;""></stim_listB>",is being seduced by,,,,,,
null,"<div style=""font-size:60px;"">+</div>",,html-keyboard-response,294,2053962,0.0-17.0-0.17,80487,List1B,white,man,,,,null,,,,,,,,,
null,"<img src=""stim_listB/look6.gif""style=""height:400px;""></stim_listB>",,html-keyboard-response,295,2055971,0.0-17.0-1.17,80487,List1B,white,man,,,,null,,,,,,,,,
null,is being looked at by,,html-keyboard-response,296,2057977,0.0-17.0-2.17,80487,List1B,white,man,,,,null,,,,,,,,,
12666,,,survey-text,297,2070663,0.0-17.0-3.17,80487,List1B,white,man,,,,,"{""Q0"":""Dave is being looked by mike""}","<img src=""stim_listB/look6.gif""style=""height:400px;""></stim_listB>",is being looked at by,,,,,,
null,"<div style=""font-size:60px;"">+</div>",,html-keyboard-response,298,2071169,0.0-17.0-0.18,80487,List1B,white,man,,,,null,,,,,,,,,
null,"<img src=""stim_listB/hug2.gif""style=""height:400px;""></stim_listB>",,html-keyboard-response,299,2073178,0.0-17.0-1.18,80487,List1B,white,man,,,,null,,,,,,,,,
null,is being hugged by,,html-keyboard-response,300,2075183,0.0-17.0-2.18,80487,List1B,white,man,,,,null,,,,,,,,,
12647.9,,,survey-text,301,2087849,0.0-17.0-3.18,80487,List1B,white,man,,,,,"{""Q0"":""Jane is being touched by mike""}","<img src=""stim_listB/hug2.gif""style=""height:400px;""></stim_listB>",is being hugged by,,,,,,
null,"<div style=""font-size:60px;"">+</div>",,html-keyboard-response,302,2088355,0.0-17.0-0.19,80487,List1B,white,man,,,,null,,,,,,,,,
null,"<img src=""stim_listB/challenge2.gif""style=""height:400px;""></stim_listB>",,html-keyboard-response,303,2090363,0.0-17.0-1.19,80487,List1B,white,man,,,,null,,,,,,,,,
null,is being challenged by,,html-keyboard-response,304,2092369,0.0-17.0-2.19,80487,List1B,white,man,,,,null,,,,,,,,,
22373.4,,,survey-text,305,2114760,0.0-17.0-3.19,80487,List1B,white,man,,,,,"{""Q0"":""Fred is being challenged by ruth""}","<img src=""stim_listB/challenge2.gif""style=""height:400px;""></stim_listB>",is being challenged by,,,,,,
14593,"<img src='img/portrait_matrix_list1.jpg' style='width:900px;height:500px;''></img><p>If you have memorised all the portraits and names and are ready to start, press Continue.</p><p><strong>Please note: Your memory of these faces will be tested 4 times during this experiment.</strong></p>",0,html-button-response,306,2129371,0.0-18.0-0.0,80487,List1B,white,man,,,,,,,,,,,,,
9904.9,"<img src=""portrait/BW2.jpg""style=""height:400px;""></img>",2,html-button-response,307,2140287,0.0-18.0-1.0,80487,List1B,white,man,,TRUE,2,,,,,,,,,,
null,CORRECT,,html-keyboard-response,308,2141800,0.0-18.0-2.0-0.0,80487,List1B,white,man,,,,null,,,,,,,,,
1861.1,"<img src=""portrait/WM1.jpg""style=""height:400px;""></img>",6,html-button-response,309,2143671,0.0-18.0-4.0,80487,List1B,white,man,,TRUE,6,,,,,,,,,,
null,CORRECT,,html-keyboard-response,310,2145178,0.0-18.0-5.0-0.0,80487,List1B,white,man,,,,null,,,,,,,,,
2264.2,"<img src=""portrait/WW2.jpg""style=""height:400px;""></img>",3,html-button-response,311,2147452,0.0-18.0-7.0,80487,List1B,white,man,,TRUE,3,,,,,,,,,,
null,CORRECT,,html-keyboard-response,312,2148958,0.0-18.0-8.0-0.0,80487,List1B,white,man,,,,null,,,,,,,,,
4238.8,"<img src=""portrait/BW1.jpg""style=""height:400px;""></img>",1,html-button-response,313,2153206,0.0-18.0-10.0,80487,List1B,white,man,,TRUE,0,,,,,,,,,,
1656.9,"<img src=""portrait/BW1.jpg""style=""height:400px;""></img>",0,html-button-response,314,2155875,0.0-18.0-12.0-0.0,80487,List1B,white,man,,FALSE,0,,,,,,,,,,
null,CORRECT,,html-keyboard-response,315,2157384,0.0-18.0-12.0-1.0-0.0,80487,List1B,white,man,,,,null,,,,,,,,,
4086.4,"<img src=""portrait/WW1.jpg""style=""height:400px;""></img>",1,html-button-response,316,2161480,0.0-18.0-13.0,80487,List1B,white,man,,TRUE,1,,,,,,,,,,
null,CORRECT,,html-keyboard-response,317,2162987,0.0-18.0-14.0-0.0,80487,List1B,white,man,,,,null,,,,,,,,,
3579,"<img src=""portrait/WM2.jpg""style=""height:400px;""></img>",7,html-button-response,318,2166574,0.0-18.0-16.0,80487,List1B,white,man,,TRUE,7,,,,,,,,,,
null,CORRECT,,html-keyboard-response,319,2168081,0.0-18.0-17.0-0.0,80487,List1B,white,man,,,,null,,,,,,,,,
2287.9,"<img src=""portrait/BM2.jpg""style=""height:400px;""></img>",5,html-button-response,320,2170378,0.0-18.0-19.0,80487,List1B,white,man,,TRUE,5,,,,,,,,,,
null,CORRECT,,html-keyboard-response,321,2171886,0.0-18.0-20.0-0.0,80487,List1B,white,man,,,,null,,,,,,,,,
2423.3,"<img src=""portrait/BM1.jpg""style=""height:400px;""></img>",4,html-button-response,322,2174321,0.0-18.0-22.0,80487,List1B,white,man,,TRUE,4,,,,,,,,,,
null,CORRECT,,html-keyboard-response,323,2175830,0.0-18.0-23.0-0.0,80487,List1B,white,man,,,,null,,,,,,,,,
30704.5,<p>You got 7 out of 8 right first time. Press Continue.</p>,0,html-button-response,324,2206545,0.0-18.0-25.0,80487,List1B,white,man,,,,,,,,,,,,,
6709.7,"As you did not score 100%, the memory game will repeat. Press Continue.",0,html-button-response,325,2214263,0.0-18.0-26.0-0.0,80487,List1B,white,man,,,,,,,,,,,,,
7302.5,"<img src='img/portrait_matrix_list1.jpg' style='width:900px;height:500px;''></img><p>If you have memorised all the portraits and names and are ready to start, press Continue.</p><p><strong>Please note: Your memory of these faces will be tested 4 times during this experiment.</strong></p>",0,html-button-response,326,2222580,0.0-18.1-0.1,80487,List1B,white,man,,,,,,,,,,,,,
6529.2,"<img src=""portrait/BW2.jpg""style=""height:400px;""></img>",2,html-button-response,327,2230119,0.0-18.1-1.1,80487,List1B,white,man,,TRUE,2,,,,,,,,,,
null,CORRECT,,html-keyboard-response,328,2231625,0.0-18.1-2.1-0.1,80487,List1B,white,man,,,,null,,,,,,,,,
1720.2,"<img src=""portrait/WM1.jpg""style=""height:400px;""></img>",6,html-button-response,329,2233355,0.0-18.1-4.1,80487,List1B,white,man,,TRUE,6,,,,,,,,,,
null,CORRECT,,html-keyboard-response,330,2234861,0.0-18.1-5.1-0.1,80487,List1B,white,man,,,,null,,,,,,,,,
1653.8,"<img src=""portrait/WW2.jpg""style=""height:400px;""></img>",3,html-button-response,331,2236524,0.0-18.1-7.1,80487,List1B,white,man,,TRUE,3,,,,,,,,,,
null,CORRECT,,html-keyboard-response,332,2238032,0.0-18.1-8.1-0.1,80487,List1B,white,man,,,,null,,,,,,,,,
1747.8,"<img src=""portrait/BW1.jpg""style=""height:400px;""></img>",0,html-button-response,333,2239788,0.0-18.1-10.1,80487,List1B,white,man,,TRUE,0,,,,,,,,,,
null,CORRECT,,html-keyboard-response,334,2241295,0.0-18.1-11.1-0.1,80487,List1B,white,man,,,,null,,,,,,,,,
1838.1,"<img src=""portrait/WW1.jpg""style=""height:400px;""></img>",1,html-button-response,335,2243145,0.0-18.1-13.1,80487,List1B,white,man,,TRUE,1,,,,,,,,,,
null,CORRECT,,html-keyboard-response,336,2244653,0.0-18.1-14.1-0.1,80487,List1B,white,man,,,,null,,,,,,,,,
1381.9,"<img src=""portrait/WM2.jpg""style=""height:400px;""></img>",7,html-button-response,337,2246046,0.0-18.1-16.1,80487,List1B,white,man,,TRUE,7,,,,,,,,,,
null,CORRECT,,html-keyboard-response,338,2247553,0.0-18.1-17.1-0.1,80487,List1B,white,man,,,,null,,,,,,,,,
2433.4,"<img src=""portrait/BM2.jpg""style=""height:400px;""></img>",5,html-button-response,339,2249998,0.0-18.1-19.1,80487,List1B,white,man,,TRUE,5,,,,,,,,,,
null,CORRECT,,html-keyboard-response,340,2251504,0.0-18.1-20.1-0.1,80487,List1B,white,man,,,,null,,,,,,,,,
1934.6,"<img src=""portrait/BM1.jpg""style=""height:400px;""></img>",4,html-button-response,341,2253451,0.0-18.1-22.1,80487,List1B,white,man,,TRUE,4,,,,,,,,,,
null,CORRECT,,html-keyboard-response,342,2254957,0.0-18.1-23.1-0.1,80487,List1B,white,man,,,,null,,,,,,,,,
1716.9,<p>You got 8 out of 8 right first time. Press Continue.</p>,0,html-button-response,343,2256684,0.0-18.1-25.1,80487,List1B,white,man,,,,,,,,,,,,,
null,"<div style=""font-size:60px;"">+</div>",,html-keyboard-response,344,2258197,0.0-19.0-0.0,80487,List1B,white,man,,,,null,,,,,,,,,
null,"<img src=""stim_listB/oppose3.gif""style=""height:400px;""></stim_listB>",,html-keyboard-response,345,2260205,0.0-19.0-1.0,80487,List1B,white,man,,,,null,,,,,,,,,
null,is opposing,,html-keyboard-response,346,2262211,0.0-19.0-2.0,80487,List1B,white,man,,,,null,,,,,,,,,
11447.2,,,survey-text,347,2273680,0.0-19.0-3.0,80487,List1B,white,man,,,,,"{""Q0"":""Dave is opposing jane""}","<img src=""stim_listB/oppose3.gif""style=""height:400px;""></stim_listB>",is opposing,,,,,,
null,"<div style=""font-size:60px;"">+</div>",,html-keyboard-response,348,2274185,0.0-19.0-0.1,80487,List1B,white,man,,,,null,,,,,,,,,
null,"<img src=""stim_listB/copy6.gif""style=""height:400px;""></stim_listB>",,html-keyboard-response,349,2276192,0.0-19.0-1.1,80487,List1B,white,man,,,,null,,,,,,,,,
null,is being copied by,,html-keyboard-response,350,2278200,0.0-19.0-2.1,80487,List1B,white,man,,,,null,,,,,,,,,
25189.5,,,survey-text,351,2303405,0.0-19.0-3.1,80487,List1B,white,man,,,,,"{""Q0"":""Dave is being copied by fred""}","<img src=""stim_listB/copy6.gif""style=""height:400px;""></stim_listB>",is being copied by,,,,,,
null,"<div style=""font-size:60px;"">+</div>",,html-keyboard-response,352,2303911,0.0-19.0-0.2,80487,List1B,white,man,,,,null,,,,,,,,,
null,"<img src=""stim_listB/copy8.gif""style=""height:400px;""></stim_listB>",,html-keyboard-response,353,2305920,0.0-19.0-1.2,80487,List1B,white,man,,,,null,,,,,,,,,
null,is being copied by,,html-keyboard-response,354,2307925,0.0-19.0-2.2,80487,List1B,white,man,,,,null,,,,,,,,,
13070.9,,,survey-text,355,2321013,0.0-19.0-3.2,80487,List1B,white,man,,,,,"{""Q0"":""Jane is being copied by beth""}","<img src=""stim_listB/copy8.gif""style=""height:400px;""></stim_listB>",is being copied by,,,,,,
null,"<div style=""font-size:60px;"">+</div>",,html-keyboard-response,356,2321520,0.0-19.0-0.3,80487,List1B,white,man,,,,null,,,,,,,,,
null,"<img src=""stim_listB/copy3.gif""style=""height:400px;""></stim_listB>",,html-keyboard-response,357,2323528,0.0-19.0-1.3,80487,List1B,white,man,,,,null,,,,,,,,,
null,is copying,,html-keyboard-response,358,2325533,0.0-19.0-2.3,80487,List1B,white,man,,,,null,,,,,,,,,
14064.9,,,survey-text,359,2339617,0.0-19.0-3.3,80487,List1B,white,man,,,,,"{""Q0"":""Dave is copying beth""}","<img src=""stim_listB/copy3.gif""style=""height:400px;""></stim_listB>",is copying,,,,,,
null,"<div style=""font-size:60px;"">+</div>",,html-keyboard-response,360,2340122,0.0-19.0-0.4,80487,List1B,white,man,,,,null,,,,,,,,,
null,"<img src=""stim_listB/hug4.gif""style=""height:400px;""></stim_listB>",,html-keyboard-response,361,2342133,0.0-19.0-1.4,80487,List1B,white,man,,,,null,,,,,,,,,
null,is being hugged by,,html-keyboard-response,362,2344138,0.0-19.0-2.4,80487,List1B,white,man,,,,null,,,,,,,,,
28962.4,,,survey-text,363,2373116,0.0-19.0-3.4,80487,List1B,white,man,,,,,"{""Q0"":""Dave is being hugged by ruth""}","<img src=""stim_listB/hug4.gif""style=""height:400px;""></stim_listB>",is being hugged by,,,,,,
null,"<div style=""font-size:60px;"">+</div>",,html-keyboard-response,364,2373621,0.0-19.0-0.5,80487,List1B,white,man,,,,null,,,,,,,,,
null,"<img src=""stim_listB/touch3.gif""style=""height:400px;""></stim_listB>",,html-keyboard-response,365,2375629,0.0-19.0-1.5,80487,List1B,white,man,,,,null,,,,,,,,,
null,is touching,,html-keyboard-response,366,2377635,0.0-19.0-2.5,80487,List1B,white,man,,,,null,,,,,,,,,
18042.6,,,survey-text,367,2395696,0.0-19.0-3.5,80487,List1B,white,man,,,,,"{""Q0"":""Dave to touched by ane""}","<img src=""stim_listB/touch3.gif""style=""height:400px;""></stim_listB>",is touching,,,,,,
null,"<div style=""font-size:60px;"">+</div>",,html-keyboard-response,368,2396203,0.0-19.0-0.6,80487,List1B,white,man,,,,null,,,,,,,,,
null,"<img src=""stim_listB/oppose6.gif""style=""height:400px;""></stim_listB>",,html-keyboard-response,369,2398212,0.0-19.0-1.6,80487,List1B,white,man,,,,null,,,,,,,,,
null,is being opposed by,,html-keyboard-response,370,2400217,0.0-19.0-2.6,80487,List1B,white,man,,,,null,,,,,,,,,
19146.8,,,survey-text,371,2419381,0.0-19.0-3.6,80487,List1B,white,man,,,,,"{""Q0"":""Fred is opposed by Luke""}","<img src=""stim_listB/oppose6.gif""style=""height:400px;""></stim_listB>",is being opposed by,,,,,,
null,"<div style=""font-size:60px;"">+</div>",,html-keyboard-response,372,2419888,0.0-19.0-0.7,80487,List1B,white,man,,,,null,,,,,,,,,
null,"<img src=""stim_listB/look5.gif""style=""height:400px;""></stim_listB>",,html-keyboard-response,373,2421898,0.0-19.0-1.7,80487,List1B,white,man,,,,null,,,,,,,,,
null,is looking at,,html-keyboard-response,374,2423903,0.0-19.0-2.7,80487,List1B,white,man,,,,null,,,,,,,,,
15206.5,,,survey-text,375,2439125,0.0-19.0-3.7,80487,List1B,white,man,,,,,"{""Q0"":""Fred is looking for Luke""}","<img src=""stim_listB/look5.gif""style=""height:400px;""></stim_listB>",is looking at,,,,,,
null,"<div style=""font-size:60px;"">+</div>",,html-keyboard-response,376,2439631,0.0-19.0-0.8,80487,List1B,white,man,,,,null,,,,,,,,,
null,"<img src=""stim_listB/kiss4.gif""style=""height:400px;""></stim_listB>",,html-keyboard-response,377,2441639,0.0-19.0-1.8,80487,List1B,white,man,,,,null,,,,,,,,,
null,is being kissed by,,html-keyboard-response,378,2443644,0.0-19.0-2.8,80487,List1B,white,man,,,,null,,,,,,,,,
28745.3,,,survey-text,379,2472405,0.0-19.0-3.8,80487,List1B,white,man,,,,,"{""Q0"":""Jane is touched by beth""}","<img src=""stim_listB/kiss4.gif""style=""height:400px;""></stim_listB>",is being kissed by,,,,,,
null,"<div style=""font-size:60px;"">+</div>",,html-keyboard-response,380,2472911,0.0-19.0-0.9,80487,List1B,white,man,,,,null,,,,,,,,,
null,"<img src=""stim_listB/copy4.gif""style=""height:400px;""></stim_listB>",,html-keyboard-response,381,2474920,0.0-19.0-1.9,80487,List1B,white,man,,,,null,,,,,,,,,
null,is being copied by,,html-keyboard-response,382,2476925,0.0-19.0-2.9,80487,List1B,white,man,,,,null,,,,,,,,,
39950.5,,,survey-text,383,2516892,0.0-19.0-3.9,80487,List1B,white,man,,,,,"{""Q0"":""Jane is being touched by ruth""}","<img src=""stim_listB/copy4.gif""style=""height:400px;""></stim_listB>",is being copied by,,,,,,
null,"<div style=""font-size:60px;"">+</div>",,html-keyboard-response,384,2517397,0.0-19.0-0.10,80487,List1B,white,man,,,,null,,,,,,,,,
null,"<img src=""stim_listB/challenge3.gif""style=""height:400px;""></stim_listB>",,html-keyboard-response,385,2519404,0.0-19.0-1.10,80487,List1B,white,man,,,,null,,,,,,,,,
null,is challenging,,html-keyboard-response,386,2521409,0.0-19.0-2.10,80487,List1B,white,man,,,,null,,,,,,,,,
8044.4,,,survey-text,387,2529515,0.0-19.0-3.10,80487,List1B,white,man,,,,,"{""Q0"":""Ruth is challenging Dave""}","<img src=""stim_listB/challenge3.gif""style=""height:400px;""></stim_listB>",is challenging,,,,,,
null,"<div style=""font-size:60px;"">+</div>",,html-keyboard-response,388,2530022,0.0-19.0-0.11,80487,List1B,white,man,,,,null,,,,,,,,,
null,"<img src=""stim_listB/shout5.gif""style=""height:400px;""></stim_listB>",,html-keyboard-response,389,2532031,0.0-19.0-1.11,80487,List1B,white,man,,,,null,,,,,,,,,
null,is shouting at,,html-keyboard-response,390,2534036,0.0-19.0-2.11,80487,List1B,white,man,,,,null,,,,,,,,,
24362.8,,,survey-text,391,2558412,0.0-19.0-3.11,80487,List1B,white,man,,,,,"{""Q0"":""Fred is shouting at fred""}","<img src=""stim_listB/shout5.gif""style=""height:400px;""></stim_listB>",is shouting at,,,,,,
null,"<div style=""font-size:60px;"">+</div>",,html-keyboard-response,392,2558921,0.0-19.0-0.12,80487,List1B,white,man,,,,null,,,,,,,,,
null,"<img src=""stim_listB/look1.gif""style=""height:400px;""></stim_listB>",,html-keyboard-response,393,2560929,0.0-19.0-1.12,80487,List1B,white,man,,,,null,,,,,,,,,
null,is looking at,,html-keyboard-response,394,2562934,0.0-19.0-2.12,80487,List1B,white,man,,,,null,,,,,,,,,
15421.9,,,survey-text,395,2578371,0.0-19.0-3.12,80487,List1B,white,man,,,,,"{""Q0"":""Beth is looking at fred""}","<img src=""stim_listB/look1.gif""style=""height:400px;""></stim_listB>",is looking at,,,,,,
null,"<div style=""font-size:60px;"">+</div>",,html-keyboard-response,396,2578877,0.0-19.0-0.13,80487,List1B,white,man,,,,null,,,,,,,,,
null,"<img src=""stim_listB/touch5.gif""style=""height:400px;""></stim_listB>",,html-keyboard-response,397,2580885,0.0-19.0-1.13,80487,List1B,white,man,,,,null,,,,,,,,,
null,is touching,,html-keyboard-response,398,2582890,0.0-19.0-2.13,80487,List1B,white,man,,,,null,,,,,,,,,
43865.5,,,survey-text,399,2626773,0.0-19.0-3.13,80487,List1B,white,man,,,,,"{""Q0"":""Jane is touched by bet""}","<img src=""stim_listB/touch5.gif""style=""height:400px;""></stim_listB>",is touching,,,,,,
null,"<div style=""font-size:60px;"">+</div>",,html-keyboard-response,400,2627281,0.0-19.0-0.14,80487,List1B,white,man,,,,null,,,,,,,,,
null,"<img src=""stim_listB/challenge1.gif""style=""height:400px;""></stim_listB>",,html-keyboard-response,401,2629290,0.0-19.0-1.14,80487,List1B,white,man,,,,null,,,,,,,,,
null,is challenging,,html-keyboard-response,402,2631295,0.0-19.0-2.14,80487,List1B,white,man,,,,null,,,,,,,,,
10366.3,,,survey-text,403,2641679,0.0-19.0-3.14,80487,List1B,white,man,,,,,"{""Q0"":""Mike is challenging beth""}","<img src=""stim_listB/challenge1.gif""style=""height:400px;""></stim_listB>",is challenging,,,,,,
null,"<div style=""font-size:60px;"">+</div>",,html-keyboard-response,404,2642185,0.0-19.0-0.15,80487,List1B,white,man,,,,null,,,,,,,,,
null,"<img src=""stim_listB/hug8.gif""style=""height:400px;""></stim_listB>",,html-keyboard-response,405,2644191,0.0-19.0-1.15,80487,List1B,white,man,,,,null,,,,,,,,,
null,is being hugged by,,html-keyboard-response,406,2646196,0.0-19.0-2.15,80487,List1B,white,man,,,,null,,,,,,,,,
15558,,,survey-text,407,2661773,0.0-19.0-3.15,80487,List1B,white,man,,,,,"{""Q0"":""Kate is touched by Luke""}","<img src=""stim_listB/hug8.gif""style=""height:400px;""></stim_listB>",is being hugged by,,,,,,
null,"<div style=""font-size:60px;"">+</div>",,html-keyboard-response,408,2662279,0.0-19.0-0.16,80487,List1B,white,man,,,,null,,,,,,,,,
null,"<img src=""stim_listB/challenge6.gif""style=""height:400px;""></stim_listB>",,html-keyboard-response,409,2664287,0.0-19.0-1.16,80487,List1B,white,man,,,,null,,,,,,,,,
null,is being challenged by,,html-keyboard-response,410,2666293,0.0-19.0-2.16,80487,List1B,white,man,,,,null,,,,,,,,,
21066.7,,,survey-text,411,2687374,0.0-19.0-3.16,80487,List1B,white,man,,,,,"{""Q0"":""Dave is being challenged by jave""}","<img src=""stim_listB/challenge6.gif""style=""height:400px;""></stim_listB>",is being challenged by,,,,,,
null,"<div style=""font-size:60px;"">+</div>",,html-keyboard-response,412,2687879,0.0-19.0-0.17,80487,List1B,white,man,,,,null,,,,,,,,,
null,"<img src=""stim_listB/touch1.gif""style=""height:400px;""></stim_listB>",,html-keyboard-response,413,2689888,0.0-19.0-1.17,80487,List1B,white,man,,,,null,,,,,,,,,
null,is touching,,html-keyboard-response,414,2691895,0.0-19.0-2.17,80487,List1B,white,man,,,,null,,,,,,,,,
41103.1,,,survey-text,415,2733015,0.0-19.0-3.17,80487,List1B,white,man,,,,,"{""Q0"":""Dave is copying Luke""}","<img src=""stim_listB/touch1.gif""style=""height:400px;""></stim_listB>",is touching,,,,,,
null,"<div style=""font-size:60px;"">+</div>",,html-keyboard-response,416,2733521,0.0-19.0-0.18,80487,List1B,white,man,,,,null,,,,,,,,,
null,"<img src=""stim_listB/shout8.gif""style=""height:400px;""></stim_listB>",,html-keyboard-response,417,2735528,0.0-19.0-1.18,80487,List1B,white,man,,,,null,,,,,,,,,
null,is being shouted at by,,html-keyboard-response,418,2737534,0.0-19.0-2.18,80487,List1B,white,man,,,,null,,,,,,,,,
19223.8,,,survey-text,419,2756772,0.0-19.0-3.18,80487,List1B,white,man,,,,,"{""Q0"":""Kate is being shouted by jane""}","<img src=""stim_listB/shout8.gif""style=""height:400px;""></stim_listB>",is being shouted at by,,,,,,
null,"<div style=""font-size:60px;"">+</div>",,html-keyboard-response,420,2757278,0.0-19.0-0.19,80487,List1B,white,man,,,,null,,,,,,,,,
null,"<img src=""stim_listB/greet3.gif""style=""height:400px;""></stim_listB>",,html-keyboard-response,421,2759287,0.0-19.0-1.19,80487,List1B,white,man,,,,null,,,,,,,,,
null,is greeting,,html-keyboard-response,422,2761293,0.0-19.0-2.19,80487,List1B,white,man,,,,null,,,,,,,,,
10254.8,,,survey-text,423,2771563,0.0-19.0-3.19,80487,List1B,white,man,,,,,"{""Q0"":""Dave is greeting Ruth""}","<img src=""stim_listB/greet3.gif""style=""height:400px;""></stim_listB>",is greeting,,,,,,
5250.3,<p>Thank you for completing that task.</p><p>The final part of this session is a questionnaire that will take about 4 minutes.</p><p>Press Continue.</p>,0,html-button-response,424,2776853,0.0-20.0,80487,List1B,white,man,,,,,,,,,,,,,
38823.7,,,survey-text,425,2816751,0.0-21.0,80487,List1B,white,man,,,,,"{""Q0"":""31"",""Q1"":""English"",""Q2"":""English"",""Q3"":""United States"",""Q4"":""United States"",""Q5"":""White"",""Q6"":""Male""}",,,demographics,,,,,
4284.3,<p>Have you lived in the USA for the last 5 years or more?</p>,0,html-button-response,426,2821073,0.0-22.0,80487,List1B,white,man,,,,,,,,fiveyears,,,,,
3721.9,<p>Move the slider to show the extent to which you agree with the following statements.</p>,0,html-button-response,427,2825804,0.0-23.0,80487,List1B,white,man,,,,,,,,,,,,,
6858.6,,,html-slider-response,428,2833687,0.0-24.0-0.0-0.0,80487,List1B,white,man,,,,,,,,survey_race,76,,,I have a lot in common with people of a similar age to me.,filler
3889.7,,,html-slider-response,429,2837587,0.0-24.0-0.0-0.1,80487,List1B,white,man,,,,,,,,survey_race,70,,,I am similar to the average person of my race.,similar
3157.9,,,html-slider-response,430,2840754,0.0-24.0-0.0-0.2,80487,List1B,white,man,,,,,,,,survey_race,85,,,I am glad to be my race.,glad
3024.7,,,html-slider-response,431,2843786,0.0-24.0-0.0-0.3,80487,List1B,white,man,,,,,,,,survey_race,90,,,Being my race gives me a good feeling.,feeling
3816.5,,,html-slider-response,432,2847610,0.0-24.0-0.0-0.4,80487,List1B,white,man,,,,,,,,survey_race,68,,,Getting older does not worry me.,filler
2857.5,,,html-slider-response,433,2850477,0.0-24.0-0.0-0.5,80487,List1B,white,man,,,,,,,,survey_race,73,,,"The older I get, the wiser I feel.",filler
2856.5,,,html-slider-response,434,2853340,0.0-24.0-0.0-0.6,80487,List1B,white,man,,,,,,,,survey_race,90,,,I am glad to be the age I am.,filler
2246.1,,,html-slider-response,435,2855596,0.0-24.0-0.0-0.7,80487,List1B,white,man,,,,,,,,survey_race,76,,,The fact that I am my race is an important part of my identity.,identity
3092.7,,,html-slider-response,436,2858696,0.0-24.0-0.0-0.8,80487,List1B,white,man,,,,,,,,survey_race,75,,,My age is not an important part of who I am.,filler
4925.7,,,html-slider-response,437,2863629,0.0-24.0-0.0-0.9,80487,List1B,white,man,,,,,,,,survey_race,74,,,I have a lot in common with the average person of my race.,average
13351.8,,,html-slider-response,438,2876989,0.0-24.0-0.0-0.10,80487,List1B,white,man,,,,,,,,survey_race,75,,,I feel a bond with people the same age as me.,filler
1824.7,,,html-slider-response,439,2878824,0.0-24.0-0.0-0.11,80487,List1B,white,man,,,,,,,,survey_race,76,,,I consider myself an extrovert.,filler
2456.1,,,html-slider-response,440,2881291,0.0-24.0-0.0-0.12,80487,List1B,white,man,,,,,,,,survey_race,69,,,I feel solidarity with people the same age as me.,filler
2989.2,,,html-slider-response,441,2884289,0.0-24.0-0.0-0.13,80487,List1B,white,man,,,,,,,,survey_race,82,,,It is pleasant to be my race.,pleasant
1775.9,,,html-slider-response,442,2886072,0.0-24.0-0.0-0.14,80487,List1B,white,man,,,,,,,,survey_race,73,,,I feel solidarity with my race.,solidarity
1761.5,,,html-slider-response,443,2887841,0.0-24.0-0.0-0.15,80487,List1B,white,man,,,,,,,,survey_race,77,,,I am glad to be my age.,filler
5294.2,,,html-slider-response,444,2893143,0.0-24.0-0.0-0.16,80487,List1B,white,man,,,,,,,,survey_race,69,,,People of my race are very similar to each other.,verysimilar
14749.1,,,html-slider-response,445,2907903,0.0-24.0-0.0-0.17,80487,List1B,white,man,,,,,,,,survey_race,65,,,Being my race is an important part of how I see myself.,important
4338.9,,,html-slider-response,446,2912254,0.0-24.0-0.0-0.18,80487,List1B,white,man,,,,,,,,survey_race,82,,,People of my race have a lot in common with each other.,common
2556.6,,,html-slider-response,447,2914823,0.0-24.0-0.0-0.19,80487,List1B,white,man,,,,,,,,survey_race,84,,,Being my age gives me a good feeling.,filler
5686.7,,,html-slider-response,448,2920519,0.0-24.0-0.0-0.20,80487,List1B,white,man,,,,,,,,survey_race,87,,,I feel a bond with my race.,bond
2744.2,,,html-slider-response,449,2923273,0.0-24.0-0.0-0.21,80487,List1B,white,man,,,,,,,,survey_race,89,,,I often think about the fact that I am my race.,often
1892.1,,,html-slider-response,450,2925173,0.0-24.0-0.0-0.22,80487,List1B,white,man,,,,,,,,survey_race,78,,,People my age have a lot in common with each other.,filler
2509,,,html-slider-response,451,2927691,0.0-24.0-0.0-0.23,80487,List1B,white,man,,,,,,,,survey_race,82,,,I enjoy being in large groups.,filler
3648.7,,,html-slider-response,452,2931348,0.0-24.0-0.0-0.24,80487,List1B,white,man,,,,,,,,survey_race,84,,,I often think about the fact that I am my age.,filler
2201,,,html-slider-response,453,2933563,0.0-24.0-0.0-0.25,80487,List1B,white,man,,,,,,,,survey_race,84,,,I feel committed to my race.,committed
2003.8,,,html-slider-response,454,2935577,0.0-24.0-0.0-0.26,80487,List1B,white,man,,,,,,,,survey_race,71,,,I think that my race has a lot to be proud of.,proud
5009.3,,,html-slider-response,455,2940594,0.0-24.0-0.0-0.27,80487,List1B,white,man,,,,,,,,survey_race,61,,,I consider myself an introvert.,filler
1943.6,,,html-slider-response,456,2942546,0.0-24.0-1.0-0.0,80487,List1B,white,man,,,,,,,,survey_gender,84,,,I feel committed to my gender.,committed
2343.9,,,html-slider-response,457,2944898,0.0-24.0-1.0-0.1,80487,List1B,white,man,,,,,,,,survey_gender,81,,,I feel solidarity with my friends.,filler
2209.2,,,html-slider-response,458,2947114,0.0-24.0-1.0-0.2,80487,List1B,white,man,,,,,,,,survey_gender,84,,,Most of the friends in my life are very similar to me.,filler
1878,,,html-slider-response,459,2949000,0.0-24.0-1.0-0.3,80487,List1B,white,man,,,,,,,,survey_gender,81,,,Routine is not important to me.,filler
2858.6,,,html-slider-response,460,2951867,0.0-24.0-1.0-0.4,80487,List1B,white,man,,,,,,,,survey_gender,87,,,My friends understand me.,filler
1973.8,,,html-slider-response,461,2953849,0.0-24.0-1.0-0.5,80487,List1B,white,man,,,,,,,,survey_gender,80,,,I have a lot in common with my friends.,filler
1712.7,,,html-slider-response,462,2955570,0.0-24.0-1.0-0.6,80487,List1B,white,man,,,,,,,,survey_gender,85,,,It is pleasant to be my gender.,pleasant
11846.8,,,html-slider-response,463,2967425,0.0-24.0-1.0-0.7,80487,List1B,white,man,,,,,,,,survey_gender,40,,,I would say I am an animal person.,filler
3722.6,,,html-slider-response,464,2971159,0.0-24.0-1.0-0.8,80487,List1B,white,man,,,,,,,,survey_gender,70,,,I think that my gender has a lot to be proud of.,proud
1928.9,,,html-slider-response,465,2973096,0.0-24.0-1.0-0.9,80487,List1B,white,man,,,,,,,,survey_gender,81,,,I am glad to have the friends that I have.,filler
15245.3,,,html-slider-response,466,2988349,0.0-24.0-1.0-0.10,80487,List1B,white,man,,,,,,,,survey_gender,77,,,The fact that I am my gender is an important part of my identity.,identity
3474.7,,,html-slider-response,467,2991833,0.0-24.0-1.0-0.11,80487,List1B,white,man,,,,,,,,survey_gender,80,,,Family is not more important to me than friendship.,filler
2674.4,,,html-slider-response,468,2994515,0.0-24.0-1.0-0.12,80487,List1B,white,man,,,,,,,,survey_gender,81,,,I feel solidarity with my gender.,solidarity
15935.9,,,html-slider-response,469,3010458,0.0-24.0-1.0-0.13,80487,List1B,white,man,,,,,,,,survey_gender,67,,,I consider myself a highly empathetic person.,filler
4209,,,html-slider-response,470,3014676,0.0-24.0-1.0-0.14,80487,List1B,white,man,,,,,,,,survey_gender,91,,,I feel a bond with my gender.,bond
1657.2,,,html-slider-response,471,3016342,0.0-24.0-1.0-0.15,80487,List1B,white,man,,,,,,,,survey_gender,79,,,People of my gender are very similar to each other.,verysimilar
1445.1,,,html-slider-response,472,3017795,0.0-24.0-1.0-0.16,80487,List1B,white,man,,,,,,,,survey_gender,73,,,I have a lot in common with the average person of my gender.,average
1359.3,,,html-slider-response,473,3019162,0.0-24.0-1.0-0.17,80487,List1B,white,man,,,,,,,,survey_gender,78,,,I am glad to be my gender.,glad
1374.5,,,html-slider-response,474,3020544,0.0-24.0-1.0-0.18,80487,List1B,white,man,,,,,,,,survey_gender,87,,,Being my gender is an important part of how I see myself.,important
1261.6,,,html-slider-response,475,3021813,0.0-24.0-1.0-0.19,80487,List1B,white,man,,,,,,,,survey_gender,97,,,I feel a bond with my friends.,filler
1391.2,,,html-slider-response,476,3023212,0.0-24.0-1.0-0.20,80487,List1B,white,man,,,,,,,,survey_gender,92,,,I often think about the fact that I am my gender.,often
1441.4,,,html-slider-response,477,3024661,0.0-24.0-1.0-0.21,80487,List1B,white,man,,,,,,,,survey_gender,98,,,I am similar to the average person of my gender.,similar
1579.3,,,html-slider-response,478,3026250,0.0-24.0-1.0-0.22,80487,List1B,white,man,,,,,,,,survey_gender,93,,,I often think about my actions.,filler
3345.4,,,html-slider-response,479,3029604,0.0-24.0-1.0-0.23,80487,List1B,white,man,,,,,,,,survey_gender,86,,,It is not always easy for people to know what I am thinking.,filler
1721.1,,,html-slider-response,480,3031334,0.0-24.0-1.0-0.24,80487,List1B,white,man,,,,,,,,survey_gender,98,,,Being around my friends gives me a good feeling.,filler
1840.9,,,html-slider-response,481,3033182,0.0-24.0-1.0-0.25,80487,List1B,white,man,,,,,,,,survey_gender,17,,,People of my gender have a lot in common with each other.,common
1710.2,,,html-slider-response,482,3034899,0.0-24.0-1.0-0.26,80487,List1B,white,man,,,,,,,,survey_gender,86,,,My friends have a lot in common with each other.,filler
2561.8,,,html-slider-response,483,3037467,0.0-24.0-1.0-0.27,80487,List1B,white,man,,,,,,,,survey_gender,86,,,Being my gender gives me a good feeling.,feeling
13177.8,,,survey-text,484,3050681,0.0-25.0,80487,List1B,white,man,,,,,"{""Q0"":""ccc""}",,,worker_id,,,,,
4520.8,,,external-html,485,3056796,0.0-26.0,80487,List1B,white,man,debrief.html,,,,,,,,,,,,
