rt,stimulus,button_pressed,trial_type,trial_index,time_elapsed,internal_node_id,subject,list,ppt_race,ppt_gender,url,first_guess,correct,key_press,responses,image_type,phrase_type,test_part,response,stimulus1,stimulus2,question_type,survey_item
2553.6,Welcome to the experiment. Press Continue to begin.,0,html-button-response,0,2557,0.0-0.0,80729,List1A,white,man,,,,,,,,,,,,,
13276.6,,,external-html,1,17012,0.0-1.0,80729,List1A,white,man,consent.html,,,,,,,,,,,,
10314.6,"<p>On the next page, you will see portraits of 8 people and their names.</p><p>Your first task is to take a few minutes to memorise the names of these people.</p><p>You will have to recall their names during the rest of the experiment, so it is</p><p>essential that you try to memorise these people and their names as best as you can.</p><br><p><strong>You will then be tested on your memory of these names and portraits.</strong></p><br><p>The experiment will start after you have completed this memory test.</p><br><p>Ready?</p>",0,html-button-response,2,27328,0.0-2.0,80729,List1A,white,man,,,,,,,,,,,,,
56145.4,"<img src='img/portrait_matrix_list1.jpg' style='width:900px;height:500px;''></img><p>If you have memorised all the portraits and names and are ready to start, press Continue.</p><p><strong>Please note: Your memory of these faces will be tested 4 times during this experiment.</strong></p>",0,html-button-response,3,84490,0.0-3.0-0.0,80729,List1A,white,man,,,,,,,,,,,,,
5657.9,"<img src=""portrait/WW1.jpg""style=""height:400px;""></img>",1,html-button-response,4,91151,0.0-3.0-1.0,80729,List1A,white,man,,TRUE,1,,,,,,,,,,
null,CORRECT,,html-keyboard-response,5,92672,0.0-3.0-2.0-0.0,80729,List1A,white,man,,,,null,,,,,,,,,
3437.8,"<img src=""portrait/WM1.jpg""style=""height:400px;""></img>",6,html-button-response,6,96112,0.0-3.0-4.0,80729,List1A,white,man,,TRUE,6,,,,,,,,,,
null,CORRECT,,html-keyboard-response,7,97621,0.0-3.0-5.0-0.0,80729,List1A,white,man,,,,null,,,,,,,,,
2573.7,"<img src=""portrait/BM1.jpg""style=""height:400px;""></img>",4,html-button-response,8,100195,0.0-3.0-7.0,80729,List1A,white,man,,TRUE,4,,,,,,,,,,
null,CORRECT,,html-keyboard-response,9,101709,0.0-3.0-8.0-0.0,80729,List1A,white,man,,,,null,,,,,,,,,
4661.5,"<img src=""portrait/BW1.jpg""style=""height:400px;""></img>",0,html-button-response,10,106371,0.0-3.0-10.0,80729,List1A,white,man,,TRUE,0,,,,,,,,,,
null,CORRECT,,html-keyboard-response,11,107873,0.0-3.0-11.0-0.0,80729,List1A,white,man,,,,null,,,,,,,,,
2615.2,"<img src=""portrait/BW2.jpg""style=""height:400px;""></img>",2,html-button-response,12,110489,0.0-3.0-13.0,80729,List1A,white,man,,TRUE,2,,,,,,,,,,
null,CORRECT,,html-keyboard-response,13,112007,0.0-3.0-14.0-0.0,80729,List1A,white,man,,,,null,,,,,,,,,
2001.8,"<img src=""portrait/WW2.jpg""style=""height:400px;""></img>",3,html-button-response,14,114010,0.0-3.0-16.0,80729,List1A,white,man,,TRUE,3,,,,,,,,,,
null,CORRECT,,html-keyboard-response,15,115513,0.0-3.0-17.0-0.0,80729,List1A,white,man,,,,null,,,,,,,,,
2467.5,"<img src=""portrait/BM2.jpg""style=""height:400px;""></img>",5,html-button-response,16,117982,0.0-3.0-19.0,80729,List1A,white,man,,TRUE,5,,,,,,,,,,
null,CORRECT,,html-keyboard-response,17,119497,0.0-3.0-20.0-0.0,80729,List1A,white,man,,,,null,,,,,,,,,
1859.1,"<img src=""portrait/WM2.jpg""style=""height:400px;""></img>",7,html-button-response,18,121357,0.0-3.0-22.0,80729,List1A,white,man,,TRUE,7,,,,,,,,,,
null,CORRECT,,html-keyboard-response,19,122869,0.0-3.0-23.0-0.0,80729,List1A,white,man,,,,null,,,,,,,,,
1749,<p>You got 8 out of 8 right first time. Press Continue.</p>,0,html-button-response,20,124619,0.0-3.0-25.0,80729,List1A,white,man,,,,,,,,,,,,,
30137,"<p>In this experiment, you will view photographs of the people from the memory game interacting.</p><p>By using the <strong>exact</strong> phrase given <i>after</i> the photograph appears and recalling the correct names of the people in the photographs, form a sentence describing the interaction. You do not need to capitalise names.</p><p>Type your answer in the space provided. Please complete every sentence before moving onto the next trial.</p><p>You will only have a few seconds to memorise each given photograph and phrase before you can respond, so try your best to focus.</p><p>An example is given below. Press 'Continue' when you are ready.</p><img src='img/speaking_example.jpg' style='width:800px;height:460px;''></img>",0,html-button-response,21,155760,0.0-4.0,80729,List1A,white,man,,,,,,,,,,,,,
1787.2,"<p>Before the experiment starts, you will watch two example trials. Press 'Continue'.</p>",0,html-button-response,22,158550,0.0-5.0,80729,List1A,white,man,,,,,,,,,,,,,
null,<img src='img/play_eg.gif' style='height:400px;''></img>,,html-keyboard-response,23,161557,0.0-6.0,80729,List1A,white,man,,,,null,,,,,,,,,
null,<p>is playing with</p>,,html-keyboard-response,24,163560,0.0-7.0,80729,List1A,white,man,,,,null,,,,,,,,,
2459.1,<p><b>Answer:</b> kate is playing with beth</p>,0,html-button-response,25,166020,0.0-8.0,80729,List1A,white,man,,,,,,,,,,,,,
null,<img src='img/dance_eg.gif' style='height:400px;''></img>,,html-keyboard-response,26,169022,0.0-9.0,80729,List1A,white,man,,,,null,,,,,,,,,
null,<p>is being entertained by</p>,,html-keyboard-response,27,171039,0.0-10.0,80729,List1A,white,man,,,,null,,,,,,,,,
3204.5,<p><b>Answer:</b> luke is being entertained by dave</p>,0,html-button-response,28,174244,0.0-11.0,80729,List1A,white,man,,,,,,,,,,,,,
7805.5,"<p>Ready to start the experiment?</p><br><p><strong>Remember to describe the picture using a full sentence,</strong></p><p><strong>that combines the names of the people with the <i>exact</i> phrase given.</strong></p><p><strong>To receive full payment you must do this correctly.</strong></p><p><strong> You do not need to capitalise names or use punctuation.</strong></p><br><p>Press 'Continue' to begin.</p>",0,html-button-response,29,183053,0.0-12.0,80729,List1A,white,man,,,,,,,,,,,,,
null,"<div style=""font-size:60px;"">+</div>",,html-keyboard-response,30,184569,0.0-13.0-0.0,80729,List1A,white,man,,,,null,,,,,,,,,
null,"<img src=""stim_listA/look3.gif""style=""height:400px;""></stim_listA>",,html-keyboard-response,31,186575,0.0-13.0-1.0,80729,List1A,white,man,,,,null,,,,,,,,,
null,is looking at,,html-keyboard-response,32,188576,0.0-13.0-2.0,80729,List1A,white,man,,,,null,,,,,,,,,
13610.6,,,survey-text,33,202190,0.0-13.0-3.0,80729,List1A,white,man,,,,,"{""Q0"":""luke is looking at ruth""}","<img src=""stim_listA/look3.gif""style=""height:400px;""></stim_listA>",is looking at,,,,,,
null,"<div style=""font-size:60px;"">+</div>",,html-keyboard-response,34,202695,0.0-13.0-0.1,80729,List1A,white,man,,,,null,,,,,,,,,
null,"<img src=""stim_listA/hug4.gif""style=""height:400px;""></stim_listA>",,html-keyboard-response,35,204699,0.0-13.0-1.1,80729,List1A,white,man,,,,null,,,,,,,,,
null,is being hugged by,,html-keyboard-response,36,206702,0.0-13.0-2.1,80729,List1A,white,man,,,,null,,,,,,,,,
8841.8,,,survey-text,37,215546,0.0-13.0-3.1,80729,List1A,white,man,,,,,"{""Q0"":""dave is being hugged by jane""}","<img src=""stim_listA/hug4.gif""style=""height:400px;""></stim_listA>",is being hugged by,,,,,,
null,"<div style=""font-size:60px;"">+</div>",,html-keyboard-response,38,216063,0.0-13.0-0.2,80729,List1A,white,man,,,,null,,,,,,,,,
null,"<img src=""stim_listA/look7.gif""style=""height:400px;""></stim_listA>",,html-keyboard-response,39,218065,0.0-13.0-1.2,80729,List1A,white,man,,,,null,,,,,,,,,
null,is looking at,,html-keyboard-response,40,220066,0.0-13.0-2.2,80729,List1A,white,man,,,,null,,,,,,,,,
6005.8,,,survey-text,41,226074,0.0-13.0-3.2,80729,List1A,white,man,,,,,"{""Q0"":""ruth is looking at beth""}","<img src=""stim_listA/look7.gif""style=""height:400px;""></stim_listA>",is looking at,,,,,,
null,"<div style=""font-size:60px;"">+</div>",,html-keyboard-response,42,226576,0.0-13.0-0.3,80729,List1A,white,man,,,,null,,,,,,,,,
null,"<img src=""stim_listA/seduce7.gif""style=""height:400px;""></stim_listA>",,html-keyboard-response,43,228582,0.0-13.0-1.3,80729,List1A,white,man,,,,null,,,,,,,,,
null,is seducing,,html-keyboard-response,44,230583,0.0-13.0-2.3,80729,List1A,white,man,,,,null,,,,,,,,,
7852,,,survey-text,45,238437,0.0-13.0-3.3,80729,List1A,white,man,,,,,"{""Q0"":""jane is seducing beth""}","<img src=""stim_listA/seduce7.gif""style=""height:400px;""></stim_listA>",is seducing,,,,,,
null,"<div style=""font-size:60px;"">+</div>",,html-keyboard-response,46,238950,0.0-13.0-0.4,80729,List1A,white,man,,,,null,,,,,,,,,
null,"<img src=""stim_listA/kiss5.gif""style=""height:400px;""></stim_listA>",,html-keyboard-response,47,240957,0.0-13.0-1.4,80729,List1A,white,man,,,,null,,,,,,,,,
null,is kissing,,html-keyboard-response,48,242959,0.0-13.0-2.4,80729,List1A,white,man,,,,null,,,,,,,,,
9237.9,,,survey-text,49,252199,0.0-13.0-3.4,80729,List1A,white,man,,,,,"{""Q0"":""fred is kissing luke""}","<img src=""stim_listA/kiss5.gif""style=""height:400px;""></stim_listA>",is kissing,,,,,,
null,"<div style=""font-size:60px;"">+</div>",,html-keyboard-response,50,252702,0.0-13.0-0.5,80729,List1A,white,man,,,,null,,,,,,,,,
null,"<img src=""stim_listA/copy4.gif""style=""height:400px;""></stim_listA>",,html-keyboard-response,51,254708,0.0-13.0-1.5,80729,List1A,white,man,,,,null,,,,,,,,,
null,is being copied by,,html-keyboard-response,52,256710,0.0-13.0-2.5,80729,List1A,white,man,,,,null,,,,,,,,,
5410.2,,,survey-text,53,262122,0.0-13.0-3.5,80729,List1A,white,man,,,,,"{""Q0"":""jane is being copied by luke""}","<img src=""stim_listA/copy4.gif""style=""height:400px;""></stim_listA>",is being copied by,,,,,,
null,"<div style=""font-size:60px;"">+</div>",,html-keyboard-response,54,262625,0.0-13.0-0.6,80729,List1A,white,man,,,,null,,,,,,,,,
null,"<img src=""stim_listA/look6.gif""style=""height:400px;""></stim_listA>",,html-keyboard-response,55,264639,0.0-13.0-1.6,80729,List1A,white,man,,,,null,,,,,,,,,
null,is being looked at by,,html-keyboard-response,56,266648,0.0-13.0-2.6,80729,List1A,white,man,,,,null,,,,,,,,,
5799.7,,,survey-text,57,272449,0.0-13.0-3.6,80729,List1A,white,man,,,,,"{""Q0"":""dave is being looked at by mike""}","<img src=""stim_listA/look6.gif""style=""height:400px;""></stim_listA>",is being looked at by,,,,,,
null,"<div style=""font-size:60px;"">+</div>",,html-keyboard-response,58,272966,0.0-13.0-0.7,80729,List1A,white,man,,,,null,,,,,,,,,
null,"<img src=""stim_listA/oppose6.gif""style=""height:400px;""></stim_listA>",,html-keyboard-response,59,274972,0.0-13.0-1.7,80729,List1A,white,man,,,,null,,,,,,,,,
null,is being opposed by,,html-keyboard-response,60,276973,0.0-13.0-2.7,80729,List1A,white,man,,,,null,,,,,,,,,
5239.4,,,survey-text,61,282215,0.0-13.0-3.7,80729,List1A,white,man,,,,,"{""Q0"":""fred is being opposed by luke""}","<img src=""stim_listA/oppose6.gif""style=""height:400px;""></stim_listA>",is being opposed by,,,,,,
null,"<div style=""font-size:60px;"">+</div>",,html-keyboard-response,62,282728,0.0-13.0-0.8,80729,List1A,white,man,,,,null,,,,,,,,,
null,"<img src=""stim_listA/touch2.gif""style=""height:400px;""></stim_listA>",,html-keyboard-response,63,284730,0.0-13.0-1.8,80729,List1A,white,man,,,,null,,,,,,,,,
null,is being touched by,,html-keyboard-response,64,286744,0.0-13.0-2.8,80729,List1A,white,man,,,,null,,,,,,,,,
4558.4,,,survey-text,65,291305,0.0-13.0-3.8,80729,List1A,white,man,,,,,"{""Q0"":""fred is being touched by beth""}","<img src=""stim_listA/touch2.gif""style=""height:400px;""></stim_listA>",is being touched by,,,,,,
null,"<div style=""font-size:60px;"">+</div>",,html-keyboard-response,66,291813,0.0-13.0-0.9,80729,List1A,white,man,,,,null,,,,,,,,,
null,"<img src=""stim_listA/copy3.gif""style=""height:400px;""></stim_listA>",,html-keyboard-response,67,293822,0.0-13.0-1.9,80729,List1A,white,man,,,,null,,,,,,,,,
null,is copying,,html-keyboard-response,68,295826,0.0-13.0-2.9,80729,List1A,white,man,,,,null,,,,,,,,,
3103.8,,,survey-text,69,298932,0.0-13.0-3.9,80729,List1A,white,man,,,,,"{""Q0"":""dave is copying ruth""}","<img src=""stim_listA/copy3.gif""style=""height:400px;""></stim_listA>",is copying,,,,,,
null,"<div style=""font-size:60px;"">+</div>",,html-keyboard-response,70,299444,0.0-13.0-0.10,80729,List1A,white,man,,,,null,,,,,,,,,
null,"<img src=""stim_listA/look5.gif""style=""height:400px;""></stim_listA>",,html-keyboard-response,71,301458,0.0-13.0-1.10,80729,List1A,white,man,,,,null,,,,,,,,,
null,is looking at,,html-keyboard-response,72,303461,0.0-13.0-2.10,80729,List1A,white,man,,,,null,,,,,,,,,
4289,,,survey-text,73,307752,0.0-13.0-3.10,80729,List1A,white,man,,,,,"{""Q0"":""fred is looking at luke""}","<img src=""stim_listA/look5.gif""style=""height:400px;""></stim_listA>",is looking at,,,,,,
null,"<div style=""font-size:60px;"">+</div>",,html-keyboard-response,74,308266,0.0-13.0-0.11,80729,List1A,white,man,,,,null,,,,,,,,,
null,"<img src=""stim_listA/hug6.gif""style=""height:400px;""></stim_listA>",,html-keyboard-response,75,310272,0.0-13.0-1.11,80729,List1A,white,man,,,,null,,,,,,,,,
null,is being hugged by,,html-keyboard-response,76,312281,0.0-13.0-2.11,80729,List1A,white,man,,,,null,,,,,,,,,
4244.3,,,survey-text,77,316527,0.0-13.0-3.11,80729,List1A,white,man,,,,,"{""Q0"":""mike is being hugged by dave""}","<img src=""stim_listA/hug6.gif""style=""height:400px;""></stim_listA>",is being hugged by,,,,,,
null,"<div style=""font-size:60px;"">+</div>",,html-keyboard-response,78,317032,0.0-13.0-0.12,80729,List1A,white,man,,,,null,,,,,,,,,
null,"<img src=""stim_listA/touch7.gif""style=""height:400px;""></stim_listA>",,html-keyboard-response,79,319034,0.0-13.0-1.12,80729,List1A,white,man,,,,null,,,,,,,,,
null,is touching,,html-keyboard-response,80,321036,0.0-13.0-2.12,80729,List1A,white,man,,,,null,,,,,,,,,
3094.1,,,survey-text,81,324132,0.0-13.0-3.12,80729,List1A,white,man,,,,,"{""Q0"":""kate is touching jane""}","<img src=""stim_listA/touch7.gif""style=""height:400px;""></stim_listA>",is touching,,,,,,
null,"<div style=""font-size:60px;"">+</div>",,html-keyboard-response,82,324644,0.0-13.0-0.13,80729,List1A,white,man,,,,null,,,,,,,,,
null,"<img src=""stim_listA/kiss7.gif""style=""height:400px;""></stim_listA>",,html-keyboard-response,83,326646,0.0-13.0-1.13,80729,List1A,white,man,,,,null,,,,,,,,,
null,is kissing,,html-keyboard-response,84,328657,0.0-13.0-2.13,80729,List1A,white,man,,,,null,,,,,,,,,
2943.3,,,survey-text,85,331602,0.0-13.0-3.13,80729,List1A,white,man,,,,,"{""Q0"":""beth is kissing ruth""}","<img src=""stim_listA/kiss7.gif""style=""height:400px;""></stim_listA>",is kissing,,,,,,
null,"<div style=""font-size:60px;"">+</div>",,html-keyboard-response,86,332104,0.0-13.0-0.14,80729,List1A,white,man,,,,null,,,,,,,,,
null,"<img src=""stim_listA/hug7.gif""style=""height:400px;""></stim_listA>",,html-keyboard-response,87,334109,0.0-13.0-1.14,80729,List1A,white,man,,,,null,,,,,,,,,
null,is hugging,,html-keyboard-response,88,336110,0.0-13.0-2.14,80729,List1A,white,man,,,,null,,,,,,,,,
3815.5,,,survey-text,89,339928,0.0-13.0-3.14,80729,List1A,white,man,,,,,"{""Q0"":""beth is hugging ruth""}","<img src=""stim_listA/hug7.gif""style=""height:400px;""></stim_listA>",is hugging,,,,,,
null,"<div style=""font-size:60px;"">+</div>",,html-keyboard-response,90,340429,0.0-13.0-0.15,80729,List1A,white,man,,,,null,,,,,,,,,
null,"<img src=""stim_listA/touch3.gif""style=""height:400px;""></stim_listA>",,html-keyboard-response,91,342434,0.0-13.0-1.15,80729,List1A,white,man,,,,null,,,,,,,,,
null,is touching,,html-keyboard-response,92,344438,0.0-13.0-2.15,80729,List1A,white,man,,,,null,,,,,,,,,
3182.8,,,survey-text,93,347623,0.0-13.0-3.15,80729,List1A,white,man,,,,,"{""Q0"":""dave is touching jane""}","<img src=""stim_listA/touch3.gif""style=""height:400px;""></stim_listA>",is touching,,,,,,
null,"<div style=""font-size:60px;"">+</div>",,html-keyboard-response,94,348124,0.0-13.0-0.16,80729,List1A,white,man,,,,null,,,,,,,,,
null,"<img src=""stim_listA/shout4.gif""style=""height:400px;""></stim_listA>",,html-keyboard-response,95,350128,0.0-13.0-1.16,80729,List1A,white,man,,,,null,,,,,,,,,
null,is being shouted at by,,html-keyboard-response,96,352142,0.0-13.0-2.16,80729,List1A,white,man,,,,null,,,,,,,,,
6886.7,,,survey-text,97,359030,0.0-13.0-3.16,80729,List1A,white,man,,,,,"{""Q0"":""dave is being shouted at by jane""}","<img src=""stim_listA/shout4.gif""style=""height:400px;""></stim_listA>",is being shouted at by,,,,,,
null,"<div style=""font-size:60px;"">+</div>",,html-keyboard-response,98,359533,0.0-13.0-0.17,80729,List1A,white,man,,,,null,,,,,,,,,
null,"<img src=""stim_listA/challenge7.gif""style=""height:400px;""></stim_listA>",,html-keyboard-response,99,361535,0.0-13.0-1.17,80729,List1A,white,man,,,,null,,,,,,,,,
null,is challenging,,html-keyboard-response,100,363547,0.0-13.0-2.17,80729,List1A,white,man,,,,null,,,,,,,,,
3266.7,,,survey-text,101,366815,0.0-13.0-3.17,80729,List1A,white,man,,,,,"{""Q0"":""kate is challenging ruth""}","<img src=""stim_listA/challenge7.gif""style=""height:400px;""></stim_listA>",is challenging,,,,,,
null,"<div style=""font-size:60px;"">+</div>",,html-keyboard-response,102,367323,0.0-13.0-0.18,80729,List1A,white,man,,,,null,,,,,,,,,
null,"<img src=""stim_listA/copy5.gif""style=""height:400px;""></stim_listA>",,html-keyboard-response,103,369324,0.0-13.0-1.18,80729,List1A,white,man,,,,null,,,,,,,,,
null,is copying,,html-keyboard-response,104,371333,0.0-13.0-2.18,80729,List1A,white,man,,,,null,,,,,,,,,
3491.5,,,survey-text,105,374827,0.0-13.0-3.18,80729,List1A,white,man,,,,,"{""Q0"":""mike is copying luke""}","<img src=""stim_listA/copy5.gif""style=""height:400px;""></stim_listA>",is copying,,,,,,
null,"<div style=""font-size:60px;"">+</div>",,html-keyboard-response,106,375334,0.0-13.0-0.19,80729,List1A,white,man,,,,null,,,,,,,,,
null,"<img src=""stim_listA/seduce1.gif""style=""height:400px;""></stim_listA>",,html-keyboard-response,107,377336,0.0-13.0-1.19,80729,List1A,white,man,,,,null,,,,,,,,,
null,is seducing,,html-keyboard-response,108,379351,0.0-13.0-2.19,80729,List1A,white,man,,,,null,,,,,,,,,
4112.7,,,survey-text,109,383466,0.0-13.0-3.19,80729,List1A,white,man,,,,,"{""Q0"":""kate is seducing fred""}","<img src=""stim_listA/seduce1.gif""style=""height:400px;""></stim_listA>",is seducing,,,,,,
10030.8,"<img src='img/portrait_matrix_list1.jpg' style='width:900px;height:500px;''></img><p>If you have memorised all the portraits and names and are ready to start, press Continue.</p><p><strong>Please note: Your memory of these faces will be tested 4 times during this experiment.</strong></p>",0,html-button-response,110,393498,0.0-14.0-0.0,80729,List1A,white,man,,,,,,,,,,,,,
2202,"<img src=""portrait/WW1.jpg""style=""height:400px;""></img>",1,html-button-response,111,396716,0.0-14.0-1.0,80729,List1A,white,man,,TRUE,1,,,,,,,,,,
null,CORRECT,,html-keyboard-response,112,398224,0.0-14.0-2.0-0.0,80729,List1A,white,man,,,,null,,,,,,,,,
2585.1,"<img src=""portrait/BM2.jpg""style=""height:400px;""></img>",5,html-button-response,113,400811,0.0-14.0-4.0,80729,List1A,white,man,,TRUE,5,,,,,,,,,,
null,CORRECT,,html-keyboard-response,114,402313,0.0-14.0-5.0-0.0,80729,List1A,white,man,,,,null,,,,,,,,,
3277.5,"<img src=""portrait/BW2.jpg""style=""height:400px;""></img>",2,html-button-response,115,405592,0.0-14.0-7.0,80729,List1A,white,man,,TRUE,2,,,,,,,,,,
null,CORRECT,,html-keyboard-response,116,407111,0.0-14.0-8.0-0.0,80729,List1A,white,man,,,,null,,,,,,,,,
2305,"<img src=""portrait/BW1.jpg""style=""height:400px;""></img>",0,html-button-response,117,409417,0.0-14.0-10.0,80729,List1A,white,man,,TRUE,0,,,,,,,,,,
null,CORRECT,,html-keyboard-response,118,410939,0.0-14.0-11.0-0.0,80729,List1A,white,man,,,,null,,,,,,,,,
1706,"<img src=""portrait/BM1.jpg""style=""height:400px;""></img>",4,html-button-response,119,412646,0.0-14.0-13.0,80729,List1A,white,man,,TRUE,4,,,,,,,,,,
null,CORRECT,,html-keyboard-response,120,414149,0.0-14.0-14.0-0.0,80729,List1A,white,man,,,,null,,,,,,,,,
1420.3,"<img src=""portrait/WM2.jpg""style=""height:400px;""></img>",7,html-button-response,121,415571,0.0-14.0-16.0,80729,List1A,white,man,,TRUE,7,,,,,,,,,,
null,CORRECT,,html-keyboard-response,122,417095,0.0-14.0-17.0-0.0,80729,List1A,white,man,,,,null,,,,,,,,,
1692.5,"<img src=""portrait/WM1.jpg""style=""height:400px;""></img>",6,html-button-response,123,418789,0.0-14.0-19.0,80729,List1A,white,man,,TRUE,6,,,,,,,,,,
null,CORRECT,,html-keyboard-response,124,420291,0.0-14.0-20.0-0.0,80729,List1A,white,man,,,,null,,,,,,,,,
1566.8,"<img src=""portrait/WW2.jpg""style=""height:400px;""></img>",3,html-button-response,125,421860,0.0-14.0-22.0,80729,List1A,white,man,,TRUE,3,,,,,,,,,,
null,CORRECT,,html-keyboard-response,126,423374,0.0-14.0-23.0-0.0,80729,List1A,white,man,,,,null,,,,,,,,,
2489.1,<p>You got 8 out of 8 right first time. Press Continue.</p>,0,html-button-response,127,425865,0.0-14.0-25.0,80729,List1A,white,man,,,,,,,,,,,,,
null,"<div style=""font-size:60px;"">+</div>",,html-keyboard-response,128,427385,0.0-15.0-0.0,80729,List1A,white,man,,,,null,,,,,,,,,
null,"<img src=""stim_listA/copy6.gif""style=""height:400px;""></stim_listA>",,html-keyboard-response,129,429387,0.0-15.0-1.0,80729,List1A,white,man,,,,null,,,,,,,,,
null,is being copied by,,html-keyboard-response,130,431388,0.0-15.0-2.0,80729,List1A,white,man,,,,null,,,,,,,,,
10666.7,,,survey-text,131,442057,0.0-15.0-3.0,80729,List1A,white,man,,,,,"{""Q0"":""fred is being copied by dave""}","<img src=""stim_listA/copy6.gif""style=""height:400px;""></stim_listA>",is being copied by,,,,,,
null,"<div style=""font-size:60px;"">+</div>",,html-keyboard-response,132,442574,0.0-15.0-0.1,80729,List1A,white,man,,,,null,,,,,,,,,
null,"<img src=""stim_listA/look1.gif""style=""height:400px;""></stim_listA>",,html-keyboard-response,133,444587,0.0-15.0-1.1,80729,List1A,white,man,,,,null,,,,,,,,,
null,is looking at,,html-keyboard-response,134,446590,0.0-15.0-2.1,80729,List1A,white,man,,,,null,,,,,,,,,
4036.9,,,survey-text,135,450629,0.0-15.0-3.1,80729,List1A,white,man,,,,,"{""Q0"":""fred is looking at beth""}","<img src=""stim_listA/look1.gif""style=""height:400px;""></stim_listA>",is looking at,,,,,,
null,"<div style=""font-size:60px;"">+</div>",,html-keyboard-response,136,451146,0.0-15.0-0.2,80729,List1A,white,man,,,,null,,,,,,,,,
null,"<img src=""stim_listA/touch6.gif""style=""height:400px;""></stim_listA>",,html-keyboard-response,137,453156,0.0-15.0-1.2,80729,List1A,white,man,,,,null,,,,,,,,,
null,is being touched by,,html-keyboard-response,138,455166,0.0-15.0-2.2,80729,List1A,white,man,,,,null,,,,,,,,,
4596,,,survey-text,139,459764,0.0-15.0-3.2,80729,List1A,white,man,,,,,"{""Q0"":""fred is being touched by luke""}","<img src=""stim_listA/touch6.gif""style=""height:400px;""></stim_listA>",is being touched by,,,,,,
null,"<div style=""font-size:60px;"">+</div>",,html-keyboard-response,140,460266,0.0-15.0-0.3,80729,List1A,white,man,,,,null,,,,,,,,,
null,"<img src=""stim_listA/oppose7.gif""style=""height:400px;""></stim_listA>",,html-keyboard-response,141,462280,0.0-15.0-1.3,80729,List1A,white,man,,,,null,,,,,,,,,
null,is opposing,,html-keyboard-response,142,464291,0.0-15.0-2.3,80729,List1A,white,man,,,,null,,,,,,,,,
6158.8,,,survey-text,143,470452,0.0-15.0-3.3,80729,List1A,white,man,,,,,"{""Q0"":""kate is opposing jane""}","<img src=""stim_listA/oppose7.gif""style=""height:400px;""></stim_listA>",is opposing,,,,,,
null,"<div style=""font-size:60px;"">+</div>",,html-keyboard-response,144,470965,0.0-15.0-0.4,80729,List1A,white,man,,,,null,,,,,,,,,
null,"<img src=""stim_listA/greet5.gif""style=""height:400px;""></stim_listA>",,html-keyboard-response,145,472968,0.0-15.0-1.4,80729,List1A,white,man,,,,null,,,,,,,,,
null,is greeting,,html-keyboard-response,146,474981,0.0-15.0-2.4,80729,List1A,white,man,,,,null,,,,,,,,,
3951.3,,,survey-text,147,478935,0.0-15.0-3.4,80729,List1A,white,man,,,,,"{""Q0"":""mike is greeting luke""}","<img src=""stim_listA/greet5.gif""style=""height:400px;""></stim_listA>",is greeting,,,,,,
null,"<div style=""font-size:60px;"">+</div>",,html-keyboard-response,148,479440,0.0-15.0-0.5,80729,List1A,white,man,,,,null,,,,,,,,,
null,"<img src=""stim_listA/oppose1.gif""style=""height:400px;""></stim_listA>",,html-keyboard-response,149,481444,0.0-15.0-1.5,80729,List1A,white,man,,,,null,,,,,,,,,
null,is opposing,,html-keyboard-response,150,483457,0.0-15.0-2.5,80729,List1A,white,man,,,,null,,,,,,,,,
3171.1,,,survey-text,151,486630,0.0-15.0-3.5,80729,List1A,white,man,,,,,"{""Q0"":""kate is opposing mike""}","<img src=""stim_listA/oppose1.gif""style=""height:400px;""></stim_listA>",is opposing,,,,,,
null,"<div style=""font-size:60px;"">+</div>",,html-keyboard-response,152,487138,0.0-15.0-0.6,80729,List1A,white,man,,,,null,,,,,,,,,
null,"<img src=""stim_listA/hug2.gif""style=""height:400px;""></stim_listA>",,html-keyboard-response,153,489154,0.0-15.0-1.6,80729,List1A,white,man,,,,null,,,,,,,,,
null,is being hugged by,,html-keyboard-response,154,491167,0.0-15.0-2.6,80729,List1A,white,man,,,,null,,,,,,,,,
5001,,,survey-text,155,496170,0.0-15.0-3.6,80729,List1A,white,man,,,,,"{""Q0"":""mike is being hugged by mike""}","<img src=""stim_listA/hug2.gif""style=""height:400px;""></stim_listA>",is being hugged by,,,,,,
null,"<div style=""font-size:60px;"">+</div>",,html-keyboard-response,156,496684,0.0-15.0-0.7,80729,List1A,white,man,,,,null,,,,,,,,,
null,"<img src=""stim_listA/greet4.gif""style=""height:400px;""></stim_listA>",,html-keyboard-response,157,498686,0.0-15.0-1.7,80729,List1A,white,man,,,,null,,,,,,,,,
null,is being greeted by,,html-keyboard-response,158,500698,0.0-15.0-2.7,80729,List1A,white,man,,,,null,,,,,,,,,
4987.4,,,survey-text,159,505687,0.0-15.0-3.7,80729,List1A,white,man,,,,,"{""Q0"":""jane is being greeted by luke""}","<img src=""stim_listA/greet4.gif""style=""height:400px;""></stim_listA>",is being greeted by,,,,,,
null,"<div style=""font-size:60px;"">+</div>",,html-keyboard-response,160,506196,0.0-15.0-0.8,80729,List1A,white,man,,,,null,,,,,,,,,
null,"<img src=""stim_listA/seduce6.gif""style=""height:400px;""></stim_listA>",,html-keyboard-response,161,508201,0.0-15.0-1.8,80729,List1A,white,man,,,,null,,,,,,,,,
null,is being seduced by,,html-keyboard-response,162,510214,0.0-15.0-2.8,80729,List1A,white,man,,,,null,,,,,,,,,
5461.4,,,survey-text,163,515678,0.0-15.0-3.8,80729,List1A,white,man,,,,,"{""Q0"":""mike is being seduced by luke""}","<img src=""stim_listA/seduce6.gif""style=""height:400px;""></stim_listA>",is being seduced by,,,,,,
null,"<div style=""font-size:60px;"">+</div>",,html-keyboard-response,164,516185,0.0-15.0-0.9,80729,List1A,white,man,,,,null,,,,,,,,,
null,"<img src=""stim_listA/greet7.gif""style=""height:400px;""></stim_listA>",,html-keyboard-response,165,518191,0.0-15.0-1.9,80729,List1A,white,man,,,,null,,,,,,,,,
null,is greeting,,html-keyboard-response,166,520201,0.0-15.0-2.9,80729,List1A,white,man,,,,null,,,,,,,,,
3485.2,,,survey-text,167,523687,0.0-15.0-3.9,80729,List1A,white,man,,,,,"{""Q0"":""kate is greeting ruth""}","<img src=""stim_listA/greet7.gif""style=""height:400px;""></stim_listA>",is greeting,,,,,,
null,"<div style=""font-size:60px;"">+</div>",,html-keyboard-response,168,524189,0.0-15.0-0.10,80729,List1A,white,man,,,,null,,,,,,,,,
null,"<img src=""stim_listA/oppose3.gif""style=""height:400px;""></stim_listA>",,html-keyboard-response,169,526191,0.0-15.0-1.10,80729,List1A,white,man,,,,null,,,,,,,,,
null,is opposing,,html-keyboard-response,170,528198,0.0-15.0-2.10,80729,List1A,white,man,,,,null,,,,,,,,,
4105.5,,,survey-text,171,532305,0.0-15.0-3.10,80729,List1A,white,man,,,,,"{""Q0"":""dave is opposing jane""}","<img src=""stim_listA/oppose3.gif""style=""height:400px;""></stim_listA>",is opposing,,,,,,
null,"<div style=""font-size:60px;"">+</div>",,html-keyboard-response,172,532818,0.0-15.0-0.11,80729,List1A,white,man,,,,null,,,,,,,,,
null,"<img src=""stim_listA/hug1.gif""style=""height:400px;""></stim_listA>",,html-keyboard-response,173,534820,0.0-15.0-1.11,80729,List1A,white,man,,,,null,,,,,,,,,
null,is hugging,,html-keyboard-response,174,536829,0.0-15.0-2.11,80729,List1A,white,man,,,,null,,,,,,,,,
3889.7,,,survey-text,175,540720,0.0-15.0-3.11,80729,List1A,white,man,,,,,"{""Q0"":""fred is hugging beth""}","<img src=""stim_listA/hug1.gif""style=""height:400px;""></stim_listA>",is hugging,,,,,,
null,"<div style=""font-size:60px;"">+</div>",,html-keyboard-response,176,541228,0.0-15.0-0.12,80729,List1A,white,man,,,,null,,,,,,,,,
null,"<img src=""stim_listA/oppose8.gif""style=""height:400px;""></stim_listA>",,html-keyboard-response,177,543241,0.0-15.0-1.12,80729,List1A,white,man,,,,null,,,,,,,,,
null,is being opposed by,,html-keyboard-response,178,545249,0.0-15.0-2.12,80729,List1A,white,man,,,,null,,,,,,,,,
4243.9,,,survey-text,179,549496,0.0-15.0-3.12,80729,List1A,white,man,,,,,"{""Q0"":""ruth is being opposed by beth""}","<img src=""stim_listA/oppose8.gif""style=""height:400px;""></stim_listA>",is being opposed by,,,,,,
null,"<div style=""font-size:60px;"">+</div>",,html-keyboard-response,180,550003,0.0-15.0-0.13,80729,List1A,white,man,,,,null,,,,,,,,,
null,"<img src=""stim_listA/shout6.gif""style=""height:400px;""></stim_listA>",,html-keyboard-response,181,552007,0.0-15.0-1.13,80729,List1A,white,man,,,,null,,,,,,,,,
null,is being shouted at by,,html-keyboard-response,182,554014,0.0-15.0-2.13,80729,List1A,white,man,,,,null,,,,,,,,,
4997.7,,,survey-text,183,559013,0.0-15.0-3.13,80729,List1A,white,man,,,,,"{""Q0"":""dave is being shouted at by mike""}","<img src=""stim_listA/shout6.gif""style=""height:400px;""></stim_listA>",is being shouted at by,,,,,,
null,"<div style=""font-size:60px;"">+</div>",,html-keyboard-response,184,559523,0.0-15.0-0.14,80729,List1A,white,man,,,,null,,,,,,,,,
null,"<img src=""stim_listA/challenge5.gif""style=""height:400px;""></stim_listA>",,html-keyboard-response,185,561531,0.0-15.0-1.14,80729,List1A,white,man,,,,null,,,,,,,,,
null,is challenging,,html-keyboard-response,186,563533,0.0-15.0-2.14,80729,List1A,white,man,,,,null,,,,,,,,,
5333.7,,,survey-text,187,568868,0.0-15.0-3.14,80729,List1A,white,man,,,,,"{""Q0"":""luke is challenging mike""}","<img src=""stim_listA/challenge5.gif""style=""height:400px;""></stim_listA>",is challenging,,,,,,
null,"<div style=""font-size:60px;"">+</div>",,html-keyboard-response,188,569373,0.0-15.0-0.15,80729,List1A,white,man,,,,null,,,,,,,,,
null,"<img src=""stim_listA/copy2.gif""style=""height:400px;""></stim_listA>",,html-keyboard-response,189,571388,0.0-15.0-1.15,80729,List1A,white,man,,,,null,,,,,,,,,
null,is being copied by,,html-keyboard-response,190,573390,0.0-15.0-2.15,80729,List1A,white,man,,,,null,,,,,,,,,
4498.9,,,survey-text,191,577890,0.0-15.0-3.15,80729,List1A,white,man,,,,,"{""Q0"":""fred is being copied by kate""}","<img src=""stim_listA/copy2.gif""style=""height:400px;""></stim_listA>",is being copied by,,,,,,
null,"<div style=""font-size:60px;"">+</div>",,html-keyboard-response,192,578400,0.0-15.0-0.16,80729,List1A,white,man,,,,null,,,,,,,,,
null,"<img src=""stim_listA/touch8.gif""style=""height:400px;""></stim_listA>",,html-keyboard-response,193,580414,0.0-15.0-1.16,80729,List1A,white,man,,,,null,,,,,,,,,
null,is being touched by,,html-keyboard-response,194,582419,0.0-15.0-2.16,80729,List1A,white,man,,,,null,,,,,,,,,
6224.5,,,survey-text,195,588646,0.0-15.0-3.16,80729,List1A,white,man,,,,,"{""Q0"":""beth is being touched by ruth""}","<img src=""stim_listA/touch8.gif""style=""height:400px;""></stim_listA>",is being touched by,,,,,,
null,"<div style=""font-size:60px;"">+</div>",,html-keyboard-response,196,589155,0.0-15.0-0.17,80729,List1A,white,man,,,,null,,,,,,,,,
null,"<img src=""stim_listA/greet3.gif""style=""height:400px;""></stim_listA>",,html-keyboard-response,197,591157,0.0-15.0-1.17,80729,List1A,white,man,,,,null,,,,,,,,,
null,is greeting,,html-keyboard-response,198,593173,0.0-15.0-2.17,80729,List1A,white,man,,,,null,,,,,,,,,
3300.7,,,survey-text,199,596476,0.0-15.0-3.17,80729,List1A,white,man,,,,,"{""Q0"":""dave is greeting ruth""}","<img src=""stim_listA/greet3.gif""style=""height:400px;""></stim_listA>",is greeting,,,,,,
null,"<div style=""font-size:60px;"">+</div>",,html-keyboard-response,200,596986,0.0-15.0-0.18,80729,List1A,white,man,,,,null,,,,,,,,,
null,"<img src=""stim_listA/touch1.gif""style=""height:400px;""></stim_listA>",,html-keyboard-response,201,598988,0.0-15.0-1.18,80729,List1A,white,man,,,,null,,,,,,,,,
null,is touching,,html-keyboard-response,202,600998,0.0-15.0-2.18,80729,List1A,white,man,,,,null,,,,,,,,,
3125.6,,,survey-text,203,604126,0.0-15.0-3.18,80729,List1A,white,man,,,,,"{""Q0"":""mike is touching kate""}","<img src=""stim_listA/touch1.gif""style=""height:400px;""></stim_listA>",is touching,,,,,,
null,"<div style=""font-size:60px;"">+</div>",,html-keyboard-response,204,604640,0.0-15.0-0.19,80729,List1A,white,man,,,,null,,,,,,,,,
null,"<img src=""stim_listA/touch5.gif""style=""height:400px;""></stim_listA>",,html-keyboard-response,205,606642,0.0-15.0-1.19,80729,List1A,white,man,,,,null,,,,,,,,,
null,is touching,,html-keyboard-response,206,608653,0.0-15.0-2.19,80729,List1A,white,man,,,,null,,,,,,,,,
2895.7,,,survey-text,207,611551,0.0-15.0-3.19,80729,List1A,white,man,,,,,"{""Q0"":""mike is touching dave""}","<img src=""stim_listA/touch5.gif""style=""height:400px;""></stim_listA>",is touching,,,,,,
2954.4,"<img src='img/portrait_matrix_list1.jpg' style='width:900px;height:500px;''></img><p>If you have memorised all the portraits and names and are ready to start, press Continue.</p><p><strong>Please note: Your memory of these faces will be tested 4 times during this experiment.</strong></p>",0,html-button-response,208,614507,0.0-16.0-0.0,80729,List1A,white,man,,,,,,,,,,,,,
1798.8,"<img src=""portrait/BW2.jpg""style=""height:400px;""></img>",2,html-button-response,209,617308,0.0-16.0-1.0,80729,List1A,white,man,,TRUE,2,,,,,,,,,,
null,CORRECT,,html-keyboard-response,210,618835,0.0-16.0-2.0-0.0,80729,List1A,white,man,,,,null,,,,,,,,,
1958.7,"<img src=""portrait/WM1.jpg""style=""height:400px;""></img>",6,html-button-response,211,620796,0.0-16.0-4.0,80729,List1A,white,man,,TRUE,6,,,,,,,,,,
null,CORRECT,,html-keyboard-response,212,622307,0.0-16.0-5.0-0.0,80729,List1A,white,man,,,,null,,,,,,,,,
3201.3,"<img src=""portrait/WW1.jpg""style=""height:400px;""></img>",1,html-button-response,213,625509,0.0-16.0-7.0,80729,List1A,white,man,,TRUE,1,,,,,,,,,,
null,CORRECT,,html-keyboard-response,214,627025,0.0-16.0-8.0-0.0,80729,List1A,white,man,,,,null,,,,,,,,,
1318.1,"<img src=""portrait/WM2.jpg""style=""height:400px;""></img>",7,html-button-response,215,628344,0.0-16.0-10.0,80729,List1A,white,man,,TRUE,7,,,,,,,,,,
null,CORRECT,,html-keyboard-response,216,629864,0.0-16.0-11.0-0.0,80729,List1A,white,man,,,,null,,,,,,,,,
1809.4,"<img src=""portrait/BW1.jpg""style=""height:400px;""></img>",0,html-button-response,217,631674,0.0-16.0-13.0,80729,List1A,white,man,,TRUE,0,,,,,,,,,,
null,CORRECT,,html-keyboard-response,218,633186,0.0-16.0-14.0-0.0,80729,List1A,white,man,,,,null,,,,,,,,,
1614.1,"<img src=""portrait/BM1.jpg""style=""height:400px;""></img>",4,html-button-response,219,634802,0.0-16.0-16.0,80729,List1A,white,man,,TRUE,4,,,,,,,,,,
null,CORRECT,,html-keyboard-response,220,636314,0.0-16.0-17.0-0.0,80729,List1A,white,man,,,,null,,,,,,,,,
1186.8,"<img src=""portrait/WW2.jpg""style=""height:400px;""></img>",3,html-button-response,221,637502,0.0-16.0-19.0,80729,List1A,white,man,,TRUE,3,,,,,,,,,,
null,CORRECT,,html-keyboard-response,222,639028,0.0-16.0-20.0-0.0,80729,List1A,white,man,,,,null,,,,,,,,,
3109.7,"<img src=""portrait/BM2.jpg""style=""height:400px;""></img>",5,html-button-response,223,642139,0.0-16.0-22.0,80729,List1A,white,man,,TRUE,5,,,,,,,,,,
null,CORRECT,,html-keyboard-response,224,643657,0.0-16.0-23.0-0.0,80729,List1A,white,man,,,,null,,,,,,,,,
864,<p>You got 8 out of 8 right first time. Press Continue.</p>,0,html-button-response,225,644522,0.0-16.0-25.0,80729,List1A,white,man,,,,,,,,,,,,,
null,"<div style=""font-size:60px;"">+</div>",,html-keyboard-response,226,646035,0.0-17.0-0.0,80729,List1A,white,man,,,,null,,,,,,,,,
null,"<img src=""stim_listA/copy8.gif""style=""height:400px;""></stim_listA>",,html-keyboard-response,227,648041,0.0-17.0-1.0,80729,List1A,white,man,,,,null,,,,,,,,,
null,is being copied by,,html-keyboard-response,228,650050,0.0-17.0-2.0,80729,List1A,white,man,,,,null,,,,,,,,,
4160.1,,,survey-text,229,654213,0.0-17.0-3.0,80729,List1A,white,man,,,,,"{""Q0"":""beth is being copied by jane""}","<img src=""stim_listA/copy8.gif""style=""height:400px;""></stim_listA>",is being copied by,,,,,,
null,"<div style=""font-size:60px;"">+</div>",,html-keyboard-response,230,654718,0.0-17.0-0.1,80729,List1A,white,man,,,,null,,,,,,,,,
null,"<img src=""stim_listA/shout5.gif""style=""height:400px;""></stim_listA>",,html-keyboard-response,231,656728,0.0-17.0-1.1,80729,List1A,white,man,,,,null,,,,,,,,,
null,is shouting at,,html-keyboard-response,232,658740,0.0-17.0-2.1,80729,List1A,white,man,,,,null,,,,,,,,,
4042.3,,,survey-text,233,662784,0.0-17.0-3.1,80729,List1A,white,man,,,,,"{""Q0"":""fred is shouting at luke""}","<img src=""stim_listA/shout5.gif""style=""height:400px;""></stim_listA>",is shouting at,,,,,,
null,"<div style=""font-size:60px;"">+</div>",,html-keyboard-response,234,663301,0.0-17.0-0.2,80729,List1A,white,man,,,,null,,,,,,,,,
null,"<img src=""stim_listA/seduce8.gif""style=""height:400px;""></stim_listA>",,html-keyboard-response,235,665306,0.0-17.0-1.2,80729,List1A,white,man,,,,null,,,,,,,,,
null,is being seduced by,,html-keyboard-response,236,667312,0.0-17.0-2.2,80729,List1A,white,man,,,,null,,,,,,,,,
4672.6,,,survey-text,237,671987,0.0-17.0-3.2,80729,List1A,white,man,,,,,"{""Q0"":""kate is being seduced by ruth""}","<img src=""stim_listA/seduce8.gif""style=""height:400px;""></stim_listA>",is being seduced by,,,,,,
null,"<div style=""font-size:60px;"">+</div>",,html-keyboard-response,238,672493,0.0-17.0-0.3,80729,List1A,white,man,,,,null,,,,,,,,,
null,"<img src=""stim_listA/seduce5.gif""style=""height:400px;""></stim_listA>",,html-keyboard-response,239,674498,0.0-17.0-1.3,80729,List1A,white,man,,,,null,,,,,,,,,
null,is seducing,,html-keyboard-response,240,676503,0.0-17.0-2.3,80729,List1A,white,man,,,,null,,,,,,,,,
3672.3,,,survey-text,241,680177,0.0-17.0-3.3,80729,List1A,white,man,,,,,"{""Q0"":""fred is seducing dave""}","<img src=""stim_listA/seduce5.gif""style=""height:400px;""></stim_listA>",is seducing,,,,,,
null,"<div style=""font-size:60px;"">+</div>",,html-keyboard-response,242,680691,0.0-17.0-0.4,80729,List1A,white,man,,,,null,,,,,,,,,
null,"<img src=""stim_listA/seduce4.gif""style=""height:400px;""></stim_listA>",,html-keyboard-response,243,682696,0.0-17.0-1.4,80729,List1A,white,man,,,,null,,,,,,,,,
null,is being seduced by,,html-keyboard-response,244,684704,0.0-17.0-2.4,80729,List1A,white,man,,,,null,,,,,,,,,
4538.8,,,survey-text,245,689245,0.0-17.0-3.4,80729,List1A,white,man,,,,,"{""Q0"":""dave is being seduced by ruth""}","<img src=""stim_listA/seduce4.gif""style=""height:400px;""></stim_listA>",is being seduced by,,,,,,
null,"<div style=""font-size:60px;"">+</div>",,html-keyboard-response,246,689747,0.0-17.0-0.5,80729,List1A,white,man,,,,null,,,,,,,,,
null,"<img src=""stim_listA/challenge2.gif""style=""height:400px;""></stim_listA>",,html-keyboard-response,247,691759,0.0-17.0-1.5,80729,List1A,white,man,,,,null,,,,,,,,,
null,is being challenged by,,html-keyboard-response,248,693773,0.0-17.0-2.5,80729,List1A,white,man,,,,null,,,,,,,,,
4447.1,,,survey-text,249,698222,0.0-17.0-3.5,80729,List1A,white,man,,,,,"{""Q0"":""kate is being challenged by fred""}","<img src=""stim_listA/challenge2.gif""style=""height:400px;""></stim_listA>",is being challenged by,,,,,,
null,"<div style=""font-size:60px;"">+</div>",,html-keyboard-response,250,698731,0.0-17.0-0.6,80729,List1A,white,man,,,,null,,,,,,,,,
null,"<img src=""stim_listA/shout1.gif""style=""height:400px;""></stim_listA>",,html-keyboard-response,251,700733,0.0-17.0-1.6,80729,List1A,white,man,,,,null,,,,,,,,,
null,is shouting at,,html-keyboard-response,252,702735,0.0-17.0-2.6,80729,List1A,white,man,,,,null,,,,,,,,,
7094.9,,,survey-text,253,709832,0.0-17.0-3.6,80729,List1A,white,man,,,,,"{""Q0"":""fred is shouting at beth""}","<img src=""stim_listA/shout1.gif""style=""height:400px;""></stim_listA>",is shouting at,,,,,,
null,"<div style=""font-size:60px;"">+</div>",,html-keyboard-response,254,710334,0.0-17.0-0.7,80729,List1A,white,man,,,,null,,,,,,,,,
null,"<img src=""stim_listA/kiss2.gif""style=""height:400px;""></stim_listA>",,html-keyboard-response,255,712337,0.0-17.0-1.7,80729,List1A,white,man,,,,null,,,,,,,,,
null,is being kissed by,,html-keyboard-response,256,714349,0.0-17.0-2.7,80729,List1A,white,man,,,,null,,,,,,,,,
4233.6,,,survey-text,257,718585,0.0-17.0-3.7,80729,List1A,white,man,,,,,"{""Q0"":""mike is being kissed by kate""}","<img src=""stim_listA/kiss2.gif""style=""height:400px;""></stim_listA>",is being kissed by,,,,,,
null,"<div style=""font-size:60px;"">+</div>",,html-keyboard-response,258,719086,0.0-17.0-0.8,80729,List1A,white,man,,,,null,,,,,,,,,
null,"<img src=""stim_listA/look8.gif""style=""height:400px;""></stim_listA>",,html-keyboard-response,259,721088,0.0-17.0-1.8,80729,List1A,white,man,,,,null,,,,,,,,,
null,is being looked at by,,html-keyboard-response,260,723097,0.0-17.0-2.8,80729,List1A,white,man,,,,null,,,,,,,,,
6038.4,,,survey-text,261,729137,0.0-17.0-3.8,80729,List1A,white,man,,,,,"{""Q0"":""jane is being looked at by kate""}","<img src=""stim_listA/look8.gif""style=""height:400px;""></stim_listA>",is being looked at by,,,,,,
null,"<div style=""font-size:60px;"">+</div>",,html-keyboard-response,262,729650,0.0-17.0-0.9,80729,List1A,white,man,,,,null,,,,,,,,,
null,"<img src=""stim_listA/greet2.gif""style=""height:400px;""></stim_listA>",,html-keyboard-response,263,731655,0.0-17.0-1.9,80729,List1A,white,man,,,,null,,,,,,,,,
null,is being greeted by,,html-keyboard-response,264,733656,0.0-17.0-2.9,80729,List1A,white,man,,,,null,,,,,,,,,
4726.5,,,survey-text,265,738385,0.0-17.0-3.9,80729,List1A,white,man,,,,,"{""Q0"":""fred is being greeted by kate""}","<img src=""stim_listA/greet2.gif""style=""height:400px;""></stim_listA>",is being greeted by,,,,,,
null,"<div style=""font-size:60px;"">+</div>",,html-keyboard-response,266,738894,0.0-17.0-0.10,80729,List1A,white,man,,,,null,,,,,,,,,
null,"<img src=""stim_listA/look2.gif""style=""height:400px;""></stim_listA>",,html-keyboard-response,267,740899,0.0-17.0-1.10,80729,List1A,white,man,,,,null,,,,,,,,,
null,is being looked at by,,html-keyboard-response,268,742910,0.0-17.0-2.10,80729,List1A,white,man,,,,null,,,,,,,,,
4810.6,,,survey-text,269,747723,0.0-17.0-3.10,80729,List1A,white,man,,,,,"{""Q0"":""mike is being looked at by kate""}","<img src=""stim_listA/look2.gif""style=""height:400px;""></stim_listA>",is being looked at by,,,,,,
null,"<div style=""font-size:60px;"">+</div>",,html-keyboard-response,270,748236,0.0-17.0-0.11,80729,List1A,white,man,,,,null,,,,,,,,,
null,"<img src=""stim_listA/oppose2.gif""style=""height:400px;""></stim_listA>",,html-keyboard-response,271,750244,0.0-17.0-1.11,80729,List1A,white,man,,,,null,,,,,,,,,
null,is being opposed by,,html-keyboard-response,272,752254,0.0-17.0-2.11,80729,List1A,white,man,,,,null,,,,,,,,,
4488.8,,,survey-text,273,756745,0.0-17.0-3.11,80729,List1A,white,man,,,,,"{""Q0"":""fred is being opposed by beth""}","<img src=""stim_listA/oppose2.gif""style=""height:400px;""></stim_listA>",is being opposed by,,,,,,
null,"<div style=""font-size:60px;"">+</div>",,html-keyboard-response,274,757259,0.0-17.0-0.12,80729,List1A,white,man,,,,null,,,,,,,,,
null,"<img src=""stim_listA/challenge6.gif""style=""height:400px;""></stim_listA>",,html-keyboard-response,275,759262,0.0-17.0-1.12,80729,List1A,white,man,,,,null,,,,,,,,,
null,is being challenged by,,html-keyboard-response,276,761275,0.0-17.0-2.12,80729,List1A,white,man,,,,null,,,,,,,,,
5053.1,,,survey-text,277,766330,0.0-17.0-3.12,80729,List1A,white,man,,,,,"{""Q0"":""fred is being challenged by dave""}","<img src=""stim_listA/challenge6.gif""style=""height:400px;""></stim_listA>",is being challenged by,,,,,,
null,"<div style=""font-size:60px;"">+</div>",,html-keyboard-response,278,766835,0.0-17.0-0.13,80729,List1A,white,man,,,,null,,,,,,,,,
null,"<img src=""stim_listA/greet8.gif""style=""height:400px;""></stim_listA>",,html-keyboard-response,279,768846,0.0-17.0-1.13,80729,List1A,white,man,,,,null,,,,,,,,,
null,is being greeted by,,html-keyboard-response,280,770848,0.0-17.0-2.13,80729,List1A,white,man,,,,null,,,,,,,,,
5110.1,,,survey-text,281,775960,0.0-17.0-3.13,80729,List1A,white,man,,,,,"{""Q0"":""beth is being greeted by jane""}","<img src=""stim_listA/greet8.gif""style=""height:400px;""></stim_listA>",is being greeted by,,,,,,
null,"<div style=""font-size:60px;"">+</div>",,html-keyboard-response,282,776474,0.0-17.0-0.14,80729,List1A,white,man,,,,null,,,,,,,,,
null,"<img src=""stim_listA/challenge3.gif""style=""height:400px;""></stim_listA>",,html-keyboard-response,283,778477,0.0-17.0-1.14,80729,List1A,white,man,,,,null,,,,,,,,,
null,is challenging,,html-keyboard-response,284,780489,0.0-17.0-2.14,80729,List1A,white,man,,,,null,,,,,,,,,
3772.3,,,survey-text,285,784263,0.0-17.0-3.14,80729,List1A,white,man,,,,,"{""Q0"":""dave is challenging ruth""}","<img src=""stim_listA/challenge3.gif""style=""height:400px;""></stim_listA>",is challenging,,,,,,
null,"<div style=""font-size:60px;"">+</div>",,html-keyboard-response,286,784778,0.0-17.0-0.15,80729,List1A,white,man,,,,null,,,,,,,,,
null,"<img src=""stim_listA/shout7.gif""style=""height:400px;""></stim_listA>",,html-keyboard-response,287,786780,0.0-17.0-1.15,80729,List1A,white,man,,,,null,,,,,,,,,
null,is shouting at,,html-keyboard-response,288,788786,0.0-17.0-2.15,80729,List1A,white,man,,,,null,,,,,,,,,
3890,,,survey-text,289,792678,0.0-17.0-3.15,80729,List1A,white,man,,,,,"{""Q0"":""beth is challenging ruth""}","<img src=""stim_listA/shout7.gif""style=""height:400px;""></stim_listA>",is shouting at,,,,,,
null,"<div style=""font-size:60px;"">+</div>",,html-keyboard-response,290,793185,0.0-17.0-0.16,80729,List1A,white,man,,,,null,,,,,,,,,
null,"<img src=""stim_listA/challenge1.gif""style=""height:400px;""></stim_listA>",,html-keyboard-response,291,795200,0.0-17.0-1.16,80729,List1A,white,man,,,,null,,,,,,,,,
null,is challenging,,html-keyboard-response,292,797206,0.0-17.0-2.16,80729,List1A,white,man,,,,null,,,,,,,,,
5280.5,,,survey-text,293,802488,0.0-17.0-3.16,80729,List1A,white,man,,,,,"{""Q0"":""mike is challenging beth""}","<img src=""stim_listA/challenge1.gif""style=""height:400px;""></stim_listA>",is challenging,,,,,,
null,"<div style=""font-size:60px;"">+</div>",,html-keyboard-response,294,803001,0.0-17.0-0.17,80729,List1A,white,man,,,,null,,,,,,,,,
null,"<img src=""stim_listA/greet1.gif""style=""height:400px;""></stim_listA>",,html-keyboard-response,295,805007,0.0-17.0-1.17,80729,List1A,white,man,,,,null,,,,,,,,,
null,is greeting,,html-keyboard-response,296,807009,0.0-17.0-2.17,80729,List1A,white,man,,,,null,,,,,,,,,
4702.6,,,survey-text,297,811713,0.0-17.0-3.17,80729,List1A,white,man,,,,,"{""Q0"":""mike is greeting beth""}","<img src=""stim_listA/greet1.gif""style=""height:400px;""></stim_listA>",is greeting,,,,,,
null,"<div style=""font-size:60px;"">+</div>",,html-keyboard-response,298,812226,0.0-17.0-0.18,80729,List1A,white,man,,,,null,,,,,,,,,
null,"<img src=""stim_listA/copy7.gif""style=""height:400px;""></stim_listA>",,html-keyboard-response,299,814239,0.0-17.0-1.18,80729,List1A,white,man,,,,null,,,,,,,,,
null,is copying,,html-keyboard-response,300,816246,0.0-17.0-2.18,80729,List1A,white,man,,,,null,,,,,,,,,
3138.1,,,survey-text,301,819386,0.0-17.0-3.18,80729,List1A,white,man,,,,,"{""Q0"":""kate is copying ruth""}","<img src=""stim_listA/copy7.gif""style=""height:400px;""></stim_listA>",is copying,,,,,,
null,"<div style=""font-size:60px;"">+</div>",,html-keyboard-response,302,819887,0.0-17.0-0.19,80729,List1A,white,man,,,,null,,,,,,,,,
null,"<img src=""stim_listA/seduce3.gif""style=""height:400px;""></stim_listA>",,html-keyboard-response,303,821901,0.0-17.0-1.19,80729,List1A,white,man,,,,null,,,,,,,,,
null,is seducing,,html-keyboard-response,304,823917,0.0-17.0-2.19,80729,List1A,white,man,,,,null,,,,,,,,,
3544.9,,,survey-text,305,827463,0.0-17.0-3.19,80729,List1A,white,man,,,,,"{""Q0"":""luke is seducing jane""}","<img src=""stim_listA/seduce3.gif""style=""height:400px;""></stim_listA>",is seducing,,,,,,
3010.9,"<img src='img/portrait_matrix_list1.jpg' style='width:900px;height:500px;''></img><p>If you have memorised all the portraits and names and are ready to start, press Continue.</p><p><strong>Please note: Your memory of these faces will be tested 4 times during this experiment.</strong></p>",0,html-button-response,306,830476,0.0-18.0-0.0,80729,List1A,white,man,,,,,,,,,,,,,
1495.7,"<img src=""portrait/WW2.jpg""style=""height:400px;""></img>",3,html-button-response,307,832973,0.0-18.0-1.0,80729,List1A,white,man,,TRUE,3,,,,,,,,,,
null,CORRECT,,html-keyboard-response,308,834489,0.0-18.0-2.0-0.0,80729,List1A,white,man,,,,null,,,,,,,,,
2735.1,"<img src=""portrait/BM1.jpg""style=""height:400px;""></img>",4,html-button-response,309,837226,0.0-18.0-4.0,80729,List1A,white,man,,TRUE,4,,,,,,,,,,
null,CORRECT,,html-keyboard-response,310,838729,0.0-18.0-5.0-0.0,80729,List1A,white,man,,,,null,,,,,,,,,
2737.1,"<img src=""portrait/BW1.jpg""style=""height:400px;""></img>",0,html-button-response,311,841467,0.0-18.0-7.0,80729,List1A,white,man,,TRUE,0,,,,,,,,,,
null,CORRECT,,html-keyboard-response,312,842970,0.0-18.0-8.0-0.0,80729,List1A,white,man,,,,null,,,,,,,,,
2433.4,"<img src=""portrait/WM1.jpg""style=""height:400px;""></img>",6,html-button-response,313,845405,0.0-18.0-10.0,80729,List1A,white,man,,TRUE,6,,,,,,,,,,
null,CORRECT,,html-keyboard-response,314,846918,0.0-18.0-11.0-0.0,80729,List1A,white,man,,,,null,,,,,,,,,
2040.9,"<img src=""portrait/BW2.jpg""style=""height:400px;""></img>",2,html-button-response,315,848960,0.0-18.0-13.0,80729,List1A,white,man,,TRUE,2,,,,,,,,,,
null,CORRECT,,html-keyboard-response,316,850470,0.0-18.0-14.0-0.0,80729,List1A,white,man,,,,null,,,,,,,,,
2335.7,"<img src=""portrait/WW1.jpg""style=""height:400px;""></img>",1,html-button-response,317,852807,0.0-18.0-16.0,80729,List1A,white,man,,TRUE,1,,,,,,,,,,
null,CORRECT,,html-keyboard-response,318,854320,0.0-18.0-17.0-0.0,80729,List1A,white,man,,,,null,,,,,,,,,
2513.1,"<img src=""portrait/BM2.jpg""style=""height:400px;""></img>",5,html-button-response,319,856835,0.0-18.0-19.0,80729,List1A,white,man,,TRUE,5,,,,,,,,,,
null,CORRECT,,html-keyboard-response,320,858348,0.0-18.0-20.0-0.0,80729,List1A,white,man,,,,null,,,,,,,,,
2343.9,"<img src=""portrait/WM2.jpg""style=""height:400px;""></img>",7,html-button-response,321,860694,0.0-18.0-22.0,80729,List1A,white,man,,TRUE,7,,,,,,,,,,
null,CORRECT,,html-keyboard-response,322,862200,0.0-18.0-23.0-0.0,80729,List1A,white,man,,,,null,,,,,,,,,
1259.3,<p>You got 8 out of 8 right first time. Press Continue.</p>,0,html-button-response,323,863461,0.0-18.0-25.0,80729,List1A,white,man,,,,,,,,,,,,,
null,"<div style=""font-size:60px;"">+</div>",,html-keyboard-response,324,864964,0.0-19.0-0.0,80729,List1A,white,man,,,,null,,,,,,,,,
null,"<img src=""stim_listA/seduce2.gif""style=""height:400px;""></stim_listA>",,html-keyboard-response,325,866977,0.0-19.0-1.0,80729,List1A,white,man,,,,null,,,,,,,,,
null,is being seduced by,,html-keyboard-response,326,868992,0.0-19.0-2.0,80729,List1A,white,man,,,,null,,,,,,,,,
5269.8,,,survey-text,327,874264,0.0-19.0-3.0,80729,List1A,white,man,,,,,"{""Q0"":""mike is being seduced by beth""}","<img src=""stim_listA/seduce2.gif""style=""height:400px;""></stim_listA>",is being seduced by,,,,,,
null,"<div style=""font-size:60px;"">+</div>",,html-keyboard-response,328,874772,0.0-19.0-0.1,80729,List1A,white,man,,,,null,,,,,,,,,
null,"<img src=""stim_listA/kiss1.gif""style=""height:400px;""></stim_listA>",,html-keyboard-response,329,876774,0.0-19.0-1.1,80729,List1A,white,man,,,,null,,,,,,,,,
null,is kissing,,html-keyboard-response,330,878783,0.0-19.0-2.1,80729,List1A,white,man,,,,null,,,,,,,,,
3309.4,,,survey-text,331,882095,0.0-19.0-3.1,80729,List1A,white,man,,,,,"{""Q0"":""fred is kissing beth""}","<img src=""stim_listA/kiss1.gif""style=""height:400px;""></stim_listA>",is kissing,,,,,,
null,"<div style=""font-size:60px;"">+</div>",,html-keyboard-response,332,882596,0.0-19.0-0.2,80729,List1A,white,man,,,,null,,,,,,,,,
null,"<img src=""stim_listA/challenge8.gif""style=""height:400px;""></stim_listA>",,html-keyboard-response,333,884613,0.0-19.0-1.2,80729,List1A,white,man,,,,null,,,,,,,,,
null,is being challenged by,,html-keyboard-response,334,886625,0.0-19.0-2.2,80729,List1A,white,man,,,,null,,,,,,,,,
7663.7,,,survey-text,335,894291,0.0-19.0-3.2,80729,List1A,white,man,,,,,"{""Q0"":""beth is being challenged by jane""}","<img src=""stim_listA/challenge8.gif""style=""height:400px;""></stim_listA>",is being challenged by,,,,,,
null,"<div style=""font-size:60px;"">+</div>",,html-keyboard-response,336,894795,0.0-19.0-0.3,80729,List1A,white,man,,,,null,,,,,,,,,
null,"<img src=""stim_listA/shout2.gif""style=""height:400px;""></stim_listA>",,html-keyboard-response,337,896798,0.0-19.0-1.3,80729,List1A,white,man,,,,null,,,,,,,,,
null,is being shouted at by,,html-keyboard-response,338,898801,0.0-19.0-2.3,80729,List1A,white,man,,,,null,,,,,,,,,
3924.7,,,survey-text,339,902727,0.0-19.0-3.3,80729,List1A,white,man,,,,,"{""Q0"":""kate is being shouted at by mike""}","<img src=""stim_listA/shout2.gif""style=""height:400px;""></stim_listA>",is being shouted at by,,,,,,
null,"<div style=""font-size:60px;"">+</div>",,html-keyboard-response,340,903230,0.0-19.0-0.4,80729,List1A,white,man,,,,null,,,,,,,,,
null,"<img src=""stim_listA/kiss8.gif""style=""height:400px;""></stim_listA>",,html-keyboard-response,341,905235,0.0-19.0-1.4,80729,List1A,white,man,,,,null,,,,,,,,,
null,is being kissed by,,html-keyboard-response,342,907246,0.0-19.0-2.4,80729,List1A,white,man,,,,null,,,,,,,,,
3961.7,,,survey-text,343,911210,0.0-19.0-3.4,80729,List1A,white,man,,,,,"{""Q0"":""kate is being kissed by jane""}","<img src=""stim_listA/kiss8.gif""style=""height:400px;""></stim_listA>",is being kissed by,,,,,,
null,"<div style=""font-size:60px;"">+</div>",,html-keyboard-response,344,911715,0.0-19.0-0.5,80729,List1A,white,man,,,,null,,,,,,,,,
null,"<img src=""stim_listA/oppose4.gif""style=""height:400px;""></stim_listA>",,html-keyboard-response,345,913719,0.0-19.0-1.5,80729,List1A,white,man,,,,null,,,,,,,,,
null,is being opposed by,,html-keyboard-response,346,915724,0.0-19.0-2.5,80729,List1A,white,man,,,,null,,,,,,,,,
4934.4,,,survey-text,347,920660,0.0-19.0-3.5,80729,List1A,white,man,,,,,"{""Q0"":""ruth is being opposed by luke""}","<img src=""stim_listA/oppose4.gif""style=""height:400px;""></stim_listA>",is being opposed by,,,,,,
null,"<div style=""font-size:60px;"">+</div>",,html-keyboard-response,348,921166,0.0-19.0-0.6,80729,List1A,white,man,,,,null,,,,,,,,,
null,"<img src=""stim_listA/greet6.gif""style=""height:400px;""></stim_listA>",,html-keyboard-response,349,923175,0.0-19.0-1.6,80729,List1A,white,man,,,,null,,,,,,,,,
null,is being greeted by,,html-keyboard-response,350,925191,0.0-19.0-2.6,80729,List1A,white,man,,,,null,,,,,,,,,
4310.2,,,survey-text,351,929502,0.0-19.0-3.6,80729,List1A,white,man,,,,,"{""Q0"":""fred is being greeted by dave""}","<img src=""stim_listA/greet6.gif""style=""height:400px;""></stim_listA>",is being greeted by,,,,,,
null,"<div style=""font-size:60px;"">+</div>",,html-keyboard-response,352,930007,0.0-19.0-0.7,80729,List1A,white,man,,,,null,,,,,,,,,
null,"<img src=""stim_listA/kiss3.gif""style=""height:400px;""></stim_listA>",,html-keyboard-response,353,932019,0.0-19.0-1.7,80729,List1A,white,man,,,,null,,,,,,,,,
null,is kissing,,html-keyboard-response,354,934024,0.0-19.0-2.7,80729,List1A,white,man,,,,null,,,,,,,,,
3914.2,,,survey-text,355,937940,0.0-19.0-3.7,80729,List1A,white,man,,,,,"{""Q0"":""ruth is kissing luke""}","<img src=""stim_listA/kiss3.gif""style=""height:400px;""></stim_listA>",is kissing,,,,,,
null,"<div style=""font-size:60px;"">+</div>",,html-keyboard-response,356,938443,0.0-19.0-0.8,80729,List1A,white,man,,,,null,,,,,,,,,
null,"<img src=""stim_listA/kiss6.gif""style=""height:400px;""></stim_listA>",,html-keyboard-response,357,940452,0.0-19.0-1.8,80729,List1A,white,man,,,,null,,,,,,,,,
null,is being kissed by,,html-keyboard-response,358,942464,0.0-19.0-2.8,80729,List1A,white,man,,,,null,,,,,,,,,
3776.6,,,survey-text,359,946243,0.0-19.0-3.8,80729,List1A,white,man,,,,,"{""Q0"":""dave is being kissed by mike""}","<img src=""stim_listA/kiss6.gif""style=""height:400px;""></stim_listA>",is being kissed by,,,,,,
null,"<div style=""font-size:60px;"">+</div>",,html-keyboard-response,360,946757,0.0-19.0-0.9,80729,List1A,white,man,,,,null,,,,,,,,,
null,"<img src=""stim_listA/hug8.gif""style=""height:400px;""></stim_listA>",,html-keyboard-response,361,948765,0.0-19.0-1.9,80729,List1A,white,man,,,,null,,,,,,,,,
null,is being hugged by,,html-keyboard-response,362,950781,0.0-19.0-2.9,80729,List1A,white,man,,,,null,,,,,,,,,
3987.9,,,survey-text,363,954770,0.0-19.0-3.9,80729,List1A,white,man,,,,,"{""Q0"":""kate is being hugged by jane""}","<img src=""stim_listA/hug8.gif""style=""height:400px;""></stim_listA>",is being hugged by,,,,,,
null,"<div style=""font-size:60px;"">+</div>",,html-keyboard-response,364,955279,0.0-19.0-0.10,80729,List1A,white,man,,,,null,,,,,,,,,
null,"<img src=""stim_listA/kiss4.gif""style=""height:400px;""></stim_listA>",,html-keyboard-response,365,957284,0.0-19.0-1.10,80729,List1A,white,man,,,,null,,,,,,,,,
null,is being kissed by,,html-keyboard-response,366,959298,0.0-19.0-2.10,80729,List1A,white,man,,,,null,,,,,,,,,
3638.5,,,survey-text,367,962938,0.0-19.0-3.10,80729,List1A,white,man,,,,,"{""Q0"":""jane is being kissed by dave""}","<img src=""stim_listA/kiss4.gif""style=""height:400px;""></stim_listA>",is being kissed by,,,,,,
null,"<div style=""font-size:60px;"">+</div>",,html-keyboard-response,368,963450,0.0-19.0-0.11,80729,List1A,white,man,,,,null,,,,,,,,,
null,"<img src=""stim_listA/touch4.gif""style=""height:400px;""></stim_listA>",,html-keyboard-response,369,965457,0.0-19.0-1.11,80729,List1A,white,man,,,,null,,,,,,,,,
null,is being touched by,,html-keyboard-response,370,967469,0.0-19.0-2.11,80729,List1A,white,man,,,,null,,,,,,,,,
3949.7,,,survey-text,371,971421,0.0-19.0-3.11,80729,List1A,white,man,,,,,"{""Q0"":""ruth is being touched by luke""}","<img src=""stim_listA/touch4.gif""style=""height:400px;""></stim_listA>",is being touched by,,,,,,
null,"<div style=""font-size:60px;"">+</div>",,html-keyboard-response,372,971924,0.0-19.0-0.12,80729,List1A,white,man,,,,null,,,,,,,,,
null,"<img src=""stim_listA/challenge4.gif""style=""height:400px;""></stim_listA>",,html-keyboard-response,373,973937,0.0-19.0-1.12,80729,List1A,white,man,,,,null,,,,,,,,,
null,is being challenged by,,html-keyboard-response,374,975945,0.0-19.0-2.12,80729,List1A,white,man,,,,null,,,,,,,,,
5306.5,,,survey-text,375,981253,0.0-19.0-3.12,80729,List1A,white,man,,,,,"{""Q0"":""jane is being challenged by luke""}","<img src=""stim_listA/challenge4.gif""style=""height:400px;""></stim_listA>",is being challenged by,,,,,,
null,"<div style=""font-size:60px;"">+</div>",,html-keyboard-response,376,981766,0.0-19.0-0.13,80729,List1A,white,man,,,,null,,,,,,,,,
null,"<img src=""stim_listA/shout8.gif""style=""height:400px;""></stim_listA>",,html-keyboard-response,377,983772,0.0-19.0-1.13,80729,List1A,white,man,,,,null,,,,,,,,,
null,is being shouted at by,,html-keyboard-response,378,985787,0.0-19.0-2.13,80729,List1A,white,man,,,,null,,,,,,,,,
3991.5,,,survey-text,379,989781,0.0-19.0-3.13,80729,List1A,white,man,,,,,"{""Q0"":""kate is being shouted at by jane""}","<img src=""stim_listA/shout8.gif""style=""height:400px;""></stim_listA>",is being shouted at by,,,,,,
null,"<div style=""font-size:60px;"">+</div>",,html-keyboard-response,380,990289,0.0-19.0-0.14,80729,List1A,white,man,,,,null,,,,,,,,,
null,"<img src=""stim_listA/oppose5.gif""style=""height:400px;""></stim_listA>",,html-keyboard-response,381,992304,0.0-19.0-1.14,80729,List1A,white,man,,,,null,,,,,,,,,
null,is opposing,,html-keyboard-response,382,994319,0.0-19.0-2.14,80729,List1A,white,man,,,,null,,,,,,,,,
4280.2,,,survey-text,383,998601,0.0-19.0-3.14,80729,List1A,white,man,,,,,"{""Q0"":""dave is opposing mike""}","<img src=""stim_listA/oppose5.gif""style=""height:400px;""></stim_listA>",is opposing,,,,,,
null,"<div style=""font-size:60px;"">+</div>",,html-keyboard-response,384,999105,0.0-19.0-0.15,80729,List1A,white,man,,,,null,,,,,,,,,
null,"<img src=""stim_listA/hug5.gif""style=""height:400px;""></stim_listA>",,html-keyboard-response,385,1001109,0.0-19.0-1.15,80729,List1A,white,man,,,,null,,,,,,,,,
null,is hugging,,html-keyboard-response,386,1003115,0.0-19.0-2.15,80729,List1A,white,man,,,,null,,,,,,,,,
4776.8,,,survey-text,387,1007893,0.0-19.0-3.15,80729,List1A,white,man,,,,,"{""Q0"":""fred is hugging luke""}","<img src=""stim_listA/hug5.gif""style=""height:400px;""></stim_listA>",is hugging,,,,,,
null,"<div style=""font-size:60px;"">+</div>",,html-keyboard-response,388,1008398,0.0-19.0-0.16,80729,List1A,white,man,,,,null,,,,,,,,,
null,"<img src=""stim_listA/shout3.gif""style=""height:400px;""></stim_listA>",,html-keyboard-response,389,1010414,0.0-19.0-1.16,80729,List1A,white,man,,,,null,,,,,,,,,
null,is shouting at,,html-keyboard-response,390,1012425,0.0-19.0-2.16,80729,List1A,white,man,,,,null,,,,,,,,,
3678,,,survey-text,391,1016106,0.0-19.0-3.16,80729,List1A,white,man,,,,,"{""Q0"":""luke is shouting at ruth""}","<img src=""stim_listA/shout3.gif""style=""height:400px;""></stim_listA>",is shouting at,,,,,,
null,"<div style=""font-size:60px;"">+</div>",,html-keyboard-response,392,1016619,0.0-19.0-0.17,80729,List1A,white,man,,,,null,,,,,,,,,
null,"<img src=""stim_listA/look4.gif""style=""height:400px;""></stim_listA>",,html-keyboard-response,393,1018624,0.0-19.0-1.17,80729,List1A,white,man,,,,null,,,,,,,,,
null,is being looked at by,,html-keyboard-response,394,1020629,0.0-19.0-2.17,80729,List1A,white,man,,,,null,,,,,,,,,
4655.4,,,survey-text,395,1025286,0.0-19.0-3.17,80729,List1A,white,man,,,,,"{""Q0"":""dave is being looked at by jane""}","<img src=""stim_listA/look4.gif""style=""height:400px;""></stim_listA>",is being looked at by,,,,,,
null,"<div style=""font-size:60px;"">+</div>",,html-keyboard-response,396,1025802,0.0-19.0-0.18,80729,List1A,white,man,,,,null,,,,,,,,,
null,"<img src=""stim_listA/hug3.gif""style=""height:400px;""></stim_listA>",,html-keyboard-response,397,1027805,0.0-19.0-1.18,80729,List1A,white,man,,,,null,,,,,,,,,
null,is hugging,,html-keyboard-response,398,1029810,0.0-19.0-2.18,80729,List1A,white,man,,,,null,,,,,,,,,
3304.5,,,survey-text,399,1033116,0.0-19.0-3.18,80729,List1A,white,man,,,,,"{""Q0"":""ruth is hugging luke""}","<img src=""stim_listA/hug3.gif""style=""height:400px;""></stim_listA>",is hugging,,,,,,
null,"<div style=""font-size:60px;"">+</div>",,html-keyboard-response,400,1033632,0.0-19.0-0.19,80729,List1A,white,man,,,,null,,,,,,,,,
null,"<img src=""stim_listA/copy1.gif""style=""height:400px;""></stim_listA>",,html-keyboard-response,401,1035636,0.0-19.0-1.19,80729,List1A,white,man,,,,null,,,,,,,,,
null,is copying,,html-keyboard-response,402,1037644,0.0-19.0-2.19,80729,List1A,white,man,,,,null,,,,,,,,,
7282.6,,,survey-text,403,1044929,0.0-19.0-3.19,80729,List1A,white,man,,,,,"{""Q0"":""beth is copying mike""}","<img src=""stim_listA/copy1.gif""style=""height:400px;""></stim_listA>",is copying,,,,,,
2662.3,<p>Thank you for completing that task.</p><p>The final part of this session is a questionnaire that will take about 4 minutes.</p><p>Press Continue.</p>,0,html-button-response,404,1047592,0.0-20.0,80729,List1A,white,man,,,,,,,,,,,,,
24857.9,,,survey-text,405,1073468,0.0-21.0,80729,List1A,white,man,,,,,"{""Q0"":""41"",""Q1"":""English"",""Q2"":""English"",""Q3"":""United States"",""Q4"":""United States"",""Q5"":""Caucasian"",""Q6"":""Male""}",,,demographics,,,,,
2821.1,<p>Have you lived in the USA for the last 5 years or more?</p>,0,html-button-response,406,1076291,0.0-22.0,80729,List1A,white,man,,,,,,,,fiveyears,,,,,
2115.7,<p>Move the slider to show the extent to which you agree with the following statements.</p>,0,html-button-response,407,1079419,0.0-23.0,80729,List1A,white,man,,,,,,,,,,,,,
4554.5,,,html-slider-response,408,1084976,0.0-24.0-0.0-0.0,80729,List1A,white,man,,,,,,,,survey_race,43,,,My age is not an important part of who I am.,filler
3744,,,html-slider-response,409,1088723,0.0-24.0-0.0-0.1,80729,List1A,white,man,,,,,,,,survey_race,0,,,I think that my race has a lot to be proud of.,proud
6242.1,,,html-slider-response,410,1094966,0.0-24.0-0.0-0.2,80729,List1A,white,man,,,,,,,,survey_race,57,,,Getting older does not worry me.,filler
2844.4,,,html-slider-response,411,1097813,0.0-24.0-0.0-0.3,80729,List1A,white,man,,,,,,,,survey_race,0,,,I feel a bond with my race.,bond
3812.2,,,html-slider-response,412,1101627,0.0-24.0-0.0-0.4,80729,List1A,white,man,,,,,,,,survey_race,30,,,I feel a bond with people the same age as me.,filler
4149.6,,,html-slider-response,413,1105778,0.0-24.0-0.0-0.5,80729,List1A,white,man,,,,,,,,survey_race,0,,,Being my race is an important part of how I see myself.,important
4217.1,,,html-slider-response,414,1109997,0.0-24.0-0.0-0.6,80729,List1A,white,man,,,,,,,,survey_race,19,,,I have a lot in common with the average person of my race.,average
3857,,,html-slider-response,415,1113856,0.0-24.0-0.0-0.7,80729,List1A,white,man,,,,,,,,survey_race,14,,,I have a lot in common with people of a similar age to me.,filler
2821.6,,,html-slider-response,416,1116679,0.0-24.0-0.0-0.8,80729,List1A,white,man,,,,,,,,survey_race,25,,,I am similar to the average person of my race.,similar
2237.4,,,html-slider-response,417,1118918,0.0-24.0-0.0-0.9,80729,List1A,white,man,,,,,,,,survey_race,0,,,I enjoy being in large groups.,filler
4138.6,,,html-slider-response,418,1123058,0.0-24.0-0.0-0.10,80729,List1A,white,man,,,,,,,,survey_race,43,,,I often think about the fact that I am my age.,filler
3069,,,html-slider-response,419,1126129,0.0-24.0-0.0-0.11,80729,List1A,white,man,,,,,,,,survey_race,30,,,I feel solidarity with people the same age as me.,filler
2169.5,,,html-slider-response,420,1128301,0.0-24.0-0.0-0.12,80729,List1A,white,man,,,,,,,,survey_race,0,,,I feel solidarity with my race.,solidarity
2383.1,,,html-slider-response,421,1130686,0.0-24.0-0.0-0.13,80729,List1A,white,man,,,,,,,,survey_race,0,,,I consider myself an extrovert.,filler
3801,,,html-slider-response,422,1134488,0.0-24.0-0.0-0.14,80729,List1A,white,man,,,,,,,,survey_race,55,,,I am glad to be my age.,filler
4093.4,,,html-slider-response,423,1138583,0.0-24.0-0.0-0.15,80729,List1A,white,man,,,,,,,,survey_race,74,,,It is pleasant to be my race.,pleasant
2923.4,,,html-slider-response,424,1141508,0.0-24.0-0.0-0.16,80729,List1A,white,man,,,,,,,,survey_race,76,,,"The older I get, the wiser I feel.",filler
2698.6,,,html-slider-response,425,1144208,0.0-24.0-0.0-0.17,80729,List1A,white,man,,,,,,,,survey_race,19,,,I am glad to be my race.,glad
3856.9,,,html-slider-response,426,1148067,0.0-24.0-0.0-0.18,80729,List1A,white,man,,,,,,,,survey_race,34,,,I often think about the fact that I am my race.,often
3114.7,,,html-slider-response,427,1151184,0.0-24.0-0.0-0.19,80729,List1A,white,man,,,,,,,,survey_race,0,,,Being my race gives me a good feeling.,feeling
4048.7,,,html-slider-response,428,1155234,0.0-24.0-0.0-0.20,80729,List1A,white,man,,,,,,,,survey_race,29,,,People of my race have a lot in common with each other.,common
3215.6,,,html-slider-response,429,1158451,0.0-24.0-0.0-0.21,80729,List1A,white,man,,,,,,,,survey_race,0,,,The fact that I am my race is an important part of my identity.,identity
3766.9,,,html-slider-response,430,1162220,0.0-24.0-0.0-0.22,80729,List1A,white,man,,,,,,,,survey_race,88,,,People of my race are very similar to each other.,verysimilar
2349.4,,,html-slider-response,431,1164571,0.0-24.0-0.0-0.23,80729,List1A,white,man,,,,,,,,survey_race,100,,,I consider myself an introvert.,filler
2237.3,,,html-slider-response,432,1166810,0.0-24.0-0.0-0.24,80729,List1A,white,man,,,,,,,,survey_race,0,,,I feel committed to my race.,committed
4003.6,,,html-slider-response,433,1170815,0.0-24.0-0.0-0.25,80729,List1A,white,man,,,,,,,,survey_race,27,,,People my age have a lot in common with each other.,filler
2360.6,,,html-slider-response,434,1173178,0.0-24.0-0.0-0.26,80729,List1A,white,man,,,,,,,,survey_race,57,,,I am glad to be the age I am.,filler
3080.9,,,html-slider-response,435,1176260,0.0-24.0-0.0-0.27,80729,List1A,white,man,,,,,,,,survey_race,51,,,Being my age gives me a good feeling.,filler
6433.2,,,html-slider-response,436,1182695,0.0-24.0-1.0-0.0,80729,List1A,white,man,,,,,,,,survey_gender,47,,,Family is not more important to me than friendship.,filler
4071.1,,,html-slider-response,437,1186768,0.0-24.0-1.0-0.1,80729,List1A,white,man,,,,,,,,survey_gender,7,,,I would say I am an animal person.,filler
4070.8,,,html-slider-response,438,1190841,0.0-24.0-1.0-0.2,80729,List1A,white,man,,,,,,,,survey_gender,30,,,I often think about the fact that I am my gender.,often
2878.2,,,html-slider-response,439,1193721,0.0-24.0-1.0-0.3,80729,List1A,white,man,,,,,,,,survey_gender,37,,,Routine is not important to me.,filler
2687,,,html-slider-response,440,1196410,0.0-24.0-1.0-0.4,80729,List1A,white,man,,,,,,,,survey_gender,61,,,It is pleasant to be my gender.,pleasant
2946,,,html-slider-response,441,1199357,0.0-24.0-1.0-0.5,80729,List1A,white,man,,,,,,,,survey_gender,88,,,I feel solidarity with my friends.,filler
3655.1,,,html-slider-response,442,1203013,0.0-24.0-1.0-0.6,80729,List1A,white,man,,,,,,,,survey_gender,12,,,I think that my gender has a lot to be proud of.,proud
2912,,,html-slider-response,443,1205927,0.0-24.0-1.0-0.7,80729,List1A,white,man,,,,,,,,survey_gender,92,,,It is not always easy for people to know what I am thinking.,filler
2551.9,,,html-slider-response,444,1208481,0.0-24.0-1.0-0.8,80729,List1A,white,man,,,,,,,,survey_gender,28,,,I feel solidarity with my gender.,solidarity
3238.2,,,html-slider-response,445,1211721,0.0-24.0-1.0-0.9,80729,List1A,white,man,,,,,,,,survey_gender,41,,,People of my gender are very similar to each other.,verysimilar
2540.9,,,html-slider-response,446,1214264,0.0-24.0-1.0-0.10,80729,List1A,white,man,,,,,,,,survey_gender,62,,,My friends have a lot in common with each other.,filler
2867.4,,,html-slider-response,447,1217133,0.0-24.0-1.0-0.11,80729,List1A,white,man,,,,,,,,survey_gender,22,,,I feel a bond with my gender.,bond
2417.2,,,html-slider-response,448,1219551,0.0-24.0-1.0-0.12,80729,List1A,white,man,,,,,,,,survey_gender,0,,,I feel committed to my gender.,committed
2485.2,,,html-slider-response,449,1222038,0.0-24.0-1.0-0.13,80729,List1A,white,man,,,,,,,,survey_gender,32,,,Being my gender is an important part of how I see myself.,important
2630.6,,,html-slider-response,450,1224670,0.0-24.0-1.0-0.14,80729,List1A,white,man,,,,,,,,survey_gender,32,,,The fact that I am my gender is an important part of my identity.,identity
3092.8,,,html-slider-response,451,1227764,0.0-24.0-1.0-0.15,80729,List1A,white,man,,,,,,,,survey_gender,58,,,I am glad to be my gender.,glad
3654.7,,,html-slider-response,452,1231420,0.0-24.0-1.0-0.16,80729,List1A,white,man,,,,,,,,survey_gender,100,,,I often think about my actions.,filler
2204,,,html-slider-response,453,1233625,0.0-24.0-1.0-0.17,80729,List1A,white,man,,,,,,,,survey_gender,80,,,I feel a bond with my friends.,filler
2372.3,,,html-slider-response,454,1235999,0.0-24.0-1.0-0.18,80729,List1A,white,man,,,,,,,,survey_gender,54,,,I have a lot in common with my friends.,filler
2687,,,html-slider-response,455,1238687,0.0-24.0-1.0-0.19,80729,List1A,white,man,,,,,,,,survey_gender,20,,,I have a lot in common with the average person of my gender.,average
2687.5,,,html-slider-response,456,1241376,0.0-24.0-1.0-0.20,80729,List1A,white,man,,,,,,,,survey_gender,15,,,I am similar to the average person of my gender.,similar
5398.9,,,html-slider-response,457,1246776,0.0-24.0-1.0-0.21,80729,List1A,white,man,,,,,,,,survey_gender,41,,,People of my gender have a lot in common with each other.,common
2191.8,,,html-slider-response,458,1248970,0.0-24.0-1.0-0.22,80729,List1A,white,man,,,,,,,,survey_gender,71,,,I am glad to have the friends that I have.,filler
3148.7,,,html-slider-response,459,1252120,0.0-24.0-1.0-0.23,80729,List1A,white,man,,,,,,,,survey_gender,83,,,Being around my friends gives me a good feeling.,filler
3373.2,,,html-slider-response,460,1255495,0.0-24.0-1.0-0.24,80729,List1A,white,man,,,,,,,,survey_gender,52,,,I consider myself a highly empathetic person.,filler
2439.9,,,html-slider-response,461,1257936,0.0-24.0-1.0-0.25,80729,List1A,white,man,,,,,,,,survey_gender,34,,,Being my gender gives me a good feeling.,feeling
2923.1,,,html-slider-response,462,1260861,0.0-24.0-1.0-0.26,80729,List1A,white,man,,,,,,,,survey_gender,43,,,My friends understand me.,filler
3036.3,,,html-slider-response,463,1263899,0.0-24.0-1.0-0.27,80729,List1A,white,man,,,,,,,,survey_gender,40,,,Most of the friends in my life are very similar to me.,filler
5239.6,,,survey-text,464,1269141,0.0-25.0,80729,List1A,white,man,,,,,"{""Q0"":""ccc""}",,,worker_id,,,,,
3836.8,,,external-html,465,1273687,0.0-26.0,80729,List1A,white,man,debrief.html,,,,,,,,,,,,
