"rt","stimulus","button_pressed","trial_type","trial_index","time_elapsed","internal_node_id","subject","list","ppt_race","ppt_gender","url","first_guess","correct","key_press","responses","image_type","phrase_type","test_part","response","stimulus1","stimulus2","question_type","survey_item"
"2956.2999999523163","Welcome to the experiment. Press Continue to begin.","0","html-button-response","0","2962","0.0-0.0","81933","List1A","white","woman","","","","","","","","","","","","",""
"61041.90000009537","","","external-html","1","65140","0.0-1.0","81933","List1A","white","woman","consent.html","","","","","","","","","","","",""
"15813.799999952316","<p>On the next page, you will see portraits of 8 people and their names.</p><p>Your first task is to take a few minutes to memorise the names of these people.</p><p>You will have to recall their names during the rest of the experiment, so it is</p><p>essential that you try to memorise these people and their names as best as you can.</p><br><p><strong>You will then be tested on your memory of these names and portraits.</strong></p><br><p>The experiment will start after you have completed this memory test.</p><br><p>Ready?</p>","0","html-button-response","2","80956","0.0-2.0","81933","List1A","white","woman","","","","","","","","","","","","",""
"121792.80000019073","<img src='img/portrait_matrix_list1.jpg' style='width:900px;height:500px;''></img><p>If you have memorised all the portraits and names and are ready to start, press Continue.</p><p><strong>Please note: Your memory of these faces will be tested 4 times during this experiment.</strong></p>","0","html-button-response","3","203763","0.0-3.0-0.0","81933","List1A","white","woman","","","","","","","","","","","","",""
"3055.899999856949","<img src=""portrait/WM2.jpg""style=""height:400px;""></img>","7","html-button-response","4","207836","0.0-3.0-1.0","81933","List1A","white","woman","","true","7","","","","","","","","","",""
"null","CORRECT","","html-keyboard-response","5","209356","0.0-3.0-2.0-0.0","81933","List1A","white","woman","","","","null","","","","","","","","",""
"3022.9000000953674","<img src=""portrait/WW1.jpg""style=""height:400px;""></img>","1","html-button-response","6","212380","0.0-3.0-4.0","81933","List1A","white","woman","","true","1","","","","","","","","","",""
"null","CORRECT","","html-keyboard-response","7","213907","0.0-3.0-5.0-0.0","81933","List1A","white","woman","","","","null","","","","","","","","",""
"3229.600000143051","<img src=""portrait/WM1.jpg""style=""height:400px;""></img>","6","html-button-response","8","217138","0.0-3.0-7.0","81933","List1A","white","woman","","true","6","","","","","","","","","",""
"null","CORRECT","","html-keyboard-response","9","218655","0.0-3.0-8.0-0.0","81933","List1A","white","woman","","","","null","","","","","","","","",""
"2298.5999999046326","<img src=""portrait/WW2.jpg""style=""height:400px;""></img>","2","html-button-response","10","220956","0.0-3.0-10.0","81933","List1A","white","woman","","true","3","","","","","","","","","",""
"4226","<img src=""portrait/WW2.jpg""style=""height:400px;""></img>","3","html-button-response","11","226197","0.0-3.0-12.0-0.0","81933","List1A","white","woman","","false","3","","","","","","","","","",""
"null","CORRECT","","html-keyboard-response","12","227723","0.0-3.0-12.0-1.0-0.0","81933","List1A","white","woman","","","","null","","","","","","","","",""
"2994.7999999523163","<img src=""portrait/BW1.jpg""style=""height:400px;""></img>","0","html-button-response","13","230720","0.0-3.0-13.0","81933","List1A","white","woman","","true","0","","","","","","","","","",""
"null","CORRECT","","html-keyboard-response","14","232243","0.0-3.0-14.0-0.0","81933","List1A","white","woman","","","","null","","","","","","","","",""
"3392.899999856949","<img src=""portrait/BW2.jpg""style=""height:400px;""></img>","2","html-button-response","15","235638","0.0-3.0-16.0","81933","List1A","white","woman","","true","2","","","","","","","","","",""
"null","CORRECT","","html-keyboard-response","16","237161","0.0-3.0-17.0-0.0","81933","List1A","white","woman","","","","null","","","","","","","","",""
"3313.0999999046326","<img src=""portrait/BM2.jpg""style=""height:400px;""></img>","5","html-button-response","17","240476","0.0-3.0-19.0","81933","List1A","white","woman","","true","5","","","","","","","","","",""
"null","CORRECT","","html-keyboard-response","18","241993","0.0-3.0-20.0-0.0","81933","List1A","white","woman","","","","null","","","","","","","","",""
"3256.5999999046326","<img src=""portrait/BM1.jpg""style=""height:400px;""></img>","4","html-button-response","19","245251","0.0-3.0-22.0","81933","List1A","white","woman","","true","4","","","","","","","","","",""
"null","CORRECT","","html-keyboard-response","20","246771","0.0-3.0-23.0-0.0","81933","List1A","white","woman","","","","null","","","","","","","","",""
"2588.100000143051","<p>You got 7 out of 8 right first time. Press Continue.</p>","0","html-button-response","21","249361","0.0-3.0-25.0","81933","List1A","white","woman","","","","","","","","","","","","",""
"3157.4000000953674","As you did not score 100%, the memory game will repeat. Press Continue.","0","html-button-response","22","253522","0.0-3.0-26.0-0.0","81933","List1A","white","woman","","","","","","","","","","","","",""
"4285.899999856949","<img src='img/portrait_matrix_list1.jpg' style='width:900px;height:500px;''></img><p>If you have memorised all the portraits and names and are ready to start, press Continue.</p><p><strong>Please note: Your memory of these faces will be tested 4 times during this experiment.</strong></p>","0","html-button-response","23","258824","0.0-3.1-0.1","81933","List1A","white","woman","","","","","","","","","","","","",""
"2269.9000000953674","<img src=""portrait/WM2.jpg""style=""height:400px;""></img>","7","html-button-response","24","262106","0.0-3.1-1.1","81933","List1A","white","woman","","true","7","","","","","","","","","",""
"null","CORRECT","","html-keyboard-response","25","263619","0.0-3.1-2.1-0.1","81933","List1A","white","woman","","","","null","","","","","","","","",""
"2938.7999999523163","<img src=""portrait/WW1.jpg""style=""height:400px;""></img>","1","html-button-response","26","266560","0.0-3.1-4.1","81933","List1A","white","woman","","true","1","","","","","","","","","",""
"null","CORRECT","","html-keyboard-response","27","268072","0.0-3.1-5.1-0.1","81933","List1A","white","woman","","","","null","","","","","","","","",""
"3013.2999999523163","<img src=""portrait/WM1.jpg""style=""height:400px;""></img>","6","html-button-response","28","271087","0.0-3.1-7.1","81933","List1A","white","woman","","true","6","","","","","","","","","",""
"null","CORRECT","","html-keyboard-response","29","272603","0.0-3.1-8.1-0.1","81933","List1A","white","woman","","","","null","","","","","","","","",""
"2124.2000000476837","<img src=""portrait/WW2.jpg""style=""height:400px;""></img>","3","html-button-response","30","274729","0.0-3.1-10.1","81933","List1A","white","woman","","true","3","","","","","","","","","",""
"null","CORRECT","","html-keyboard-response","31","276242","0.0-3.1-11.1-0.1","81933","List1A","white","woman","","","","null","","","","","","","","",""
"2375.300000190735","<img src=""portrait/BW1.jpg""style=""height:400px;""></img>","0","html-button-response","32","278619","0.0-3.1-13.1","81933","List1A","white","woman","","true","0","","","","","","","","","",""
"null","CORRECT","","html-keyboard-response","33","280147","0.0-3.1-14.1-0.1","81933","List1A","white","woman","","","","null","","","","","","","","",""
"1870.5","<img src=""portrait/BW2.jpg""style=""height:400px;""></img>","2","html-button-response","34","282018","0.0-3.1-16.1","81933","List1A","white","woman","","true","2","","","","","","","","","",""
"null","CORRECT","","html-keyboard-response","35","283537","0.0-3.1-17.1-0.1","81933","List1A","white","woman","","","","null","","","","","","","","",""
"3803","<img src=""portrait/BM2.jpg""style=""height:400px;""></img>","5","html-button-response","36","287342","0.0-3.1-19.1","81933","List1A","white","woman","","true","5","","","","","","","","","",""
"null","CORRECT","","html-keyboard-response","37","288866","0.0-3.1-20.1-0.1","81933","List1A","white","woman","","","","null","","","","","","","","",""
"2006.5999999046326","<img src=""portrait/BM1.jpg""style=""height:400px;""></img>","4","html-button-response","38","290875","0.0-3.1-22.1","81933","List1A","white","woman","","true","4","","","","","","","","","",""
"null","CORRECT","","html-keyboard-response","39","292399","0.0-3.1-23.1-0.1","81933","List1A","white","woman","","","","null","","","","","","","","",""
"2152.199999809265","<p>You got 8 out of 8 right first time. Press Continue.</p>","0","html-button-response","40","294553","0.0-3.1-25.1","81933","List1A","white","woman","","","","","","","","","","","","",""
"51241","<p>In this experiment, you will view photographs of the people from the memory game interacting.</p><p>By using the <strong>exact</strong> phrase given <i>after</i> the photograph appears and recalling the correct names of the people in the photographs, form a sentence describing the interaction. You do not need to capitalise names.</p><p>Type your answer in the space provided. Please complete every sentence before moving onto the next trial.</p><p>You will only have a few seconds to memorise each given photograph and phrase before you can respond, so try your best to focus.</p><p>An example is given below. Press 'Continue' when you are ready.</p><img src='img/speaking_example.jpg' style='width:800px;height:460px;''></img>","0","html-button-response","41","346799","0.0-4.0","81933","List1A","white","woman","","","","","","","","","","","","",""
"2825.7000000476837","<p>Before the experiment starts, you will watch two example trials. Press 'Continue'.</p>","0","html-button-response","42","350631","0.0-5.0","81933","List1A","white","woman","","","","","","","","","","","","",""
"null","<img src='img/play_eg.gif' style='height:400px;''></img>","","html-keyboard-response","43","353638","0.0-6.0","81933","List1A","white","woman","","","","null","","","","","","","","",""
"null","<p>is playing with</p>","","html-keyboard-response","44","355642","0.0-7.0","81933","List1A","white","woman","","","","null","","","","","","","","",""
"11067.699999809265","<p><b>Answer:</b> kate is playing with beth</p>","0","html-button-response","45","366711","0.0-8.0","81933","List1A","white","woman","","","","","","","","","","","","",""
"null","<img src='img/dance_eg.gif' style='height:400px;''></img>","","html-keyboard-response","46","369720","0.0-9.0","81933","List1A","white","woman","","","","null","","","","","","","","",""
"null","<p>is being entertained by</p>","","html-keyboard-response","47","371722","0.0-10.0","81933","List1A","white","woman","","","","null","","","","","","","","",""
"13731.900000095367","<p><b>Answer:</b> luke is being entertained by dave</p>","0","html-button-response","48","385455","0.0-11.0","81933","List1A","white","woman","","","","","","","","","","","","",""
"17404.900000095367","<p>Ready to start the experiment?</p><br><p><strong>Remember to describe the picture using a full sentence,</strong></p><p><strong>that combines the names of the people with the <i>exact</i> phrase given.</strong></p><p><strong>To receive full payment you must do this correctly.</strong></p><p><strong> You do not need to capitalise names or use punctuation.</strong></p><br><p>Press 'Continue' to begin.</p>","0","html-button-response","49","403868","0.0-12.0","81933","List1A","white","woman","","","","","","","","","","","","",""
"null","<div style=""font-size:60px;"">+</div>","","html-keyboard-response","50","405386","0.0-13.0-0.0","81933","List1A","white","woman","","","","null","","","","","","","","",""
"null","<img src=""stim_listA/kiss6.gif""style=""height:400px;""></stim_listA>","","html-keyboard-response","51","407389","0.0-13.0-1.0","81933","List1A","white","woman","","","","null","","","","","","","","",""
"null","is being kissed by","","html-keyboard-response","52","409402","0.0-13.0-2.0","81933","List1A","white","woman","","","","null","","","","","","","","",""
"17202.400000095367","","","survey-text","53","426607","0.0-13.0-3.0","81933","List1A","white","woman","","","","","{""Q0"":""Mike is being kissed by Dave.""}","<img src=""stim_listA/kiss6.gif""style=""height:400px;""></stim_listA>","is being kissed by","","","","","",""
"null","<div style=""font-size:60px;"">+</div>","","html-keyboard-response","54","427123","0.0-13.0-0.1","81933","List1A","white","woman","","","","null","","","","","","","","",""
"null","<img src=""stim_listA/oppose4.gif""style=""height:400px;""></stim_listA>","","html-keyboard-response","55","429125","0.0-13.0-1.1","81933","List1A","white","woman","","","","null","","","","","","","","",""
"null","is being opposed by","","html-keyboard-response","56","431141","0.0-13.0-2.1","81933","List1A","white","woman","","","","null","","","","","","","","",""
"14759.099999904633","","","survey-text","57","445902","0.0-13.0-3.1","81933","List1A","white","woman","","","","","{""Q0"":""Jane is being opposed by Luke.""}","<img src=""stim_listA/oppose4.gif""style=""height:400px;""></stim_listA>","is being opposed by","","","","","",""
"null","<div style=""font-size:60px;"">+</div>","","html-keyboard-response","58","446404","0.0-13.0-0.2","81933","List1A","white","woman","","","","null","","","","","","","","",""
"null","<img src=""stim_listA/hug8.gif""style=""height:400px;""></stim_listA>","","html-keyboard-response","59","448411","0.0-13.0-1.2","81933","List1A","white","woman","","","","null","","","","","","","","",""
"null","is being hugged by","","html-keyboard-response","60","450420","0.0-13.0-2.2","81933","List1A","white","woman","","","","null","","","","","","","","",""
"12724.099999904633","","","survey-text","61","463150","0.0-13.0-3.2","81933","List1A","white","woman","","","","","{""Q0"":""Kate is being hugged by Jane.""}","<img src=""stim_listA/hug8.gif""style=""height:400px;""></stim_listA>","is being hugged by","","","","","",""
"null","<div style=""font-size:60px;"">+</div>","","html-keyboard-response","62","463658","0.0-13.0-0.3","81933","List1A","white","woman","","","","null","","","","","","","","",""
"null","<img src=""stim_listA/hug6.gif""style=""height:400px;""></stim_listA>","","html-keyboard-response","63","465667","0.0-13.0-1.3","81933","List1A","white","woman","","","","null","","","","","","","","",""
"null","is being hugged by","","html-keyboard-response","64","467675","0.0-13.0-2.3","81933","List1A","white","woman","","","","null","","","","","","","","",""
"16807.400000095367","","","survey-text","65","484486","0.0-13.0-3.3","81933","List1A","white","woman","","","","","{""Q0"":""Dave is being hugged by Mike.""}","<img src=""stim_listA/hug6.gif""style=""height:400px;""></stim_listA>","is being hugged by","","","","","",""
"null","<div style=""font-size:60px;"">+</div>","","html-keyboard-response","66","484991","0.0-13.0-0.4","81933","List1A","white","woman","","","","null","","","","","","","","",""
"null","<img src=""stim_listA/greet4.gif""style=""height:400px;""></stim_listA>","","html-keyboard-response","67","486999","0.0-13.0-1.4","81933","List1A","white","woman","","","","null","","","","","","","","",""
"null","is being greeted by","","html-keyboard-response","68","489012","0.0-13.0-2.4","81933","List1A","white","woman","","","","null","","","","","","","","",""
"8278.200000047684","","","survey-text","69","497293","0.0-13.0-3.4","81933","List1A","white","woman","","","","","{""Q0"":""Luke is being greeted by Ruth.""}","<img src=""stim_listA/greet4.gif""style=""height:400px;""></stim_listA>","is being greeted by","","","","","",""
"null","<div style=""font-size:60px;"">+</div>","","html-keyboard-response","70","497798","0.0-13.0-0.5","81933","List1A","white","woman","","","","null","","","","","","","","",""
"null","<img src=""stim_listA/look3.gif""style=""height:400px;""></stim_listA>","","html-keyboard-response","71","499804","0.0-13.0-1.5","81933","List1A","white","woman","","","","null","","","","","","","","",""
"null","is looking at","","html-keyboard-response","72","501819","0.0-13.0-2.5","81933","List1A","white","woman","","","","null","","","","","","","","",""
"34927.09999990463","","","survey-text","73","536751","0.0-13.0-3.5","81933","List1A","white","woman","","","","","{""Q0"":""Luke is being greeted by Ruth.""}","<img src=""stim_listA/look3.gif""style=""height:400px;""></stim_listA>","is looking at","","","","","",""
"null","<div style=""font-size:60px;"">+</div>","","html-keyboard-response","74","537263","0.0-13.0-0.6","81933","List1A","white","woman","","","","null","","","","","","","","",""
"null","<img src=""stim_listA/greet8.gif""style=""height:400px;""></stim_listA>","","html-keyboard-response","75","539271","0.0-13.0-1.6","81933","List1A","white","woman","","","","null","","","","","","","","",""
"null","is being greeted by","","html-keyboard-response","76","541277","0.0-13.0-2.6","81933","List1A","white","woman","","","","null","","","","","","","","",""
"12161.700000047684","","","survey-text","77","553441","0.0-13.0-3.6","81933","List1A","white","woman","","","","","{""Q0"":""Beth is being greeted by Jane.""}","<img src=""stim_listA/greet8.gif""style=""height:400px;""></stim_listA>","is being greeted by","","","","","",""
"null","<div style=""font-size:60px;"">+</div>","","html-keyboard-response","78","553947","0.0-13.0-0.7","81933","List1A","white","woman","","","","null","","","","","","","","",""
"null","<img src=""stim_listA/kiss5.gif""style=""height:400px;""></stim_listA>","","html-keyboard-response","79","555962","0.0-13.0-1.7","81933","List1A","white","woman","","","","null","","","","","","","","",""
"null","is kissing","","html-keyboard-response","80","557974","0.0-13.0-2.7","81933","List1A","white","woman","","","","null","","","","","","","","",""
"5970.600000143051","","","survey-text","81","563948","0.0-13.0-3.7","81933","List1A","white","woman","","","","","{""Q0"":""Fred is kissing Luke.""}","<img src=""stim_listA/kiss5.gif""style=""height:400px;""></stim_listA>","is kissing","","","","","",""
"null","<div style=""font-size:60px;"">+</div>","","html-keyboard-response","82","564463","0.0-13.0-0.8","81933","List1A","white","woman","","","","null","","","","","","","","",""
"null","<img src=""stim_listA/seduce3.gif""style=""height:400px;""></stim_listA>","","html-keyboard-response","83","566467","0.0-13.0-1.8","81933","List1A","white","woman","","","","null","","","","","","","","",""
"null","is seducing","","html-keyboard-response","84","568471","0.0-13.0-2.8","81933","List1A","white","woman","","","","null","","","","","","","","",""
"6141.099999904633","","","survey-text","85","574615","0.0-13.0-3.8","81933","List1A","white","woman","","","","","{""Q0"":""Luke is seducing Jane.""}","<img src=""stim_listA/seduce3.gif""style=""height:400px;""></stim_listA>","is seducing","","","","","",""
"null","<div style=""font-size:60px;"">+</div>","","html-keyboard-response","86","575126","0.0-13.0-0.9","81933","List1A","white","woman","","","","null","","","","","","","","",""
"null","<img src=""stim_listA/copy4.gif""style=""height:400px;""></stim_listA>","","html-keyboard-response","87","577142","0.0-13.0-1.9","81933","List1A","white","woman","","","","null","","","","","","","","",""
"null","is being copied by","","html-keyboard-response","88","579151","0.0-13.0-2.9","81933","List1A","white","woman","","","","null","","","","","","","","",""
"7185.799999952316","","","survey-text","89","586341","0.0-13.0-3.9","81933","List1A","white","woman","","","","","{""Q0"":""Jane is being copied by Luke.""}","<img src=""stim_listA/copy4.gif""style=""height:400px;""></stim_listA>","is being copied by","","","","","",""
"null","<div style=""font-size:60px;"">+</div>","","html-keyboard-response","90","586844","0.0-13.0-0.10","81933","List1A","white","woman","","","","null","","","","","","","","",""
"null","<img src=""stim_listA/greet2.gif""style=""height:400px;""></stim_listA>","","html-keyboard-response","91","588856","0.0-13.0-1.10","81933","List1A","white","woman","","","","null","","","","","","","","",""
"null","is being greeted by","","html-keyboard-response","92","590870","0.0-13.0-2.10","81933","List1A","white","woman","","","","null","","","","","","","","",""
"5810.399999856949","","","survey-text","93","596684","0.0-13.0-3.10","81933","List1A","white","woman","","","","","{""Q0"":""Jane is being greeted by Fred.""}","<img src=""stim_listA/greet2.gif""style=""height:400px;""></stim_listA>","is being greeted by","","","","","",""
"null","<div style=""font-size:60px;"">+</div>","","html-keyboard-response","94","597186","0.0-13.0-0.11","81933","List1A","white","woman","","","","null","","","","","","","","",""
"null","<img src=""stim_listA/kiss1.gif""style=""height:400px;""></stim_listA>","","html-keyboard-response","95","599201","0.0-13.0-1.11","81933","List1A","white","woman","","","","null","","","","","","","","",""
"null","is kissing","","html-keyboard-response","96","601214","0.0-13.0-2.11","81933","List1A","white","woman","","","","null","","","","","","","","",""
"5114.899999856949","","","survey-text","97","606332","0.0-13.0-3.11","81933","List1A","white","woman","","","","","{""Q0"":""Fred is kissing Beth.""}","<img src=""stim_listA/kiss1.gif""style=""height:400px;""></stim_listA>","is kissing","","","","","",""
"null","<div style=""font-size:60px;"">+</div>","","html-keyboard-response","98","606838","0.0-13.0-0.12","81933","List1A","white","woman","","","","null","","","","","","","","",""
"null","<img src=""stim_listA/touch1.gif""style=""height:400px;""></stim_listA>","","html-keyboard-response","99","608846","0.0-13.0-1.12","81933","List1A","white","woman","","","","null","","","","","","","","",""
"null","is touching","","html-keyboard-response","100","610853","0.0-13.0-2.12","81933","List1A","white","woman","","","","null","","","","","","","","",""
"40308.10000014305","","","survey-text","101","651163","0.0-13.0-3.12","81933","List1A","white","woman","","","","","{""Q0"":""Mike is being greeted by Kate.""}","<img src=""stim_listA/touch1.gif""style=""height:400px;""></stim_listA>","is touching","","","","","",""
"null","<div style=""font-size:60px;"">+</div>","","html-keyboard-response","102","651672","0.0-13.0-0.13","81933","List1A","white","woman","","","","null","","","","","","","","",""
"null","<img src=""stim_listA/look8.gif""style=""height:400px;""></stim_listA>","","html-keyboard-response","103","653687","0.0-13.0-1.13","81933","List1A","white","woman","","","","null","","","","","","","","",""
"null","is being looked at by","","html-keyboard-response","104","655696","0.0-13.0-2.13","81933","List1A","white","woman","","","","null","","","","","","","","",""
"9455.5","","","survey-text","105","665155","0.0-13.0-3.13","81933","List1A","white","woman","","","","","{""Q0"":""Jane is being looked at by Kate.""}","<img src=""stim_listA/look8.gif""style=""height:400px;""></stim_listA>","is being looked at by","","","","","",""
"null","<div style=""font-size:60px;"">+</div>","","html-keyboard-response","106","665667","0.0-13.0-0.14","81933","List1A","white","woman","","","","null","","","","","","","","",""
"null","<img src=""stim_listA/hug3.gif""style=""height:400px;""></stim_listA>","","html-keyboard-response","107","667673","0.0-13.0-1.14","81933","List1A","white","woman","","","","null","","","","","","","","",""
"null","is hugging","","html-keyboard-response","108","669684","0.0-13.0-2.14","81933","List1A","white","woman","","","","null","","","","","","","","",""
"6009.600000143051","","","survey-text","109","675696","0.0-13.0-3.14","81933","List1A","white","woman","","","","","{""Q0"":""Ruth is being hugged by Luke.""}","<img src=""stim_listA/hug3.gif""style=""height:400px;""></stim_listA>","is hugging","","","","","",""
"null","<div style=""font-size:60px;"">+</div>","","html-keyboard-response","110","676205","0.0-13.0-0.15","81933","List1A","white","woman","","","","null","","","","","","","","",""
"null","<img src=""stim_listA/challenge4.gif""style=""height:400px;""></stim_listA>","","html-keyboard-response","111","678210","0.0-13.0-1.15","81933","List1A","white","woman","","","","null","","","","","","","","",""
"null","is being challenged by","","html-keyboard-response","112","680216","0.0-13.0-2.15","81933","List1A","white","woman","","","","null","","","","","","","","",""
"10695.100000143051","","","survey-text","113","690914","0.0-13.0-3.15","81933","List1A","white","woman","","","","","{""Q0"":""Jane is being challenged by Luke.""}","<img src=""stim_listA/challenge4.gif""style=""height:400px;""></stim_listA>","is being challenged by","","","","","",""
"null","<div style=""font-size:60px;"">+</div>","","html-keyboard-response","114","691425","0.0-13.0-0.16","81933","List1A","white","woman","","","","null","","","","","","","","",""
"null","<img src=""stim_listA/greet1.gif""style=""height:400px;""></stim_listA>","","html-keyboard-response","115","693428","0.0-13.0-1.16","81933","List1A","white","woman","","","","null","","","","","","","","",""
"null","is greeting","","html-keyboard-response","116","695440","0.0-13.0-2.16","81933","List1A","white","woman","","","","null","","","","","","","","",""
"9372","","","survey-text","117","704814","0.0-13.0-3.16","81933","List1A","white","woman","","","","","{""Q0"":""Beth is being greeted by Mike.""}","<img src=""stim_listA/greet1.gif""style=""height:400px;""></stim_listA>","is greeting","","","","","",""
"null","<div style=""font-size:60px;"">+</div>","","html-keyboard-response","118","705323","0.0-13.0-0.17","81933","List1A","white","woman","","","","null","","","","","","","","",""
"null","<img src=""stim_listA/seduce1.gif""style=""height:400px;""></stim_listA>","","html-keyboard-response","119","707326","0.0-13.0-1.17","81933","List1A","white","woman","","","","null","","","","","","","","",""
"null","is seducing","","html-keyboard-response","120","709334","0.0-13.0-2.17","81933","List1A","white","woman","","","","null","","","","","","","","",""
"8045.899999856949","","","survey-text","121","717383","0.0-13.0-3.17","81933","List1A","white","woman","","","","","{""Q0"":""Kate is seducing Fred.""}","<img src=""stim_listA/seduce1.gif""style=""height:400px;""></stim_listA>","is seducing","","","","","",""
"null","<div style=""font-size:60px;"">+</div>","","html-keyboard-response","122","717892","0.0-13.0-0.18","81933","List1A","white","woman","","","","null","","","","","","","","",""
"null","<img src=""stim_listA/copy6.gif""style=""height:400px;""></stim_listA>","","html-keyboard-response","123","719897","0.0-13.0-1.18","81933","List1A","white","woman","","","","null","","","","","","","","",""
"null","is being copied by","","html-keyboard-response","124","721909","0.0-13.0-2.18","81933","List1A","white","woman","","","","null","","","","","","","","",""
"6982","","","survey-text","125","728894","0.0-13.0-3.18","81933","List1A","white","woman","","","","","{""Q0"":""Dave is being copied by Fred.""}","<img src=""stim_listA/copy6.gif""style=""height:400px;""></stim_listA>","is being copied by","","","","","",""
"null","<div style=""font-size:60px;"">+</div>","","html-keyboard-response","126","729409","0.0-13.0-0.19","81933","List1A","white","woman","","","","null","","","","","","","","",""
"null","<img src=""stim_listA/hug4.gif""style=""height:400px;""></stim_listA>","","html-keyboard-response","127","731412","0.0-13.0-1.19","81933","List1A","white","woman","","","","null","","","","","","","","",""
"null","is being hugged by","","html-keyboard-response","128","733417","0.0-13.0-2.19","81933","List1A","white","woman","","","","null","","","","","","","","",""
"6745.899999856949","","","survey-text","129","740164","0.0-13.0-3.19","81933","List1A","white","woman","","","","","{""Q0"":""Jane is being hugged by Dave.""}","<img src=""stim_listA/hug4.gif""style=""height:400px;""></stim_listA>","is being hugged by","","","","","",""
"90032","<img src='img/portrait_matrix_list1.jpg' style='width:900px;height:500px;''></img><p>If you have memorised all the portraits and names and are ready to start, press Continue.</p><p><strong>Please note: Your memory of these faces will be tested 4 times during this experiment.</strong></p>","0","html-button-response","130","830197","0.0-14.0-0.0","81933","List1A","white","woman","","","","","","","","","","","","",""
"3818.699999809265","<img src=""portrait/BW2.jpg""style=""height:400px;""></img>","2","html-button-response","131","835029","0.0-14.0-1.0","81933","List1A","white","woman","","true","2","","","","","","","","","",""
"null","CORRECT","","html-keyboard-response","132","836546","0.0-14.0-2.0-0.0","81933","List1A","white","woman","","","","null","","","","","","","","",""
"2603","<img src=""portrait/WW1.jpg""style=""height:400px;""></img>","1","html-button-response","133","839151","0.0-14.0-4.0","81933","List1A","white","woman","","true","1","","","","","","","","","",""
"null","CORRECT","","html-keyboard-response","134","840683","0.0-14.0-5.0-0.0","81933","List1A","white","woman","","","","null","","","","","","","","",""
"3355.2000000476837","<img src=""portrait/WM1.jpg""style=""height:400px;""></img>","6","html-button-response","135","844041","0.0-14.0-7.0","81933","List1A","white","woman","","true","6","","","","","","","","","",""
"null","CORRECT","","html-keyboard-response","136","845550","0.0-14.0-8.0-0.0","81933","List1A","white","woman","","","","null","","","","","","","","",""
"1917.5","<img src=""portrait/WW2.jpg""style=""height:400px;""></img>","3","html-button-response","137","847469","0.0-14.0-10.0","81933","List1A","white","woman","","true","3","","","","","","","","","",""
"null","CORRECT","","html-keyboard-response","138","848978","0.0-14.0-11.0-0.0","81933","List1A","white","woman","","","","null","","","","","","","","",""
"2279.699999809265","<img src=""portrait/BW1.jpg""style=""height:400px;""></img>","0","html-button-response","139","851260","0.0-14.0-13.0","81933","List1A","white","woman","","true","0","","","","","","","","","",""
"null","CORRECT","","html-keyboard-response","140","852779","0.0-14.0-14.0-0.0","81933","List1A","white","woman","","","","null","","","","","","","","",""
"2487.7999999523163","<img src=""portrait/BM2.jpg""style=""height:400px;""></img>","5","html-button-response","141","855270","0.0-14.0-16.0","81933","List1A","white","woman","","true","5","","","","","","","","","",""
"null","CORRECT","","html-keyboard-response","142","856780","0.0-14.0-17.0-0.0","81933","List1A","white","woman","","","","null","","","","","","","","",""
"2085.5","<img src=""portrait/WM2.jpg""style=""height:400px;""></img>","7","html-button-response","143","858868","0.0-14.0-19.0","81933","List1A","white","woman","","true","7","","","","","","","","","",""
"null","CORRECT","","html-keyboard-response","144","860382","0.0-14.0-20.0-0.0","81933","List1A","white","woman","","","","null","","","","","","","","",""
"3315.7999999523163","<img src=""portrait/BM1.jpg""style=""height:400px;""></img>","4","html-button-response","145","863700","0.0-14.0-22.0","81933","List1A","white","woman","","true","4","","","","","","","","","",""
"null","CORRECT","","html-keyboard-response","146","865209","0.0-14.0-23.0-0.0","81933","List1A","white","woman","","","","null","","","","","","","","",""
"2084.7999999523163","<p>You got 8 out of 8 right first time. Press Continue.</p>","0","html-button-response","147","867296","0.0-14.0-25.0","81933","List1A","white","woman","","","","","","","","","","","","",""
"null","<div style=""font-size:60px;"">+</div>","","html-keyboard-response","148","868807","0.0-15.0-0.0","81933","List1A","white","woman","","","","null","","","","","","","","",""
"null","<img src=""stim_listA/seduce7.gif""style=""height:400px;""></stim_listA>","","html-keyboard-response","149","870816","0.0-15.0-1.0","81933","List1A","white","woman","","","","null","","","","","","","","",""
"null","is seducing","","html-keyboard-response","150","872826","0.0-15.0-2.0","81933","List1A","white","woman","","","","null","","","","","","","","",""
"5763.200000047684","","","survey-text","151","878591","0.0-15.0-3.0","81933","List1A","white","woman","","","","","{""Q0"":""Beth is seducing Jane.""}","<img src=""stim_listA/seduce7.gif""style=""height:400px;""></stim_listA>","is seducing","","","","","",""
"null","<div style=""font-size:60px;"">+</div>","","html-keyboard-response","152","879094","0.0-15.0-0.1","81933","List1A","white","woman","","","","null","","","","","","","","",""
"null","<img src=""stim_listA/kiss2.gif""style=""height:400px;""></stim_listA>","","html-keyboard-response","153","881103","0.0-15.0-1.1","81933","List1A","white","woman","","","","null","","","","","","","","",""
"null","is being kissed by","","html-keyboard-response","154","883111","0.0-15.0-2.1","81933","List1A","white","woman","","","","null","","","","","","","","",""
"13152.200000047684","","","survey-text","155","896267","0.0-15.0-3.1","81933","List1A","white","woman","","","","","{""Q0"":""Kate is being kissed by Mike.""}","<img src=""stim_listA/kiss2.gif""style=""height:400px;""></stim_listA>","is being kissed by","","","","","",""
"null","<div style=""font-size:60px;"">+</div>","","html-keyboard-response","156","896770","0.0-15.0-0.2","81933","List1A","white","woman","","","","null","","","","","","","","",""
"null","<img src=""stim_listA/shout8.gif""style=""height:400px;""></stim_listA>","","html-keyboard-response","157","898780","0.0-15.0-1.2","81933","List1A","white","woman","","","","null","","","","","","","","",""
"null","is being shouted at by","","html-keyboard-response","158","900792","0.0-15.0-2.2","81933","List1A","white","woman","","","","null","","","","","","","","",""
"13198.400000095367","","","survey-text","159","913992","0.0-15.0-3.2","81933","List1A","white","woman","","","","","{""Q0"":""Jane is being shouted at by Kate.""}","<img src=""stim_listA/shout8.gif""style=""height:400px;""></stim_listA>","is being shouted at by","","","","","",""
"null","<div style=""font-size:60px;"">+</div>","","html-keyboard-response","160","914496","0.0-15.0-0.3","81933","List1A","white","woman","","","","null","","","","","","","","",""
"null","<img src=""stim_listA/kiss7.gif""style=""height:400px;""></stim_listA>","","html-keyboard-response","161","916509","0.0-15.0-1.3","81933","List1A","white","woman","","","","null","","","","","","","","",""
"null","is kissing","","html-keyboard-response","162","918511","0.0-15.0-2.3","81933","List1A","white","woman","","","","null","","","","","","","","",""
"4487.799999952316","","","survey-text","163","923001","0.0-15.0-3.3","81933","List1A","white","woman","","","","","{""Q0"":""Beth is kissing Ruth.""}","<img src=""stim_listA/kiss7.gif""style=""height:400px;""></stim_listA>","is kissing","","","","","",""
"null","<div style=""font-size:60px;"">+</div>","","html-keyboard-response","164","923516","0.0-15.0-0.4","81933","List1A","white","woman","","","","null","","","","","","","","",""
"null","<img src=""stim_listA/greet6.gif""style=""height:400px;""></stim_listA>","","html-keyboard-response","165","925530","0.0-15.0-1.4","81933","List1A","white","woman","","","","null","","","","","","","","",""
"null","is being greeted by","","html-keyboard-response","166","927544","0.0-15.0-2.4","81933","List1A","white","woman","","","","null","","","","","","","","",""
"7204.600000143051","","","survey-text","167","934751","0.0-15.0-3.4","81933","List1A","white","woman","","","","","{""Q0"":""Fred is being greeted by Dave.""}","<img src=""stim_listA/greet6.gif""style=""height:400px;""></stim_listA>","is being greeted by","","","","","",""
"null","<div style=""font-size:60px;"">+</div>","","html-keyboard-response","168","935253","0.0-15.0-0.5","81933","List1A","white","woman","","","","null","","","","","","","","",""
"null","<img src=""stim_listA/look6.gif""style=""height:400px;""></stim_listA>","","html-keyboard-response","169","937266","0.0-15.0-1.5","81933","List1A","white","woman","","","","null","","","","","","","","",""
"null","is being looked at by","","html-keyboard-response","170","939279","0.0-15.0-2.5","81933","List1A","white","woman","","","","null","","","","","","","","",""
"7213.5","","","survey-text","171","946496","0.0-15.0-3.5","81933","List1A","white","woman","","","","","{""Q0"":""Dave is being looked at by Mike.""}","<img src=""stim_listA/look6.gif""style=""height:400px;""></stim_listA>","is being looked at by","","","","","",""
"null","<div style=""font-size:60px;"">+</div>","","html-keyboard-response","172","947009","0.0-15.0-0.6","81933","List1A","white","woman","","","","null","","","","","","","","",""
"null","<img src=""stim_listA/oppose8.gif""style=""height:400px;""></stim_listA>","","html-keyboard-response","173","949020","0.0-15.0-1.6","81933","List1A","white","woman","","","","null","","","","","","","","",""
"null","is being opposed by","","html-keyboard-response","174","951034","0.0-15.0-2.6","81933","List1A","white","woman","","","","null","","","","","","","","",""
"6382.700000047684","","","survey-text","175","957419","0.0-15.0-3.6","81933","List1A","white","woman","","","","","{""Q0"":""Ruth is being opposed by Beth.""}","<img src=""stim_listA/oppose8.gif""style=""height:400px;""></stim_listA>","is being opposed by","","","","","",""
"null","<div style=""font-size:60px;"">+</div>","","html-keyboard-response","176","957921","0.0-15.0-0.7","81933","List1A","white","woman","","","","null","","","","","","","","",""
"null","<img src=""stim_listA/challenge1.gif""style=""height:400px;""></stim_listA>","","html-keyboard-response","177","959930","0.0-15.0-1.7","81933","List1A","white","woman","","","","null","","","","","","","","",""
"null","is challenging","","html-keyboard-response","178","961939","0.0-15.0-2.7","81933","List1A","white","woman","","","","null","","","","","","","","",""
"6558.900000095367","","","survey-text","179","968501","0.0-15.0-3.7","81933","List1A","white","woman","","","","","{""Q0"":""Mike is challenging Beth.""}","<img src=""stim_listA/challenge1.gif""style=""height:400px;""></stim_listA>","is challenging","","","","","",""
"null","<div style=""font-size:60px;"">+</div>","","html-keyboard-response","180","969012","0.0-15.0-0.8","81933","List1A","white","woman","","","","null","","","","","","","","",""
"null","<img src=""stim_listA/look7.gif""style=""height:400px;""></stim_listA>","","html-keyboard-response","181","971024","0.0-15.0-1.8","81933","List1A","white","woman","","","","null","","","","","","","","",""
"null","is looking at","","html-keyboard-response","182","973039","0.0-15.0-2.8","81933","List1A","white","woman","","","","null","","","","","","","","",""
"4839.799999952316","","","survey-text","183","977881","0.0-15.0-3.8","81933","List1A","white","woman","","","","","{""Q0"":""Beth is looking at Ruth.""}","<img src=""stim_listA/look7.gif""style=""height:400px;""></stim_listA>","is looking at","","","","","",""
"null","<div style=""font-size:60px;"">+</div>","","html-keyboard-response","184","978385","0.0-15.0-0.9","81933","List1A","white","woman","","","","null","","","","","","","","",""
"null","<img src=""stim_listA/challenge7.gif""style=""height:400px;""></stim_listA>","","html-keyboard-response","185","980398","0.0-15.0-1.9","81933","List1A","white","woman","","","","null","","","","","","","","",""
"null","is challenging","","html-keyboard-response","186","982412","0.0-15.0-2.9","81933","List1A","white","woman","","","","null","","","","","","","","",""
"7283.700000047684","","","survey-text","187","989699","0.0-15.0-3.9","81933","List1A","white","woman","","","","","{""Q0"":""Kate is challenging Ruth.""}","<img src=""stim_listA/challenge7.gif""style=""height:400px;""></stim_listA>","is challenging","","","","","",""
"null","<div style=""font-size:60px;"">+</div>","","html-keyboard-response","188","990204","0.0-15.0-0.10","81933","List1A","white","woman","","","","null","","","","","","","","",""
"null","<img src=""stim_listA/seduce2.gif""style=""height:400px;""></stim_listA>","","html-keyboard-response","189","992217","0.0-15.0-1.10","81933","List1A","white","woman","","","","null","","","","","","","","",""
"null","is being seduced by","","html-keyboard-response","190","994229","0.0-15.0-2.10","81933","List1A","white","woman","","","","null","","","","","","","","",""
"6064.5","","","survey-text","191","1000296","0.0-15.0-3.10","81933","List1A","white","woman","","","","","{""Q0"":""Mike is being seduced by Beth.""}","<img src=""stim_listA/seduce2.gif""style=""height:400px;""></stim_listA>","is being seduced by","","","","","",""
"null","<div style=""font-size:60px;"">+</div>","","html-keyboard-response","192","1000799","0.0-15.0-0.11","81933","List1A","white","woman","","","","null","","","","","","","","",""
"null","<img src=""stim_listA/shout2.gif""style=""height:400px;""></stim_listA>","","html-keyboard-response","193","1002813","0.0-15.0-1.11","81933","List1A","white","woman","","","","null","","","","","","","","",""
"null","is being shouted at by","","html-keyboard-response","194","1004827","0.0-15.0-2.11","81933","List1A","white","woman","","","","null","","","","","","","","",""
"8856.600000143051","","","survey-text","195","1013686","0.0-15.0-3.11","81933","List1A","white","woman","","","","","{""Q0"":""Mike is being shouted at by Kate.""}","<img src=""stim_listA/shout2.gif""style=""height:400px;""></stim_listA>","is being shouted at by","","","","","",""
"null","<div style=""font-size:60px;"">+</div>","","html-keyboard-response","196","1014197","0.0-15.0-0.12","81933","List1A","white","woman","","","","null","","","","","","","","",""
"null","<img src=""stim_listA/greet5.gif""style=""height:400px;""></stim_listA>","","html-keyboard-response","197","1016208","0.0-15.0-1.12","81933","List1A","white","woman","","","","null","","","","","","","","",""
"null","is greeting","","html-keyboard-response","198","1018222","0.0-15.0-2.12","81933","List1A","white","woman","","","","null","","","","","","","","",""
"4728.399999856949","","","survey-text","199","1022953","0.0-15.0-3.12","81933","List1A","white","woman","","","","","{""Q0"":""Mike is greeting Luke.""}","<img src=""stim_listA/greet5.gif""style=""height:400px;""></stim_listA>","is greeting","","","","","",""
"null","<div style=""font-size:60px;"">+</div>","","html-keyboard-response","200","1023468","0.0-15.0-0.13","81933","List1A","white","woman","","","","null","","","","","","","","",""
"null","<img src=""stim_listA/shout3.gif""style=""height:400px;""></stim_listA>","","html-keyboard-response","201","1025481","0.0-15.0-1.13","81933","List1A","white","woman","","","","null","","","","","","","","",""
"null","is shouting at","","html-keyboard-response","202","1027482","0.0-15.0-2.13","81933","List1A","white","woman","","","","null","","","","","","","","",""
"5187.299999952316","","","survey-text","203","1032672","0.0-15.0-3.13","81933","List1A","white","woman","","","","","{""Q0"":""Luke is shouting at Ruth.""}","<img src=""stim_listA/shout3.gif""style=""height:400px;""></stim_listA>","is shouting at","","","","","",""
"null","<div style=""font-size:60px;"">+</div>","","html-keyboard-response","204","1033182","0.0-15.0-0.14","81933","List1A","white","woman","","","","null","","","","","","","","",""
"null","<img src=""stim_listA/seduce4.gif""style=""height:400px;""></stim_listA>","","html-keyboard-response","205","1035195","0.0-15.0-1.14","81933","List1A","white","woman","","","","null","","","","","","","","",""
"null","is being seduced by","","html-keyboard-response","206","1037198","0.0-15.0-2.14","81933","List1A","white","woman","","","","null","","","","","","","","",""
"8062","","","survey-text","207","1045261","0.0-15.0-3.14","81933","List1A","white","woman","","","","","{""Q0"":""Dave is being seduced by Ruth.""}","<img src=""stim_listA/seduce4.gif""style=""height:400px;""></stim_listA>","is being seduced by","","","","","",""
"null","<div style=""font-size:60px;"">+</div>","","html-keyboard-response","208","1045773","0.0-15.0-0.15","81933","List1A","white","woman","","","","null","","","","","","","","",""
"null","<img src=""stim_listA/seduce8.gif""style=""height:400px;""></stim_listA>","","html-keyboard-response","209","1047783","0.0-15.0-1.15","81933","List1A","white","woman","","","","null","","","","","","","","",""
"null","is being seduced by","","html-keyboard-response","210","1049787","0.0-15.0-2.15","81933","List1A","white","woman","","","","null","","","","","","","","",""
"8232.699999809265","","","survey-text","211","1058022","0.0-15.0-3.15","81933","List1A","white","woman","","","","","{""Q0"":""Kate is being seduced by Ruth.""}","<img src=""stim_listA/seduce8.gif""style=""height:400px;""></stim_listA>","is being seduced by","","","","","",""
"null","<div style=""font-size:60px;"">+</div>","","html-keyboard-response","212","1058537","0.0-15.0-0.16","81933","List1A","white","woman","","","","null","","","","","","","","",""
"null","<img src=""stim_listA/look2.gif""style=""height:400px;""></stim_listA>","","html-keyboard-response","213","1060549","0.0-15.0-1.16","81933","List1A","white","woman","","","","null","","","","","","","","",""
"null","is being looked at by","","html-keyboard-response","214","1062555","0.0-15.0-2.16","81933","List1A","white","woman","","","","null","","","","","","","","",""
"11763.799999952316","","","survey-text","215","1074323","0.0-15.0-3.16","81933","List1A","white","woman","","","","","{""Q0"":""Mike is being looked at by Kate.""}","<img src=""stim_listA/look2.gif""style=""height:400px;""></stim_listA>","is being looked at by","","","","","",""
"null","<div style=""font-size:60px;"">+</div>","","html-keyboard-response","216","1074840","0.0-15.0-0.17","81933","List1A","white","woman","","","","null","","","","","","","","",""
"null","<img src=""stim_listA/look1.gif""style=""height:400px;""></stim_listA>","","html-keyboard-response","217","1076853","0.0-15.0-1.17","81933","List1A","white","woman","","","","null","","","","","","","","",""
"null","is looking at","","html-keyboard-response","218","1078867","0.0-15.0-2.17","81933","List1A","white","woman","","","","null","","","","","","","","",""
"4392.900000095367","","","survey-text","219","1083263","0.0-15.0-3.17","81933","List1A","white","woman","","","","","{""Q0"":""Fred is looking at Beth.""}","<img src=""stim_listA/look1.gif""style=""height:400px;""></stim_listA>","is looking at","","","","","",""
"null","<div style=""font-size:60px;"">+</div>","","html-keyboard-response","220","1083774","0.0-15.0-0.18","81933","List1A","white","woman","","","","null","","","","","","","","",""
"null","<img src=""stim_listA/shout7.gif""style=""height:400px;""></stim_listA>","","html-keyboard-response","221","1085786","0.0-15.0-1.18","81933","List1A","white","woman","","","","null","","","","","","","","",""
"null","is shouting at","","html-keyboard-response","222","1087800","0.0-15.0-2.18","81933","List1A","white","woman","","","","null","","","","","","","","",""
"4740.399999856949","","","survey-text","223","1092544","0.0-15.0-3.18","81933","List1A","white","woman","","","","","{""Q0"":""Beth is shouting at Ruth.""}","<img src=""stim_listA/shout7.gif""style=""height:400px;""></stim_listA>","is shouting at","","","","","",""
"null","<div style=""font-size:60px;"">+</div>","","html-keyboard-response","224","1093052","0.0-15.0-0.19","81933","List1A","white","woman","","","","null","","","","","","","","",""
"null","<img src=""stim_listA/touch7.gif""style=""height:400px;""></stim_listA>","","html-keyboard-response","225","1095066","0.0-15.0-1.19","81933","List1A","white","woman","","","","null","","","","","","","","",""
"null","is touching","","html-keyboard-response","226","1097079","0.0-15.0-2.19","81933","List1A","white","woman","","","","null","","","","","","","","",""
"4203.200000047684","","","survey-text","227","1101285","0.0-15.0-3.19","81933","List1A","white","woman","","","","","{""Q0"":""Kate is touching Jane.""}","<img src=""stim_listA/touch7.gif""style=""height:400px;""></stim_listA>","is touching","","","","","",""
"24412.800000190735","<img src='img/portrait_matrix_list1.jpg' style='width:900px;height:500px;''></img><p>If you have memorised all the portraits and names and are ready to start, press Continue.</p><p><strong>Please note: Your memory of these faces will be tested 4 times during this experiment.</strong></p>","0","html-button-response","228","1125699","0.0-16.0-0.0","81933","List1A","white","woman","","","","","","","","","","","","",""
"2981.399999856949","<img src=""portrait/BW1.jpg""style=""height:400px;""></img>","0","html-button-response","229","1129686","0.0-16.0-1.0","81933","List1A","white","woman","","true","0","","","","","","","","","",""
"null","CORRECT","","html-keyboard-response","230","1131191","0.0-16.0-2.0-0.0","81933","List1A","white","woman","","","","null","","","","","","","","",""
"2973.2000000476837","<img src=""portrait/WM2.jpg""style=""height:400px;""></img>","7","html-button-response","231","1134165","0.0-16.0-4.0","81933","List1A","white","woman","","true","7","","","","","","","","","",""
"null","CORRECT","","html-keyboard-response","232","1135686","0.0-16.0-5.0-0.0","81933","List1A","white","woman","","","","null","","","","","","","","",""
"2032.5","<img src=""portrait/BM1.jpg""style=""height:400px;""></img>","4","html-button-response","233","1137721","0.0-16.0-7.0","81933","List1A","white","woman","","true","4","","","","","","","","","",""
"null","CORRECT","","html-keyboard-response","234","1139226","0.0-16.0-8.0-0.0","81933","List1A","white","woman","","","","null","","","","","","","","",""
"2623.4000000953674","<img src=""portrait/BW2.jpg""style=""height:400px;""></img>","2","html-button-response","235","1141851","0.0-16.0-10.0","81933","List1A","white","woman","","true","2","","","","","","","","","",""
"null","CORRECT","","html-keyboard-response","236","1143357","0.0-16.0-11.0-0.0","81933","List1A","white","woman","","","","null","","","","","","","","",""
"2809.899999856949","<img src=""portrait/WM1.jpg""style=""height:400px;""></img>","6","html-button-response","237","1146169","0.0-16.0-13.0","81933","List1A","white","woman","","true","6","","","","","","","","","",""
"null","CORRECT","","html-keyboard-response","238","1147674","0.0-16.0-14.0-0.0","81933","List1A","white","woman","","","","null","","","","","","","","",""
"2197","<img src=""portrait/BM2.jpg""style=""height:400px;""></img>","5","html-button-response","239","1149872","0.0-16.0-16.0","81933","List1A","white","woman","","true","5","","","","","","","","","",""
"null","CORRECT","","html-keyboard-response","240","1151380","0.0-16.0-17.0-0.0","81933","List1A","white","woman","","","","null","","","","","","","","",""
"2539.7999999523163","<img src=""portrait/WW1.jpg""style=""height:400px;""></img>","1","html-button-response","241","1153922","0.0-16.0-19.0","81933","List1A","white","woman","","true","1","","","","","","","","","",""
"null","CORRECT","","html-keyboard-response","242","1155436","0.0-16.0-20.0-0.0","81933","List1A","white","woman","","","","null","","","","","","","","",""
"2170.9000000953674","<img src=""portrait/WW2.jpg""style=""height:400px;""></img>","3","html-button-response","243","1157609","0.0-16.0-22.0","81933","List1A","white","woman","","true","3","","","","","","","","","",""
"null","CORRECT","","html-keyboard-response","244","1159114","0.0-16.0-23.0-0.0","81933","List1A","white","woman","","","","null","","","","","","","","",""
"4614.200000047684","<p>You got 8 out of 8 right first time. Press Continue.</p>","0","html-button-response","245","1163729","0.0-16.0-25.0","81933","List1A","white","woman","","","","","","","","","","","","",""
"null","<div style=""font-size:60px;"">+</div>","","html-keyboard-response","246","1165231","0.0-17.0-0.0","81933","List1A","white","woman","","","","null","","","","","","","","",""
"null","<img src=""stim_listA/hug7.gif""style=""height:400px;""></stim_listA>","","html-keyboard-response","247","1167236","0.0-17.0-1.0","81933","List1A","white","woman","","","","null","","","","","","","","",""
"null","is hugging","","html-keyboard-response","248","1169240","0.0-17.0-2.0","81933","List1A","white","woman","","","","null","","","","","","","","",""
"5341.5","","","survey-text","249","1174583","0.0-17.0-3.0","81933","List1A","white","woman","","","","","{""Q0"":""Beth is hugging Ruth.""}","<img src=""stim_listA/hug7.gif""style=""height:400px;""></stim_listA>","is hugging","","","","","",""
"null","<div style=""font-size:60px;"">+</div>","","html-keyboard-response","250","1175093","0.0-17.0-0.1","81933","List1A","white","woman","","","","null","","","","","","","","",""
"null","<img src=""stim_listA/copy2.gif""style=""height:400px;""></stim_listA>","","html-keyboard-response","251","1177108","0.0-17.0-1.1","81933","List1A","white","woman","","","","null","","","","","","","","",""
"null","is being copied by","","html-keyboard-response","252","1179115","0.0-17.0-2.1","81933","List1A","white","woman","","","","null","","","","","","","","",""
"7892.799999952316","","","survey-text","253","1187010","0.0-17.0-3.1","81933","List1A","white","woman","","","","","{""Q0"":""Fred is being copied by Jane.""}","<img src=""stim_listA/copy2.gif""style=""height:400px;""></stim_listA>","is being copied by","","","","","",""
"null","<div style=""font-size:60px;"">+</div>","","html-keyboard-response","254","1187525","0.0-17.0-0.2","81933","List1A","white","woman","","","","null","","","","","","","","",""
"null","<img src=""stim_listA/touch8.gif""style=""height:400px;""></stim_listA>","","html-keyboard-response","255","1189535","0.0-17.0-1.2","81933","List1A","white","woman","","","","null","","","","","","","","",""
"null","is being touched by","","html-keyboard-response","256","1191538","0.0-17.0-2.2","81933","List1A","white","woman","","","","null","","","","","","","","",""
"6909.5","","","survey-text","257","1198449","0.0-17.0-3.2","81933","List1A","white","woman","","","","","{""Q0"":""Ruth is being touched by Beth.""}","<img src=""stim_listA/touch8.gif""style=""height:400px;""></stim_listA>","is being touched by","","","","","",""
"null","<div style=""font-size:60px;"">+</div>","","html-keyboard-response","258","1198965","0.0-17.0-0.3","81933","List1A","white","woman","","","","null","","","","","","","","",""
"null","<img src=""stim_listA/hug5.gif""style=""height:400px;""></stim_listA>","","html-keyboard-response","259","1200970","0.0-17.0-1.3","81933","List1A","white","woman","","","","null","","","","","","","","",""
"null","is hugging","","html-keyboard-response","260","1202983","0.0-17.0-2.3","81933","List1A","white","woman","","","","null","","","","","","","","",""
"5836.700000047684","","","survey-text","261","1208822","0.0-17.0-3.3","81933","List1A","white","woman","","","","","{""Q0"":""Fred is hugging Luke.""}","<img src=""stim_listA/hug5.gif""style=""height:400px;""></stim_listA>","is hugging","","","","","",""
"null","<div style=""font-size:60px;"">+</div>","","html-keyboard-response","262","1209334","0.0-17.0-0.4","81933","List1A","white","woman","","","","null","","","","","","","","",""
"null","<img src=""stim_listA/kiss8.gif""style=""height:400px;""></stim_listA>","","html-keyboard-response","263","1211341","0.0-17.0-1.4","81933","List1A","white","woman","","","","null","","","","","","","","",""
"null","is being kissed by","","html-keyboard-response","264","1213345","0.0-17.0-2.4","81933","List1A","white","woman","","","","null","","","","","","","","",""
"5755","","","survey-text","265","1219102","0.0-17.0-3.4","81933","List1A","white","woman","","","","","{""Q0"":""Jane is being kissed by Kate.""}","<img src=""stim_listA/kiss8.gif""style=""height:400px;""></stim_listA>","is being kissed by","","","","","",""
"null","<div style=""font-size:60px;"">+</div>","","html-keyboard-response","266","1219629","0.0-17.0-0.5","81933","List1A","white","woman","","","","null","","","","","","","","",""
"null","<img src=""stim_listA/look4.gif""style=""height:400px;""></stim_listA>","","html-keyboard-response","267","1221638","0.0-17.0-1.5","81933","List1A","white","woman","","","","null","","","","","","","","",""
"null","is being looked at by","","html-keyboard-response","268","1223645","0.0-17.0-2.5","81933","List1A","white","woman","","","","null","","","","","","","","",""
"6563.900000095367","","","survey-text","269","1230211","0.0-17.0-3.5","81933","List1A","white","woman","","","","","{""Q0"":""Dave is being looked at by Jane.""}","<img src=""stim_listA/look4.gif""style=""height:400px;""></stim_listA>","is being looked at by","","","","","",""
"null","<div style=""font-size:60px;"">+</div>","","html-keyboard-response","270","1230721","0.0-17.0-0.6","81933","List1A","white","woman","","","","null","","","","","","","","",""
"null","<img src=""stim_listA/shout1.gif""style=""height:400px;""></stim_listA>","","html-keyboard-response","271","1232730","0.0-17.0-1.6","81933","List1A","white","woman","","","","null","","","","","","","","",""
"null","is shouting at","","html-keyboard-response","272","1234739","0.0-17.0-2.6","81933","List1A","white","woman","","","","null","","","","","","","","",""
"14204.5","","","survey-text","273","1248947","0.0-17.0-3.6","81933","List1A","white","woman","","","","","{""Q0"":""Beth is shouting at Fred.""}","<img src=""stim_listA/shout1.gif""style=""height:400px;""></stim_listA>","is shouting at","","","","","",""
"null","<div style=""font-size:60px;"">+</div>","","html-keyboard-response","274","1249458","0.0-17.0-0.7","81933","List1A","white","woman","","","","null","","","","","","","","",""
"null","<img src=""stim_listA/challenge3.gif""style=""height:400px;""></stim_listA>","","html-keyboard-response","275","1251464","0.0-17.0-1.7","81933","List1A","white","woman","","","","null","","","","","","","","",""
"null","is challenging","","html-keyboard-response","276","1253476","0.0-17.0-2.7","81933","List1A","white","woman","","","","null","","","","","","","","",""
"4884.5","","","survey-text","277","1258363","0.0-17.0-3.7","81933","List1A","white","woman","","","","","{""Q0"":""Dave is challenging Ruth.""}","<img src=""stim_listA/challenge3.gif""style=""height:400px;""></stim_listA>","is challenging","","","","","",""
"null","<div style=""font-size:60px;"">+</div>","","html-keyboard-response","278","1258869","0.0-17.0-0.8","81933","List1A","white","woman","","","","null","","","","","","","","",""
"null","<img src=""stim_listA/challenge6.gif""style=""height:400px;""></stim_listA>","","html-keyboard-response","279","1260880","0.0-17.0-1.8","81933","List1A","white","woman","","","","null","","","","","","","","",""
"null","is being challenged by","","html-keyboard-response","280","1262892","0.0-17.0-2.8","81933","List1A","white","woman","","","","null","","","","","","","","",""
"5824.200000047684","","","survey-text","281","1268719","0.0-17.0-3.8","81933","List1A","white","woman","","","","","{""Q0"":""Dave is being challenged by Fred.""}","<img src=""stim_listA/challenge6.gif""style=""height:400px;""></stim_listA>","is being challenged by","","","","","",""
"null","<div style=""font-size:60px;"">+</div>","","html-keyboard-response","282","1269229","0.0-17.0-0.9","81933","List1A","white","woman","","","","null","","","","","","","","",""
"null","<img src=""stim_listA/touch5.gif""style=""height:400px;""></stim_listA>","","html-keyboard-response","283","1271240","0.0-17.0-1.9","81933","List1A","white","woman","","","","null","","","","","","","","",""
"null","is touching","","html-keyboard-response","284","1273253","0.0-17.0-2.9","81933","List1A","white","woman","","","","null","","","","","","","","",""
"6268.099999904633","","","survey-text","285","1279523","0.0-17.0-3.9","81933","List1A","white","woman","","","","","{""Q0"":""Mike is touching Dave.""}","<img src=""stim_listA/touch5.gif""style=""height:400px;""></stim_listA>","is touching","","","","","",""
"null","<div style=""font-size:60px;"">+</div>","","html-keyboard-response","286","1280029","0.0-17.0-0.10","81933","List1A","white","woman","","","","null","","","","","","","","",""
"null","<img src=""stim_listA/oppose2.gif""style=""height:400px;""></stim_listA>","","html-keyboard-response","287","1282045","0.0-17.0-1.10","81933","List1A","white","woman","","","","null","","","","","","","","",""
"null","is being opposed by","","html-keyboard-response","288","1284056","0.0-17.0-2.10","81933","List1A","white","woman","","","","null","","","","","","","","",""
"6878.200000047684","","","survey-text","289","1290938","0.0-17.0-3.10","81933","List1A","white","woman","","","","","{""Q0"":""Fred is being opposed by Beth.""}","<img src=""stim_listA/oppose2.gif""style=""height:400px;""></stim_listA>","is being opposed by","","","","","",""
"null","<div style=""font-size:60px;"">+</div>","","html-keyboard-response","290","1291448","0.0-17.0-0.11","81933","List1A","white","woman","","","","null","","","","","","","","",""
"null","<img src=""stim_listA/challenge2.gif""style=""height:400px;""></stim_listA>","","html-keyboard-response","291","1293458","0.0-17.0-1.11","81933","List1A","white","woman","","","","null","","","","","","","","",""
"null","is being challenged by","","html-keyboard-response","292","1295469","0.0-17.0-2.11","81933","List1A","white","woman","","","","null","","","","","","","","",""
"5915.700000047684","","","survey-text","293","1301387","0.0-17.0-3.11","81933","List1A","white","woman","","","","","{""Q0"":""Fred is being challenged by Kate.""}","<img src=""stim_listA/challenge2.gif""style=""height:400px;""></stim_listA>","is being challenged by","","","","","",""
"null","<div style=""font-size:60px;"">+</div>","","html-keyboard-response","294","1301901","0.0-17.0-0.12","81933","List1A","white","woman","","","","null","","","","","","","","",""
"null","<img src=""stim_listA/seduce5.gif""style=""height:400px;""></stim_listA>","","html-keyboard-response","295","1303912","0.0-17.0-1.12","81933","List1A","white","woman","","","","null","","","","","","","","",""
"null","is seducing","","html-keyboard-response","296","1305925","0.0-17.0-2.12","81933","List1A","white","woman","","","","null","","","","","","","","",""
"5794.700000047684","","","survey-text","297","1311723","0.0-17.0-3.12","81933","List1A","white","woman","","","","","{""Q0"":""Fred is seducing Dave.""}","<img src=""stim_listA/seduce5.gif""style=""height:400px;""></stim_listA>","is seducing","","","","","",""
"null","<div style=""font-size:60px;"">+</div>","","html-keyboard-response","298","1312237","0.0-17.0-0.13","81933","List1A","white","woman","","","","null","","","","","","","","",""
"null","<img src=""stim_listA/kiss3.gif""style=""height:400px;""></stim_listA>","","html-keyboard-response","299","1314243","0.0-17.0-1.13","81933","List1A","white","woman","","","","null","","","","","","","","",""
"null","is kissing","","html-keyboard-response","300","1316258","0.0-17.0-2.13","81933","List1A","white","woman","","","","null","","","","","","","","",""
"6010.299999952316","","","survey-text","301","1322271","0.0-17.0-3.13","81933","List1A","white","woman","","","","","{""Q0"":""Luke is kissing Ruth.""}","<img src=""stim_listA/kiss3.gif""style=""height:400px;""></stim_listA>","is kissing","","","","","",""
"null","<div style=""font-size:60px;"">+</div>","","html-keyboard-response","302","1322783","0.0-17.0-0.14","81933","List1A","white","woman","","","","null","","","","","","","","",""
"null","<img src=""stim_listA/hug1.gif""style=""height:400px;""></stim_listA>","","html-keyboard-response","303","1324796","0.0-17.0-1.14","81933","List1A","white","woman","","","","null","","","","","","","","",""
"null","is hugging","","html-keyboard-response","304","1326809","0.0-17.0-2.14","81933","List1A","white","woman","","","","null","","","","","","","","",""
"4218.799999952316","","","survey-text","305","1331030","0.0-17.0-3.14","81933","List1A","white","woman","","","","","{""Q0"":""Fred is hugging Beth.""}","<img src=""stim_listA/hug1.gif""style=""height:400px;""></stim_listA>","is hugging","","","","","",""
"null","<div style=""font-size:60px;"">+</div>","","html-keyboard-response","306","1331537","0.0-17.0-0.15","81933","List1A","white","woman","","","","null","","","","","","","","",""
"null","<img src=""stim_listA/challenge8.gif""style=""height:400px;""></stim_listA>","","html-keyboard-response","307","1333552","0.0-17.0-1.15","81933","List1A","white","woman","","","","null","","","","","","","","",""
"null","is being challenged by","","html-keyboard-response","308","1335566","0.0-17.0-2.15","81933","List1A","white","woman","","","","null","","","","","","","","",""
"9298.199999809265","","","survey-text","309","1344865","0.0-17.0-3.15","81933","List1A","white","woman","","","","","{""Q0"":""Beth is being challenged by Jane.""}","<img src=""stim_listA/challenge8.gif""style=""height:400px;""></stim_listA>","is being challenged by","","","","","",""
"null","<div style=""font-size:60px;"">+</div>","","html-keyboard-response","310","1345377","0.0-17.0-0.16","81933","List1A","white","woman","","","","null","","","","","","","","",""
"null","<img src=""stim_listA/seduce6.gif""style=""height:400px;""></stim_listA>","","html-keyboard-response","311","1347390","0.0-17.0-1.16","81933","List1A","white","woman","","","","null","","","","","","","","",""
"null","is being seduced by","","html-keyboard-response","312","1349401","0.0-17.0-2.16","81933","List1A","white","woman","","","","null","","","","","","","","",""
"6282.900000095367","","","survey-text","313","1355685","0.0-17.0-3.16","81933","List1A","white","woman","","","","","{""Q0"":""Luke is being seduced by Mike.""}","<img src=""stim_listA/seduce6.gif""style=""height:400px;""></stim_listA>","is being seduced by","","","","","",""
"null","<div style=""font-size:60px;"">+</div>","","html-keyboard-response","314","1356194","0.0-17.0-0.17","81933","List1A","white","woman","","","","null","","","","","","","","",""
"null","<img src=""stim_listA/copy5.gif""style=""height:400px;""></stim_listA>","","html-keyboard-response","315","1358206","0.0-17.0-1.17","81933","List1A","white","woman","","","","null","","","","","","","","",""
"null","is copying","","html-keyboard-response","316","1360221","0.0-17.0-2.17","81933","List1A","white","woman","","","","null","","","","","","","","",""
"6017.299999952316","","","survey-text","317","1366236","0.0-17.0-3.17","81933","List1A","white","woman","","","","","{""Q0"":""Mike is copying Luke.""}","<img src=""stim_listA/copy5.gif""style=""height:400px;""></stim_listA>","is copying","","","","","",""
"null","<div style=""font-size:60px;"">+</div>","","html-keyboard-response","318","1366739","0.0-17.0-0.18","81933","List1A","white","woman","","","","null","","","","","","","","",""
"null","<img src=""stim_listA/hug2.gif""style=""height:400px;""></stim_listA>","","html-keyboard-response","319","1368754","0.0-17.0-1.18","81933","List1A","white","woman","","","","null","","","","","","","","",""
"null","is being hugged by","","html-keyboard-response","320","1370772","0.0-17.0-2.18","81933","List1A","white","woman","","","","null","","","","","","","","",""
"7860.400000095367","","","survey-text","321","1378636","0.0-17.0-3.18","81933","List1A","white","woman","","","","","{""Q0"":""Kate is being hugged by Mike.""}","<img src=""stim_listA/hug2.gif""style=""height:400px;""></stim_listA>","is being hugged by","","","","","",""
"null","<div style=""font-size:60px;"">+</div>","","html-keyboard-response","322","1379153","0.0-17.0-0.19","81933","List1A","white","woman","","","","null","","","","","","","","",""
"null","<img src=""stim_listA/greet7.gif""style=""height:400px;""></stim_listA>","","html-keyboard-response","323","1381167","0.0-17.0-1.19","81933","List1A","white","woman","","","","null","","","","","","","","",""
"null","is greeting","","html-keyboard-response","324","1383182","0.0-17.0-2.19","81933","List1A","white","woman","","","","null","","","","","","","","",""
"5538.799999952316","","","survey-text","325","1388723","0.0-17.0-3.19","81933","List1A","white","woman","","","","","{""Q0"":""Kate is greeting Ruth.""}","<img src=""stim_listA/greet7.gif""style=""height:400px;""></stim_listA>","is greeting","","","","","",""
"6571.200000047684","<img src='img/portrait_matrix_list1.jpg' style='width:900px;height:500px;''></img><p>If you have memorised all the portraits and names and are ready to start, press Continue.</p><p><strong>Please note: Your memory of these faces will be tested 4 times during this experiment.</strong></p>","0","html-button-response","326","1395296","0.0-18.0-0.0","81933","List1A","white","woman","","","","","","","","","","","","",""
"2631","<img src=""portrait/BM1.jpg""style=""height:400px;""></img>","4","html-button-response","327","1398935","0.0-18.0-1.0","81933","List1A","white","woman","","true","4","","","","","","","","","",""
"null","CORRECT","","html-keyboard-response","328","1400443","0.0-18.0-2.0-0.0","81933","List1A","white","woman","","","","null","","","","","","","","",""
"2866","<img src=""portrait/WW1.jpg""style=""height:400px;""></img>","1","html-button-response","329","1403312","0.0-18.0-4.0","81933","List1A","white","woman","","true","1","","","","","","","","","",""
"null","CORRECT","","html-keyboard-response","330","1404822","0.0-18.0-5.0-0.0","81933","List1A","white","woman","","","","null","","","","","","","","",""
"2917.600000143051","<img src=""portrait/BM2.jpg""style=""height:400px;""></img>","5","html-button-response","331","1407743","0.0-18.0-7.0","81933","List1A","white","woman","","true","5","","","","","","","","","",""
"null","CORRECT","","html-keyboard-response","332","1409251","0.0-18.0-8.0-0.0","81933","List1A","white","woman","","","","null","","","","","","","","",""
"2706.4000000953674","<img src=""portrait/BW1.jpg""style=""height:400px;""></img>","0","html-button-response","333","1411959","0.0-18.0-10.0","81933","List1A","white","woman","","true","0","","","","","","","","","",""
"null","CORRECT","","html-keyboard-response","334","1413463","0.0-18.0-11.0-0.0","81933","List1A","white","woman","","","","null","","","","","","","","",""
"2065.2999999523163","<img src=""portrait/WM2.jpg""style=""height:400px;""></img>","7","html-button-response","335","1415531","0.0-18.0-13.0","81933","List1A","white","woman","","true","7","","","","","","","","","",""
"null","CORRECT","","html-keyboard-response","336","1417037","0.0-18.0-14.0-0.0","81933","List1A","white","woman","","","","null","","","","","","","","",""
"2785.5","<img src=""portrait/BW2.jpg""style=""height:400px;""></img>","2","html-button-response","337","1419824","0.0-18.0-16.0","81933","List1A","white","woman","","true","2","","","","","","","","","",""
"null","CORRECT","","html-keyboard-response","338","1421327","0.0-18.0-17.0-0.0","81933","List1A","white","woman","","","","null","","","","","","","","",""
"2174","<img src=""portrait/WW2.jpg""style=""height:400px;""></img>","3","html-button-response","339","1423503","0.0-18.0-19.0","81933","List1A","white","woman","","true","3","","","","","","","","","",""
"null","CORRECT","","html-keyboard-response","340","1425011","0.0-18.0-20.0-0.0","81933","List1A","white","woman","","","","null","","","","","","","","",""
"3233.4000000953674","<img src=""portrait/WM1.jpg""style=""height:400px;""></img>","6","html-button-response","341","1428251","0.0-18.0-22.0","81933","List1A","white","woman","","true","6","","","","","","","","","",""
"null","CORRECT","","html-keyboard-response","342","1429760","0.0-18.0-23.0-0.0","81933","List1A","white","woman","","","","null","","","","","","","","",""
"2018.4000000953674","<p>You got 8 out of 8 right first time. Press Continue.</p>","0","html-button-response","343","1431780","0.0-18.0-25.0","81933","List1A","white","woman","","","","","","","","","","","","",""
"null","<div style=""font-size:60px;"">+</div>","","html-keyboard-response","344","1433318","0.0-19.0-0.0","81933","List1A","white","woman","","","","null","","","","","","","","",""
"null","<img src=""stim_listA/oppose3.gif""style=""height:400px;""></stim_listA>","","html-keyboard-response","345","1435334","0.0-19.0-1.0","81933","List1A","white","woman","","","","null","","","","","","","","",""
"null","is opposing","","html-keyboard-response","346","1437347","0.0-19.0-2.0","81933","List1A","white","woman","","","","null","","","","","","","","",""
"6511.700000047684","","","survey-text","347","1443861","0.0-19.0-3.0","81933","List1A","white","woman","","","","","{""Q0"":""Dave is opposing Jane.""}","<img src=""stim_listA/oppose3.gif""style=""height:400px;""></stim_listA>","is opposing","","","","","",""
"null","<div style=""font-size:60px;"">+</div>","","html-keyboard-response","348","1444373","0.0-19.0-0.1","81933","List1A","white","woman","","","","null","","","","","","","","",""
"null","<img src=""stim_listA/copy1.gif""style=""height:400px;""></stim_listA>","","html-keyboard-response","349","1446382","0.0-19.0-1.1","81933","List1A","white","woman","","","","null","","","","","","","","",""
"null","is copying","","html-keyboard-response","350","1448396","0.0-19.0-2.1","81933","List1A","white","woman","","","","null","","","","","","","","",""
"8227.299999952316","","","survey-text","351","1456624","0.0-19.0-3.1","81933","List1A","white","woman","","","","","{""Q0"":""Beth is copying Mike.""}","<img src=""stim_listA/copy1.gif""style=""height:400px;""></stim_listA>","is copying","","","","","",""
"null","<div style=""font-size:60px;"">+</div>","","html-keyboard-response","352","1457126","0.0-19.0-0.2","81933","List1A","white","woman","","","","null","","","","","","","","",""
"null","<img src=""stim_listA/look5.gif""style=""height:400px;""></stim_listA>","","html-keyboard-response","353","1459138","0.0-19.0-1.2","81933","List1A","white","woman","","","","null","","","","","","","","",""
"null","is looking at","","html-keyboard-response","354","1461152","0.0-19.0-2.2","81933","List1A","white","woman","","","","null","","","","","","","","",""
"5796.099999904633","","","survey-text","355","1466951","0.0-19.0-3.2","81933","List1A","white","woman","","","","","{""Q0"":""Fred is looking at Luke.""}","<img src=""stim_listA/look5.gif""style=""height:400px;""></stim_listA>","is looking at","","","","","",""
"null","<div style=""font-size:60px;"">+</div>","","html-keyboard-response","356","1467457","0.0-19.0-0.3","81933","List1A","white","woman","","","","null","","","","","","","","",""
"null","<img src=""stim_listA/kiss4.gif""style=""height:400px;""></stim_listA>","","html-keyboard-response","357","1469470","0.0-19.0-1.3","81933","List1A","white","woman","","","","null","","","","","","","","",""
"null","is being kissed by","","html-keyboard-response","358","1471476","0.0-19.0-2.3","81933","List1A","white","woman","","","","null","","","","","","","","",""
"5718.400000095367","","","survey-text","359","1477196","0.0-19.0-3.3","81933","List1A","white","woman","","","","","{""Q0"":""Jane is being kissed by Dave.""}","<img src=""stim_listA/kiss4.gif""style=""height:400px;""></stim_listA>","is being kissed by","","","","","",""
"null","<div style=""font-size:60px;"">+</div>","","html-keyboard-response","360","1477702","0.0-19.0-0.4","81933","List1A","white","woman","","","","null","","","","","","","","",""
"null","<img src=""stim_listA/shout6.gif""style=""height:400px;""></stim_listA>","","html-keyboard-response","361","1479716","0.0-19.0-1.4","81933","List1A","white","woman","","","","null","","","","","","","","",""
"null","is being shouted at by","","html-keyboard-response","362","1481732","0.0-19.0-2.4","81933","List1A","white","woman","","","","null","","","","","","","","",""
"11596.5","","","survey-text","363","1493330","0.0-19.0-3.4","81933","List1A","white","woman","","","","","{""Q0"":""Mike is being shouted at by Dave.""}","<img src=""stim_listA/shout6.gif""style=""height:400px;""></stim_listA>","is being shouted at by","","","","","",""
"null","<div style=""font-size:60px;"">+</div>","","html-keyboard-response","364","1493838","0.0-19.0-0.5","81933","List1A","white","woman","","","","null","","","","","","","","",""
"null","<img src=""stim_listA/oppose7.gif""style=""height:400px;""></stim_listA>","","html-keyboard-response","365","1495848","0.0-19.0-1.5","81933","List1A","white","woman","","","","null","","","","","","","","",""
"null","is opposing","","html-keyboard-response","366","1497864","0.0-19.0-2.5","81933","List1A","white","woman","","","","null","","","","","","","","",""
"5269.400000095367","","","survey-text","367","1503136","0.0-19.0-3.5","81933","List1A","white","woman","","","","","{""Q0"":""Kate is opposing Jane.""}","<img src=""stim_listA/oppose7.gif""style=""height:400px;""></stim_listA>","is opposing","","","","","",""
"null","<div style=""font-size:60px;"">+</div>","","html-keyboard-response","368","1503651","0.0-19.0-0.6","81933","List1A","white","woman","","","","null","","","","","","","","",""
"null","<img src=""stim_listA/oppose5.gif""style=""height:400px;""></stim_listA>","","html-keyboard-response","369","1505665","0.0-19.0-1.6","81933","List1A","white","woman","","","","null","","","","","","","","",""
"null","is opposing","","html-keyboard-response","370","1507678","0.0-19.0-2.6","81933","List1A","white","woman","","","","null","","","","","","","","",""
"5233.299999952316","","","survey-text","371","1512915","0.0-19.0-3.6","81933","List1A","white","woman","","","","","{""Q0"":""Mike is opposing Dave.""}","<img src=""stim_listA/oppose5.gif""style=""height:400px;""></stim_listA>","is opposing","","","","","",""
"null","<div style=""font-size:60px;"">+</div>","","html-keyboard-response","372","1513443","0.0-19.0-0.7","81933","List1A","white","woman","","","","null","","","","","","","","",""
"null","<img src=""stim_listA/touch2.gif""style=""height:400px;""></stim_listA>","","html-keyboard-response","373","1515459","0.0-19.0-1.7","81933","List1A","white","woman","","","","null","","","","","","","","",""
"null","is being touched by","","html-keyboard-response","374","1517475","0.0-19.0-2.7","81933","List1A","white","woman","","","","null","","","","","","","","",""
"5615.699999809265","","","survey-text","375","1523094","0.0-19.0-3.7","81933","List1A","white","woman","","","","","{""Q0"":""Beth is being touched by Fred.""}","<img src=""stim_listA/touch2.gif""style=""height:400px;""></stim_listA>","is being touched by","","","","","",""
"null","<div style=""font-size:60px;"">+</div>","","html-keyboard-response","376","1523607","0.0-19.0-0.8","81933","List1A","white","woman","","","","null","","","","","","","","",""
"null","<img src=""stim_listA/touch3.gif""style=""height:400px;""></stim_listA>","","html-keyboard-response","377","1525619","0.0-19.0-1.8","81933","List1A","white","woman","","","","null","","","","","","","","",""
"null","is touching","","html-keyboard-response","378","1527622","0.0-19.0-2.8","81933","List1A","white","woman","","","","null","","","","","","","","",""
"4127.099999904633","","","survey-text","379","1531752","0.0-19.0-3.8","81933","List1A","white","woman","","","","","{""Q0"":""Dave is touching Jane.""}","<img src=""stim_listA/touch3.gif""style=""height:400px;""></stim_listA>","is touching","","","","","",""
"null","<div style=""font-size:60px;"">+</div>","","html-keyboard-response","380","1532268","0.0-19.0-0.9","81933","List1A","white","woman","","","","null","","","","","","","","",""
"null","<img src=""stim_listA/copy8.gif""style=""height:400px;""></stim_listA>","","html-keyboard-response","381","1534272","0.0-19.0-1.9","81933","List1A","white","woman","","","","null","","","","","","","","",""
"null","is being copied by","","html-keyboard-response","382","1536289","0.0-19.0-2.9","81933","List1A","white","woman","","","","null","","","","","","","","",""
"6474.5","","","survey-text","383","1542766","0.0-19.0-3.9","81933","List1A","white","woman","","","","","{""Q0"":""Jane is being copied by Beth.""}","<img src=""stim_listA/copy8.gif""style=""height:400px;""></stim_listA>","is being copied by","","","","","",""
"null","<div style=""font-size:60px;"">+</div>","","html-keyboard-response","384","1543275","0.0-19.0-0.10","81933","List1A","white","woman","","","","null","","","","","","","","",""
"null","<img src=""stim_listA/touch4.gif""style=""height:400px;""></stim_listA>","","html-keyboard-response","385","1545287","0.0-19.0-1.10","81933","List1A","white","woman","","","","null","","","","","","","","",""
"null","is being touched by","","html-keyboard-response","386","1547303","0.0-19.0-2.10","81933","List1A","white","woman","","","","null","","","","","","","","",""
"6137.599999904633","","","survey-text","387","1553443","0.0-19.0-3.10","81933","List1A","white","woman","","","","","{""Q0"":""Ruth is touching Luke.""}","<img src=""stim_listA/touch4.gif""style=""height:400px;""></stim_listA>","is being touched by","","","","","",""
"null","<div style=""font-size:60px;"">+</div>","","html-keyboard-response","388","1553959","0.0-19.0-0.11","81933","List1A","white","woman","","","","null","","","","","","","","",""
"null","<img src=""stim_listA/copy7.gif""style=""height:400px;""></stim_listA>","","html-keyboard-response","389","1555963","0.0-19.0-1.11","81933","List1A","white","woman","","","","null","","","","","","","","",""
"null","is copying","","html-keyboard-response","390","1557968","0.0-19.0-2.11","81933","List1A","white","woman","","","","null","","","","","","","","",""
"5179.5","","","survey-text","391","1563150","0.0-19.0-3.11","81933","List1A","white","woman","","","","","{""Q0"":""Kate is copying Ruth.""}","<img src=""stim_listA/copy7.gif""style=""height:400px;""></stim_listA>","is copying","","","","","",""
"null","<div style=""font-size:60px;"">+</div>","","html-keyboard-response","392","1563661","0.0-19.0-0.12","81933","List1A","white","woman","","","","null","","","","","","","","",""
"null","<img src=""stim_listA/oppose1.gif""style=""height:400px;""></stim_listA>","","html-keyboard-response","393","1565693","0.0-19.0-1.12","81933","List1A","white","woman","","","","null","","","","","","","","",""
"null","is opposing","","html-keyboard-response","394","1567699","0.0-19.0-2.12","81933","List1A","white","woman","","","","null","","","","","","","","",""
"5346.400000095367","","","survey-text","395","1573048","0.0-19.0-3.12","81933","List1A","white","woman","","","","","{""Q0"":""Mike is opposing Kate.""}","<img src=""stim_listA/oppose1.gif""style=""height:400px;""></stim_listA>","is opposing","","","","","",""
"null","<div style=""font-size:60px;"">+</div>","","html-keyboard-response","396","1573561","0.0-19.0-0.13","81933","List1A","white","woman","","","","null","","","","","","","","",""
"null","<img src=""stim_listA/touch6.gif""style=""height:400px;""></stim_listA>","","html-keyboard-response","397","1575575","0.0-19.0-1.13","81933","List1A","white","woman","","","","null","","","","","","","","",""
"null","is being touched by","","html-keyboard-response","398","1577587","0.0-19.0-2.13","81933","List1A","white","woman","","","","null","","","","","","","","",""
"5794","","","survey-text","399","1583383","0.0-19.0-3.13","81933","List1A","white","woman","","","","","{""Q0"":""Fred is being touched by Luke.""}","<img src=""stim_listA/touch6.gif""style=""height:400px;""></stim_listA>","is being touched by","","","","","",""
"null","<div style=""font-size:60px;"">+</div>","","html-keyboard-response","400","1583898","0.0-19.0-0.14","81933","List1A","white","woman","","","","null","","","","","","","","",""
"null","<img src=""stim_listA/shout5.gif""style=""height:400px;""></stim_listA>","","html-keyboard-response","401","1585911","0.0-19.0-1.14","81933","List1A","white","woman","","","","null","","","","","","","","",""
"null","is shouting at","","html-keyboard-response","402","1587923","0.0-19.0-2.14","81933","List1A","white","woman","","","","null","","","","","","","","",""
"5354.400000095367","","","survey-text","403","1593280","0.0-19.0-3.14","81933","List1A","white","woman","","","","","{""Q0"":""Fred is shouting at Luke.""}","<img src=""stim_listA/shout5.gif""style=""height:400px;""></stim_listA>","is shouting at","","","","","",""
"null","<div style=""font-size:60px;"">+</div>","","html-keyboard-response","404","1593793","0.0-19.0-0.15","81933","List1A","white","woman","","","","null","","","","","","","","",""
"null","<img src=""stim_listA/greet3.gif""style=""height:400px;""></stim_listA>","","html-keyboard-response","405","1595809","0.0-19.0-1.15","81933","List1A","white","woman","","","","null","","","","","","","","",""
"null","is greeting","","html-keyboard-response","406","1597825","0.0-19.0-2.15","81933","List1A","white","woman","","","","null","","","","","","","","",""
"5876.200000047684","","","survey-text","407","1603704","0.0-19.0-3.15","81933","List1A","white","woman","","","","","{""Q0"":""Dave is greeting Ruth.""}","<img src=""stim_listA/greet3.gif""style=""height:400px;""></stim_listA>","is greeting","","","","","",""
"null","<div style=""font-size:60px;"">+</div>","","html-keyboard-response","408","1604215","0.0-19.0-0.16","81933","List1A","white","woman","","","","null","","","","","","","","",""
"null","<img src=""stim_listA/shout4.gif""style=""height:400px;""></stim_listA>","","html-keyboard-response","409","1606228","0.0-19.0-1.16","81933","List1A","white","woman","","","","null","","","","","","","","",""
"null","is being shouted at by","","html-keyboard-response","410","1608239","0.0-19.0-2.16","81933","List1A","white","woman","","","","null","","","","","","","","",""
"7419.799999952316","","","survey-text","411","1615661","0.0-19.0-3.16","81933","List1A","white","woman","","","","","{""Q0"":""Dave is being shouted at by Jane.""}","<img src=""stim_listA/shout4.gif""style=""height:400px;""></stim_listA>","is being shouted at by","","","","","",""
"null","<div style=""font-size:60px;"">+</div>","","html-keyboard-response","412","1616168","0.0-19.0-0.17","81933","List1A","white","woman","","","","null","","","","","","","","",""
"null","<img src=""stim_listA/challenge5.gif""style=""height:400px;""></stim_listA>","","html-keyboard-response","413","1618181","0.0-19.0-1.17","81933","List1A","white","woman","","","","null","","","","","","","","",""
"null","is challenging","","html-keyboard-response","414","1620187","0.0-19.0-2.17","81933","List1A","white","woman","","","","null","","","","","","","","",""
"6383","","","survey-text","415","1626572","0.0-19.0-3.17","81933","List1A","white","woman","","","","","{""Q0"":""Mike is challenging Luke.""}","<img src=""stim_listA/challenge5.gif""style=""height:400px;""></stim_listA>","is challenging","","","","","",""
"null","<div style=""font-size:60px;"">+</div>","","html-keyboard-response","416","1627079","0.0-19.0-0.18","81933","List1A","white","woman","","","","null","","","","","","","","",""
"null","<img src=""stim_listA/copy3.gif""style=""height:400px;""></stim_listA>","","html-keyboard-response","417","1629091","0.0-19.0-1.18","81933","List1A","white","woman","","","","null","","","","","","","","",""
"null","is copying","","html-keyboard-response","418","1631104","0.0-19.0-2.18","81933","List1A","white","woman","","","","null","","","","","","","","",""
"6852","","","survey-text","419","1637958","0.0-19.0-3.18","81933","List1A","white","woman","","","","","{""Q0"":""Dave is copying Ruth.""}","<img src=""stim_listA/copy3.gif""style=""height:400px;""></stim_listA>","is copying","","","","","",""
"null","<div style=""font-size:60px;"">+</div>","","html-keyboard-response","420","1638460","0.0-19.0-0.19","81933","List1A","white","woman","","","","null","","","","","","","","",""
"null","<img src=""stim_listA/oppose6.gif""style=""height:400px;""></stim_listA>","","html-keyboard-response","421","1640472","0.0-19.0-1.19","81933","List1A","white","woman","","","","null","","","","","","","","",""
"null","is being opposed by","","html-keyboard-response","422","1642487","0.0-19.0-2.19","81933","List1A","white","woman","","","","null","","","","","","","","",""
"6486.700000047684","","","survey-text","423","1648976","0.0-19.0-3.19","81933","List1A","white","woman","","","","","{""Q0"":""Luke is being opposed by Fred.""}","<img src=""stim_listA/oppose6.gif""style=""height:400px;""></stim_listA>","is being opposed by","","","","","",""
"2292","<p>Thank you for completing that task.</p><p>The final part of this session is a questionnaire that will take about 4 minutes.</p><p>Press Continue.</p>","0","html-button-response","424","1651270","0.0-20.0","81933","List1A","white","woman","","","","","","","","","","","","",""
"29479.099999904633","","","survey-text","425","1681763","0.0-21.0","81933","List1A","white","woman","","","","","{""Q0"":""31"",""Q1"":""English"",""Q2"":""English"",""Q3"":""United States"",""Q4"":""American"",""Q5"":""White"",""Q6"":""Female""}","","","demographics","","","","",""
"4183.099999904633","<p>Have you lived in the USA for the last 5 years or more?</p>","0","html-button-response","426","1685949","0.0-22.0","81933","List1A","white","woman","","","","","","","","fiveyears","","","","",""
"2919.4000000953674","<p>Move the slider to show the extent to which you agree with the following statements.</p>","0","html-button-response","427","1689887","0.0-23.0","81933","List1A","white","woman","","","","","","","","","","","","",""
"15607","","","html-slider-response","428","1706505","0.0-24.0-0.0-0.0","81933","List1A","white","woman","","","","","","","","survey_race","51","","","People of my race have a lot in common with each other.","common"
"7431.299999952316","","","html-slider-response","429","1713938","0.0-24.0-0.0-0.1","81933","List1A","white","woman","","","","","","","","survey_race","49","","","I am similar to the average person of my race.","similar"
"10206.200000047684","","","html-slider-response","430","1724148","0.0-24.0-0.0-0.2","81933","List1A","white","woman","","","","","","","","survey_race","0","","","I feel a bond with my race.","bond"
"11437.300000190735","","","html-slider-response","431","1735589","0.0-24.0-0.0-0.3","81933","List1A","white","woman","","","","","","","","survey_race","60","","","My age is not an important part of who I am.","filler"
"7627.900000095367","","","html-slider-response","432","1743220","0.0-24.0-0.0-0.4","81933","List1A","white","woman","","","","","","","","survey_race","42","","","I am glad to be the age I am.","filler"
"4268.199999809265","","","html-slider-response","433","1747492","0.0-24.0-0.0-0.5","81933","List1A","white","woman","","","","","","","","survey_race","0","","","I think that my race has a lot to be proud of.","proud"
"5932.700000047684","","","html-slider-response","434","1753429","0.0-24.0-0.0-0.6","81933","List1A","white","woman","","","","","","","","survey_race","74","","","It is pleasant to be my race.","pleasant"
"3623","","","html-slider-response","435","1757055","0.0-24.0-0.0-0.7","81933","List1A","white","woman","","","","","","","","survey_race","0","","","I feel committed to my race.","committed"
"5568.199999809265","","","html-slider-response","436","1762625","0.0-24.0-0.0-0.8","81933","List1A","white","woman","","","","","","","","survey_race","44","","","Being my age gives me a good feeling.","filler"
"6651.799999952316","","","html-slider-response","437","1769278","0.0-24.0-0.0-0.9","81933","List1A","white","woman","","","","","","","","survey_race","15","","","Getting older does not worry me.","filler"
"5530.399999856949","","","html-slider-response","438","1774812","0.0-24.0-0.0-0.10","81933","List1A","white","woman","","","","","","","","survey_race","0","","","Being my race is an important part of how I see myself.","important"
"6331.099999904633","","","html-slider-response","439","1781146","0.0-24.0-0.0-0.11","81933","List1A","white","woman","","","","","","","","survey_race","0","","","The fact that I am my race is an important part of my identity.","identity"
"8860.799999952316","","","html-slider-response","440","1790010","0.0-24.0-0.0-0.12","81933","List1A","white","woman","","","","","","","","survey_race","31","","","I am glad to be my race.","glad"
"6274.200000047684","","","html-slider-response","441","1796288","0.0-24.0-0.0-0.13","81933","List1A","white","woman","","","","","","","","survey_race","17","","","I enjoy being in large groups.","filler"
"6918.700000047684","","","html-slider-response","442","1803210","0.0-24.0-0.0-0.14","81933","List1A","white","woman","","","","","","","","survey_race","90","","","I feel solidarity with people the same age as me.","filler"
"7138.5","","","html-slider-response","443","1810352","0.0-24.0-0.0-0.15","81933","List1A","white","woman","","","","","","","","survey_race","87","","","I have a lot in common with people of a similar age to me.","filler"
"4423.5","","","html-slider-response","444","1814779","0.0-24.0-0.0-0.16","81933","List1A","white","woman","","","","","","","","survey_race","0","","","I consider myself an extrovert.","filler"
"4668.5","","","html-slider-response","445","1819448","0.0-24.0-0.0-0.17","81933","List1A","white","woman","","","","","","","","survey_race","72","","","People my age have a lot in common with each other.","filler"
"5963","","","html-slider-response","446","1825415","0.0-24.0-0.0-0.18","81933","List1A","white","woman","","","","","","","","survey_race","28","","","People of my race are very similar to each other.","verysimilar"
"4063","","","html-slider-response","447","1829481","0.0-24.0-0.0-0.19","81933","List1A","white","woman","","","","","","","","survey_race","0","","","I feel solidarity with my race.","solidarity"
"3398","","","html-slider-response","448","1832882","0.0-24.0-0.0-0.20","81933","List1A","white","woman","","","","","","","","survey_race","100","","","I consider myself an introvert.","filler"
"9583.5","","","html-slider-response","449","1842469","0.0-24.0-0.0-0.21","81933","List1A","white","woman","","","","","","","","survey_race","66","","","I often think about the fact that I am my race.","often"
"5636.199999809265","","","html-slider-response","450","1848108","0.0-24.0-0.0-0.22","81933","List1A","white","woman","","","","","","","","survey_race","0","","","Being my race gives me a good feeling.","feeling"
"4736.400000095367","","","html-slider-response","451","1852848","0.0-24.0-0.0-0.23","81933","List1A","white","woman","","","","","","","","survey_race","88","","","I feel a bond with people the same age as me.","filler"
"5084.099999904633","","","html-slider-response","452","1857935","0.0-24.0-0.0-0.24","81933","List1A","white","woman","","","","","","","","survey_race","38","","","I have a lot in common with the average person of my race.","average"
"9816.400000095367","","","html-slider-response","453","1867755","0.0-24.0-0.0-0.25","81933","List1A","white","woman","","","","","","","","survey_race","93","","","The older I get, the wiser I feel.","filler"
"4515.699999809265","","","html-slider-response","454","1872274","0.0-24.0-0.0-0.26","81933","List1A","white","woman","","","","","","","","survey_race","38","","","I am glad to be my age.","filler"
"5638.599999904633","","","html-slider-response","455","1877914","0.0-24.0-0.0-0.27","81933","List1A","white","woman","","","","","","","","survey_race","65","","","I often think about the fact that I am my age.","filler"
"9497","","","html-slider-response","456","1887414","0.0-24.0-1.0-0.0","81933","List1A","white","woman","","","","","","","","survey_gender","76","","","Most of the friends in my life are very similar to me.","filler"
"10461.899999856949","","","html-slider-response","457","1897878","0.0-24.0-1.0-0.1","81933","List1A","white","woman","","","","","","","","survey_gender","90","","","Family is not more important to me than friendship.","filler"
"4011.2000000476837","","","html-slider-response","458","1901890","0.0-24.0-1.0-0.2","81933","List1A","white","woman","","","","","","","","survey_gender","100","","","I consider myself a highly empathetic person.","filler"
"3171.699999809265","","","html-slider-response","459","1905064","0.0-24.0-1.0-0.3","81933","List1A","white","woman","","","","","","","","survey_gender","100","","","I would say I am an animal person.","filler"
"10221.599999904633","","","html-slider-response","460","1915289","0.0-24.0-1.0-0.4","81933","List1A","white","woman","","","","","","","","survey_gender","10","","","People of my gender are very similar to each other.","verysimilar"
"5509.099999904633","","","html-slider-response","461","1920801","0.0-24.0-1.0-0.5","81933","List1A","white","woman","","","","","","","","survey_gender","71","","","My friends understand me.","filler"
"3383.2000000476837","","","html-slider-response","462","1924188","0.0-24.0-1.0-0.6","81933","List1A","white","woman","","","","","","","","survey_gender","77","","","I feel solidarity with my friends.","filler"
"10863.700000047684","","","html-slider-response","463","1935054","0.0-24.0-1.0-0.7","81933","List1A","white","woman","","","","","","","","survey_gender","100","","","Routine is not important to me.","filler"
"6093.199999809265","","","html-slider-response","464","1941149","0.0-24.0-1.0-0.8","81933","List1A","white","woman","","","","","","","","survey_gender","81","","","I feel a bond with my gender.","bond"
"4545.200000047684","","","html-slider-response","465","1945698","0.0-24.0-1.0-0.9","81933","List1A","white","woman","","","","","","","","survey_gender","80","","","I feel committed to my gender.","committed"
"2935.9000000953674","","","html-slider-response","466","1948638","0.0-24.0-1.0-0.10","81933","List1A","white","woman","","","","","","","","survey_gender","100","","","I am glad to be my gender.","glad"
"5602.799999952316","","","html-slider-response","467","1954242","0.0-24.0-1.0-0.11","81933","List1A","white","woman","","","","","","","","survey_gender","84","","","The fact that I am my gender is an important part of my identity.","identity"
"9937.299999952316","","","html-slider-response","468","1964183","0.0-24.0-1.0-0.12","81933","List1A","white","woman","","","","","","","","survey_gender","100","","","It is not always easy for people to know what I am thinking.","filler"
"4835.299999952316","","","html-slider-response","469","1969022","0.0-24.0-1.0-0.13","81933","List1A","white","woman","","","","","","","","survey_gender","76","","","I often think about the fact that I am my gender.","often"
"6485.900000095367","","","html-slider-response","470","1975510","0.0-24.0-1.0-0.14","81933","List1A","white","woman","","","","","","","","survey_gender","73","","","I have a lot in common with the average person of my gender.","average"
"6822.799999952316","","","html-slider-response","471","1982335","0.0-24.0-1.0-0.15","81933","List1A","white","woman","","","","","","","","survey_gender","87","","","I am glad to have the friends that I have.","filler"
"3658.9000000953674","","","html-slider-response","472","1985998","0.0-24.0-1.0-0.16","81933","List1A","white","woman","","","","","","","","survey_gender","86","","","I have a lot in common with my friends.","filler"
"5290.100000143051","","","html-slider-response","473","1991290","0.0-24.0-1.0-0.17","81933","List1A","white","woman","","","","","","","","survey_gender","81","","","I feel solidarity with my gender.","solidarity"
"6989.5","","","html-slider-response","474","1998283","0.0-24.0-1.0-0.18","81933","List1A","white","woman","","","","","","","","survey_gender","41","","","It is pleasant to be my gender.","pleasant"
