"rt","stimulus","button_pressed","trial_type","trial_index","time_elapsed","internal_node_id","subject","list","ppt_race","ppt_gender","url","first_guess","correct","key_press","responses","image_type","phrase_type","test_part","response","stimulus1","stimulus2","question_type","survey_item"
"1864","Welcome to the experiment. Press Continue to begin.","0","html-button-response","0","1870","0.0-0.0","8253","List1B","black","man","","","","","","","","","","","","",""
"19444.599999904633","","","external-html","1","32085","0.0-1.0","8253","List1B","black","man","consent.html","","","","","","","","","","","",""
"1310.6000001430511","<p>On the next page, you will see portraits of 8 people and their names.</p><p>Your first task is to take a few minutes to memorise the names of these people.</p><p>You will have to recall their names during the rest of the experiment, so it is</p><p>essential that you try to memorise these people and their names as best as you can.</p><br><p><strong>You will then be tested on your memory of these names and portraits.</strong></p><br><p>The experiment will start after you have completed this memory test.</p><br><p>Ready?</p>","0","html-button-response","2","33397","0.0-2.0","8253","List1B","black","man","","","","","","","","","","","","",""
"105874.80000019073","<img src='img/portrait_matrix_list1.jpg' style='width:900px;height:500px;''></img><p>If you have memorised all the portraits and names and are ready to start, press Continue.</p><p><strong>Please note: Your memory of these faces will be tested 4 times during this experiment.</strong></p>","0","html-button-response","3","140272","0.0-3.0-0.0","8253","List1B","black","man","","","","","","","","","","","","",""
"5291","<img src=""portrait/WM2.jpg""style=""height:400px;""></img>","7","html-button-response","4","146568","0.0-3.0-1.0","8253","List1B","black","man","","true","7","","","","","","","","","",""
"null","CORRECT","","html-keyboard-response","5","148075","0.0-3.0-2.0-0.0","8253","List1B","black","man","","","","null","","","","","","","","",""
"7739","<img src=""portrait/WW2.jpg""style=""height:400px;""></img>","3","html-button-response","6","155816","0.0-3.0-4.0","8253","List1B","black","man","","true","3","","","","","","","","","",""
"null","CORRECT","","html-keyboard-response","7","157322","0.0-3.0-5.0-0.0","8253","List1B","black","man","","","","null","","","","","","","","",""
"16941","<img src=""portrait/WM1.jpg""style=""height:400px;""></img>","6","html-button-response","8","174264","0.0-3.0-7.0","8253","List1B","black","man","","true","6","","","","","","","","","",""
"null","CORRECT","","html-keyboard-response","9","175768","0.0-3.0-8.0-0.0","8253","List1B","black","man","","","","null","","","","","","","","",""
"11766.900000095367","<img src=""portrait/WW1.jpg""style=""height:400px;""></img>","1","html-button-response","10","187536","0.0-3.0-10.0","8253","List1B","black","man","","true","1","","","","","","","","","",""
"null","CORRECT","","html-keyboard-response","11","189044","0.0-3.0-11.0-0.0","8253","List1B","black","man","","","","null","","","","","","","","",""
"11066.5","<img src=""portrait/BM2.jpg""style=""height:400px;""></img>","5","html-button-response","12","200113","0.0-3.0-13.0","8253","List1B","black","man","","true","5","","","","","","","","","",""
"null","CORRECT","","html-keyboard-response","13","201619","0.0-3.0-14.0-0.0","8253","List1B","black","man","","","","null","","","","","","","","",""
"6852.399999856949","<img src=""portrait/BW2.jpg""style=""height:400px;""></img>","2","html-button-response","14","208472","0.0-3.0-16.0","8253","List1B","black","man","","true","2","","","","","","","","","",""
"null","CORRECT","","html-keyboard-response","15","209979","0.0-3.0-17.0-0.0","8253","List1B","black","man","","","","null","","","","","","","","",""
"6772.5","<img src=""portrait/BW1.jpg""style=""height:400px;""></img>","0","html-button-response","16","216752","0.0-3.0-19.0","8253","List1B","black","man","","true","0","","","","","","","","","",""
"null","CORRECT","","html-keyboard-response","17","218261","0.0-3.0-20.0-0.0","8253","List1B","black","man","","","","null","","","","","","","","",""
"6810.099999904633","<img src=""portrait/BM1.jpg""style=""height:400px;""></img>","4","html-button-response","18","225072","0.0-3.0-22.0","8253","List1B","black","man","","true","4","","","","","","","","","",""
"null","CORRECT","","html-keyboard-response","19","226583","0.0-3.0-23.0-0.0","8253","List1B","black","man","","","","null","","","","","","","","",""
"2806.0999999046326","<p>You got 8 out of 8 right first time. Press Continue.</p>","0","html-button-response","20","229392","0.0-3.0-25.0","8253","List1B","black","man","","","","","","","","","","","","",""
"26873.10000014305","<p>In this experiment, you will view photographs of the people from the memory game interacting.</p><p>By using the <strong>exact</strong> phrase given <i>after</i> the photograph appears and recalling the correct names of the people in the photographs, form a sentence describing the interaction. You do not need to capitalise names.</p><p>Type your answer in the space provided. Please complete every sentence before moving onto the next trial.</p><p>You will only have a few seconds to memorise each given photograph and phrase before you can respond, so try your best to focus.</p><p>An example is given below. Press 'Continue' when you are ready.</p><img src='img/speaking_example.jpg' style='width:800px;height:460px;''></img>","0","html-button-response","21","257276","0.0-4.0","8253","List1B","black","man","","","","","","","","","","","","",""
"2118.0999999046326","<p>Before the experiment starts, you will watch two example trials. Press 'Continue'.</p>","0","html-button-response","22","260396","0.0-5.0","8253","List1B","black","man","","","","","","","","","","","","",""
"null","<img src='img/play_eg.gif' style='height:400px;''></img>","","html-keyboard-response","23","263400","0.0-6.0","8253","List1B","black","man","","","","null","","","","","","","","",""
"null","<p>is playing with</p>","","html-keyboard-response","24","265401","0.0-7.0","8253","List1B","black","man","","","","null","","","","","","","","",""
"2785.7000000476837","<p><b>Answer:</b> kate is playing with beth</p>","0","html-button-response","25","268187","0.0-8.0","8253","List1B","black","man","","","","","","","","","","","","",""
"null","<img src='img/dance_eg.gif' style='height:400px;''></img>","","html-keyboard-response","26","271195","0.0-9.0","8253","List1B","black","man","","","","null","","","","","","","","",""
"null","<p>is being entertained by</p>","","html-keyboard-response","27","273198","0.0-10.0","8253","List1B","black","man","","","","null","","","","","","","","",""
"14227.799999952316","<p><b>Answer:</b> luke is being entertained by dave</p>","0","html-button-response","28","287427","0.0-11.0","8253","List1B","black","man","","","","","","","","","","","","",""
"5027.599999904633","<p>Ready to start the experiment?</p><br><p><strong>Remember to describe the picture using a full sentence,</strong></p><p><strong>that combines the names of the people with the <i>exact</i> phrase given.</strong></p><p><strong>To receive full payment you must do this correctly.</strong></p><p><strong> You do not need to capitalise names or use punctuation.</strong></p><br><p>Press 'Continue' to begin.</p>","0","html-button-response","29","293460","0.0-12.0","8253","List1B","black","man","","","","","","","","","","","","",""
"null","<div style=""font-size:60px;"">+</div>","","html-keyboard-response","30","294965","0.0-13.0-0.0","8253","List1B","black","man","","","","null","","","","","","","","",""
"null","<img src=""stim_listB/hug5.gif""style=""height:400px;""></stim_listB>","","html-keyboard-response","31","296973","0.0-13.0-1.0","8253","List1B","black","man","","","","null","","","","","","","","",""
"null","is hugging","","html-keyboard-response","32","298980","0.0-13.0-2.0","8253","List1B","black","man","","","","null","","","","","","","","",""
"12344.799999952316","","","survey-text","33","311331","0.0-13.0-3.0","8253","List1B","black","man","","","","","{""Q0"":""fred is hugging luke ""}","<img src=""stim_listB/hug5.gif""style=""height:400px;""></stim_listB>","is hugging","","","","","",""
"null","<div style=""font-size:60px;"">+</div>","","html-keyboard-response","34","311834","0.0-13.0-0.1","8253","List1B","black","man","","","","null","","","","","","","","",""
"null","<img src=""stim_listB/hug2.gif""style=""height:400px;""></stim_listB>","","html-keyboard-response","35","313837","0.0-13.0-1.1","8253","List1B","black","man","","","","null","","","","","","","","",""
"null","is being hugged by","","html-keyboard-response","36","315840","0.0-13.0-2.1","8253","List1B","black","man","","","","null","","","","","","","","",""
"11944.099999904633","","","survey-text","37","327788","0.0-13.0-3.1","8253","List1B","black","man","","","","","{""Q0"":""kate is being hugged by mike ""}","<img src=""stim_listB/hug2.gif""style=""height:400px;""></stim_listB>","is being hugged by","","","","","",""
"null","<div style=""font-size:60px;"">+</div>","","html-keyboard-response","38","328293","0.0-13.0-0.2","8253","List1B","black","man","","","","null","","","","","","","","",""
"null","<img src=""stim_listB/touch6.gif""style=""height:400px;""></stim_listB>","","html-keyboard-response","39","330300","0.0-13.0-1.2","8253","List1B","black","man","","","","null","","","","","","","","",""
"null","is being touched by","","html-keyboard-response","40","332302","0.0-13.0-2.2","8253","List1B","black","man","","","","null","","","","","","","","",""
"12407","","","survey-text","41","344713","0.0-13.0-3.2","8253","List1B","black","man","","","","","{""Q0"":""fred is being touched by luke ""}","<img src=""stim_listB/touch6.gif""style=""height:400px;""></stim_listB>","is being touched by","","","","","",""
"null","<div style=""font-size:60px;"">+</div>","","html-keyboard-response","42","345214","0.0-13.0-0.3","8253","List1B","black","man","","","","null","","","","","","","","",""
"null","<img src=""stim_listB/greet5.gif""style=""height:400px;""></stim_listB>","","html-keyboard-response","43","347218","0.0-13.0-1.3","8253","List1B","black","man","","","","null","","","","","","","","",""
"null","is greeting","","html-keyboard-response","44","349220","0.0-13.0-2.3","8253","List1B","black","man","","","","null","","","","","","","","",""
"6871.399999856949","","","survey-text","45","356095","0.0-13.0-3.3","8253","List1B","black","man","","","","","{""Q0"":""mike is greeting luke ""}","<img src=""stim_listB/greet5.gif""style=""height:400px;""></stim_listB>","is greeting","","","","","",""
"null","<div style=""font-size:60px;"">+</div>","","html-keyboard-response","46","356600","0.0-13.0-0.4","8253","List1B","black","man","","","","null","","","","","","","","",""
"null","<img src=""stim_listB/touch4.gif""style=""height:400px;""></stim_listB>","","html-keyboard-response","47","358605","0.0-13.0-1.4","8253","List1B","black","man","","","","null","","","","","","","","",""
"null","is being touched by","","html-keyboard-response","48","360608","0.0-13.0-2.4","8253","List1B","black","man","","","","null","","","","","","","","",""
"18771.299999952316","","","survey-text","49","379382","0.0-13.0-3.4","8253","List1B","black","man","","","","","{""Q0"":""ruth is touching luke ""}","<img src=""stim_listB/touch4.gif""style=""height:400px;""></stim_listB>","is being touched by","","","","","",""
"null","<div style=""font-size:60px;"">+</div>","","html-keyboard-response","50","379885","0.0-13.0-0.5","8253","List1B","black","man","","","","null","","","","","","","","",""
"null","<img src=""stim_listB/hug6.gif""style=""height:400px;""></stim_listB>","","html-keyboard-response","51","381892","0.0-13.0-1.5","8253","List1B","black","man","","","","null","","","","","","","","",""
"null","is being hugged by","","html-keyboard-response","52","383896","0.0-13.0-2.5","8253","List1B","black","man","","","","null","","","","","","","","",""
"13505.299999952316","","","survey-text","53","397405","0.0-13.0-3.5","8253","List1B","black","man","","","","","{""Q0"":""dave is being hugged by mike ""}","<img src=""stim_listB/hug6.gif""style=""height:400px;""></stim_listB>","is being hugged by","","","","","",""
"null","<div style=""font-size:60px;"">+</div>","","html-keyboard-response","54","397909","0.0-13.0-0.6","8253","List1B","black","man","","","","null","","","","","","","","",""
"null","<img src=""stim_listB/seduce1.gif""style=""height:400px;""></stim_listB>","","html-keyboard-response","55","399912","0.0-13.0-1.6","8253","List1B","black","man","","","","null","","","","","","","","",""
"null","is seducing","","html-keyboard-response","56","401915","0.0-13.0-2.6","8253","List1B","black","man","","","","null","","","","","","","","",""
"6929","","","survey-text","57","408848","0.0-13.0-3.6","8253","List1B","black","man","","","","","{""Q0"":""kate is seducing fred ""}","<img src=""stim_listB/seduce1.gif""style=""height:400px;""></stim_listB>","is seducing","","","","","",""
"null","<div style=""font-size:60px;"">+</div>","","html-keyboard-response","58","409350","0.0-13.0-0.7","8253","List1B","black","man","","","","null","","","","","","","","",""
"null","<img src=""stim_listB/shout8.gif""style=""height:400px;""></stim_listB>","","html-keyboard-response","59","411356","0.0-13.0-1.7","8253","List1B","black","man","","","","null","","","","","","","","",""
"null","is being shouted at by","","html-keyboard-response","60","413363","0.0-13.0-2.7","8253","List1B","black","man","","","","null","","","","","","","","",""
"13561.5","","","survey-text","61","426928","0.0-13.0-3.7","8253","List1B","black","man","","","","","{""Q0"":""jane is being shouted at by kate ""}","<img src=""stim_listB/shout8.gif""style=""height:400px;""></stim_listB>","is being shouted at by","","","","","",""
"null","<div style=""font-size:60px;"">+</div>","","html-keyboard-response","62","427431","0.0-13.0-0.8","8253","List1B","black","man","","","","null","","","","","","","","",""
"null","<img src=""stim_listB/seduce7.gif""style=""height:400px;""></stim_listB>","","html-keyboard-response","63","429436","0.0-13.0-1.8","8253","List1B","black","man","","","","null","","","","","","","","",""
"null","is seducing","","html-keyboard-response","64","431440","0.0-13.0-2.8","8253","List1B","black","man","","","","null","","","","","","","","",""
"12611.900000095367","","","survey-text","65","444055","0.0-13.0-3.8","8253","List1B","black","man","","","","","{""Q0"":""beth is seducing jane ""}","<img src=""stim_listB/seduce7.gif""style=""height:400px;""></stim_listB>","is seducing","","","","","",""
"null","<div style=""font-size:60px;"">+</div>","","html-keyboard-response","66","444557","0.0-13.0-0.9","8253","List1B","black","man","","","","null","","","","","","","","",""
"null","<img src=""stim_listB/look5.gif""style=""height:400px;""></stim_listB>","","html-keyboard-response","67","446564","0.0-13.0-1.9","8253","List1B","black","man","","","","null","","","","","","","","",""
"null","is looking at","","html-keyboard-response","68","448571","0.0-13.0-2.9","8253","List1B","black","man","","","","null","","","","","","","","",""
"8321.600000143051","","","survey-text","69","456896","0.0-13.0-3.9","8253","List1B","black","man","","","","","{""Q0"":""fred is looking at luke ""}","<img src=""stim_listB/look5.gif""style=""height:400px;""></stim_listB>","is looking at","","","","","",""
"null","<div style=""font-size:60px;"">+</div>","","html-keyboard-response","70","457400","0.0-13.0-0.10","8253","List1B","black","man","","","","null","","","","","","","","",""
"null","<img src=""stim_listB/copy4.gif""style=""height:400px;""></stim_listB>","","html-keyboard-response","71","459406","0.0-13.0-1.10","8253","List1B","black","man","","","","null","","","","","","","","",""
"null","is being copied by","","html-keyboard-response","72","461409","0.0-13.0-2.10","8253","List1B","black","man","","","","null","","","","","","","","",""
"11740.399999856949","","","survey-text","73","473153","0.0-13.0-3.10","8253","List1B","black","man","","","","","{""Q0"":""jane is being copied by luke ""}","<img src=""stim_listB/copy4.gif""style=""height:400px;""></stim_listB>","is being copied by","","","","","",""
"null","<div style=""font-size:60px;"">+</div>","","html-keyboard-response","74","473659","0.0-13.0-0.11","8253","List1B","black","man","","","","null","","","","","","","","",""
"null","<img src=""stim_listB/shout3.gif""style=""height:400px;""></stim_listB>","","html-keyboard-response","75","475663","0.0-13.0-1.11","8253","List1B","black","man","","","","null","","","","","","","","",""
"null","is shouting at","","html-keyboard-response","76","477668","0.0-13.0-2.11","8253","List1B","black","man","","","","null","","","","","","","","",""
"10355.299999952316","","","survey-text","77","488027","0.0-13.0-3.11","8253","List1B","black","man","","","","","{""Q0"":""ruth is shouting at luke ""}","<img src=""stim_listB/shout3.gif""style=""height:400px;""></stim_listB>","is shouting at","","","","","",""
"null","<div style=""font-size:60px;"">+</div>","","html-keyboard-response","78","488530","0.0-13.0-0.12","8253","List1B","black","man","","","","null","","","","","","","","",""
"null","<img src=""stim_listB/challenge3.gif""style=""height:400px;""></stim_listB>","","html-keyboard-response","79","490537","0.0-13.0-1.12","8253","List1B","black","man","","","","null","","","","","","","","",""
"null","is challenging","","html-keyboard-response","80","492540","0.0-13.0-2.12","8253","List1B","black","man","","","","null","","","","","","","","",""
"16515.800000190735","","","survey-text","81","509060","0.0-13.0-3.12","8253","List1B","black","man","","","","","{""Q0"":""dave is challenging ruth ""}","<img src=""stim_listB/challenge3.gif""style=""height:400px;""></stim_listB>","is challenging","","","","","",""
"null","<div style=""font-size:60px;"">+</div>","","html-keyboard-response","82","509564","0.0-13.0-0.13","8253","List1B","black","man","","","","null","","","","","","","","",""
"null","<img src=""stim_listB/oppose7.gif""style=""height:400px;""></stim_listB>","","html-keyboard-response","83","511571","0.0-13.0-1.13","8253","List1B","black","man","","","","null","","","","","","","","",""
"null","is opposing","","html-keyboard-response","84","513575","0.0-13.0-2.13","8253","List1B","black","man","","","","null","","","","","","","","",""
"7437.099999904633","","","survey-text","85","521016","0.0-13.0-3.13","8253","List1B","black","man","","","","","{""Q0"":""kate is opposing jane ""}","<img src=""stim_listB/oppose7.gif""style=""height:400px;""></stim_listB>","is opposing","","","","","",""
"null","<div style=""font-size:60px;"">+</div>","","html-keyboard-response","86","521521","0.0-13.0-0.14","8253","List1B","black","man","","","","null","","","","","","","","",""
"null","<img src=""stim_listB/copy6.gif""style=""height:400px;""></stim_listB>","","html-keyboard-response","87","523527","0.0-13.0-1.14","8253","List1B","black","man","","","","null","","","","","","","","",""
"null","is being copied by","","html-keyboard-response","88","525531","0.0-13.0-2.14","8253","List1B","black","man","","","","null","","","","","","","","",""
"10941.599999904633","","","survey-text","89","536476","0.0-13.0-3.14","8253","List1B","black","man","","","","","{""Q0"":""fred is being copied by dave ""}","<img src=""stim_listB/copy6.gif""style=""height:400px;""></stim_listB>","is being copied by","","","","","",""
"null","<div style=""font-size:60px;"">+</div>","","html-keyboard-response","90","536980","0.0-13.0-0.15","8253","List1B","black","man","","","","null","","","","","","","","",""
"null","<img src=""stim_listB/greet4.gif""style=""height:400px;""></stim_listB>","","html-keyboard-response","91","538985","0.0-13.0-1.15","8253","List1B","black","man","","","","null","","","","","","","","",""
"null","is being greeted by","","html-keyboard-response","92","540991","0.0-13.0-2.15","8253","List1B","black","man","","","","null","","","","","","","","",""
"57245.300000190735","","","survey-text","93","598240","0.0-13.0-3.15","8253","List1B","black","man","","","","","{""Q0"":""jane is being greeted by luke ""}","<img src=""stim_listB/greet4.gif""style=""height:400px;""></stim_listB>","is being greeted by","","","","","",""
"null","<div style=""font-size:60px;"">+</div>","","html-keyboard-response","94","598742","0.0-13.0-0.16","8253","List1B","black","man","","","","null","","","","","","","","",""
"null","<img src=""stim_listB/copy2.gif""style=""height:400px;""></stim_listB>","","html-keyboard-response","95","600748","0.0-13.0-1.16","8253","List1B","black","man","","","","null","","","","","","","","",""
"null","is being copied by","","html-keyboard-response","96","602752","0.0-13.0-2.16","8253","List1B","black","man","","","","null","","","","","","","","",""
"12413.599999904633","","","survey-text","97","615169","0.0-13.0-3.16","8253","List1B","black","man","","","","","{""Q0"":""kate is being copied by fred ""}","<img src=""stim_listB/copy2.gif""style=""height:400px;""></stim_listB>","is being copied by","","","","","",""
"null","<div style=""font-size:60px;"">+</div>","","html-keyboard-response","98","615674","0.0-13.0-0.17","8253","List1B","black","man","","","","null","","","","","","","","",""
"null","<img src=""stim_listB/hug1.gif""style=""height:400px;""></stim_listB>","","html-keyboard-response","99","617680","0.0-13.0-1.17","8253","List1B","black","man","","","","null","","","","","","","","",""
"null","is hugging","","html-keyboard-response","100","619683","0.0-13.0-2.17","8253","List1B","black","man","","","","null","","","","","","","","",""
"9695.599999904633","","","survey-text","101","629383","0.0-13.0-3.17","8253","List1B","black","man","","","","","{""Q0"":""beth is hugging fred ""}","<img src=""stim_listB/hug1.gif""style=""height:400px;""></stim_listB>","is hugging","","","","","",""
"null","<div style=""font-size:60px;"">+</div>","","html-keyboard-response","102","629888","0.0-13.0-0.18","8253","List1B","black","man","","","","null","","","","","","","","",""
"null","<img src=""stim_listB/oppose2.gif""style=""height:400px;""></stim_listB>","","html-keyboard-response","103","631893","0.0-13.0-1.18","8253","List1B","black","man","","","","null","","","","","","","","",""
"null","is being opposed by","","html-keyboard-response","104","633896","0.0-13.0-2.18","8253","List1B","black","man","","","","null","","","","","","","","",""
"11098","","","survey-text","105","644998","0.0-13.0-3.18","8253","List1B","black","man","","","","","{""Q0"":""beth is being opposed by fred ""}","<img src=""stim_listB/oppose2.gif""style=""height:400px;""></stim_listB>","is being opposed by","","","","","",""
"null","<div style=""font-size:60px;"">+</div>","","html-keyboard-response","106","645504","0.0-13.0-0.19","8253","List1B","black","man","","","","null","","","","","","","","",""
"null","<img src=""stim_listB/challenge5.gif""style=""height:400px;""></stim_listB>","","html-keyboard-response","107","647511","0.0-13.0-1.19","8253","List1B","black","man","","","","null","","","","","","","","",""
"null","is challenging","","html-keyboard-response","108","649517","0.0-13.0-2.19","8253","List1B","black","man","","","","null","","","","","","","","",""
"10071.199999809265","","","survey-text","109","659592","0.0-13.0-3.19","8253","List1B","black","man","","","","","{""Q0"":""mike is challenging luke ""}","<img src=""stim_listB/challenge5.gif""style=""height:400px;""></stim_listB>","is challenging","","","","","",""
"8105","<img src='img/portrait_matrix_list1.jpg' style='width:900px;height:500px;''></img><p>If you have memorised all the portraits and names and are ready to start, press Continue.</p><p><strong>Please note: Your memory of these faces will be tested 4 times during this experiment.</strong></p>","0","html-button-response","110","667699","0.0-14.0-0.0","8253","List1B","black","man","","","","","","","","","","","","",""
"4594.200000047684","<img src=""portrait/BW1.jpg""style=""height:400px;""></img>","0","html-button-response","111","673299","0.0-14.0-1.0","8253","List1B","black","man","","true","0","","","","","","","","","",""
"null","CORRECT","","html-keyboard-response","112","674806","0.0-14.0-2.0-0.0","8253","List1B","black","man","","","","null","","","","","","","","",""
"3858.2999999523163","<img src=""portrait/BM1.jpg""style=""height:400px;""></img>","4","html-button-response","113","678668","0.0-14.0-4.0","8253","List1B","black","man","","true","4","","","","","","","","","",""
"null","CORRECT","","html-keyboard-response","114","680174","0.0-14.0-5.0-0.0","8253","List1B","black","man","","","","null","","","","","","","","",""
"3651.100000143051","<img src=""portrait/WM2.jpg""style=""height:400px;""></img>","7","html-button-response","115","683828","0.0-14.0-7.0","8253","List1B","black","man","","true","7","","","","","","","","","",""
"null","CORRECT","","html-keyboard-response","116","685336","0.0-14.0-8.0-0.0","8253","List1B","black","man","","","","null","","","","","","","","",""
"3617.2999999523163","<img src=""portrait/BW2.jpg""style=""height:400px;""></img>","2","html-button-response","117","688956","0.0-14.0-10.0","8253","List1B","black","man","","true","2","","","","","","","","","",""
"null","CORRECT","","html-keyboard-response","118","690460","0.0-14.0-11.0-0.0","8253","List1B","black","man","","","","null","","","","","","","","",""
"3493.9000000953674","<img src=""portrait/BM2.jpg""style=""height:400px;""></img>","5","html-button-response","119","693956","0.0-14.0-13.0","8253","List1B","black","man","","true","5","","","","","","","","","",""
"null","CORRECT","","html-keyboard-response","120","695460","0.0-14.0-14.0-0.0","8253","List1B","black","man","","","","null","","","","","","","","",""
"1749.7999999523163","<img src=""portrait/WW2.jpg""style=""height:400px;""></img>","3","html-button-response","121","697211","0.0-14.0-16.0","8253","List1B","black","man","","true","3","","","","","","","","","",""
"null","CORRECT","","html-keyboard-response","122","698717","0.0-14.0-17.0-0.0","8253","List1B","black","man","","","","null","","","","","","","","",""
"4540.700000047684","<img src=""portrait/WM1.jpg""style=""height:400px;""></img>","6","html-button-response","123","703259","0.0-14.0-19.0","8253","List1B","black","man","","true","6","","","","","","","","","",""
"null","CORRECT","","html-keyboard-response","124","704765","0.0-14.0-20.0-0.0","8253","List1B","black","man","","","","null","","","","","","","","",""
"2701.100000143051","<img src=""portrait/WW1.jpg""style=""height:400px;""></img>","1","html-button-response","125","707467","0.0-14.0-22.0","8253","List1B","black","man","","true","1","","","","","","","","","",""
"null","CORRECT","","html-keyboard-response","126","708977","0.0-14.0-23.0-0.0","8253","List1B","black","man","","","","null","","","","","","","","",""
"1479.6000001430511","<p>You got 8 out of 8 right first time. Press Continue.</p>","0","html-button-response","127","710459","0.0-14.0-25.0","8253","List1B","black","man","","","","","","","","","","","","",""
"null","<div style=""font-size:60px;"">+</div>","","html-keyboard-response","128","711967","0.0-15.0-0.0","8253","List1B","black","man","","","","null","","","","","","","","",""
"null","<img src=""stim_listB/oppose3.gif""style=""height:400px;""></stim_listB>","","html-keyboard-response","129","713973","0.0-15.0-1.0","8253","List1B","black","man","","","","null","","","","","","","","",""
"null","is opposing","","html-keyboard-response","130","715976","0.0-15.0-2.0","8253","List1B","black","man","","","","null","","","","","","","","",""
"9737.900000095367","","","survey-text","131","725718","0.0-15.0-3.0","8253","List1B","black","man","","","","","{""Q0"":""jane is opposing dave ""}","<img src=""stim_listB/oppose3.gif""style=""height:400px;""></stim_listB>","is opposing","","","","","",""
"null","<div style=""font-size:60px;"">+</div>","","html-keyboard-response","132","726223","0.0-15.0-0.1","8253","List1B","black","man","","","","null","","","","","","","","",""
"null","<img src=""stim_listB/greet7.gif""style=""height:400px;""></stim_listB>","","html-keyboard-response","133","728227","0.0-15.0-1.1","8253","List1B","black","man","","","","null","","","","","","","","",""
"null","is greeting","","html-keyboard-response","134","730232","0.0-15.0-2.1","8253","List1B","black","man","","","","null","","","","","","","","",""
"6834.099999904633","","","survey-text","135","737070","0.0-15.0-3.1","8253","List1B","black","man","","","","","{""Q0"":""ruth is greeting kate ""}","<img src=""stim_listB/greet7.gif""style=""height:400px;""></stim_listB>","is greeting","","","","","",""
"null","<div style=""font-size:60px;"">+</div>","","html-keyboard-response","136","737573","0.0-15.0-0.2","8253","List1B","black","man","","","","null","","","","","","","","",""
"null","<img src=""stim_listB/kiss1.gif""style=""height:400px;""></stim_listB>","","html-keyboard-response","137","739576","0.0-15.0-1.2","8253","List1B","black","man","","","","null","","","","","","","","",""
"null","is kissing","","html-keyboard-response","138","741579","0.0-15.0-2.2","8253","List1B","black","man","","","","null","","","","","","","","",""
"6516.799999952316","","","survey-text","139","748099","0.0-15.0-3.2","8253","List1B","black","man","","","","","{""Q0"":""fred is kissing beth""}","<img src=""stim_listB/kiss1.gif""style=""height:400px;""></stim_listB>","is kissing","","","","","",""
"null","<div style=""font-size:60px;"">+</div>","","html-keyboard-response","140","748602","0.0-15.0-0.3","8253","List1B","black","man","","","","null","","","","","","","","",""
"null","<img src=""stim_listB/shout2.gif""style=""height:400px;""></stim_listB>","","html-keyboard-response","141","750605","0.0-15.0-1.3","8253","List1B","black","man","","","","null","","","","","","","","",""
"null","is being shouted at by","","html-keyboard-response","142","752607","0.0-15.0-2.3","8253","List1B","black","man","","","","null","","","","","","","","",""
"26388","","","survey-text","143","778998","0.0-15.0-3.3","8253","List1B","black","man","","","","","{""Q0"":""kate is being shouted at by mike ""}","<img src=""stim_listB/shout2.gif""style=""height:400px;""></stim_listB>","is being shouted at by","","","","","",""
"null","<div style=""font-size:60px;"">+</div>","","html-keyboard-response","144","779501","0.0-15.0-0.4","8253","List1B","black","man","","","","null","","","","","","","","",""
"null","<img src=""stim_listB/hug4.gif""style=""height:400px;""></stim_listB>","","html-keyboard-response","145","781507","0.0-15.0-1.4","8253","List1B","black","man","","","","null","","","","","","","","",""
"null","is being hugged by","","html-keyboard-response","146","783510","0.0-15.0-2.4","8253","List1B","black","man","","","","null","","","","","","","","",""
"13516","","","survey-text","147","797029","0.0-15.0-3.4","8253","List1B","black","man","","","","","{""Q0"":""jane is being hugged by dave ""}","<img src=""stim_listB/hug4.gif""style=""height:400px;""></stim_listB>","is being hugged by","","","","","",""
"null","<div style=""font-size:60px;"">+</div>","","html-keyboard-response","148","797531","0.0-15.0-0.5","8253","List1B","black","man","","","","null","","","","","","","","",""
"null","<img src=""stim_listB/challenge2.gif""style=""height:400px;""></stim_listB>","","html-keyboard-response","149","799534","0.0-15.0-1.5","8253","List1B","black","man","","","","null","","","","","","","","",""
"null","is being challenged by","","html-keyboard-response","150","801536","0.0-15.0-2.5","8253","List1B","black","man","","","","null","","","","","","","","",""
"16662.5","","","survey-text","151","818203","0.0-15.0-3.5","8253","List1B","black","man","","","","","{""Q0"":""kate is being challenged by fred ""}","<img src=""stim_listB/challenge2.gif""style=""height:400px;""></stim_listB>","is being challenged by","","","","","",""
"null","<div style=""font-size:60px;"">+</div>","","html-keyboard-response","152","818709","0.0-15.0-0.6","8253","List1B","black","man","","","","null","","","","","","","","",""
"null","<img src=""stim_listB/touch8.gif""style=""height:400px;""></stim_listB>","","html-keyboard-response","153","820716","0.0-15.0-1.6","8253","List1B","black","man","","","","null","","","","","","","","",""
"null","is being touched by","","html-keyboard-response","154","822721","0.0-15.0-2.6","8253","List1B","black","man","","","","null","","","","","","","","",""
"10767.900000095367","","","survey-text","155","833494","0.0-15.0-3.6","8253","List1B","black","man","","","","","{""Q0"":""ruth is being touched by beth ""}","<img src=""stim_listB/touch8.gif""style=""height:400px;""></stim_listB>","is being touched by","","","","","",""
"null","<div style=""font-size:60px;"">+</div>","","html-keyboard-response","156","834000","0.0-15.0-0.7","8253","List1B","black","man","","","","null","","","","","","","","",""
"null","<img src=""stim_listB/touch7.gif""style=""height:400px;""></stim_listB>","","html-keyboard-response","157","836007","0.0-15.0-1.7","8253","List1B","black","man","","","","null","","","","","","","","",""
"null","is touching","","html-keyboard-response","158","838009","0.0-15.0-2.7","8253","List1B","black","man","","","","null","","","","","","","","",""
"9139.200000047684","","","survey-text","159","847152","0.0-15.0-3.7","8253","List1B","black","man","","","","","{""Q0"":""jane is touching kate ""}","<img src=""stim_listB/touch7.gif""style=""height:400px;""></stim_listB>","is touching","","","","","",""
"null","<div style=""font-size:60px;"">+</div>","","html-keyboard-response","160","847657","0.0-15.0-0.8","8253","List1B","black","man","","","","null","","","","","","","","",""
"null","<img src=""stim_listB/shout5.gif""style=""height:400px;""></stim_listB>","","html-keyboard-response","161","849665","0.0-15.0-1.8","8253","List1B","black","man","","","","null","","","","","","","","",""
"null","is shouting at","","html-keyboard-response","162","851672","0.0-15.0-2.8","8253","List1B","black","man","","","","null","","","","","","","","",""
"10767.899999856949","","","survey-text","163","862446","0.0-15.0-3.8","8253","List1B","black","man","","","","","{""Q0"":""luke is shouting at fred ""}","<img src=""stim_listB/shout5.gif""style=""height:400px;""></stim_listB>","is shouting at","","","","","",""
"null","<div style=""font-size:60px;"">+</div>","","html-keyboard-response","164","862948","0.0-15.0-0.9","8253","List1B","black","man","","","","null","","","","","","","","",""
"null","<img src=""stim_listB/touch2.gif""style=""height:400px;""></stim_listB>","","html-keyboard-response","165","864957","0.0-15.0-1.9","8253","List1B","black","man","","","","null","","","","","","","","",""
"null","is being touched by","","html-keyboard-response","166","866964","0.0-15.0-2.9","8253","List1B","black","man","","","","null","","","","","","","","",""
"11307.199999809265","","","survey-text","167","878275","0.0-15.0-3.9","8253","List1B","black","man","","","","","{""Q0"":""beth is being touched by fred ""}","<img src=""stim_listB/touch2.gif""style=""height:400px;""></stim_listB>","is being touched by","","","","","",""
"null","<div style=""font-size:60px;"">+</div>","","html-keyboard-response","168","878780","0.0-15.0-0.10","8253","List1B","black","man","","","","null","","","","","","","","",""
"null","<img src=""stim_listB/oppose6.gif""style=""height:400px;""></stim_listB>","","html-keyboard-response","169","880787","0.0-15.0-1.10","8253","List1B","black","man","","","","null","","","","","","","","",""
"null","is being opposed by","","html-keyboard-response","170","882792","0.0-15.0-2.10","8253","List1B","black","man","","","","null","","","","","","","","",""
"14536.700000047684","","","survey-text","171","897332","0.0-15.0-3.10","8253","List1B","black","man","","","","","{""Q0"":""fred is being opposed by luke ""}","<img src=""stim_listB/oppose6.gif""style=""height:400px;""></stim_listB>","is being opposed by","","","","","",""
"null","<div style=""font-size:60px;"">+</div>","","html-keyboard-response","172","897835","0.0-15.0-0.11","8253","List1B","black","man","","","","null","","","","","","","","",""
"null","<img src=""stim_listB/touch3.gif""style=""height:400px;""></stim_listB>","","html-keyboard-response","173","899839","0.0-15.0-1.11","8253","List1B","black","man","","","","null","","","","","","","","",""
"null","is touching","","html-keyboard-response","174","901843","0.0-15.0-2.11","8253","List1B","black","man","","","","null","","","","","","","","",""
"8990.200000047684","","","survey-text","175","910837","0.0-15.0-3.11","8253","List1B","black","man","","","","","{""Q0"":""jane is touching dave ""}","<img src=""stim_listB/touch3.gif""style=""height:400px;""></stim_listB>","is touching","","","","","",""
"null","<div style=""font-size:60px;"">+</div>","","html-keyboard-response","176","911340","0.0-15.0-0.12","8253","List1B","black","man","","","","null","","","","","","","","",""
"null","<img src=""stim_listB/touch5.gif""style=""height:400px;""></stim_listB>","","html-keyboard-response","177","913344","0.0-15.0-1.12","8253","List1B","black","man","","","","null","","","","","","","","",""
"null","is touching","","html-keyboard-response","178","915346","0.0-15.0-2.12","8253","List1B","black","man","","","","null","","","","","","","","",""
"10679.799999952316","","","survey-text","179","926029","0.0-15.0-3.12","8253","List1B","black","man","","","","","{""Q0"":""mike is touching dave ""}","<img src=""stim_listB/touch5.gif""style=""height:400px;""></stim_listB>","is touching","","","","","",""
"null","<div style=""font-size:60px;"">+</div>","","html-keyboard-response","180","926531","0.0-15.0-0.13","8253","List1B","black","man","","","","null","","","","","","","","",""
"null","<img src=""stim_listB/look8.gif""style=""height:400px;""></stim_listB>","","html-keyboard-response","181","928535","0.0-15.0-1.13","8253","List1B","black","man","","","","null","","","","","","","","",""
"null","is being looked at by","","html-keyboard-response","182","930538","0.0-15.0-2.13","8253","List1B","black","man","","","","null","","","","","","","","",""
"11495.400000095367","","","survey-text","183","942037","0.0-15.0-3.13","8253","List1B","black","man","","","","","{""Q0"":""kate is being looked at by jane ""}","<img src=""stim_listB/look8.gif""style=""height:400px;""></stim_listB>","is being looked at by","","","","","",""
"null","<div style=""font-size:60px;"">+</div>","","html-keyboard-response","184","942539","0.0-15.0-0.14","8253","List1B","black","man","","","","null","","","","","","","","",""
"null","<img src=""stim_listB/shout4.gif""style=""height:400px;""></stim_listB>","","html-keyboard-response","185","944545","0.0-15.0-1.14","8253","List1B","black","man","","","","null","","","","","","","","",""
"null","is being shouted at by","","html-keyboard-response","186","946551","0.0-15.0-2.14","8253","List1B","black","man","","","","null","","","","","","","","",""
"15487.899999856949","","","survey-text","187","962043","0.0-15.0-3.14","8253","List1B","black","man","","","","","{""Q0"":""dave is being shouted at by jane ""}","<img src=""stim_listB/shout4.gif""style=""height:400px;""></stim_listB>","is being shouted at by","","","","","",""
"null","<div style=""font-size:60px;"">+</div>","","html-keyboard-response","188","962548","0.0-15.0-0.15","8253","List1B","black","man","","","","null","","","","","","","","",""
"null","<img src=""stim_listB/seduce2.gif""style=""height:400px;""></stim_listB>","","html-keyboard-response","189","964555","0.0-15.0-1.15","8253","List1B","black","man","","","","null","","","","","","","","",""
"null","is being seduced by","","html-keyboard-response","190","966560","0.0-15.0-2.15","8253","List1B","black","man","","","","null","","","","","","","","",""
"7942.899999856949","","","survey-text","191","974507","0.0-15.0-3.15","8253","List1B","black","man","","","","","{""Q0"":""mike is seducing beth ""}","<img src=""stim_listB/seduce2.gif""style=""height:400px;""></stim_listB>","is being seduced by","","","","","",""
"null","<div style=""font-size:60px;"">+</div>","","html-keyboard-response","192","975011","0.0-15.0-0.16","8253","List1B","black","man","","","","null","","","","","","","","",""
"null","<img src=""stim_listB/kiss2.gif""style=""height:400px;""></stim_listB>","","html-keyboard-response","193","977016","0.0-15.0-1.16","8253","List1B","black","man","","","","null","","","","","","","","",""
"null","is being kissed by","","html-keyboard-response","194","979021","0.0-15.0-2.16","8253","List1B","black","man","","","","null","","","","","","","","",""
"9223.900000095367","","","survey-text","195","988248","0.0-15.0-3.16","8253","List1B","black","man","","","","","{""Q0"":""mike is being kissed by kate ""}","<img src=""stim_listB/kiss2.gif""style=""height:400px;""></stim_listB>","is being kissed by","","","","","",""
"null","<div style=""font-size:60px;"">+</div>","","html-keyboard-response","196","988754","0.0-15.0-0.17","8253","List1B","black","man","","","","null","","","","","","","","",""
"null","<img src=""stim_listB/greet2.gif""style=""height:400px;""></stim_listB>","","html-keyboard-response","197","990757","0.0-15.0-1.17","8253","List1B","black","man","","","","null","","","","","","","","",""
"null","is being greeted by","","html-keyboard-response","198","992761","0.0-15.0-2.17","8253","List1B","black","man","","","","null","","","","","","","","",""
"11951","","","survey-text","199","1004716","0.0-15.0-3.17","8253","List1B","black","man","","","","","{""Q0"":""fred is being greeted by kate ""}","<img src=""stim_listB/greet2.gif""style=""height:400px;""></stim_listB>","is being greeted by","","","","","",""
"null","<div style=""font-size:60px;"">+</div>","","html-keyboard-response","200","1005221","0.0-15.0-0.18","8253","List1B","black","man","","","","null","","","","","","","","",""
"null","<img src=""stim_listB/greet3.gif""style=""height:400px;""></stim_listB>","","html-keyboard-response","201","1007225","0.0-15.0-1.18","8253","List1B","black","man","","","","null","","","","","","","","",""
"null","is greeting","","html-keyboard-response","202","1009226","0.0-15.0-2.18","8253","List1B","black","man","","","","null","","","","","","","","",""
"6154.100000143051","","","survey-text","203","1015384","0.0-15.0-3.18","8253","List1B","black","man","","","","","{""Q0"":""ruth is greeting dave ""}","<img src=""stim_listB/greet3.gif""style=""height:400px;""></stim_listB>","is greeting","","","","","",""
"null","<div style=""font-size:60px;"">+</div>","","html-keyboard-response","204","1015887","0.0-15.0-0.19","8253","List1B","black","man","","","","null","","","","","","","","",""
"null","<img src=""stim_listB/kiss6.gif""style=""height:400px;""></stim_listB>","","html-keyboard-response","205","1017892","0.0-15.0-1.19","8253","List1B","black","man","","","","null","","","","","","","","",""
"null","is being kissed by","","html-keyboard-response","206","1019895","0.0-15.0-2.19","8253","List1B","black","man","","","","null","","","","","","","","",""
"8101.5","","","survey-text","207","1027999","0.0-15.0-3.19","8253","List1B","black","man","","","","","{""Q0"":""mike is being kissed by dave ""}","<img src=""stim_listB/kiss6.gif""style=""height:400px;""></stim_listB>","is being kissed by","","","","","",""
"3545.899999856949","<img src='img/portrait_matrix_list1.jpg' style='width:900px;height:500px;''></img><p>If you have memorised all the portraits and names and are ready to start, press Continue.</p><p><strong>Please note: Your memory of these faces will be tested 4 times during this experiment.</strong></p>","0","html-button-response","208","1031547","0.0-16.0-0.0","8253","List1B","black","man","","","","","","","","","","","","",""
"2922.2000000476837","<img src=""portrait/BM1.jpg""style=""height:400px;""></img>","4","html-button-response","209","1035475","0.0-16.0-1.0","8253","List1B","black","man","","true","4","","","","","","","","","",""
"null","CORRECT","","html-keyboard-response","210","1036982","0.0-16.0-2.0-0.0","8253","List1B","black","man","","","","null","","","","","","","","",""
"1779","<img src=""portrait/WM2.jpg""style=""height:400px;""></img>","7","html-button-response","211","1038763","0.0-16.0-4.0","8253","List1B","black","man","","true","7","","","","","","","","","",""
"null","CORRECT","","html-keyboard-response","212","1040267","0.0-16.0-5.0-0.0","8253","List1B","black","man","","","","null","","","","","","","","",""
"4443.700000047684","<img src=""portrait/BW1.jpg""style=""height:400px;""></img>","0","html-button-response","213","1044713","0.0-16.0-7.0","8253","List1B","black","man","","true","0","","","","","","","","","",""
"null","CORRECT","","html-keyboard-response","214","1046223","0.0-16.0-8.0-0.0","8253","List1B","black","man","","","","null","","","","","","","","",""
"3191.2999999523163","<img src=""portrait/WW2.jpg""style=""height:400px;""></img>","3","html-button-response","215","1049417","0.0-16.0-10.0","8253","List1B","black","man","","true","3","","","","","","","","","",""
"null","CORRECT","","html-keyboard-response","216","1050928","0.0-16.0-11.0-0.0","8253","List1B","black","man","","","","null","","","","","","","","",""
"2734.7999999523163","<img src=""portrait/WM1.jpg""style=""height:400px;""></img>","6","html-button-response","217","1053665","0.0-16.0-13.0","8253","List1B","black","man","","true","6","","","","","","","","","",""
"null","CORRECT","","html-keyboard-response","218","1055172","0.0-16.0-14.0-0.0","8253","List1B","black","man","","","","null","","","","","","","","",""
"2898.600000143051","<img src=""portrait/BM2.jpg""style=""height:400px;""></img>","5","html-button-response","219","1058073","0.0-16.0-16.0","8253","List1B","black","man","","true","5","","","","","","","","","",""
"null","CORRECT","","html-keyboard-response","220","1059583","0.0-16.0-17.0-0.0","8253","List1B","black","man","","","","null","","","","","","","","",""
"2831.7999999523163","<img src=""portrait/BW2.jpg""style=""height:400px;""></img>","2","html-button-response","221","1062417","0.0-16.0-19.0","8253","List1B","black","man","","true","2","","","","","","","","","",""
"null","CORRECT","","html-keyboard-response","222","1063924","0.0-16.0-20.0-0.0","8253","List1B","black","man","","","","null","","","","","","","","",""
"1588","<img src=""portrait/WW1.jpg""style=""height:400px;""></img>","1","html-button-response","223","1065513","0.0-16.0-22.0","8253","List1B","black","man","","true","1","","","","","","","","","",""
"null","CORRECT","","html-keyboard-response","224","1067018","0.0-16.0-23.0-0.0","8253","List1B","black","man","","","","null","","","","","","","","",""
"1740.5","<p>You got 8 out of 8 right first time. Press Continue.</p>","0","html-button-response","225","1068761","0.0-16.0-25.0","8253","List1B","black","man","","","","","","","","","","","","",""
"null","<div style=""font-size:60px;"">+</div>","","html-keyboard-response","226","1070270","0.0-17.0-0.0","8253","List1B","black","man","","","","null","","","","","","","","",""
"null","<img src=""stim_listB/look2.gif""style=""height:400px;""></stim_listB>","","html-keyboard-response","227","1072275","0.0-17.0-1.0","8253","List1B","black","man","","","","null","","","","","","","","",""
"null","is being looked at by","","html-keyboard-response","228","1074284","0.0-17.0-2.0","8253","List1B","black","man","","","","null","","","","","","","","",""
"10409","","","survey-text","229","1084697","0.0-17.0-3.0","8253","List1B","black","man","","","","","{""Q0"":""kate is being looked at by mike ""}","<img src=""stim_listB/look2.gif""style=""height:400px;""></stim_listB>","is being looked at by","","","","","",""
"null","<div style=""font-size:60px;"">+</div>","","html-keyboard-response","230","1085200","0.0-17.0-0.1","8253","List1B","black","man","","","","null","","","","","","","","",""
"null","<img src=""stim_listB/kiss7.gif""style=""height:400px;""></stim_listB>","","html-keyboard-response","231","1087208","0.0-17.0-1.1","8253","List1B","black","man","","","","null","","","","","","","","",""
"null","is kissing","","html-keyboard-response","232","1089212","0.0-17.0-2.1","8253","List1B","black","man","","","","null","","","","","","","","",""
"11573.299999952316","","","survey-text","233","1100790","0.0-17.0-3.1","8253","List1B","black","man","","","","","{""Q0"":""beth is kissing ruth""}","<img src=""stim_listB/kiss7.gif""style=""height:400px;""></stim_listB>","is kissing","","","","","",""
"null","<div style=""font-size:60px;"">+</div>","","html-keyboard-response","234","1101297","0.0-17.0-0.2","8253","List1B","black","man","","","","null","","","","","","","","",""
"null","<img src=""stim_listB/copy7.gif""style=""height:400px;""></stim_listB>","","html-keyboard-response","235","1103304","0.0-17.0-1.2","8253","List1B","black","man","","","","null","","","","","","","","",""
"null","is copying","","html-keyboard-response","236","1105310","0.0-17.0-2.2","8253","List1B","black","man","","","","null","","","","","","","","",""
"7653.600000143051","","","survey-text","237","1112968","0.0-17.0-3.2","8253","List1B","black","man","","","","","{""Q0"":""ruth is copying kate ""}","<img src=""stim_listB/copy7.gif""style=""height:400px;""></stim_listB>","is copying","","","","","",""
"null","<div style=""font-size:60px;"">+</div>","","html-keyboard-response","238","1113473","0.0-17.0-0.3","8253","List1B","black","man","","","","null","","","","","","","","",""
"null","<img src=""stim_listB/challenge8.gif""style=""height:400px;""></stim_listB>","","html-keyboard-response","239","1115480","0.0-17.0-1.3","8253","List1B","black","man","","","","null","","","","","","","","",""
"null","is being challenged by","","html-keyboard-response","240","1117487","0.0-17.0-2.3","8253","List1B","black","man","","","","null","","","","","","","","",""
"13467","","","survey-text","241","1130958","0.0-17.0-3.3","8253","List1B","black","man","","","","","{""Q0"":""beth is being challenged by jane ""}","<img src=""stim_listB/challenge8.gif""style=""height:400px;""></stim_listB>","is being challenged by","","","","","",""
"null","<div style=""font-size:60px;"">+</div>","","html-keyboard-response","242","1131462","0.0-17.0-0.4","8253","List1B","black","man","","","","null","","","","","","","","",""
"null","<img src=""stim_listB/touch1.gif""style=""height:400px;""></stim_listB>","","html-keyboard-response","243","1133466","0.0-17.0-1.4","8253","List1B","black","man","","","","null","","","","","","","","",""
"null","is touching","","html-keyboard-response","244","1135473","0.0-17.0-2.4","8253","List1B","black","man","","","","null","","","","","","","","",""
"6401.700000047684","","","survey-text","245","1141879","0.0-17.0-3.4","8253","List1B","black","man","","","","","{""Q0"":""kate is touching mike ""}","<img src=""stim_listB/touch1.gif""style=""height:400px;""></stim_listB>","is touching","","","","","",""
"null","<div style=""font-size:60px;"">+</div>","","html-keyboard-response","246","1142385","0.0-17.0-0.5","8253","List1B","black","man","","","","null","","","","","","","","",""
"null","<img src=""stim_listB/look7.gif""style=""height:400px;""></stim_listB>","","html-keyboard-response","247","1144390","0.0-17.0-1.5","8253","List1B","black","man","","","","null","","","","","","","","",""
"null","is looking at","","html-keyboard-response","248","1146396","0.0-17.0-2.5","8253","List1B","black","man","","","","null","","","","","","","","",""
"6369.599999904633","","","survey-text","249","1152770","0.0-17.0-3.5","8253","List1B","black","man","","","","","{""Q0"":""ruth is looking at beth ""}","<img src=""stim_listB/look7.gif""style=""height:400px;""></stim_listB>","is looking at","","","","","",""
"null","<div style=""font-size:60px;"">+</div>","","html-keyboard-response","250","1153273","0.0-17.0-0.6","8253","List1B","black","man","","","","null","","","","","","","","",""
"null","<img src=""stim_listB/shout7.gif""style=""height:400px;""></stim_listB>","","html-keyboard-response","251","1155281","0.0-17.0-1.6","8253","List1B","black","man","","","","null","","","","","","","","",""
"null","is shouting at","","html-keyboard-response","252","1157289","0.0-17.0-2.6","8253","List1B","black","man","","","","null","","","","","","","","",""
"10858.5","","","survey-text","253","1168151","0.0-17.0-3.6","8253","List1B","black","man","","","","","{""Q0"":""ruth is shouting at beth ""}","<img src=""stim_listB/shout7.gif""style=""height:400px;""></stim_listB>","is shouting at","","","","","",""
"null","<div style=""font-size:60px;"">+</div>","","html-keyboard-response","254","1168655","0.0-17.0-0.7","8253","List1B","black","man","","","","null","","","","","","","","",""
"null","<img src=""stim_listB/oppose1.gif""style=""height:400px;""></stim_listB>","","html-keyboard-response","255","1170662","0.0-17.0-1.7","8253","List1B","black","man","","","","null","","","","","","","","",""
"null","is opposing","","html-keyboard-response","256","1172666","0.0-17.0-2.7","8253","List1B","black","man","","","","null","","","","","","","","",""
"8500.700000047684","","","survey-text","257","1181170","0.0-17.0-3.7","8253","List1B","black","man","","","","","{""Q0"":""mike is opposing kate""}","<img src=""stim_listB/oppose1.gif""style=""height:400px;""></stim_listB>","is opposing","","","","","",""
"null","<div style=""font-size:60px;"">+</div>","","html-keyboard-response","258","1181673","0.0-17.0-0.8","8253","List1B","black","man","","","","null","","","","","","","","",""
"null","<img src=""stim_listB/kiss4.gif""style=""height:400px;""></stim_listB>","","html-keyboard-response","259","1183678","0.0-17.0-1.8","8253","List1B","black","man","","","","null","","","","","","","","",""
"null","is being kissed by","","html-keyboard-response","260","1185684","0.0-17.0-2.8","8253","List1B","black","man","","","","null","","","","","","","","",""
"17473.099999904633","","","survey-text","261","1203162","0.0-17.0-3.8","8253","List1B","black","man","","","","","{""Q0"":""jane is being kissed by dave ""}","<img src=""stim_listB/kiss4.gif""style=""height:400px;""></stim_listB>","is being kissed by","","","","","",""
"null","<div style=""font-size:60px;"">+</div>","","html-keyboard-response","262","1203664","0.0-17.0-0.9","8253","List1B","black","man","","","","null","","","","","","","","",""
"null","<img src=""stim_listB/kiss5.gif""style=""height:400px;""></stim_listB>","","html-keyboard-response","263","1205670","0.0-17.0-1.9","8253","List1B","black","man","","","","null","","","","","","","","",""
"null","is kissing","","html-keyboard-response","264","1207673","0.0-17.0-2.9","8253","List1B","black","man","","","","null","","","","","","","","",""
"6184.700000047684","","","survey-text","265","1213861","0.0-17.0-3.9","8253","List1B","black","man","","","","","{""Q0"":""fred is kissing luke ""}","<img src=""stim_listB/kiss5.gif""style=""height:400px;""></stim_listB>","is kissing","","","","","",""
"null","<div style=""font-size:60px;"">+</div>","","html-keyboard-response","266","1214366","0.0-17.0-0.10","8253","List1B","black","man","","","","null","","","","","","","","",""
"null","<img src=""stim_listB/kiss3.gif""style=""height:400px;""></stim_listB>","","html-keyboard-response","267","1216372","0.0-17.0-1.10","8253","List1B","black","man","","","","null","","","","","","","","",""
"null","is kissing","","html-keyboard-response","268","1218380","0.0-17.0-2.10","8253","List1B","black","man","","","","null","","","","","","","","",""
"7666.899999856949","","","survey-text","269","1226052","0.0-17.0-3.10","8253","List1B","black","man","","","","","{""Q0"":""ruth is kissing luke ""}","<img src=""stim_listB/kiss3.gif""style=""height:400px;""></stim_listB>","is kissing","","","","","",""
"null","<div style=""font-size:60px;"">+</div>","","html-keyboard-response","270","1226555","0.0-17.0-0.11","8253","List1B","black","man","","","","null","","","","","","","","",""
"null","<img src=""stim_listB/hug7.gif""style=""height:400px;""></stim_listB>","","html-keyboard-response","271","1228561","0.0-17.0-1.11","8253","List1B","black","man","","","","null","","","","","","","","",""
"null","is hugging","","html-keyboard-response","272","1230566","0.0-17.0-2.11","8253","List1B","black","man","","","","null","","","","","","","","",""
"7396.700000047684","","","survey-text","273","1237967","0.0-17.0-3.11","8253","List1B","black","man","","","","","{""Q0"":""beth is hugging ruth ""}","<img src=""stim_listB/hug7.gif""style=""height:400px;""></stim_listB>","is hugging","","","","","",""
"null","<div style=""font-size:60px;"">+</div>","","html-keyboard-response","274","1238469","0.0-17.0-0.12","8253","List1B","black","man","","","","null","","","","","","","","",""
"null","<img src=""stim_listB/seduce8.gif""style=""height:400px;""></stim_listB>","","html-keyboard-response","275","1240483","0.0-17.0-1.12","8253","List1B","black","man","","","","null","","","","","","","","",""
"null","is being seduced by","","html-keyboard-response","276","1242490","0.0-17.0-2.12","8253","List1B","black","man","","","","null","","","","","","","","",""
"13626.400000095367","","","survey-text","277","1256121","0.0-17.0-3.12","8253","List1B","black","man","","","","","{""Q0"":""ruth is being seduced by kate ""}","<img src=""stim_listB/seduce8.gif""style=""height:400px;""></stim_listB>","is being seduced by","","","","","",""
"null","<div style=""font-size:60px;"">+</div>","","html-keyboard-response","278","1256622","0.0-17.0-0.13","8253","List1B","black","man","","","","null","","","","","","","","",""
"null","<img src=""stim_listB/copy1.gif""style=""height:400px;""></stim_listB>","","html-keyboard-response","279","1258629","0.0-17.0-1.13","8253","List1B","black","man","","","","null","","","","","","","","",""
"null","is copying","","html-keyboard-response","280","1260631","0.0-17.0-2.13","8253","List1B","black","man","","","","null","","","","","","","","",""
"17913.299999952316","","","survey-text","281","1278547","0.0-17.0-3.13","8253","List1B","black","man","","","","","{""Q0"":""mike is copying beth ""}","<img src=""stim_listB/copy1.gif""style=""height:400px;""></stim_listB>","is copying","","","","","",""
"null","<div style=""font-size:60px;"">+</div>","","html-keyboard-response","282","1279053","0.0-17.0-0.14","8253","List1B","black","man","","","","null","","","","","","","","",""
"null","<img src=""stim_listB/copy8.gif""style=""height:400px;""></stim_listB>","","html-keyboard-response","283","1281058","0.0-17.0-1.14","8253","List1B","black","man","","","","null","","","","","","","","",""
"null","is being copied by","","html-keyboard-response","284","1283061","0.0-17.0-2.14","8253","List1B","black","man","","","","null","","","","","","","","",""
"13818.800000190735","","","survey-text","285","1296883","0.0-17.0-3.14","8253","List1B","black","man","","","","","{""Q0"":""jane is being copied by beth ""}","<img src=""stim_listB/copy8.gif""style=""height:400px;""></stim_listB>","is being copied by","","","","","",""
"null","<div style=""font-size:60px;"">+</div>","","html-keyboard-response","286","1297385","0.0-17.0-0.15","8253","List1B","black","man","","","","null","","","","","","","","",""
"null","<img src=""stim_listB/challenge7.gif""style=""height:400px;""></stim_listB>","","html-keyboard-response","287","1299389","0.0-17.0-1.15","8253","List1B","black","man","","","","null","","","","","","","","",""
"null","is challenging","","html-keyboard-response","288","1301395","0.0-17.0-2.15","8253","List1B","black","man","","","","null","","","","","","","","",""
"17505.200000047684","","","survey-text","289","1318903","0.0-17.0-3.15","8253","List1B","black","man","","","","","{""Q0"":""kate is challenging ruth ""}","<img src=""stim_listB/challenge7.gif""style=""height:400px;""></stim_listB>","is challenging","","","","","",""
"null","<div style=""font-size:60px;"">+</div>","","html-keyboard-response","290","1319409","0.0-17.0-0.16","8253","List1B","black","man","","","","null","","","","","","","","",""
"null","<img src=""stim_listB/look4.gif""style=""height:400px;""></stim_listB>","","html-keyboard-response","291","1321415","0.0-17.0-1.16","8253","List1B","black","man","","","","null","","","","","","","","",""
"null","is being looked at by","","html-keyboard-response","292","1323417","0.0-17.0-2.16","8253","List1B","black","man","","","","null","","","","","","","","",""
"17736.400000095367","","","survey-text","293","1341153","0.0-17.0-3.16","8253","List1B","black","man","","","","","{""Q0"":""dave is being looked at by jane ""}","<img src=""stim_listB/look4.gif""style=""height:400px;""></stim_listB>","is being looked at by","","","","","",""
"null","<div style=""font-size:60px;"">+</div>","","html-keyboard-response","294","1341655","0.0-17.0-0.17","8253","List1B","black","man","","","","null","","","","","","","","",""
"null","<img src=""stim_listB/oppose8.gif""style=""height:400px;""></stim_listB>","","html-keyboard-response","295","1343663","0.0-17.0-1.17","8253","List1B","black","man","","","","null","","","","","","","","",""
"null","is being opposed by","","html-keyboard-response","296","1345668","0.0-17.0-2.17","8253","List1B","black","man","","","","null","","","","","","","","",""
"20681.200000047684","","","survey-text","297","1366353","0.0-17.0-3.17","8253","List1B","black","man","","","","","{""Q0"":""beth is being opposed by ruth ""}","<img src=""stim_listB/oppose8.gif""style=""height:400px;""></stim_listB>","is being opposed by","","","","","",""
"null","<div style=""font-size:60px;"">+</div>","","html-keyboard-response","298","1366856","0.0-17.0-0.18","8253","List1B","black","man","","","","null","","","","","","","","",""
"null","<img src=""stim_listB/greet6.gif""style=""height:400px;""></stim_listB>","","html-keyboard-response","299","1368861","0.0-17.0-1.18","8253","List1B","black","man","","","","null","","","","","","","","",""
"null","is being greeted by","","html-keyboard-response","300","1370864","0.0-17.0-2.18","8253","List1B","black","man","","","","null","","","","","","","","",""
"11949.099999904633","","","survey-text","301","1382816","0.0-17.0-3.18","8253","List1B","black","man","","","","","{""Q0"":""dave is being greeted by fred ""}","<img src=""stim_listB/greet6.gif""style=""height:400px;""></stim_listB>","is being greeted by","","","","","",""
"null","<div style=""font-size:60px;"">+</div>","","html-keyboard-response","302","1383320","0.0-17.0-0.19","8253","List1B","black","man","","","","null","","","","","","","","",""
"null","<img src=""stim_listB/copy3.gif""style=""height:400px;""></stim_listB>","","html-keyboard-response","303","1385326","0.0-17.0-1.19","8253","List1B","black","man","","","","null","","","","","","","","",""
"null","is copying","","html-keyboard-response","304","1387328","0.0-17.0-2.19","8253","List1B","black","man","","","","null","","","","","","","","",""
"7754.799999952316","","","survey-text","305","1395086","0.0-17.0-3.19","8253","List1B","black","man","","","","","{""Q0"":""ruth is copying dave ""}","<img src=""stim_listB/copy3.gif""style=""height:400px;""></stim_listB>","is copying","","","","","",""
"3695.2000000476837","<img src='img/portrait_matrix_list1.jpg' style='width:900px;height:500px;''></img><p>If you have memorised all the portraits and names and are ready to start, press Continue.</p><p><strong>Please note: Your memory of these faces will be tested 4 times during this experiment.</strong></p>","0","html-button-response","306","1398783","0.0-18.0-0.0","8253","List1B","black","man","","","","","","","","","","","","",""
"1997.6000001430511","<img src=""portrait/WM2.jpg""style=""height:400px;""></img>","7","html-button-response","307","1401783","0.0-18.0-1.0","8253","List1B","black","man","","true","7","","","","","","","","","",""
"null","CORRECT","","html-keyboard-response","308","1403285","0.0-18.0-2.0-0.0","8253","List1B","black","man","","","","null","","","","","","","","",""
"6118.200000047684","<img src=""portrait/BW1.jpg""style=""height:400px;""></img>","0","html-button-response","309","1409406","0.0-18.0-4.0","8253","List1B","black","man","","true","0","","","","","","","","","",""
"null","CORRECT","","html-keyboard-response","310","1410913","0.0-18.0-5.0-0.0","8253","List1B","black","man","","","","null","","","","","","","","",""
"2970.899999856949","<img src=""portrait/WW2.jpg""style=""height:400px;""></img>","3","html-button-response","311","1413886","0.0-18.0-7.0","8253","List1B","black","man","","true","3","","","","","","","","","",""
"null","CORRECT","","html-keyboard-response","312","1415394","0.0-18.0-8.0-0.0","8253","List1B","black","man","","","","null","","","","","","","","",""
"2530.0999999046326","<img src=""portrait/WW1.jpg""style=""height:400px;""></img>","1","html-button-response","313","1417926","0.0-18.0-10.0","8253","List1B","black","man","","true","1","","","","","","","","","",""
"null","CORRECT","","html-keyboard-response","314","1419435","0.0-18.0-11.0-0.0","8253","List1B","black","man","","","","null","","","","","","","","",""
"2705.9000000953674","<img src=""portrait/BM2.jpg""style=""height:400px;""></img>","5","html-button-response","315","1422143","0.0-18.0-13.0","8253","List1B","black","man","","true","5","","","","","","","","","",""
"null","CORRECT","","html-keyboard-response","316","1423651","0.0-18.0-14.0-0.0","8253","List1B","black","man","","","","null","","","","","","","","",""
"1953.2000000476837","<img src=""portrait/BW2.jpg""style=""height:400px;""></img>","2","html-button-response","317","1425606","0.0-18.0-16.0","8253","List1B","black","man","","true","2","","","","","","","","","",""
"null","CORRECT","","html-keyboard-response","318","1427115","0.0-18.0-17.0-0.0","8253","List1B","black","man","","","","null","","","","","","","","",""
"3057.100000143051","<img src=""portrait/BM1.jpg""style=""height:400px;""></img>","4","html-button-response","319","1430174","0.0-18.0-19.0","8253","List1B","black","man","","true","4","","","","","","","","","",""
"null","CORRECT","","html-keyboard-response","320","1431685","0.0-18.0-20.0-0.0","8253","List1B","black","man","","","","null","","","","","","","","",""
"3102.7999999523163","<img src=""portrait/WM1.jpg""style=""height:400px;""></img>","6","html-button-response","321","1434791","0.0-18.0-22.0","8253","List1B","black","man","","true","6","","","","","","","","","",""
"null","CORRECT","","html-keyboard-response","322","1436298","0.0-18.0-23.0-0.0","8253","List1B","black","man","","","","null","","","","","","","","",""
"1345.5","<p>You got 8 out of 8 right first time. Press Continue.</p>","0","html-button-response","323","1437646","0.0-18.0-25.0","8253","List1B","black","man","","","","","","","","","","","","",""
"null","<div style=""font-size:60px;"">+</div>","","html-keyboard-response","324","1439154","0.0-19.0-0.0","8253","List1B","black","man","","","","null","","","","","","","","",""
"null","<img src=""stim_listB/challenge4.gif""style=""height:400px;""></stim_listB>","","html-keyboard-response","325","1441162","0.0-19.0-1.0","8253","List1B","black","man","","","","null","","","","","","","","",""
"null","is being challenged by","","html-keyboard-response","326","1443166","0.0-19.0-2.0","8253","List1B","black","man","","","","null","","","","","","","","",""
"10381.5","","","survey-text","327","1453552","0.0-19.0-3.0","8253","List1B","black","man","","","","","{""Q0"":""jane is being challenged by luke ""}","<img src=""stim_listB/challenge4.gif""style=""height:400px;""></stim_listB>","is being challenged by","","","","","",""
"null","<div style=""font-size:60px;"">+</div>","","html-keyboard-response","328","1454057","0.0-19.0-0.1","8253","List1B","black","man","","","","null","","","","","","","","",""
"null","<img src=""stim_listB/seduce4.gif""style=""height:400px;""></stim_listB>","","html-keyboard-response","329","1456062","0.0-19.0-1.1","8253","List1B","black","man","","","","null","","","","","","","","",""
"null","is being seduced by","","html-keyboard-response","330","1458067","0.0-19.0-2.1","8253","List1B","black","man","","","","null","","","","","","","","",""
"8659.799999952316","","","survey-text","331","1466733","0.0-19.0-3.1","8253","List1B","black","man","","","","","{""Q0"":""ruth is being seduced by dave ""}","<img src=""stim_listB/seduce4.gif""style=""height:400px;""></stim_listB>","is being seduced by","","","","","",""
"null","<div style=""font-size:60px;"">+</div>","","html-keyboard-response","332","1467239","0.0-19.0-0.2","8253","List1B","black","man","","","","null","","","","","","","","",""
"null","<img src=""stim_listB/kiss8.gif""style=""height:400px;""></stim_listB>","","html-keyboard-response","333","1469246","0.0-19.0-1.2","8253","List1B","black","man","","","","null","","","","","","","","",""
"null","is being kissed by","","html-keyboard-response","334","1471253","0.0-19.0-2.2","8253","List1B","black","man","","","","null","","","","","","","","",""
"9522.200000047684","","","survey-text","335","1480779","0.0-19.0-3.2","8253","List1B","black","man","","","","","{""Q0"":""jane is being kissed by kate ""}","<img src=""stim_listB/kiss8.gif""style=""height:400px;""></stim_listB>","is being kissed by","","","","","",""
"null","<div style=""font-size:60px;"">+</div>","","html-keyboard-response","336","1481285","0.0-19.0-0.3","8253","List1B","black","man","","","","null","","","","","","","","",""
"null","<img src=""stim_listB/look6.gif""style=""height:400px;""></stim_listB>","","html-keyboard-response","337","1483290","0.0-19.0-1.3","8253","List1B","black","man","","","","null","","","","","","","","",""
"null","is being looked at by","","html-keyboard-response","338","1485297","0.0-19.0-2.3","8253","List1B","black","man","","","","null","","","","","","","","",""
"10005.5","","","survey-text","339","1495306","0.0-19.0-3.3","8253","List1B","black","man","","","","","{""Q0"":""dave is being looked at by mike ""}","<img src=""stim_listB/look6.gif""style=""height:400px;""></stim_listB>","is being looked at by","","","","","",""
"null","<div style=""font-size:60px;"">+</div>","","html-keyboard-response","340","1495808","0.0-19.0-0.4","8253","List1B","black","man","","","","null","","","","","","","","",""
"null","<img src=""stim_listB/challenge1.gif""style=""height:400px;""></stim_listB>","","html-keyboard-response","341","1497813","0.0-19.0-1.4","8253","List1B","black","man","","","","null","","","","","","","","",""
"null","is challenging","","html-keyboard-response","342","1499816","0.0-19.0-2.4","8253","List1B","black","man","","","","null","","","","","","","","",""
"12212.5","","","survey-text","343","1512033","0.0-19.0-3.4","8253","List1B","black","man","","","","","{""Q0"":""beth is challenging mike ""}","<img src=""stim_listB/challenge1.gif""style=""height:400px;""></stim_listB>","is challenging","","","","","",""
"null","<div style=""font-size:60px;"">+</div>","","html-keyboard-response","344","1512535","0.0-19.0-0.5","8253","List1B","black","man","","","","null","","","","","","","","",""
"null","<img src=""stim_listB/hug8.gif""style=""height:400px;""></stim_listB>","","html-keyboard-response","345","1514543","0.0-19.0-1.5","8253","List1B","black","man","","","","null","","","","","","","","",""
"null","is being hugged by","","html-keyboard-response","346","1516551","0.0-19.0-2.5","8253","List1B","black","man","","","","null","","","","","","","","",""
"8607.100000143051","","","survey-text","347","1525168","0.0-19.0-3.5","8253","List1B","black","man","","","","","{""Q0"":""kate is being hugged by jane ""}","<img src=""stim_listB/hug8.gif""style=""height:400px;""></stim_listB>","is being hugged by","","","","","",""
"null","<div style=""font-size:60px;"">+</div>","","html-keyboard-response","348","1525673","0.0-19.0-0.6","8253","List1B","black","man","","","","null","","","","","","","","",""
"null","<img src=""stim_listB/challenge6.gif""style=""height:400px;""></stim_listB>","","html-keyboard-response","349","1527678","0.0-19.0-1.6","8253","List1B","black","man","","","","null","","","","","","","","",""
"null","is being challenged by","","html-keyboard-response","350","1529685","0.0-19.0-2.6","8253","List1B","black","man","","","","null","","","","","","","","",""
"11679.799999952316","","","survey-text","351","1541369","0.0-19.0-3.6","8253","List1B","black","man","","","","","{""Q0"":""fred is being challenged by dave ""}","<img src=""stim_listB/challenge6.gif""style=""height:400px;""></stim_listB>","is being challenged by","","","","","",""
"null","<div style=""font-size:60px;"">+</div>","","html-keyboard-response","352","1541873","0.0-19.0-0.7","8253","List1B","black","man","","","","null","","","","","","","","",""
"null","<img src=""stim_listB/seduce5.gif""style=""height:400px;""></stim_listB>","","html-keyboard-response","353","1543881","0.0-19.0-1.7","8253","List1B","black","man","","","","null","","","","","","","","",""
"null","is seducing","","html-keyboard-response","354","1545886","0.0-19.0-2.7","8253","List1B","black","man","","","","null","","","","","","","","",""
"8125.399999856949","","","survey-text","355","1554015","0.0-19.0-3.7","8253","List1B","black","man","","","","","{""Q0"":""dave is seducing fred ""}","<img src=""stim_listB/seduce5.gif""style=""height:400px;""></stim_listB>","is seducing","","","","","",""
"null","<div style=""font-size:60px;"">+</div>","","html-keyboard-response","356","1554520","0.0-19.0-0.8","8253","List1B","black","man","","","","null","","","","","","","","",""
"null","<img src=""stim_listB/shout6.gif""style=""height:400px;""></stim_listB>","","html-keyboard-response","357","1556525","0.0-19.0-1.8","8253","List1B","black","man","","","","null","","","","","","","","",""
"null","is being shouted at by","","html-keyboard-response","358","1558530","0.0-19.0-2.8","8253","List1B","black","man","","","","null","","","","","","","","",""
"13375.800000190735","","","survey-text","359","1571911","0.0-19.0-3.8","8253","List1B","black","man","","","","","{""Q0"":""mike is being shouted at by dave ""}","<img src=""stim_listB/shout6.gif""style=""height:400px;""></stim_listB>","is being shouted at by","","","","","",""
"null","<div style=""font-size:60px;"">+</div>","","html-keyboard-response","360","1572418","0.0-19.0-0.9","8253","List1B","black","man","","","","null","","","","","","","","",""
"null","<img src=""stim_listB/shout1.gif""style=""height:400px;""></stim_listB>","","html-keyboard-response","361","1574427","0.0-19.0-1.9","8253","List1B","black","man","","","","null","","","","","","","","",""
"null","is shouting at","","html-keyboard-response","362","1576431","0.0-19.0-2.9","8253","List1B","black","man","","","","null","","","","","","","","",""
"10735.099999904633","","","survey-text","363","1587167","0.0-19.0-3.9","8253","List1B","black","man","","","","","{""Q0"":""beth is shouting at fred ""}","<img src=""stim_listB/shout1.gif""style=""height:400px;""></stim_listB>","is shouting at","","","","","",""
"null","<div style=""font-size:60px;"">+</div>","","html-keyboard-response","364","1587672","0.0-19.0-0.10","8253","List1B","black","man","","","","null","","","","","","","","",""
"null","<img src=""stim_listB/seduce6.gif""style=""height:400px;""></stim_listB>","","html-keyboard-response","365","1589681","0.0-19.0-1.10","8253","List1B","black","man","","","","null","","","","","","","","",""
"null","is being seduced by","","html-keyboard-response","366","1591685","0.0-19.0-2.10","8253","List1B","black","man","","","","null","","","","","","","","",""
"11032.599999904633","","","survey-text","367","1602721","0.0-19.0-3.10","8253","List1B","black","man","","","","","{""Q0"":""mike is being seduced by luke ""}","<img src=""stim_listB/seduce6.gif""style=""height:400px;""></stim_listB>","is being seduced by","","","","","",""
"null","<div style=""font-size:60px;"">+</div>","","html-keyboard-response","368","1603225","0.0-19.0-0.11","8253","List1B","black","man","","","","null","","","","","","","","",""
"null","<img src=""stim_listB/look3.gif""style=""height:400px;""></stim_listB>","","html-keyboard-response","369","1605231","0.0-19.0-1.11","8253","List1B","black","man","","","","null","","","","","","","","",""
"null","is looking at","","html-keyboard-response","370","1607237","0.0-19.0-2.11","8253","List1B","black","man","","","","null","","","","","","","","",""
"12635.5","","","survey-text","371","1619877","0.0-19.0-3.11","8253","List1B","black","man","","","","","{""Q0"":""ruth is looking at luke ""}","<img src=""stim_listB/look3.gif""style=""height:400px;""></stim_listB>","is looking at","","","","","",""
"null","<div style=""font-size:60px;"">+</div>","","html-keyboard-response","372","1620381","0.0-19.0-0.12","8253","List1B","black","man","","","","null","","","","","","","","",""
"null","<img src=""stim_listB/oppose5.gif""style=""height:400px;""></stim_listB>","","html-keyboard-response","373","1622387","0.0-19.0-1.12","8253","List1B","black","man","","","","null","","","","","","","","",""
"null","is opposing","","html-keyboard-response","374","1624390","0.0-19.0-2.12","8253","List1B","black","man","","","","null","","","","","","","","",""
"6346.899999856949","","","survey-text","375","1630742","0.0-19.0-3.12","8253","List1B","black","man","","","","","{""Q0"":""mike is opposing dave ""}","<img src=""stim_listB/oppose5.gif""style=""height:400px;""></stim_listB>","is opposing","","","","","",""
"null","<div style=""font-size:60px;"">+</div>","","html-keyboard-response","376","1631246","0.0-19.0-0.13","8253","List1B","black","man","","","","null","","","","","","","","",""
"null","<img src=""stim_listB/seduce3.gif""style=""height:400px;""></stim_listB>","","html-keyboard-response","377","1633255","0.0-19.0-1.13","8253","List1B","black","man","","","","null","","","","","","","","",""
"null","is seducing","","html-keyboard-response","378","1635259","0.0-19.0-2.13","8253","List1B","black","man","","","","null","","","","","","","","",""
"9625.700000047684","","","survey-text","379","1644892","0.0-19.0-3.13","8253","List1B","black","man","","","","","{""Q0"":""jane is seducing luke ""}","<img src=""stim_listB/seduce3.gif""style=""height:400px;""></stim_listB>","is seducing","","","","","",""
"null","<div style=""font-size:60px;"">+</div>","","html-keyboard-response","380","1645398","0.0-19.0-0.14","8253","List1B","black","man","","","","null","","","","","","","","",""
"null","<img src=""stim_listB/greet8.gif""style=""height:400px;""></stim_listB>","","html-keyboard-response","381","1647402","0.0-19.0-1.14","8253","List1B","black","man","","","","null","","","","","","","","",""
"null","is being greeted by","","html-keyboard-response","382","1649407","0.0-19.0-2.14","8253","List1B","black","man","","","","null","","","","","","","","",""
"10201.699999809265","","","survey-text","383","1659612","0.0-19.0-3.14","8253","List1B","black","man","","","","","{""Q0"":""beth is being greeted by jane ""}","<img src=""stim_listB/greet8.gif""style=""height:400px;""></stim_listB>","is being greeted by","","","","","",""
"null","<div style=""font-size:60px;"">+</div>","","html-keyboard-response","384","1660113","0.0-19.0-0.15","8253","List1B","black","man","","","","null","","","","","","","","",""
"null","<img src=""stim_listB/oppose4.gif""style=""height:400px;""></stim_listB>","","html-keyboard-response","385","1662116","0.0-19.0-1.15","8253","List1B","black","man","","","","null","","","","","","","","",""
"null","is being opposed by","","html-keyboard-response","386","1664121","0.0-19.0-2.15","8253","List1B","black","man","","","","null","","","","","","","","",""
"10519","","","survey-text","387","1674644","0.0-19.0-3.15","8253","List1B","black","man","","","","","{""Q0"":""luke is being opposed by ruth ""}","<img src=""stim_listB/oppose4.gif""style=""height:400px;""></stim_listB>","is being opposed by","","","","","",""
"null","<div style=""font-size:60px;"">+</div>","","html-keyboard-response","388","1675145","0.0-19.0-0.16","8253","List1B","black","man","","","","null","","","","","","","","",""
"null","<img src=""stim_listB/look1.gif""style=""height:400px;""></stim_listB>","","html-keyboard-response","389","1677150","0.0-19.0-1.16","8253","List1B","black","man","","","","null","","","","","","","","",""
"null","is looking at","","html-keyboard-response","390","1679153","0.0-19.0-2.16","8253","List1B","black","man","","","","null","","","","","","","","",""
"12180","","","survey-text","391","1691340","0.0-19.0-3.16","8253","List1B","black","man","","","","","{""Q0"":""beth is looking at fred ""}","<img src=""stim_listB/look1.gif""style=""height:400px;""></stim_listB>","is looking at","","","","","",""
"null","<div style=""font-size:60px;"">+</div>","","html-keyboard-response","392","1691842","0.0-19.0-0.17","8253","List1B","black","man","","","","null","","","","","","","","",""
"null","<img src=""stim_listB/copy5.gif""style=""height:400px;""></stim_listB>","","html-keyboard-response","393","1693849","0.0-19.0-1.17","8253","List1B","black","man","","","","null","","","","","","","","",""
"null","is copying","","html-keyboard-response","394","1695855","0.0-19.0-2.17","8253","List1B","black","man","","","","null","","","","","","","","",""
"8121.5","","","survey-text","395","1703981","0.0-19.0-3.17","8253","List1B","black","man","","","","","{""Q0"":""mike is copying luke ""}","<img src=""stim_listB/copy5.gif""style=""height:400px;""></stim_listB>","is copying","","","","","",""
"null","<div style=""font-size:60px;"">+</div>","","html-keyboard-response","396","1704482","0.0-19.0-0.18","8253","List1B","black","man","","","","null","","","","","","","","",""
"null","<img src=""stim_listB/greet1.gif""style=""height:400px;""></stim_listB>","","html-keyboard-response","397","1706486","0.0-19.0-1.18","8253","List1B","black","man","","","","null","","","","","","","","",""
"null","is greeting","","html-keyboard-response","398","1708491","0.0-19.0-2.18","8253","List1B","black","man","","","","null","","","","","","","","",""
"6856.299999952316","","","survey-text","399","1715351","0.0-19.0-3.18","8253","List1B","black","man","","","","","{""Q0"":""beth is greeting mike ""}","<img src=""stim_listB/greet1.gif""style=""height:400px;""></stim_listB>","is greeting","","","","","",""
"null","<div style=""font-size:60px;"">+</div>","","html-keyboard-response","400","1715857","0.0-19.0-0.19","8253","List1B","black","man","","","","null","","","","","","","","",""
"null","<img src=""stim_listB/hug3.gif""style=""height:400px;""></stim_listB>","","html-keyboard-response","401","1717865","0.0-19.0-1.19","8253","List1B","black","man","","","","null","","","","","","","","",""
"null","is hugging","","html-keyboard-response","402","1719871","0.0-19.0-2.19","8253","List1B","black","man","","","","null","","","","","","","","",""
"10398.299999952316","","","survey-text","403","1730273","0.0-19.0-3.19","8253","List1B","black","man","","","","","{""Q0"":""ruth is hugging luke ""}","<img src=""stim_listB/hug3.gif""style=""height:400px;""></stim_listB>","is hugging","","","","","",""
"3464.5","<p>Thank you for completing that task.</p><p>The final part of this session is a questionnaire that will take about 4 minutes.</p><p>Press Continue.</p>","0","html-button-response","404","1733738","0.0-20.0","8253","List1B","black","man","","","","","","","","","","","","",""
"67141.60000014305","","","survey-text","405","1801888","0.0-21.0","8253","List1B","black","man","","","","","{""Q0"":""44"",""Q1"":""English"",""Q2"":""English "",""Q3"":""USA"",""Q4"":""American "",""Q5"":""African/Black"",""Q6"":""Male ""}","","","demographics","","","","",""
"1805.0999999046326","<p>Have you lived in the USA for the last 5 years or more?</p>","0","html-button-response","406","1803696","0.0-22.0","8253","List1B","black","man","","","","","","","","fiveyears","","","","",""
"1410.7000000476837","<p>Move the slider to show the extent to which you agree with the following statements.</p>","0","html-button-response","407","1806112","0.0-23.0","8253","List1B","black","man","","","","","","","","","","","","",""
"4913.700000047684","","","html-slider-response","408","1812032","0.0-24.0-0.0-0.0","8253","List1B","black","man","","","","","","","","survey_gender","99","","","It is not always easy for people to know what I am thinking.","filler"
"2702","","","html-slider-response","409","1814736","0.0-24.0-0.0-0.1","8253","List1B","black","man","","","","","","","","survey_gender","25","","","I would say I am an animal person.","filler"
"3390.2000000476837","","","html-slider-response","410","1818128","0.0-24.0-0.0-0.2","8253","List1B","black","man","","","","","","","","survey_gender","100","","","I feel a bond with my gender.","bond"
"12174.400000095367","","","html-slider-response","411","1830302","0.0-24.0-0.0-0.3","8253","List1B","black","man","","","","","","","","survey_gender","87","","","I am glad to have the friends that I have.","filler"
"3278","","","html-slider-response","412","1833582","0.0-24.0-0.0-0.4","8253","List1B","black","man","","","","","","","","survey_gender","100","","","Being my gender is an important part of how I see myself.","important"
"4462.399999856949","","","html-slider-response","413","1838046","0.0-24.0-0.0-0.5","8253","List1B","black","man","","","","","","","","survey_gender","23","","","Routine is not important to me.","filler"
"3045.7999999523163","","","html-slider-response","414","1841094","0.0-24.0-0.0-0.6","8253","List1B","black","man","","","","","","","","survey_gender","100","","","Being my gender gives me a good feeling.","feeling"
"2919.7000000476837","","","html-slider-response","415","1844015","0.0-24.0-0.0-0.7","8253","List1B","black","man","","","","","","","","survey_gender","82","","","I consider myself a highly empathetic person.","filler"
"3502","","","html-slider-response","416","1847518","0.0-24.0-0.0-0.8","8253","List1B","black","man","","","","","","","","survey_gender","100","","","I think that my gender has a lot to be proud of.","proud"
"3702.5","","","html-slider-response","417","1851222","0.0-24.0-0.0-0.9","8253","List1B","black","man","","","","","","","","survey_gender","100","","","I often think about the fact that I am my gender.","often"
"3174.2000000476837","","","html-slider-response","418","1854398","0.0-24.0-0.0-0.10","8253","List1B","black","man","","","","","","","","survey_gender","70","","","I am similar to the average person of my gender.","similar"
"4902.700000047684","","","html-slider-response","419","1859302","0.0-24.0-0.0-0.11","8253","List1B","black","man","","","","","","","","survey_gender","66","","","It is pleasant to be my gender.","pleasant"
"3422.5","","","html-slider-response","420","1862726","0.0-24.0-0.0-0.12","8253","List1B","black","man","","","","","","","","survey_gender","99","","","The fact that I am my gender is an important part of my identity.","identity"
"8838.5","","","html-slider-response","421","1871566","0.0-24.0-0.0-0.13","8253","List1B","black","man","","","","","","","","survey_gender","70","","","Being around my friends gives me a good feeling.","filler"
"4054.2000000476837","","","html-slider-response","422","1875622","0.0-24.0-0.0-0.14","8253","List1B","black","man","","","","","","","","survey_gender","59","","","I have a lot in common with the average person of my gender.","average"
"5950.400000095367","","","html-slider-response","423","1881574","0.0-24.0-0.0-0.15","8253","List1B","black","man","","","","","","","","survey_gender","100","","","I often think about my actions.","filler"
"3566.2999999523163","","","html-slider-response","424","1885144","0.0-24.0-0.0-0.16","8253","List1B","black","man","","","","","","","","survey_gender","75","","","Most of the friends in my life are very similar to me.","filler"
"2598.4000000953674","","","html-slider-response","425","1887745","0.0-24.0-0.0-0.17","8253","List1B","black","man","","","","","","","","survey_gender","77","","","I feel solidarity with my friends.","filler"
"2869.7999999523163","","","html-slider-response","426","1890616","0.0-24.0-0.0-0.18","8253","List1B","black","man","","","","","","","","survey_gender","73","","","My friends have a lot in common with each other.","filler"
"4166.700000047684","","","html-slider-response","427","1894785","0.0-24.0-0.0-0.19","8253","List1B","black","man","","","","","","","","survey_gender","73","","","People of my gender have a lot in common with each other.","common"
"3582.2000000476837","","","html-slider-response","428","1898368","0.0-24.0-0.0-0.20","8253","List1B","black","man","","","","","","","","survey_gender","70","","","My friends understand me.","filler"
"2894.2999999523163","","","html-slider-response","429","1901264","0.0-24.0-0.0-0.21","8253","List1B","black","man","","","","","","","","survey_gender","91","","","I feel a bond with my friends.","filler"
"13662.799999952316","","","html-slider-response","430","1914928","0.0-24.0-0.0-0.22","8253","List1B","black","man","","","","","","","","survey_gender","89","","","I feel committed to my gender.","committed"
"3262.600000143051","","","html-slider-response","431","1918192","0.0-24.0-0.0-0.23","8253","List1B","black","man","","","","","","","","survey_gender","78","","","I feel solidarity with my gender.","solidarity"
"14879","","","html-slider-response","432","1933072","0.0-24.0-0.0-0.24","8253","List1B","black","man","","","","","","","","survey_gender","15","","","Family is not more important to me than friendship.","filler"
"2678.5","","","html-slider-response","433","1935752","0.0-24.0-0.0-0.25","8253","List1B","black","man","","","","","","","","survey_gender","75","","","I have a lot in common with my friends.","filler"
"3367.2000000476837","","","html-slider-response","434","1939120","0.0-24.0-0.0-0.26","8253","List1B","black","man","","","","","","","","survey_gender","100","","","I am glad to be my gender.","glad"
"6758.5","","","html-slider-response","435","1945880","0.0-24.0-0.0-0.27","8253","List1B","black","man","","","","","","","","survey_gender","75","","","People of my gender are very similar to each other.","verysimilar"
"2926.7999999523163","","","html-slider-response","436","1948808","0.0-24.0-1.0-0.0","8253","List1B","black","man","","","","","","","","survey_race","100","","","It is pleasant to be my race.","pleasant"
"3639","","","html-slider-response","437","1952448","0.0-24.0-1.0-0.1","8253","List1B","black","man","","","","","","","","survey_race","100","","","People of my race have a lot in common with each other.","common"
"3478.600000143051","","","html-slider-response","438","1955929","0.0-24.0-1.0-0.2","8253","List1B","black","man","","","","","","","","survey_race","100","","","I feel solidarity with my race.","solidarity"
"4517.899999856949","","","html-slider-response","439","1960449","0.0-24.0-1.0-0.3","8253","List1B","black","man","","","","","","","","survey_race","76","","","I am similar to the average person of my race.","similar"
"3758.7000000476837","","","html-slider-response","440","1964209","0.0-24.0-1.0-0.4","8253","List1B","black","man","","","","","","","","survey_race","100","","","I think that my race has a lot to be proud of.","proud"
"3269.899999856949","","","html-slider-response","441","1967481","0.0-24.0-1.0-0.5","8253","List1B","black","man","","","","","","","","survey_race","99","","","The fact that I am my race is an important part of my identity.","identity"
"11838.199999809265","","","html-slider-response","442","1979321","0.0-24.0-1.0-0.6","8253","List1B","black","man","","","","","","","","survey_race","73","","","I enjoy being in large groups.","filler"
"3309.899999856949","","","html-slider-response","443","1982633","0.0-24.0-1.0-0.7","8253","List1B","black","man","","","","","","","","survey_race","100","","","I feel a bond with my race.","bond"
"3879","","","html-slider-response","444","1986513","0.0-24.0-1.0-0.8","8253","List1B","black","man","","","","","","","","survey_race","65","","","I feel solidarity with people the same age as me.","filler"
"2446.2000000476837","","","html-slider-response","445","1988960","0.0-24.0-1.0-0.9","8253","List1B","black","man","","","","","","","","survey_race","100","","","I am glad to be the age I am.","filler"
"3623.199999809265","","","html-slider-response","446","1992584","0.0-24.0-1.0-0.10","8253","List1B","black","man","","","","","","","","survey_race","70","","","I feel a bond with people the same age as me.","filler"
"4214.5","","","html-slider-response","447","1996800","0.0-24.0-1.0-0.11","8253","List1B","black","man","","","","","","","","survey_race","100","","","Being my race gives me a good feeling.","feeling"
"4134.700000047684","","","html-slider-response","448","2000937","0.0-24.0-1.0-0.12","8253","List1B","black","man","","","","","","","","survey_race","71","","","I have a lot in common with people of a similar age to me.","filler"
"3605.699999809265","","","html-slider-response","449","2004543","0.0-24.0-1.0-0.13","8253","List1B","black","man","","","","","","","","survey_race","78","","","People of my race are very similar to each other.","verysimilar"
"5566.399999856949","","","html-slider-response","450","2010111","0.0-24.0-1.0-0.14","8253","List1B","black","man","","","","","","","","survey_race","63","","","People my age have a lot in common with each other.","filler"
"7118.299999952316","","","html-slider-response","451","2017231","0.0-24.0-1.0-0.15","8253","List1B","black","man","","","","","","","","survey_race","77","","","My age is not an important part of who I am.","filler"
"12598.700000047684","","","html-slider-response","452","2029831","0.0-24.0-1.0-0.16","8253","List1B","black","man","","","","","","","","survey_race","78","","","I often think about the fact that I am my age.","filler"
"5341.400000095367","","","html-slider-response","453","2035175","0.0-24.0-1.0-0.17","8253","List1B","black","man","","","","","","","","survey_race","66","","","I have a lot in common with the average person of my race.","average"
"2910.5","","","html-slider-response","454","2038087","0.0-24.0-1.0-0.18","8253","List1B","black","man","","","","","","","","survey_race","100","","","I am glad to be my age.","filler"
"3470.0999999046326","","","html-slider-response","455","2041559","0.0-24.0-1.0-0.19","8253","List1B","black","man","","","","","","","","survey_race","100","","","Being my age gives me a good feeling.","filler"
"17502.599999904633","","","html-slider-response","456","2059063","0.0-24.0-1.0-0.20","8253","List1B","black","man","","","","","","","","survey_race","100","","","I am glad to be my race.","glad"
"10022.5","","","html-slider-response","457","2069086","0.0-24.0-1.0-0.21","8253","List1B","black","man","","","","","","","","survey_race","15","","","I consider myself an extrovert.","filler"
"4045.7000000476837","","","html-slider-response","458","2073134","0.0-24.0-1.0-0.22","8253","List1B","black","man","","","","","","","","survey_race","65","","","Getting older does not worry me.","filler"
"4230.200000047684","","","html-slider-response","459","2077366","0.0-24.0-1.0-0.23","8253","List1B","black","man","","","","","","","","survey_race","83","","","The older I get, the wiser I feel.","filler"
"3926.5999999046326","","","html-slider-response","460","2081294","0.0-24.0-1.0-0.24","8253","List1B","black","man","","","","","","","","survey_race","95","","","I consider myself an introvert.","filler"
"3294.5999999046326","","","html-slider-response","461","2084590","0.0-24.0-1.0-0.25","8253","List1B","black","man","","","","","","","","survey_race","100","","","I feel committed to my race.","committed"
"3551","","","html-slider-response","462","2088142","0.0-24.0-1.0-0.26","8253","List1B","black","man","","","","","","","","survey_race","100","","","Being my race is an important part of how I see myself.","important"
"3990.399999856949","","","html-slider-response","463","2092134","0.0-24.0-1.0-0.27","8253","List1B","black","man","","","","","","","","survey_race","100","","","I often think about the fact that I am my race.","often"
"10365.299999952316","","","survey-text","464","2102502","0.0-25.0","8253","List1B","black","man","","","","","{""Q0"":""61540fc6b07aca2bf1178706""}","","","worker_id","","","","",""
"3714","","","external-html","465","2108398","0.0-26.0","8253","List1B","black","man","debrief.html","","","","","","","","","","","",""
