"rt","stimulus","button_pressed","trial_type","trial_index","time_elapsed","internal_node_id","subject","list","ppt_race","ppt_gender","url","first_guess","correct","key_press","responses","image_type","phrase_type","test_part","response","stimulus1","stimulus2","question_type","survey_item"
"2762.9000000953674","Welcome to the experiment. Press Continue to begin.","0","html-button-response","0","2764","0.0-0.0","82632","List2A","black","woman","","","","","","","","","","","","",""
"19904","","","external-html","1","23850","0.0-1.0","82632","List2A","black","woman","consent.html","","","","","","","","","","","",""
"10456.199999809265","<p>On the next page, you will see portraits of 8 people and their names.</p><p>Your first task is to take a few minutes to memorise the names of these people.</p><p>You will have to recall their names during the rest of the experiment, so it is</p><p>essential that you try to memorise these people and their names as best as you can.</p><br><p><strong>You will then be tested on your memory of these names and portraits.</strong></p><br><p>The experiment will start after you have completed this memory test.</p><br><p>Ready?</p>","0","html-button-response","2","34307","0.0-2.0","82632","List2A","black","woman","","","","","","","","","","","","",""
"54861.09999990463","<img src='img/portrait_matrix_list2.jpg' style='width:900px;height:500px;''></img><p>If you have memorised all the portraits and names and are ready to start, press Continue.</p><p><strong>Please note: Your memory of these faces will be tested 4 times during this experiment.</strong></p>","0","html-button-response","3","90177","0.0-3.0-0.0","82632","List2A","black","woman","","","","","","","","","","","","",""
"3073.5","<img src=""portrait/BM1.jpg""style=""height:400px;""></img>","4","html-button-response","4","94254","0.0-3.0-1.0","82632","List2A","black","woman","","true","4","","","","","","","","","",""
"null","CORRECT","","html-keyboard-response","5","95771","0.0-3.0-2.0-0.0","82632","List2A","black","woman","","","","null","","","","","","","","",""
"4338.200000047684","<img src=""portrait/WW1.jpg""style=""height:400px;""></img>","1","html-button-response","6","100110","0.0-3.0-4.0","82632","List2A","black","woman","","true","1","","","","","","","","","",""
"null","CORRECT","","html-keyboard-response","7","101638","0.0-3.0-5.0-0.0","82632","List2A","black","woman","","","","null","","","","","","","","",""
"3193.7000000476837","<img src=""portrait/WM2.jpg""style=""height:400px;""></img>","7","html-button-response","8","104833","0.0-3.0-7.0","82632","List2A","black","woman","","true","7","","","","","","","","","",""
"null","CORRECT","","html-keyboard-response","9","106355","0.0-3.0-8.0-0.0","82632","List2A","black","woman","","","","null","","","","","","","","",""
"2140.399999856949","<img src=""portrait/WW2.jpg""style=""height:400px;""></img>","3","html-button-response","10","108496","0.0-3.0-10.0","82632","List2A","black","woman","","true","3","","","","","","","","","",""
"null","CORRECT","","html-keyboard-response","11","110013","0.0-3.0-11.0-0.0","82632","List2A","black","woman","","","","null","","","","","","","","",""
"3697.0999999046326","<img src=""portrait/BW1.jpg""style=""height:400px;""></img>","0","html-button-response","12","113711","0.0-3.0-13.0","82632","List2A","black","woman","","true","0","","","","","","","","","",""
"null","CORRECT","","html-keyboard-response","13","115224","0.0-3.0-14.0-0.0","82632","List2A","black","woman","","","","null","","","","","","","","",""
"4347.799999952316","<img src=""portrait/BM2.jpg""style=""height:400px;""></img>","5","html-button-response","14","119573","0.0-3.0-16.0","82632","List2A","black","woman","","true","5","","","","","","","","","",""
"null","CORRECT","","html-keyboard-response","15","121098","0.0-3.0-17.0-0.0","82632","List2A","black","woman","","","","null","","","","","","","","",""
"5299.5","<img src=""portrait/BW2.jpg""style=""height:400px;""></img>","2","html-button-response","16","126398","0.0-3.0-19.0","82632","List2A","black","woman","","true","2","","","","","","","","","",""
"null","CORRECT","","html-keyboard-response","17","127907","0.0-3.0-20.0-0.0","82632","List2A","black","woman","","","","null","","","","","","","","",""
"4043.600000143051","<img src=""portrait/WM1.jpg""style=""height:400px;""></img>","6","html-button-response","18","131951","0.0-3.0-22.0","82632","List2A","black","woman","","true","6","","","","","","","","","",""
"null","CORRECT","","html-keyboard-response","19","133468","0.0-3.0-23.0-0.0","82632","List2A","black","woman","","","","null","","","","","","","","",""
"2299.699999809265","<p>You got 8 out of 8 right first time. Press Continue.</p>","0","html-button-response","20","135768","0.0-3.0-25.0","82632","List2A","black","woman","","","","","","","","","","","","",""
"16177.599999904633","<p>In this experiment, you will view photographs of the people from the memory game interacting.</p><p>By using the <strong>exact</strong> phrase given <i>after</i> the photograph appears and recalling the correct names of the people in the photographs, form a sentence describing the interaction. You do not need to capitalise names.</p><p>Type your answer in the space provided. Please complete every sentence before moving onto the next trial.</p><p>You will only have a few seconds to memorise each given photograph and phrase before you can respond, so try your best to focus.</p><p>An example is given below. Press 'Continue' when you are ready.</p><img src='img/speaking_example.jpg' style='width:800px;height:460px;''></img>","0","html-button-response","21","152948","0.0-4.0","82632","List2A","black","woman","","","","","","","","","","","","",""
"1894","<p>Before the experiment starts, you will watch two example trials. Press 'Continue'.</p>","0","html-button-response","22","155846","0.0-5.0","82632","List2A","black","woman","","","","","","","","","","","","",""
"null","<img src='img/play_eg.gif' style='height:400px;''></img>","","html-keyboard-response","23","158859","0.0-6.0","82632","List2A","black","woman","","","","null","","","","","","","","",""
"null","<p>is playing with</p>","","html-keyboard-response","24","160875","0.0-7.0","82632","List2A","black","woman","","","","null","","","","","","","","",""
"10148.400000095367","<p><b>Answer:</b> jane is playing with ruth</p>","0","html-button-response","25","171025","0.0-8.0","82632","List2A","black","woman","","","","","","","","","","","","",""
"null","<img src='img/dance_eg.gif' style='height:400px;''></img>","","html-keyboard-response","26","174038","0.0-9.0","82632","List2A","black","woman","","","","null","","","","","","","","",""
"null","<p>is being entertained by</p>","","html-keyboard-response","27","176050","0.0-10.0","82632","List2A","black","woman","","","","null","","","","","","","","",""
"6439","<p><b>Answer:</b> fred is being entertained by mike</p>","0","html-button-response","28","182490","0.0-11.0","82632","List2A","black","woman","","","","","","","","","","","","",""
"8997.600000143051","<p>Ready to start the experiment?</p><br><p><strong>Remember to describe the picture using a full sentence,</strong></p><p><strong>that combines the names of the people with the <i>exact</i> phrase given.</strong></p><p><strong>To receive full payment you must do this correctly.</strong></p><p><strong> You do not need to capitalise names or use punctuation.</strong></p><br><p>Press 'Continue' to begin.</p>","0","html-button-response","29","192500","0.0-12.0","82632","List2A","black","woman","","","","","","","","","","","","",""
"null","<div style=""font-size:60px;"">+</div>","","html-keyboard-response","30","194028","0.0-13.0-0.0","82632","List2A","black","woman","","","","null","","","","","","","","",""
"null","<img src=""stim_listA/hug6.gif""style=""height:400px;""></stim_listA>","","html-keyboard-response","31","196029","0.0-13.0-1.0","82632","List2A","black","woman","","","","null","","","","","","","","",""
"null","is being hugged by","","html-keyboard-response","32","198034","0.0-13.0-2.0","82632","List2A","black","woman","","","","null","","","","","","","","",""
"6110.599999904633","","","survey-text","33","204147","0.0-13.0-3.0","82632","List2A","black","woman","","","","","{""Q0"":""mike and dave""}","<img src=""stim_listA/hug6.gif""style=""height:400px;""></stim_listA>","is being hugged by","","","","","",""
"null","<div style=""font-size:60px;"">+</div>","","html-keyboard-response","34","204649","0.0-13.0-0.1","82632","List2A","black","woman","","","","null","","","","","","","","",""
"null","<img src=""stim_listA/touch7.gif""style=""height:400px;""></stim_listA>","","html-keyboard-response","35","206661","0.0-13.0-1.1","82632","List2A","black","woman","","","","null","","","","","","","","",""
"null","is touching","","html-keyboard-response","36","208673","0.0-13.0-2.1","82632","List2A","black","woman","","","","null","","","","","","","","",""
"6937.199999809265","","","survey-text","37","215611","0.0-13.0-3.1","82632","List2A","black","woman","","","","","{""Q0"":""jane and kate""}","<img src=""stim_listA/touch7.gif""style=""height:400px;""></stim_listA>","is touching","","","","","",""
"null","<div style=""font-size:60px;"">+</div>","","html-keyboard-response","38","216123","0.0-13.0-0.2","82632","List2A","black","woman","","","","null","","","","","","","","",""
"null","<img src=""stim_listA/copy1.gif""style=""height:400px;""></stim_listA>","","html-keyboard-response","39","218124","0.0-13.0-1.2","82632","List2A","black","woman","","","","null","","","","","","","","",""
"null","is copying","","html-keyboard-response","40","220132","0.0-13.0-2.2","82632","List2A","black","woman","","","","null","","","","","","","","",""
"6377.200000047684","","","survey-text","41","226511","0.0-13.0-3.2","82632","List2A","black","woman","","","","","{""Q0"":""ruth and dave""}","<img src=""stim_listA/copy1.gif""style=""height:400px;""></stim_listA>","is copying","","","","","",""
"null","<div style=""font-size:60px;"">+</div>","","html-keyboard-response","42","227025","0.0-13.0-0.3","82632","List2A","black","woman","","","","null","","","","","","","","",""
"null","<img src=""stim_listA/look1.gif""style=""height:400px;""></stim_listA>","","html-keyboard-response","43","229032","0.0-13.0-1.3","82632","List2A","black","woman","","","","null","","","","","","","","",""
"null","is looking at","","html-keyboard-response","44","231034","0.0-13.0-2.3","82632","List2A","black","woman","","","","null","","","","","","","","",""
"4836.299999952316","","","survey-text","45","235871","0.0-13.0-3.3","82632","List2A","black","woman","","","","","{""Q0"":""luke and ruth""}","<img src=""stim_listA/look1.gif""style=""height:400px;""></stim_listA>","is looking at","","","","","",""
"null","<div style=""font-size:60px;"">+</div>","","html-keyboard-response","46","236375","0.0-13.0-0.4","82632","List2A","black","woman","","","","null","","","","","","","","",""
"null","<img src=""stim_listA/copy3.gif""style=""height:400px;""></stim_listA>","","html-keyboard-response","47","238385","0.0-13.0-1.4","82632","List2A","black","woman","","","","null","","","","","","","","",""
"null","is copying","","html-keyboard-response","48","240392","0.0-13.0-2.4","82632","List2A","black","woman","","","","null","","","","","","","","",""
"4304.199999809265","","","survey-text","49","244698","0.0-13.0-3.4","82632","List2A","black","woman","","","","","{""Q0"":""mike and beth""}","<img src=""stim_listA/copy3.gif""style=""height:400px;""></stim_listA>","is copying","","","","","",""
"null","<div style=""font-size:60px;"">+</div>","","html-keyboard-response","50","245210","0.0-13.0-0.5","82632","List2A","black","woman","","","","null","","","","","","","","",""
"null","<img src=""stim_listA/challenge7.gif""style=""height:400px;""></stim_listA>","","html-keyboard-response","51","247222","0.0-13.0-1.5","82632","List2A","black","woman","","","","null","","","","","","","","",""
"null","is challenging","","html-keyboard-response","52","249223","0.0-13.0-2.5","82632","List2A","black","woman","","","","null","","","","","","","","",""
"4583.700000047684","","","survey-text","53","253808","0.0-13.0-3.5","82632","List2A","black","woman","","","","","{""Q0"":""jane and beth""}","<img src=""stim_listA/challenge7.gif""style=""height:400px;""></stim_listA>","is challenging","","","","","",""
"null","<div style=""font-size:60px;"">+</div>","","html-keyboard-response","54","254324","0.0-13.0-0.6","82632","List2A","black","woman","","","","null","","","","","","","","",""
"null","<img src=""stim_listA/greet3.gif""style=""height:400px;""></stim_listA>","","html-keyboard-response","55","256331","0.0-13.0-1.6","82632","List2A","black","woman","","","","null","","","","","","","","",""
"null","is greeting","","html-keyboard-response","56","258332","0.0-13.0-2.6","82632","List2A","black","woman","","","","null","","","","","","","","",""
"4637.5","","","survey-text","57","262971","0.0-13.0-3.6","82632","List2A","black","woman","","","","","{""Q0"":""mike and beth""}","<img src=""stim_listA/greet3.gif""style=""height:400px;""></stim_listA>","is greeting","","","","","",""
"null","<div style=""font-size:60px;"">+</div>","","html-keyboard-response","58","263481","0.0-13.0-0.7","82632","List2A","black","woman","","","","null","","","","","","","","",""
"null","<img src=""stim_listA/kiss5.gif""style=""height:400px;""></stim_listA>","","html-keyboard-response","59","265482","0.0-13.0-1.7","82632","List2A","black","woman","","","","null","","","","","","","","",""
"null","is kissing","","html-keyboard-response","60","267483","0.0-13.0-2.7","82632","List2A","black","woman","","","","null","","","","","","","","",""
"4831.400000095367","","","survey-text","61","272316","0.0-13.0-3.7","82632","List2A","black","woman","","","","","{""Q0"":""luke and fred""}","<img src=""stim_listA/kiss5.gif""style=""height:400px;""></stim_listA>","is kissing","","","","","",""
"null","<div style=""font-size:60px;"">+</div>","","html-keyboard-response","62","272822","0.0-13.0-0.8","82632","List2A","black","woman","","","","null","","","","","","","","",""
"null","<img src=""stim_listA/greet1.gif""style=""height:400px;""></stim_listA>","","html-keyboard-response","63","274827","0.0-13.0-1.8","82632","List2A","black","woman","","","","null","","","","","","","","",""
"null","is greeting","","html-keyboard-response","64","276828","0.0-13.0-2.8","82632","List2A","black","woman","","","","null","","","","","","","","",""
"11128.099999904633","","","survey-text","65","287957","0.0-13.0-3.8","82632","List2A","black","woman","","","","","{""Q0"":""dave and ruth""}","<img src=""stim_listA/greet1.gif""style=""height:400px;""></stim_listA>","is greeting","","","","","",""
"null","<div style=""font-size:60px;"">+</div>","","html-keyboard-response","66","288458","0.0-13.0-0.9","82632","List2A","black","woman","","","","null","","","","","","","","",""
"null","<img src=""stim_listA/kiss3.gif""style=""height:400px;""></stim_listA>","","html-keyboard-response","67","290474","0.0-13.0-1.9","82632","List2A","black","woman","","","","null","","","","","","","","",""
"null","is kissing","","html-keyboard-response","68","292481","0.0-13.0-2.9","82632","List2A","black","woman","","","","null","","","","","","","","",""
"8923.800000190735","","","survey-text","69","301406","0.0-13.0-3.9","82632","List2A","black","woman","","","","","{""Q0"":""fred and beth""}","<img src=""stim_listA/kiss3.gif""style=""height:400px;""></stim_listA>","is kissing","","","","","",""
"null","<div style=""font-size:60px;"">+</div>","","html-keyboard-response","70","301907","0.0-13.0-0.10","82632","List2A","black","woman","","","","null","","","","","","","","",""
"null","<img src=""stim_listA/touch3.gif""style=""height:400px;""></stim_listA>","","html-keyboard-response","71","303922","0.0-13.0-1.10","82632","List2A","black","woman","","","","null","","","","","","","","",""
"null","is touching","","html-keyboard-response","72","305929","0.0-13.0-2.10","82632","List2A","black","woman","","","","null","","","","","","","","",""
"5358.400000095367","","","survey-text","73","311288","0.0-13.0-3.10","82632","List2A","black","woman","","","","","{""Q0"":""fred and kate""}","<img src=""stim_listA/touch3.gif""style=""height:400px;""></stim_listA>","is touching","","","","","",""
"null","<div style=""font-size:60px;"">+</div>","","html-keyboard-response","74","311796","0.0-13.0-0.11","82632","List2A","black","woman","","","","null","","","","","","","","",""
"null","<img src=""stim_listA/seduce6.gif""style=""height:400px;""></stim_listA>","","html-keyboard-response","75","313804","0.0-13.0-1.11","82632","List2A","black","woman","","","","null","","","","","","","","",""
"null","is being seduced by","","html-keyboard-response","76","315813","0.0-13.0-2.11","82632","List2A","black","woman","","","","null","","","","","","","","",""
"6116","","","survey-text","77","321931","0.0-13.0-3.11","82632","List2A","black","woman","","","","","{""Q0"":""fred and dave""}","<img src=""stim_listA/seduce6.gif""style=""height:400px;""></stim_listA>","is being seduced by","","","","","",""
"null","<div style=""font-size:60px;"">+</div>","","html-keyboard-response","78","322432","0.0-13.0-0.12","82632","List2A","black","woman","","","","null","","","","","","","","",""
"null","<img src=""stim_listA/shout7.gif""style=""height:400px;""></stim_listA>","","html-keyboard-response","79","324433","0.0-13.0-1.12","82632","List2A","black","woman","","","","null","","","","","","","","",""
"null","is shouting at","","html-keyboard-response","80","326436","0.0-13.0-2.12","82632","List2A","black","woman","","","","null","","","","","","","","",""
"3970.100000143051","","","survey-text","81","330407","0.0-13.0-3.12","82632","List2A","black","woman","","","","","{""Q0"":""ruth and beth""}","<img src=""stim_listA/shout7.gif""style=""height:400px;""></stim_listA>","is shouting at","","","","","",""
"null","<div style=""font-size:60px;"">+</div>","","html-keyboard-response","82","330916","0.0-13.0-0.13","82632","List2A","black","woman","","","","null","","","","","","","","",""
"null","<img src=""stim_listA/copy5.gif""style=""height:400px;""></stim_listA>","","html-keyboard-response","83","332920","0.0-13.0-1.13","82632","List2A","black","woman","","","","null","","","","","","","","",""
"null","is copying","","html-keyboard-response","84","334922","0.0-13.0-2.13","82632","List2A","black","woman","","","","null","","","","","","","","",""
"5764.700000047684","","","survey-text","85","340687","0.0-13.0-3.13","82632","List2A","black","woman","","","","","{""Q0"":""dave and fred""}","<img src=""stim_listA/copy5.gif""style=""height:400px;""></stim_listA>","is copying","","","","","",""
"null","<div style=""font-size:60px;"">+</div>","","html-keyboard-response","86","341197","0.0-13.0-0.14","82632","List2A","black","woman","","","","null","","","","","","","","",""
"null","<img src=""stim_listA/kiss2.gif""style=""height:400px;""></stim_listA>","","html-keyboard-response","87","343198","0.0-13.0-1.14","82632","List2A","black","woman","","","","null","","","","","","","","",""
"null","is being kissed by","","html-keyboard-response","88","345215","0.0-13.0-2.14","82632","List2A","black","woman","","","","null","","","","","","","","",""
"5191.799999952316","","","survey-text","89","350408","0.0-13.0-3.14","82632","List2A","black","woman","","","","","{""Q0"":""jane and dave""}","<img src=""stim_listA/kiss2.gif""style=""height:400px;""></stim_listA>","is being kissed by","","","","","",""
"null","<div style=""font-size:60px;"">+</div>","","html-keyboard-response","90","350909","0.0-13.0-0.15","82632","List2A","black","woman","","","","null","","","","","","","","",""
"null","<img src=""stim_listA/shout6.gif""style=""height:400px;""></stim_listA>","","html-keyboard-response","91","352912","0.0-13.0-1.15","82632","List2A","black","woman","","","","null","","","","","","","","",""
"null","is being shouted at by","","html-keyboard-response","92","354914","0.0-13.0-2.15","82632","List2A","black","woman","","","","null","","","","","","","","",""
"5406.800000190735","","","survey-text","93","360322","0.0-13.0-3.15","82632","List2A","black","woman","","","","","{""Q0"":""mike and dave""}","<img src=""stim_listA/shout6.gif""style=""height:400px;""></stim_listA>","is being shouted at by","","","","","",""
"null","<div style=""font-size:60px;"">+</div>","","html-keyboard-response","94","360823","0.0-13.0-0.16","82632","List2A","black","woman","","","","null","","","","","","","","",""
"null","<img src=""stim_listA/look7.gif""style=""height:400px;""></stim_listA>","","html-keyboard-response","95","362830","0.0-13.0-1.16","82632","List2A","black","woman","","","","null","","","","","","","","",""
"null","is looking at","","html-keyboard-response","96","364831","0.0-13.0-2.16","82632","List2A","black","woman","","","","null","","","","","","","","",""
"12739.399999856949","","","survey-text","97","377572","0.0-13.0-3.16","82632","List2A","black","woman","","","","","{""Q0"":""ruth and beth""}","<img src=""stim_listA/look7.gif""style=""height:400px;""></stim_listA>","is looking at","","","","","",""
"null","<div style=""font-size:60px;"">+</div>","","html-keyboard-response","98","378086","0.0-13.0-0.17","82632","List2A","black","woman","","","","null","","","","","","","","",""
"null","<img src=""stim_listA/seduce4.gif""style=""height:400px;""></stim_listA>","","html-keyboard-response","99","380087","0.0-13.0-1.17","82632","List2A","black","woman","","","","null","","","","","","","","",""
"null","is being seduced by","","html-keyboard-response","100","382091","0.0-13.0-2.17","82632","List2A","black","woman","","","","null","","","","","","","","",""
"10347.5","","","survey-text","101","392439","0.0-13.0-3.17","82632","List2A","black","woman","","","","","{""Q0"":""fred and beth""}","<img src=""stim_listA/seduce4.gif""style=""height:400px;""></stim_listA>","is being seduced by","","","","","",""
"null","<div style=""font-size:60px;"">+</div>","","html-keyboard-response","102","392953","0.0-13.0-0.18","82632","List2A","black","woman","","","","null","","","","","","","","",""
"null","<img src=""stim_listA/seduce3.gif""style=""height:400px;""></stim_listA>","","html-keyboard-response","103","394965","0.0-13.0-1.18","82632","List2A","black","woman","","","","null","","","","","","","","",""
"null","is seducing","","html-keyboard-response","104","396972","0.0-13.0-2.18","82632","List2A","black","woman","","","","null","","","","","","","","",""
"3995.5","","","survey-text","105","400969","0.0-13.0-3.18","82632","List2A","black","woman","","","","","{""Q0"":""fred and kate""}","<img src=""stim_listA/seduce3.gif""style=""height:400px;""></stim_listA>","is seducing","","","","","",""
"null","<div style=""font-size:60px;"">+</div>","","html-keyboard-response","106","401478","0.0-13.0-0.19","82632","List2A","black","woman","","","","null","","","","","","","","",""
"null","<img src=""stim_listA/kiss7.gif""style=""height:400px;""></stim_listA>","","html-keyboard-response","107","403480","0.0-13.0-1.19","82632","List2A","black","woman","","","","null","","","","","","","","",""
"null","is kissing","","html-keyboard-response","108","405494","0.0-13.0-2.19","82632","List2A","black","woman","","","","null","","","","","","","","",""
"4289.699999809265","","","survey-text","109","409785","0.0-13.0-3.19","82632","List2A","black","woman","","","","","{""Q0"":""beth and ruth""}","<img src=""stim_listA/kiss7.gif""style=""height:400px;""></stim_listA>","is kissing","","","","","",""
"9704.400000095367","<img src='img/portrait_matrix_list2.jpg' style='width:900px;height:500px;''></img><p>If you have memorised all the portraits and names and are ready to start, press Continue.</p><p><strong>Please note: Your memory of these faces will be tested 4 times during this experiment.</strong></p>","0","html-button-response","110","419490","0.0-14.0-0.0","82632","List2A","black","woman","","","","","","","","","","","","",""
"4746","<img src=""portrait/BW2.jpg""style=""height:400px;""></img>","2","html-button-response","111","425248","0.0-14.0-1.0","82632","List2A","black","woman","","true","2","","","","","","","","","",""
"null","CORRECT","","html-keyboard-response","112","426766","0.0-14.0-2.0-0.0","82632","List2A","black","woman","","","","null","","","","","","","","",""
"2892.7999999523163","<img src=""portrait/BW1.jpg""style=""height:400px;""></img>","0","html-button-response","113","429660","0.0-14.0-4.0","82632","List2A","black","woman","","true","0","","","","","","","","","",""
"null","CORRECT","","html-keyboard-response","114","431177","0.0-14.0-5.0-0.0","82632","List2A","black","woman","","","","null","","","","","","","","",""
"1997.2000000476837","<img src=""portrait/BM1.jpg""style=""height:400px;""></img>","4","html-button-response","115","433175","0.0-14.0-7.0","82632","List2A","black","woman","","true","4","","","","","","","","","",""
"null","CORRECT","","html-keyboard-response","116","434689","0.0-14.0-8.0-0.0","82632","List2A","black","woman","","","","null","","","","","","","","",""
"1889.7000000476837","<img src=""portrait/WW2.jpg""style=""height:400px;""></img>","3","html-button-response","117","436580","0.0-14.0-10.0","82632","List2A","black","woman","","true","3","","","","","","","","","",""
"null","CORRECT","","html-keyboard-response","118","438098","0.0-14.0-11.0-0.0","82632","List2A","black","woman","","","","null","","","","","","","","",""
"2577.5","<img src=""portrait/WW1.jpg""style=""height:400px;""></img>","1","html-button-response","119","440676","0.0-14.0-13.0","82632","List2A","black","woman","","true","1","","","","","","","","","",""
"null","CORRECT","","html-keyboard-response","120","442195","0.0-14.0-14.0-0.0","82632","List2A","black","woman","","","","null","","","","","","","","",""
"2898.5999999046326","<img src=""portrait/BM2.jpg""style=""height:400px;""></img>","5","html-button-response","121","445095","0.0-14.0-16.0","82632","List2A","black","woman","","true","5","","","","","","","","","",""
"null","CORRECT","","html-keyboard-response","122","446599","0.0-14.0-17.0-0.0","82632","List2A","black","woman","","","","null","","","","","","","","",""
"1878.0999999046326","<img src=""portrait/WM1.jpg""style=""height:400px;""></img>","6","html-button-response","123","448478","0.0-14.0-19.0","82632","List2A","black","woman","","true","6","","","","","","","","","",""
"null","CORRECT","","html-keyboard-response","124","450005","0.0-14.0-20.0-0.0","82632","List2A","black","woman","","","","null","","","","","","","","",""
"2488.0999999046326","<img src=""portrait/WM2.jpg""style=""height:400px;""></img>","7","html-button-response","125","452494","0.0-14.0-22.0","82632","List2A","black","woman","","true","7","","","","","","","","","",""
"null","CORRECT","","html-keyboard-response","126","453995","0.0-14.0-23.0-0.0","82632","List2A","black","woman","","","","null","","","","","","","","",""
"1975.2000000476837","<p>You got 8 out of 8 right first time. Press Continue.</p>","0","html-button-response","127","455971","0.0-14.0-25.0","82632","List2A","black","woman","","","","","","","","","","","","",""
"null","<div style=""font-size:60px;"">+</div>","","html-keyboard-response","128","457494","0.0-15.0-0.0","82632","List2A","black","woman","","","","null","","","","","","","","",""
"null","<img src=""stim_listA/oppose6.gif""style=""height:400px;""></stim_listA>","","html-keyboard-response","129","459495","0.0-15.0-1.0","82632","List2A","black","woman","","","","null","","","","","","","","",""
"null","is being opposed by","","html-keyboard-response","130","461504","0.0-15.0-2.0","82632","List2A","black","woman","","","","null","","","","","","","","",""
"5944.199999809265","","","survey-text","131","467449","0.0-15.0-3.0","82632","List2A","black","woman","","","","","{""Q0"":""luke and fred""}","<img src=""stim_listA/oppose6.gif""style=""height:400px;""></stim_listA>","is being opposed by","","","","","",""
"null","<div style=""font-size:60px;"">+</div>","","html-keyboard-response","132","467960","0.0-15.0-0.1","82632","List2A","black","woman","","","","null","","","","","","","","",""
"null","<img src=""stim_listA/touch6.gif""style=""height:400px;""></stim_listA>","","html-keyboard-response","133","469962","0.0-15.0-1.1","82632","List2A","black","woman","","","","null","","","","","","","","",""
"null","is being touched by","","html-keyboard-response","134","471964","0.0-15.0-2.1","82632","List2A","black","woman","","","","null","","","","","","","","",""
"6139.700000047684","","","survey-text","135","478105","0.0-15.0-3.1","82632","List2A","black","woman","","","","","{""Q0"":""luke and fred""}","<img src=""stim_listA/touch6.gif""style=""height:400px;""></stim_listA>","is being touched by","","","","","",""
"null","<div style=""font-size:60px;"">+</div>","","html-keyboard-response","136","478620","0.0-15.0-0.2","82632","List2A","black","woman","","","","null","","","","","","","","",""
"null","<img src=""stim_listA/oppose5.gif""style=""height:400px;""></stim_listA>","","html-keyboard-response","137","480627","0.0-15.0-1.2","82632","List2A","black","woman","","","","null","","","","","","","","",""
"null","is opposing","","html-keyboard-response","138","482628","0.0-15.0-2.2","82632","List2A","black","woman","","","","null","","","","","","","","",""
"2962.600000143051","","","survey-text","139","485592","0.0-15.0-3.2","82632","List2A","black","woman","","","","","{""Q0"":""mike and dave""}","<img src=""stim_listA/oppose5.gif""style=""height:400px;""></stim_listA>","is opposing","","","","","",""
"null","<div style=""font-size:60px;"">+</div>","","html-keyboard-response","140","486099","0.0-15.0-0.3","82632","List2A","black","woman","","","","null","","","","","","","","",""
"null","<img src=""stim_listA/touch5.gif""style=""height:400px;""></stim_listA>","","html-keyboard-response","141","488109","0.0-15.0-1.3","82632","List2A","black","woman","","","","null","","","","","","","","",""
"null","is touching","","html-keyboard-response","142","490115","0.0-15.0-2.3","82632","List2A","black","woman","","","","null","","","","","","","","",""
"2955.5","","","survey-text","143","493072","0.0-15.0-3.3","82632","List2A","black","woman","","","","","{""Q0"":""mike and dave""}","<img src=""stim_listA/touch5.gif""style=""height:400px;""></stim_listA>","is touching","","","","","",""
"null","<div style=""font-size:60px;"">+</div>","","html-keyboard-response","144","493585","0.0-15.0-0.4","82632","List2A","black","woman","","","","null","","","","","","","","",""
"null","<img src=""stim_listA/shout4.gif""style=""height:400px;""></stim_listA>","","html-keyboard-response","145","495587","0.0-15.0-1.4","82632","List2A","black","woman","","","","null","","","","","","","","",""
"null","is being shouted at by","","html-keyboard-response","146","497590","0.0-15.0-2.4","82632","List2A","black","woman","","","","null","","","","","","","","",""
"3280","","","survey-text","147","500872","0.0-15.0-3.4","82632","List2A","black","woman","","","","","{""Q0"":""kate and mike""}","<img src=""stim_listA/shout4.gif""style=""height:400px;""></stim_listA>","is being shouted at by","","","","","",""
"null","<div style=""font-size:60px;"">+</div>","","html-keyboard-response","148","501389","0.0-15.0-0.5","82632","List2A","black","woman","","","","null","","","","","","","","",""
"null","<img src=""stim_listA/copy8.gif""style=""height:400px;""></stim_listA>","","html-keyboard-response","149","503398","0.0-15.0-1.5","82632","List2A","black","woman","","","","null","","","","","","","","",""
"null","is being copied by","","html-keyboard-response","150","505406","0.0-15.0-2.5","82632","List2A","black","woman","","","","null","","","","","","","","",""
"3001","","","survey-text","151","508409","0.0-15.0-3.5","82632","List2A","black","woman","","","","","{""Q0"":""ruth and kate""}","<img src=""stim_listA/copy8.gif""style=""height:400px;""></stim_listA>","is being copied by","","","","","",""
"null","<div style=""font-size:60px;"">+</div>","","html-keyboard-response","152","508913","0.0-15.0-0.6","82632","List2A","black","woman","","","","null","","","","","","","","",""
"null","<img src=""stim_listA/copy4.gif""style=""height:400px;""></stim_listA>","","html-keyboard-response","153","510925","0.0-15.0-1.6","82632","List2A","black","woman","","","","null","","","","","","","","",""
"null","is being copied by","","html-keyboard-response","154","512934","0.0-15.0-2.6","82632","List2A","black","woman","","","","null","","","","","","","","",""
"2899.9000000953674","","","survey-text","155","515836","0.0-15.0-3.6","82632","List2A","black","woman","","","","","{""Q0"":""kate and fred""}","<img src=""stim_listA/copy4.gif""style=""height:400px;""></stim_listA>","is being copied by","","","","","",""
"null","<div style=""font-size:60px;"">+</div>","","html-keyboard-response","156","516338","0.0-15.0-0.7","82632","List2A","black","woman","","","","null","","","","","","","","",""
"null","<img src=""stim_listA/greet8.gif""style=""height:400px;""></stim_listA>","","html-keyboard-response","157","518348","0.0-15.0-1.7","82632","List2A","black","woman","","","","null","","","","","","","","",""
"null","is being greeted by","","html-keyboard-response","158","520357","0.0-15.0-2.7","82632","List2A","black","woman","","","","null","","","","","","","","",""
"2299.899999856949","","","survey-text","159","522658","0.0-15.0-3.7","82632","List2A","black","woman","","","","","{""Q0"":""kate and ruth""}","<img src=""stim_listA/greet8.gif""style=""height:400px;""></stim_listA>","is being greeted by","","","","","",""
"null","<div style=""font-size:60px;"">+</div>","","html-keyboard-response","160","523173","0.0-15.0-0.8","82632","List2A","black","woman","","","","null","","","","","","","","",""
"null","<img src=""stim_listA/greet5.gif""style=""height:400px;""></stim_listA>","","html-keyboard-response","161","525174","0.0-15.0-1.8","82632","List2A","black","woman","","","","null","","","","","","","","",""
"null","is greeting","","html-keyboard-response","162","527190","0.0-15.0-2.8","82632","List2A","black","woman","","","","null","","","","","","","","",""
"2892.899999856949","","","survey-text","163","530084","0.0-15.0-3.8","82632","List2A","black","woman","","","","","{""Q0"":""fred and dave""}","<img src=""stim_listA/greet5.gif""style=""height:400px;""></stim_listA>","is greeting","","","","","",""
"null","<div style=""font-size:60px;"">+</div>","","html-keyboard-response","164","530592","0.0-15.0-0.9","82632","List2A","black","woman","","","","null","","","","","","","","",""
"null","<img src=""stim_listA/seduce8.gif""style=""height:400px;""></stim_listA>","","html-keyboard-response","165","532593","0.0-15.0-1.9","82632","List2A","black","woman","","","","null","","","","","","","","",""
"null","is being seduced by","","html-keyboard-response","166","534594","0.0-15.0-2.9","82632","List2A","black","woman","","","","null","","","","","","","","",""
"2959.4000000953674","","","survey-text","167","537555","0.0-15.0-3.9","82632","List2A","black","woman","","","","","{""Q0"":""beth and jane""}","<img src=""stim_listA/seduce8.gif""style=""height:400px;""></stim_listA>","is being seduced by","","","","","",""
"null","<div style=""font-size:60px;"">+</div>","","html-keyboard-response","168","538063","0.0-15.0-0.10","82632","List2A","black","woman","","","","null","","","","","","","","",""
"null","<img src=""stim_listA/look5.gif""style=""height:400px;""></stim_listA>","","html-keyboard-response","169","540075","0.0-15.0-1.10","82632","List2A","black","woman","","","","null","","","","","","","","",""
"null","is looking at","","html-keyboard-response","170","542085","0.0-15.0-2.10","82632","List2A","black","woman","","","","null","","","","","","","","",""
"3102.4000000953674","","","survey-text","171","545189","0.0-15.0-3.10","82632","List2A","black","woman","","","","","{""Q0"":""fred and luke""}","<img src=""stim_listA/look5.gif""style=""height:400px;""></stim_listA>","is looking at","","","","","",""
"null","<div style=""font-size:60px;"">+</div>","","html-keyboard-response","172","545701","0.0-15.0-0.11","82632","List2A","black","woman","","","","null","","","","","","","","",""
"null","<img src=""stim_listA/shout3.gif""style=""height:400px;""></stim_listA>","","html-keyboard-response","173","547703","0.0-15.0-1.11","82632","List2A","black","woman","","","","null","","","","","","","","",""
"null","is shouting at","","html-keyboard-response","174","549704","0.0-15.0-2.11","82632","List2A","black","woman","","","","null","","","","","","","","",""
"2008.0999999046326","","","survey-text","175","551714","0.0-15.0-3.11","82632","List2A","black","woman","","","","","{""Q0"":""beth and fred""}","<img src=""stim_listA/shout3.gif""style=""height:400px;""></stim_listA>","is shouting at","","","","","",""
"null","<div style=""font-size:60px;"">+</div>","","html-keyboard-response","176","552217","0.0-15.0-0.12","82632","List2A","black","woman","","","","null","","","","","","","","",""
"null","<img src=""stim_listA/copy7.gif""style=""height:400px;""></stim_listA>","","html-keyboard-response","177","554218","0.0-15.0-1.12","82632","List2A","black","woman","","","","null","","","","","","","","",""
"null","is copying","","html-keyboard-response","178","556231","0.0-15.0-2.12","82632","List2A","black","woman","","","","null","","","","","","","","",""
"3244.5999999046326","","","survey-text","179","559477","0.0-15.0-3.12","82632","List2A","black","woman","","","","","{""Q0"":""beth and jame""}","<img src=""stim_listA/copy7.gif""style=""height:400px;""></stim_listA>","is copying","","","","","",""
"null","<div style=""font-size:60px;"">+</div>","","html-keyboard-response","180","559984","0.0-15.0-0.13","82632","List2A","black","woman","","","","null","","","","","","","","",""
"null","<img src=""stim_listA/greet4.gif""style=""height:400px;""></stim_listA>","","html-keyboard-response","181","561989","0.0-15.0-1.13","82632","List2A","black","woman","","","","null","","","","","","","","",""
"null","is being greeted by","","html-keyboard-response","182","563994","0.0-15.0-2.13","82632","List2A","black","woman","","","","null","","","","","","","","",""
"2858.7999999523163","","","survey-text","183","566854","0.0-15.0-3.13","82632","List2A","black","woman","","","","","{""Q0"":""kate and fred""}","<img src=""stim_listA/greet4.gif""style=""height:400px;""></stim_listA>","is being greeted by","","","","","",""
"null","<div style=""font-size:60px;"">+</div>","","html-keyboard-response","184","567361","0.0-15.0-0.14","82632","List2A","black","woman","","","","null","","","","","","","","",""
"null","<img src=""stim_listA/shout2.gif""style=""height:400px;""></stim_listA>","","html-keyboard-response","185","569372","0.0-15.0-1.14","82632","List2A","black","woman","","","","null","","","","","","","","",""
"null","is being shouted at by","","html-keyboard-response","186","571375","0.0-15.0-2.14","82632","List2A","black","woman","","","","null","","","","","","","","",""
"2691","","","survey-text","187","574068","0.0-15.0-3.14","82632","List2A","black","woman","","","","","{""Q0"":""jane and fred""}","<img src=""stim_listA/shout2.gif""style=""height:400px;""></stim_listA>","is being shouted at by","","","","","",""
"null","<div style=""font-size:60px;"">+</div>","","html-keyboard-response","188","574579","0.0-15.0-0.15","82632","List2A","black","woman","","","","null","","","","","","","","",""
"null","<img src=""stim_listA/oppose8.gif""style=""height:400px;""></stim_listA>","","html-keyboard-response","189","576580","0.0-15.0-1.15","82632","List2A","black","woman","","","","null","","","","","","","","",""
"null","is being opposed by","","html-keyboard-response","190","578586","0.0-15.0-2.15","82632","List2A","black","woman","","","","null","","","","","","","","",""
"3247.2000000476837","","","survey-text","191","581834","0.0-15.0-3.15","82632","List2A","black","woman","","","","","{""Q0"":""ruth and beth""}","<img src=""stim_listA/oppose8.gif""style=""height:400px;""></stim_listA>","is being opposed by","","","","","",""
"null","<div style=""font-size:60px;"">+</div>","","html-keyboard-response","192","582340","0.0-15.0-0.16","82632","List2A","black","woman","","","","null","","","","","","","","",""
"null","<img src=""stim_listA/touch4.gif""style=""height:400px;""></stim_listA>","","html-keyboard-response","193","584341","0.0-15.0-1.16","82632","List2A","black","woman","","","","null","","","","","","","","",""
"null","is being touched by","","html-keyboard-response","194","586344","0.0-15.0-2.16","82632","List2A","black","woman","","","","null","","","","","","","","",""
"2906.5","","","survey-text","195","589252","0.0-15.0-3.16","82632","List2A","black","woman","","","","","{""Q0"":""beth and fred""}","<img src=""stim_listA/touch4.gif""style=""height:400px;""></stim_listA>","is being touched by","","","","","",""
"null","<div style=""font-size:60px;"">+</div>","","html-keyboard-response","196","589763","0.0-15.0-0.17","82632","List2A","black","woman","","","","null","","","","","","","","",""
"null","<img src=""stim_listA/oppose1.gif""style=""height:400px;""></stim_listA>","","html-keyboard-response","197","591765","0.0-15.0-1.17","82632","List2A","black","woman","","","","null","","","","","","","","",""
"null","is opposing","","html-keyboard-response","198","593770","0.0-15.0-2.17","82632","List2A","black","woman","","","","null","","","","","","","","",""
"2843.2000000476837","","","survey-text","199","596615","0.0-15.0-3.17","82632","List2A","black","woman","","","","","{""Q0"":""dave and jane""}","<img src=""stim_listA/oppose1.gif""style=""height:400px;""></stim_listA>","is opposing","","","","","",""
"null","<div style=""font-size:60px;"">+</div>","","html-keyboard-response","200","597130","0.0-15.0-0.18","82632","List2A","black","woman","","","","null","","","","","","","","",""
"null","<img src=""stim_listA/seduce5.gif""style=""height:400px;""></stim_listA>","","html-keyboard-response","201","599141","0.0-15.0-1.18","82632","List2A","black","woman","","","","null","","","","","","","","",""
"null","is seducing","","html-keyboard-response","202","601149","0.0-15.0-2.18","82632","List2A","black","woman","","","","null","","","","","","","","",""
"3804.100000143051","","","survey-text","203","604954","0.0-15.0-3.18","82632","List2A","black","woman","","","","","{""Q0"":""mike and luke""}","<img src=""stim_listA/seduce5.gif""style=""height:400px;""></stim_listA>","is seducing","","","","","",""
"null","<div style=""font-size:60px;"">+</div>","","html-keyboard-response","204","605458","0.0-15.0-0.19","82632","List2A","black","woman","","","","null","","","","","","","","",""
"null","<img src=""stim_listA/kiss8.gif""style=""height:400px;""></stim_listA>","","html-keyboard-response","205","607459","0.0-15.0-1.19","82632","List2A","black","woman","","","","null","","","","","","","","",""
"null","is being kissed by","","html-keyboard-response","206","609461","0.0-15.0-2.19","82632","List2A","black","woman","","","","null","","","","","","","","",""
"2991","","","survey-text","207","612453","0.0-15.0-3.19","82632","List2A","black","woman","","","","","{""Q0"":""kate and jane""}","<img src=""stim_listA/kiss8.gif""style=""height:400px;""></stim_listA>","is being kissed by","","","","","",""
"8878.599999904633","<img src='img/portrait_matrix_list2.jpg' style='width:900px;height:500px;''></img><p>If you have memorised all the portraits and names and are ready to start, press Continue.</p><p><strong>Please note: Your memory of these faces will be tested 4 times during this experiment.</strong></p>","0","html-button-response","208","621333","0.0-16.0-0.0","82632","List2A","black","woman","","","","","","","","","","","","",""
"3682.100000143051","<img src=""portrait/WM2.jpg""style=""height:400px;""></img>","7","html-button-response","209","626027","0.0-16.0-1.0","82632","List2A","black","woman","","true","7","","","","","","","","","",""
"null","CORRECT","","html-keyboard-response","210","627542","0.0-16.0-2.0-0.0","82632","List2A","black","woman","","","","null","","","","","","","","",""
"2901.2000000476837","<img src=""portrait/WM1.jpg""style=""height:400px;""></img>","6","html-button-response","211","630444","0.0-16.0-4.0","82632","List2A","black","woman","","true","6","","","","","","","","","",""
"null","CORRECT","","html-keyboard-response","212","631975","0.0-16.0-5.0-0.0","82632","List2A","black","woman","","","","null","","","","","","","","",""
"2290.2999999523163","<img src=""portrait/BM1.jpg""style=""height:400px;""></img>","4","html-button-response","213","634266","0.0-16.0-7.0","82632","List2A","black","woman","","true","4","","","","","","","","","",""
"null","CORRECT","","html-keyboard-response","214","635786","0.0-16.0-8.0-0.0","82632","List2A","black","woman","","","","null","","","","","","","","",""
"2286.2999999523163","<img src=""portrait/BW1.jpg""style=""height:400px;""></img>","0","html-button-response","215","638073","0.0-16.0-10.0","82632","List2A","black","woman","","true","0","","","","","","","","","",""
"null","CORRECT","","html-keyboard-response","216","639575","0.0-16.0-11.0-0.0","82632","List2A","black","woman","","","","null","","","","","","","","",""
"2451.7000000476837","<img src=""portrait/WW2.jpg""style=""height:400px;""></img>","3","html-button-response","217","642027","0.0-16.0-13.0","82632","List2A","black","woman","","true","3","","","","","","","","","",""
"null","CORRECT","","html-keyboard-response","218","643541","0.0-16.0-14.0-0.0","82632","List2A","black","woman","","","","null","","","","","","","","",""
"3064.5","<img src=""portrait/WW1.jpg""style=""height:400px;""></img>","1","html-button-response","219","646606","0.0-16.0-16.0","82632","List2A","black","woman","","true","1","","","","","","","","","",""
"null","CORRECT","","html-keyboard-response","220","648112","0.0-16.0-17.0-0.0","82632","List2A","black","woman","","","","null","","","","","","","","",""
"3270.5","<img src=""portrait/BM2.jpg""style=""height:400px;""></img>","5","html-button-response","221","651384","0.0-16.0-19.0","82632","List2A","black","woman","","true","5","","","","","","","","","",""
"null","CORRECT","","html-keyboard-response","222","652889","0.0-16.0-20.0-0.0","82632","List2A","black","woman","","","","null","","","","","","","","",""
"3852.100000143051","<img src=""portrait/BW2.jpg""style=""height:400px;""></img>","2","html-button-response","223","656742","0.0-16.0-22.0","82632","List2A","black","woman","","true","2","","","","","","","","","",""
"null","CORRECT","","html-keyboard-response","224","658263","0.0-16.0-23.0-0.0","82632","List2A","black","woman","","","","null","","","","","","","","",""
"2396.600000143051","<p>You got 8 out of 8 right first time. Press Continue.</p>","0","html-button-response","225","660661","0.0-16.0-25.0","82632","List2A","black","woman","","","","","","","","","","","","",""
"null","<div style=""font-size:60px;"">+</div>","","html-keyboard-response","226","662175","0.0-17.0-0.0","82632","List2A","black","woman","","","","null","","","","","","","","",""
"null","<img src=""stim_listA/challenge3.gif""style=""height:400px;""></stim_listA>","","html-keyboard-response","227","664176","0.0-17.0-1.0","82632","List2A","black","woman","","","","null","","","","","","","","",""
"null","is challenging","","html-keyboard-response","228","666185","0.0-17.0-2.0","82632","List2A","black","woman","","","","null","","","","","","","","",""
"2675.0999999046326","","","survey-text","229","668862","0.0-17.0-3.0","82632","List2A","black","woman","","","","","{""Q0"":""mike and beth""}","<img src=""stim_listA/challenge3.gif""style=""height:400px;""></stim_listA>","is challenging","","","","","",""
"null","<div style=""font-size:60px;"">+</div>","","html-keyboard-response","230","669364","0.0-17.0-0.1","82632","List2A","black","woman","","","","null","","","","","","","","",""
"null","<img src=""stim_listA/hug4.gif""style=""height:400px;""></stim_listA>","","html-keyboard-response","231","671366","0.0-17.0-1.1","82632","List2A","black","woman","","","","null","","","","","","","","",""
"null","is being hugged by","","html-keyboard-response","232","673379","0.0-17.0-2.1","82632","List2A","black","woman","","","","null","","","","","","","","",""
"2939.5","","","survey-text","233","676320","0.0-17.0-3.1","82632","List2A","black","woman","","","","","{""Q0"":""mike and kate""}","<img src=""stim_listA/hug4.gif""style=""height:400px;""></stim_listA>","is being hugged by","","","","","",""
"null","<div style=""font-size:60px;"">+</div>","","html-keyboard-response","234","676833","0.0-17.0-0.2","82632","List2A","black","woman","","","","null","","","","","","","","",""
"null","<img src=""stim_listA/look3.gif""style=""height:400px;""></stim_listA>","","html-keyboard-response","235","678834","0.0-17.0-1.2","82632","List2A","black","woman","","","","null","","","","","","","","",""
"null","is looking at","","html-keyboard-response","236","680841","0.0-17.0-2.2","82632","List2A","black","woman","","","","null","","","","","","","","",""
"3267.5","","","survey-text","237","684110","0.0-17.0-3.2","82632","List2A","black","woman","","","","","{""Q0"":""beth and fred""}","<img src=""stim_listA/look3.gif""style=""height:400px;""></stim_listA>","is looking at","","","","","",""
"null","<div style=""font-size:60px;"">+</div>","","html-keyboard-response","238","684624","0.0-17.0-0.3","82632","List2A","black","woman","","","","null","","","","","","","","",""
"null","<img src=""stim_listA/oppose3.gif""style=""height:400px;""></stim_listA>","","html-keyboard-response","239","686633","0.0-17.0-1.3","82632","List2A","black","woman","","","","null","","","","","","","","",""
"null","is opposing","","html-keyboard-response","240","688640","0.0-17.0-2.3","82632","List2A","black","woman","","","","null","","","","","","","","",""
"2095.2999999523163","","","survey-text","241","690737","0.0-17.0-3.3","82632","List2A","black","woman","","","","","{""Q0"":""mike and kate""}","<img src=""stim_listA/oppose3.gif""style=""height:400px;""></stim_listA>","is opposing","","","","","",""
"null","<div style=""font-size:60px;"">+</div>","","html-keyboard-response","242","691238","0.0-17.0-0.4","82632","List2A","black","woman","","","","null","","","","","","","","",""
"null","<img src=""stim_listA/copy6.gif""style=""height:400px;""></stim_listA>","","html-keyboard-response","243","693240","0.0-17.0-1.4","82632","List2A","black","woman","","","","null","","","","","","","","",""
"null","is being copied by","","html-keyboard-response","244","695243","0.0-17.0-2.4","82632","List2A","black","woman","","","","null","","","","","","","","",""
"3866.2999999523163","","","survey-text","245","699111","0.0-17.0-3.4","82632","List2A","black","woman","","","","","{""Q0"":""luke and mike""}","<img src=""stim_listA/copy6.gif""style=""height:400px;""></stim_listA>","is being copied by","","","","","",""
"null","<div style=""font-size:60px;"">+</div>","","html-keyboard-response","246","699614","0.0-17.0-0.5","82632","List2A","black","woman","","","","null","","","","","","","","",""
"null","<img src=""stim_listA/seduce7.gif""style=""height:400px;""></stim_listA>","","html-keyboard-response","247","701621","0.0-17.0-1.5","82632","List2A","black","woman","","","","null","","","","","","","","",""
"null","is seducing","","html-keyboard-response","248","703629","0.0-17.0-2.5","82632","List2A","black","woman","","","","null","","","","","","","","",""
"3823.7999999523163","","","survey-text","249","707455","0.0-17.0-3.5","82632","List2A","black","woman","","","","","{""Q0"":""kate and ruth""}","<img src=""stim_listA/seduce7.gif""style=""height:400px;""></stim_listA>","is seducing","","","","","",""
"null","<div style=""font-size:60px;"">+</div>","","html-keyboard-response","250","707961","0.0-17.0-0.6","82632","List2A","black","woman","","","","null","","","","","","","","",""
"null","<img src=""stim_listA/copy2.gif""style=""height:400px;""></stim_listA>","","html-keyboard-response","251","709970","0.0-17.0-1.6","82632","List2A","black","woman","","","","null","","","","","","","","",""
"null","is being copied by","","html-keyboard-response","252","711982","0.0-17.0-2.6","82632","List2A","black","woman","","","","null","","","","","","","","",""
"5658.400000095367","","","survey-text","253","717641","0.0-17.0-3.6","82632","List2A","black","woman","","","","","{""Q0"":""luke and jane""}","<img src=""stim_listA/copy2.gif""style=""height:400px;""></stim_listA>","is being copied by","","","","","",""
"null","<div style=""font-size:60px;"">+</div>","","html-keyboard-response","254","718156","0.0-17.0-0.7","82632","List2A","black","woman","","","","null","","","","","","","","",""
"null","<img src=""stim_listA/kiss4.gif""style=""height:400px;""></stim_listA>","","html-keyboard-response","255","720162","0.0-17.0-1.7","82632","List2A","black","woman","","","","null","","","","","","","","",""
"null","is being kissed by","","html-keyboard-response","256","722172","0.0-17.0-2.7","82632","List2A","black","woman","","","","null","","","","","","","","",""
"2881.5","","","survey-text","257","725055","0.0-17.0-3.7","82632","List2A","black","woman","","","","","{""Q0"":""kate and mike""}","<img src=""stim_listA/kiss4.gif""style=""height:400px;""></stim_listA>","is being kissed by","","","","","",""
"null","<div style=""font-size:60px;"">+</div>","","html-keyboard-response","258","725559","0.0-17.0-0.8","82632","List2A","black","woman","","","","null","","","","","","","","",""
"null","<img src=""stim_listA/kiss6.gif""style=""height:400px;""></stim_listA>","","html-keyboard-response","259","727565","0.0-17.0-1.8","82632","List2A","black","woman","","","","null","","","","","","","","",""
"null","is being kissed by","","html-keyboard-response","260","729574","0.0-17.0-2.8","82632","List2A","black","woman","","","","null","","","","","","","","",""
"2693.5","","","survey-text","261","732269","0.0-17.0-3.8","82632","List2A","black","woman","","","","","{""Q0"":""mike and dave""}","<img src=""stim_listA/kiss6.gif""style=""height:400px;""></stim_listA>","is being kissed by","","","","","",""
"null","<div style=""font-size:60px;"">+</div>","","html-keyboard-response","262","732779","0.0-17.0-0.9","82632","List2A","black","woman","","","","null","","","","","","","","",""
"null","<img src=""stim_listA/look2.gif""style=""height:400px;""></stim_listA>","","html-keyboard-response","263","734788","0.0-17.0-1.9","82632","List2A","black","woman","","","","null","","","","","","","","",""
"null","is being looked at by","","html-keyboard-response","264","736799","0.0-17.0-2.9","82632","List2A","black","woman","","","","null","","","","","","","","",""
"3154.100000143051","","","survey-text","265","739954","0.0-17.0-3.9","82632","List2A","black","woman","","","","","{""Q0"":""jane and dave""}","<img src=""stim_listA/look2.gif""style=""height:400px;""></stim_listA>","is being looked at by","","","","","",""
"null","<div style=""font-size:60px;"">+</div>","","html-keyboard-response","266","740469","0.0-17.0-0.10","82632","List2A","black","woman","","","","null","","","","","","","","",""
"null","<img src=""stim_listA/hug3.gif""style=""height:400px;""></stim_listA>","","html-keyboard-response","267","742470","0.0-17.0-1.10","82632","List2A","black","woman","","","","null","","","","","","","","",""
"null","is hugging","","html-keyboard-response","268","744485","0.0-17.0-2.10","82632","List2A","black","woman","","","","null","","","","","","","","",""
"2966","","","survey-text","269","747452","0.0-17.0-3.10","82632","List2A","black","woman","","","","","{""Q0"":""fred and beth""}","<img src=""stim_listA/hug3.gif""style=""height:400px;""></stim_listA>","is hugging","","","","","",""
"null","<div style=""font-size:60px;"">+</div>","","html-keyboard-response","270","747953","0.0-17.0-0.11","82632","List2A","black","woman","","","","null","","","","","","","","",""
"null","<img src=""stim_listA/hug7.gif""style=""height:400px;""></stim_listA>","","html-keyboard-response","271","749962","0.0-17.0-1.11","82632","List2A","black","woman","","","","null","","","","","","","","",""
"null","is hugging","","html-keyboard-response","272","751971","0.0-17.0-2.11","82632","List2A","black","woman","","","","null","","","","","","","","",""
"2842.600000143051","","","survey-text","273","754815","0.0-17.0-3.11","82632","List2A","black","woman","","","","","{""Q0"":""ruth and beth""}","<img src=""stim_listA/hug7.gif""style=""height:400px;""></stim_listA>","is hugging","","","","","",""
"null","<div style=""font-size:60px;"">+</div>","","html-keyboard-response","274","755328","0.0-17.0-0.12","82632","List2A","black","woman","","","","null","","","","","","","","",""
"null","<img src=""stim_listA/greet6.gif""style=""height:400px;""></stim_listA>","","html-keyboard-response","275","757330","0.0-17.0-1.12","82632","List2A","black","woman","","","","null","","","","","","","","",""
"null","is being greeted by","","html-keyboard-response","276","759331","0.0-17.0-2.12","82632","List2A","black","woman","","","","null","","","","","","","","",""
"3371.5","","","survey-text","277","762704","0.0-17.0-3.12","82632","List2A","black","woman","","","","","{""Q0"":""mike and luke""}","<img src=""stim_listA/greet6.gif""style=""height:400px;""></stim_listA>","is being greeted by","","","","","",""
"null","<div style=""font-size:60px;"">+</div>","","html-keyboard-response","278","763206","0.0-17.0-0.13","82632","List2A","black","woman","","","","null","","","","","","","","",""
"null","<img src=""stim_listA/challenge6.gif""style=""height:400px;""></stim_listA>","","html-keyboard-response","279","765217","0.0-17.0-1.13","82632","List2A","black","woman","","","","null","","","","","","","","",""
"null","is being challenged by","","html-keyboard-response","280","767224","0.0-17.0-2.13","82632","List2A","black","woman","","","","null","","","","","","","","",""
"5538.700000047684","","","survey-text","281","772764","0.0-17.0-3.13","82632","List2A","black","woman","","","","","{""Q0"":""mike and luke""}","<img src=""stim_listA/challenge6.gif""style=""height:400px;""></stim_listA>","is being challenged by","","","","","",""
"null","<div style=""font-size:60px;"">+</div>","","html-keyboard-response","282","773274","0.0-17.0-0.14","82632","List2A","black","woman","","","","null","","","","","","","","",""
"null","<img src=""stim_listA/seduce2.gif""style=""height:400px;""></stim_listA>","","html-keyboard-response","283","775284","0.0-17.0-1.14","82632","List2A","black","woman","","","","null","","","","","","","","",""
"null","is being seduced by","","html-keyboard-response","284","777291","0.0-17.0-2.14","82632","List2A","black","woman","","","","null","","","","","","","","",""
"2558.399999856949","","","survey-text","285","779851","0.0-17.0-3.14","82632","List2A","black","woman","","","","","{""Q0"":""ruth and dave""}","<img src=""stim_listA/seduce2.gif""style=""height:400px;""></stim_listA>","is being seduced by","","","","","",""
"null","<div style=""font-size:60px;"">+</div>","","html-keyboard-response","286","780366","0.0-17.0-0.15","82632","List2A","black","woman","","","","null","","","","","","","","",""
"null","<img src=""stim_listA/shout5.gif""style=""height:400px;""></stim_listA>","","html-keyboard-response","287","782367","0.0-17.0-1.15","82632","List2A","black","woman","","","","null","","","","","","","","",""
"null","is shouting at","","html-keyboard-response","288","784381","0.0-17.0-2.15","82632","List2A","black","woman","","","","null","","","","","","","","",""
"2256.4000000953674","","","survey-text","289","786639","0.0-17.0-3.15","82632","List2A","black","woman","","","","","{""Q0"":""luke and fred""}","<img src=""stim_listA/shout5.gif""style=""height:400px;""></stim_listA>","is shouting at","","","","","",""
"null","<div style=""font-size:60px;"">+</div>","","html-keyboard-response","290","787149","0.0-17.0-0.16","82632","List2A","black","woman","","","","null","","","","","","","","",""
"null","<img src=""stim_listA/challenge5.gif""style=""height:400px;""></stim_listA>","","html-keyboard-response","291","789158","0.0-17.0-1.16","82632","List2A","black","woman","","","","null","","","","","","","","",""
"null","is challenging","","html-keyboard-response","292","791169","0.0-17.0-2.16","82632","List2A","black","woman","","","","null","","","","","","","","",""
"3952.399999856949","","","survey-text","293","795123","0.0-17.0-3.16","82632","List2A","black","woman","","","","","{""Q0"":""dave and fred""}","<img src=""stim_listA/challenge5.gif""style=""height:400px;""></stim_listA>","is challenging","","","","","",""
"null","<div style=""font-size:60px;"">+</div>","","html-keyboard-response","294","795634","0.0-17.0-0.17","82632","List2A","black","woman","","","","null","","","","","","","","",""
"null","<img src=""stim_listA/kiss1.gif""style=""height:400px;""></stim_listA>","","html-keyboard-response","295","797636","0.0-17.0-1.17","82632","List2A","black","woman","","","","null","","","","","","","","",""
"null","is kissing","","html-keyboard-response","296","799641","0.0-17.0-2.17","82632","List2A","black","woman","","","","null","","","","","","","","",""
"3221","","","survey-text","297","802863","0.0-17.0-3.17","82632","List2A","black","woman","","","","","{""Q0"":""luke and ruth""}","<img src=""stim_listA/kiss1.gif""style=""height:400px;""></stim_listA>","is kissing","","","","","",""
"null","<div style=""font-size:60px;"">+</div>","","html-keyboard-response","298","803368","0.0-17.0-0.18","82632","List2A","black","woman","","","","null","","","","","","","","",""
"null","<img src=""stim_listA/greet7.gif""style=""height:400px;""></stim_listA>","","html-keyboard-response","299","805369","0.0-17.0-1.18","82632","List2A","black","woman","","","","null","","","","","","","","",""
"null","is greeting","","html-keyboard-response","300","807374","0.0-17.0-2.18","82632","List2A","black","woman","","","","null","","","","","","","","",""
"4225.099999904633","","","survey-text","301","811601","0.0-17.0-3.18","82632","List2A","black","woman","","","","","{""Q0"":""jane and beth""}","<img src=""stim_listA/greet7.gif""style=""height:400px;""></stim_listA>","is greeting","","","","","",""
"null","<div style=""font-size:60px;"">+</div>","","html-keyboard-response","302","812109","0.0-17.0-0.19","82632","List2A","black","woman","","","","null","","","","","","","","",""
"null","<img src=""stim_listA/seduce1.gif""style=""height:400px;""></stim_listA>","","html-keyboard-response","303","814111","0.0-17.0-1.19","82632","List2A","black","woman","","","","null","","","","","","","","",""
"null","is seducing","","html-keyboard-response","304","816124","0.0-17.0-2.19","82632","List2A","black","woman","","","","null","","","","","","","","",""
"3786.7000000476837","","","survey-text","305","819912","0.0-17.0-3.19","82632","List2A","black","woman","","","","","{""Q0"":""luke and jane""}","<img src=""stim_listA/seduce1.gif""style=""height:400px;""></stim_listA>","is seducing","","","","","",""
"5124.5","<img src='img/portrait_matrix_list2.jpg' style='width:900px;height:500px;''></img><p>If you have memorised all the portraits and names and are ready to start, press Continue.</p><p><strong>Please note: Your memory of these faces will be tested 4 times during this experiment.</strong></p>","0","html-button-response","306","825038","0.0-18.0-0.0","82632","List2A","black","woman","","","","","","","","","","","","",""
"2503.2999999523163","<img src=""portrait/WM2.jpg""style=""height:400px;""></img>","7","html-button-response","307","828542","0.0-18.0-1.0","82632","List2A","black","woman","","true","7","","","","","","","","","",""
"null","CORRECT","","html-keyboard-response","308","830055","0.0-18.0-2.0-0.0","82632","List2A","black","woman","","","","null","","","","","","","","",""
"2830.100000143051","<img src=""portrait/BW2.jpg""style=""height:400px;""></img>","2","html-button-response","309","832886","0.0-18.0-4.0","82632","List2A","black","woman","","true","2","","","","","","","","","",""
"null","CORRECT","","html-keyboard-response","310","834401","0.0-18.0-5.0-0.0","82632","List2A","black","woman","","","","null","","","","","","","","",""
"2357","<img src=""portrait/WM1.jpg""style=""height:400px;""></img>","6","html-button-response","311","836759","0.0-18.0-7.0","82632","List2A","black","woman","","true","6","","","","","","","","","",""
"null","CORRECT","","html-keyboard-response","312","838281","0.0-18.0-8.0-0.0","82632","List2A","black","woman","","","","null","","","","","","","","",""
"2290.199999809265","<img src=""portrait/WW1.jpg""style=""height:400px;""></img>","1","html-button-response","313","840572","0.0-18.0-10.0","82632","List2A","black","woman","","true","1","","","","","","","","","",""
"null","CORRECT","","html-keyboard-response","314","842087","0.0-18.0-11.0-0.0","82632","List2A","black","woman","","","","null","","","","","","","","",""
"2158","<img src=""portrait/BW1.jpg""style=""height:400px;""></img>","0","html-button-response","315","844246","0.0-18.0-13.0","82632","List2A","black","woman","","true","0","","","","","","","","","",""
"null","CORRECT","","html-keyboard-response","316","845770","0.0-18.0-14.0-0.0","82632","List2A","black","woman","","","","null","","","","","","","","",""
"2231.5999999046326","<img src=""portrait/BM2.jpg""style=""height:400px;""></img>","5","html-button-response","317","848002","0.0-18.0-16.0","82632","List2A","black","woman","","true","5","","","","","","","","","",""
"null","CORRECT","","html-keyboard-response","318","849508","0.0-18.0-17.0-0.0","82632","List2A","black","woman","","","","null","","","","","","","","",""
"2557.600000143051","<img src=""portrait/WW2.jpg""style=""height:400px;""></img>","3","html-button-response","319","852067","0.0-18.0-19.0","82632","List2A","black","woman","","true","3","","","","","","","","","",""
"null","CORRECT","","html-keyboard-response","320","853573","0.0-18.0-20.0-0.0","82632","List2A","black","woman","","","","null","","","","","","","","",""
"2403.5","<img src=""portrait/BM1.jpg""style=""height:400px;""></img>","4","html-button-response","321","855977","0.0-18.0-22.0","82632","List2A","black","woman","","true","4","","","","","","","","","",""
"null","CORRECT","","html-keyboard-response","322","857503","0.0-18.0-23.0-0.0","82632","List2A","black","woman","","","","null","","","","","","","","",""
"1229.2999999523163","<p>You got 8 out of 8 right first time. Press Continue.</p>","0","html-button-response","323","858733","0.0-18.0-25.0","82632","List2A","black","woman","","","","","","","","","","","","",""
"null","<div style=""font-size:60px;"">+</div>","","html-keyboard-response","324","860255","0.0-19.0-0.0","82632","List2A","black","woman","","","","null","","","","","","","","",""
"null","<img src=""stim_listA/challenge8.gif""style=""height:400px;""></stim_listA>","","html-keyboard-response","325","862257","0.0-19.0-1.0","82632","List2A","black","woman","","","","null","","","","","","","","",""
"null","is being challenged by","","html-keyboard-response","326","864261","0.0-19.0-2.0","82632","List2A","black","woman","","","","null","","","","","","","","",""
"2714.600000143051","","","survey-text","327","866977","0.0-19.0-3.0","82632","List2A","black","woman","","","","","{""Q0"":""kate and ruth""}","<img src=""stim_listA/challenge8.gif""style=""height:400px;""></stim_listA>","is being challenged by","","","","","",""
"null","<div style=""font-size:60px;"">+</div>","","html-keyboard-response","328","867478","0.0-19.0-0.1","82632","List2A","black","woman","","","","null","","","","","","","","",""
"null","<img src=""stim_listA/challenge4.gif""style=""height:400px;""></stim_listA>","","html-keyboard-response","329","869488","0.0-19.0-1.1","82632","List2A","black","woman","","","","null","","","","","","","","",""
"null","is being challenged by","","html-keyboard-response","330","871498","0.0-19.0-2.1","82632","List2A","black","woman","","","","null","","","","","","","","",""
"2325.0999999046326","","","survey-text","331","873825","0.0-19.0-3.1","82632","List2A","black","woman","","","","","{""Q0"":""kate and fred""}","<img src=""stim_listA/challenge4.gif""style=""height:400px;""></stim_listA>","is being challenged by","","","","","",""
"null","<div style=""font-size:60px;"">+</div>","","html-keyboard-response","332","874328","0.0-19.0-0.2","82632","List2A","black","woman","","","","null","","","","","","","","",""
"null","<img src=""stim_listA/touch2.gif""style=""height:400px;""></stim_listA>","","html-keyboard-response","333","876329","0.0-19.0-1.2","82632","List2A","black","woman","","","","null","","","","","","","","",""
"null","is being touched by","","html-keyboard-response","334","878336","0.0-19.0-2.2","82632","List2A","black","woman","","","","null","","","","","","","","",""
"2642.5","","","survey-text","335","880980","0.0-19.0-3.2","82632","List2A","black","woman","","","","","{""Q0"":""ruth and luke""}","<img src=""stim_listA/touch2.gif""style=""height:400px;""></stim_listA>","is being touched by","","","","","",""
"null","<div style=""font-size:60px;"">+</div>","","html-keyboard-response","336","881491","0.0-19.0-0.3","82632","List2A","black","woman","","","","null","","","","","","","","",""
"null","<img src=""stim_listA/oppose7.gif""style=""height:400px;""></stim_listA>","","html-keyboard-response","337","883500","0.0-19.0-1.3","82632","List2A","black","woman","","","","null","","","","","","","","",""
"null","is opposing","","html-keyboard-response","338","885510","0.0-19.0-2.3","82632","List2A","black","woman","","","","null","","","","","","","","",""
"4396.599999904633","","","survey-text","339","889908","0.0-19.0-3.3","82632","List2A","black","woman","","","","","{""Q0"":""jane and kate""}","<img src=""stim_listA/oppose7.gif""style=""height:400px;""></stim_listA>","is opposing","","","","","",""
"null","<div style=""font-size:60px;"">+</div>","","html-keyboard-response","340","890421","0.0-19.0-0.4","82632","List2A","black","woman","","","","null","","","","","","","","",""
"null","<img src=""stim_listA/challenge2.gif""style=""height:400px;""></stim_listA>","","html-keyboard-response","341","892423","0.0-19.0-1.4","82632","List2A","black","woman","","","","null","","","","","","","","",""
"null","is being challenged by","","html-keyboard-response","342","894428","0.0-19.0-2.4","82632","List2A","black","woman","","","","null","","","","","","","","",""
"3399","","","survey-text","343","897829","0.0-19.0-3.4","82632","List2A","black","woman","","","","","{""Q0"":""jane and luke""}","<img src=""stim_listA/challenge2.gif""style=""height:400px;""></stim_listA>","is being challenged by","","","","","",""
"null","<div style=""font-size:60px;"">+</div>","","html-keyboard-response","344","898330","0.0-19.0-0.5","82632","List2A","black","woman","","","","null","","","","","","","","",""
"null","<img src=""stim_listA/touch8.gif""style=""height:400px;""></stim_listA>","","html-keyboard-response","345","900344","0.0-19.0-1.5","82632","List2A","black","woman","","","","null","","","","","","","","",""
"null","is being touched by","","html-keyboard-response","346","902354","0.0-19.0-2.5","82632","List2A","black","woman","","","","null","","","","","","","","",""
"4005.5999999046326","","","survey-text","347","906361","0.0-19.0-3.5","82632","List2A","black","woman","","","","","{""Q0"":""beth and ruth""}","<img src=""stim_listA/touch8.gif""style=""height:400px;""></stim_listA>","is being touched by","","","","","",""
"null","<div style=""font-size:60px;"">+</div>","","html-keyboard-response","348","906875","0.0-19.0-0.6","82632","List2A","black","woman","","","","null","","","","","","","","",""
"null","<img src=""stim_listA/oppose4.gif""style=""height:400px;""></stim_listA>","","html-keyboard-response","349","908883","0.0-19.0-1.6","82632","List2A","black","woman","","","","null","","","","","","","","",""
"null","is being opposed by","","html-keyboard-response","350","910892","0.0-19.0-2.6","82632","List2A","black","woman","","","","null","","","","","","","","",""
"4396.100000143051","","","survey-text","351","915290","0.0-19.0-3.6","82632","List2A","black","woman","","","","","{""Q0"":""fred and beth""}","<img src=""stim_listA/oppose4.gif""style=""height:400px;""></stim_listA>","is being opposed by","","","","","",""
"null","<div style=""font-size:60px;"">+</div>","","html-keyboard-response","352","915795","0.0-19.0-0.7","82632","List2A","black","woman","","","","null","","","","","","","","",""
"null","<img src=""stim_listA/hug8.gif""style=""height:400px;""></stim_listA>","","html-keyboard-response","353","917804","0.0-19.0-1.7","82632","List2A","black","woman","","","","null","","","","","","","","",""
"null","is being hugged by","","html-keyboard-response","354","919813","0.0-19.0-2.7","82632","List2A","black","woman","","","","null","","","","","","","","",""
"2708.100000143051","","","survey-text","355","922523","0.0-19.0-3.7","82632","List2A","black","woman","","","","","{""Q0"":""kate and jane""}","<img src=""stim_listA/hug8.gif""style=""height:400px;""></stim_listA>","is being hugged by","","","","","",""
"null","<div style=""font-size:60px;"">+</div>","","html-keyboard-response","356","923036","0.0-19.0-0.8","82632","List2A","black","woman","","","","null","","","","","","","","",""
"null","<img src=""stim_listA/look8.gif""style=""height:400px;""></stim_listA>","","html-keyboard-response","357","925046","0.0-19.0-1.8","82632","List2A","black","woman","","","","null","","","","","","","","",""
"null","is being looked at by","","html-keyboard-response","358","927055","0.0-19.0-2.8","82632","List2A","black","woman","","","","null","","","","","","","","",""
"2999.4000000953674","","","survey-text","359","930055","0.0-19.0-3.8","82632","List2A","black","woman","","","","","{""Q0"":""kate and jane""}","<img src=""stim_listA/look8.gif""style=""height:400px;""></stim_listA>","is being looked at by","","","","","",""
"null","<div style=""font-size:60px;"">+</div>","","html-keyboard-response","360","930569","0.0-19.0-0.9","82632","List2A","black","woman","","","","null","","","","","","","","",""
"null","<img src=""stim_listA/hug1.gif""style=""height:400px;""></stim_listA>","","html-keyboard-response","361","932579","0.0-19.0-1.9","82632","List2A","black","woman","","","","null","","","","","","","","",""
"null","is hugging","","html-keyboard-response","362","934591","0.0-19.0-2.9","82632","List2A","black","woman","","","","null","","","","","","","","",""
"2421.800000190735","","","survey-text","363","937014","0.0-19.0-3.9","82632","List2A","black","woman","","","","","{""Q0"":""luke and ruth""}","<img src=""stim_listA/hug1.gif""style=""height:400px;""></stim_listA>","is hugging","","","","","",""
"null","<div style=""font-size:60px;"">+</div>","","html-keyboard-response","364","937527","0.0-19.0-0.10","82632","List2A","black","woman","","","","null","","","","","","","","",""
"null","<img src=""stim_listA/shout8.gif""style=""height:400px;""></stim_listA>","","html-keyboard-response","365","939529","0.0-19.0-1.10","82632","List2A","black","woman","","","","null","","","","","","","","",""
"null","is being shouted at by","","html-keyboard-response","366","941540","0.0-19.0-2.10","82632","List2A","black","woman","","","","null","","","","","","","","",""
"2888.199999809265","","","survey-text","367","944430","0.0-19.0-3.10","82632","List2A","black","woman","","","","","{""Q0"":""kate and jane""}","<img src=""stim_listA/shout8.gif""style=""height:400px;""></stim_listA>","is being shouted at by","","","","","",""
"null","<div style=""font-size:60px;"">+</div>","","html-keyboard-response","368","944944","0.0-19.0-0.11","82632","List2A","black","woman","","","","null","","","","","","","","",""
"null","<img src=""stim_listA/touch1.gif""style=""height:400px;""></stim_listA>","","html-keyboard-response","369","946945","0.0-19.0-1.11","82632","List2A","black","woman","","","","null","","","","","","","","",""
"null","is touching","","html-keyboard-response","370","948947","0.0-19.0-2.11","82632","List2A","black","woman","","","","null","","","","","","","","",""
"3558.2000000476837","","","survey-text","371","952507","0.0-19.0-3.11","82632","List2A","black","woman","","","","","{""Q0"":""dave and jane""}","<img src=""stim_listA/touch1.gif""style=""height:400px;""></stim_listA>","is touching","","","","","",""
"null","<div style=""font-size:60px;"">+</div>","","html-keyboard-response","372","953021","0.0-19.0-0.12","82632","List2A","black","woman","","","","null","","","","","","","","",""
"null","<img src=""stim_listA/look6.gif""style=""height:400px;""></stim_listA>","","html-keyboard-response","373","955031","0.0-19.0-1.12","82632","List2A","black","woman","","","","null","","","","","","","","",""
"null","is being looked at by","","html-keyboard-response","374","957041","0.0-19.0-2.12","82632","List2A","black","woman","","","","null","","","","","","","","",""
"2661.5999999046326","","","survey-text","375","959704","0.0-19.0-3.12","82632","List2A","black","woman","","","","","{""Q0"":""mike and dave""}","<img src=""stim_listA/look6.gif""style=""height:400px;""></stim_listA>","is being looked at by","","","","","",""
"null","<div style=""font-size:60px;"">+</div>","","html-keyboard-response","376","960215","0.0-19.0-0.13","82632","List2A","black","woman","","","","null","","","","","","","","",""
"null","<img src=""stim_listA/hug5.gif""style=""height:400px;""></stim_listA>","","html-keyboard-response","377","962224","0.0-19.0-1.13","82632","List2A","black","woman","","","","null","","","","","","","","",""
"null","is hugging","","html-keyboard-response","378","964234","0.0-19.0-2.13","82632","List2A","black","woman","","","","null","","","","","","","","",""
"2722.7000000476837","","","survey-text","379","966958","0.0-19.0-3.13","82632","List2A","black","woman","","","","","{""Q0"":""luke and fred""}","<img src=""stim_listA/hug5.gif""style=""height:400px;""></stim_listA>","is hugging","","","","","",""
"null","<div style=""font-size:60px;"">+</div>","","html-keyboard-response","380","967462","0.0-19.0-0.14","82632","List2A","black","woman","","","","null","","","","","","","","",""
"null","<img src=""stim_listA/oppose2.gif""style=""height:400px;""></stim_listA>","","html-keyboard-response","381","969463","0.0-19.0-1.14","82632","List2A","black","woman","","","","null","","","","","","","","",""
"null","is being opposed by","","html-keyboard-response","382","971476","0.0-19.0-2.14","82632","List2A","black","woman","","","","null","","","","","","","","",""
"3804.0999999046326","","","survey-text","383","975281","0.0-19.0-3.14","82632","List2A","black","woman","","","","","{""Q0"":""ruth and luke""}","<img src=""stim_listA/oppose2.gif""style=""height:400px;""></stim_listA>","is being opposed by","","","","","",""
"null","<div style=""font-size:60px;"">+</div>","","html-keyboard-response","384","975797","0.0-19.0-0.15","82632","List2A","black","woman","","","","null","","","","","","","","",""
"null","<img src=""stim_listA/hug2.gif""style=""height:400px;""></stim_listA>","","html-keyboard-response","385","977805","0.0-19.0-1.15","82632","List2A","black","woman","","","","null","","","","","","","","",""
"null","is being hugged by","","html-keyboard-response","386","979814","0.0-19.0-2.15","82632","List2A","black","woman","","","","null","","","","","","","","",""
"2271.5","","","survey-text","387","982087","0.0-19.0-3.15","82632","List2A","black","woman","","","","","{""Q0"":""jane and dave""}","<img src=""stim_listA/hug2.gif""style=""height:400px;""></stim_listA>","is being hugged by","","","","","",""
"null","<div style=""font-size:60px;"">+</div>","","html-keyboard-response","388","982595","0.0-19.0-0.16","82632","List2A","black","woman","","","","null","","","","","","","","",""
"null","<img src=""stim_listA/shout1.gif""style=""height:400px;""></stim_listA>","","html-keyboard-response","389","984607","0.0-19.0-1.16","82632","List2A","black","woman","","","","null","","","","","","","","",""
"null","is shouting at","","html-keyboard-response","390","986616","0.0-19.0-2.16","82632","List2A","black","woman","","","","null","","","","","","","","",""
"3160.7999999523163","","","survey-text","391","989779","0.0-19.0-3.16","82632","List2A","black","woman","","","","","{""Q0"":""luke and ruth""}","<img src=""stim_listA/shout1.gif""style=""height:400px;""></stim_listA>","is shouting at","","","","","",""
"null","<div style=""font-size:60px;"">+</div>","","html-keyboard-response","392","990285","0.0-19.0-0.17","82632","List2A","black","woman","","","","null","","","","","","","","",""
"null","<img src=""stim_listA/look4.gif""style=""height:400px;""></stim_listA>","","html-keyboard-response","393","992299","0.0-19.0-1.17","82632","List2A","black","woman","","","","null","","","","","","","","",""
"null","is being looked at by","","html-keyboard-response","394","994313","0.0-19.0-2.17","82632","List2A","black","woman","","","","null","","","","","","","","",""
"2981.399999856949","","","survey-text","395","997296","0.0-19.0-3.17","82632","List2A","black","woman","","","","","{""Q0"":""kate and mike""}","<img src=""stim_listA/look4.gif""style=""height:400px;""></stim_listA>","is being looked at by","","","","","",""
"null","<div style=""font-size:60px;"">+</div>","","html-keyboard-response","396","997800","0.0-19.0-0.18","82632","List2A","black","woman","","","","null","","","","","","","","",""
"null","<img src=""stim_listA/greet2.gif""style=""height:400px;""></stim_listA>","","html-keyboard-response","397","999801","0.0-19.0-1.18","82632","List2A","black","woman","","","","null","","","","","","","","",""
"null","is being greeted by","","html-keyboard-response","398","1001804","0.0-19.0-2.18","82632","List2A","black","woman","","","","null","","","","","","","","",""
"3063","","","survey-text","399","1004869","0.0-19.0-3.18","82632","List2A","black","woman","","","","","{""Q0"":""jane and luke""}","<img src=""stim_listA/greet2.gif""style=""height:400px;""></stim_listA>","is being greeted by","","","","","",""
"null","<div style=""font-size:60px;"">+</div>","","html-keyboard-response","400","1005373","0.0-19.0-0.19","82632","List2A","black","woman","","","","null","","","","","","","","",""
"null","<img src=""stim_listA/challenge1.gif""style=""height:400px;""></stim_listA>","","html-keyboard-response","401","1007379","0.0-19.0-1.19","82632","List2A","black","woman","","","","null","","","","","","","","",""
"null","is challenging","","html-keyboard-response","402","1009389","0.0-19.0-2.19","82632","List2A","black","woman","","","","null","","","","","","","","",""
"2714.2999999523163","","","survey-text","403","1012104","0.0-19.0-3.19","82632","List2A","black","woman","","","","","{""Q0"":""dave and ruth""}","<img src=""stim_listA/challenge1.gif""style=""height:400px;""></stim_listA>","is challenging","","","","","",""
"42503.90000009537","<p>Thank you for completing that task.</p><p>The final part of this session is a questionnaire that will take about 4 minutes.</p><p>Press Continue.</p>","0","html-button-response","404","1054609","0.0-20.0","82632","List2A","black","woman","","","","","","","","","","","","",""
"31747.799999952316","","","survey-text","405","1087369","0.0-21.0","82632","List2A","black","woman","","","","","{""Q0"":""27"",""Q1"":""Englishh"",""Q2"":""English"",""Q3"":""United States"",""Q4"":""American"",""Q5"":""Black"",""Q6"":""Female""}","","","demographics","","","","",""
"2305.899999856949","<p>Have you lived in the USA for the last 5 years or more?</p>","0","html-button-response","406","1089677","0.0-22.0","82632","List2A","black","woman","","","","","","","","fiveyears","","","","",""
"2937.9000000953674","<p>Move the slider to show the extent to which you agree with the following statements.</p>","0","html-button-response","407","1093626","0.0-23.0","82632","List2A","black","woman","","","","","","","","","","","","",""
"12111.299999952316","","","html-slider-response","408","1106749","0.0-24.0-0.0-0.0","82632","List2A","black","woman","","","","","","","","survey_race","82","","","My age is not an important part of who I am.","filler"
"3400.699999809265","","","html-slider-response","409","1110151","0.0-24.0-0.0-0.1","82632","List2A","black","woman","","","","","","","","survey_race","100","","","I consider myself an introvert.","filler"
"6502.299999952316","","","html-slider-response","410","1116655","0.0-24.0-0.0-0.2","82632","List2A","black","woman","","","","","","","","survey_race","96","","","I often think about the fact that I am my age.","filler"
"5849","","","html-slider-response","411","1122505","0.0-24.0-0.0-0.3","82632","List2A","black","woman","","","","","","","","survey_race","6","","","I enjoy being in large groups.","filler"
"4577.800000190735","","","html-slider-response","412","1127084","0.0-24.0-0.0-0.4","82632","List2A","black","woman","","","","","","","","survey_race","42","","","I have a lot in common with people of a similar age to me.","filler"
"3593.5","","","html-slider-response","413","1130679","0.0-24.0-0.0-0.5","82632","List2A","black","woman","","","","","","","","survey_race","94","","","I think that my race has a lot to be proud of.","proud"
"3563.100000143051","","","html-slider-response","414","1134243","0.0-24.0-0.0-0.6","82632","List2A","black","woman","","","","","","","","survey_race","83","","","I feel solidarity with my race.","solidarity"
"10495.100000143051","","","html-slider-response","415","1144739","0.0-24.0-0.0-0.7","82632","List2A","black","woman","","","","","","","","survey_race","53","","","I feel a bond with my race.","bond"
"6136.200000047684","","","html-slider-response","416","1150877","0.0-24.0-0.0-0.8","82632","List2A","black","woman","","","","","","","","survey_race","87","","","I am glad to be the age I am.","filler"
"2285.100000143051","","","html-slider-response","417","1153163","0.0-24.0-0.0-0.9","82632","List2A","black","woman","","","","","","","","survey_race","69","","","I am glad to be my age.","filler"
"6739.900000095367","","","html-slider-response","418","1159904","0.0-24.0-0.0-0.10","82632","List2A","black","woman","","","","","","","","survey_race","0","","","I consider myself an extrovert.","filler"
"5953.200000047684","","","html-slider-response","419","1165858","0.0-24.0-0.0-0.11","82632","List2A","black","woman","","","","","","","","survey_race","56","","","People of my race have a lot in common with each other.","common"
"3181.7999999523163","","","html-slider-response","420","1169041","0.0-24.0-0.0-0.12","82632","List2A","black","woman","","","","","","","","survey_race","55","","","People of my race are very similar to each other.","verysimilar"
"3542.2000000476837","","","html-slider-response","421","1172584","0.0-24.0-0.0-0.13","82632","List2A","black","woman","","","","","","","","survey_race","28","","","I feel committed to my race.","committed"
"4130.5","","","html-slider-response","422","1176716","0.0-24.0-0.0-0.14","82632","List2A","black","woman","","","","","","","","survey_race","18","","","Getting older does not worry me.","filler"
"3174.2000000476837","","","html-slider-response","423","1179891","0.0-24.0-0.0-0.15","82632","List2A","black","woman","","","","","","","","survey_race","83","","","I am glad to be my race.","glad"
"3924","","","html-slider-response","424","1183816","0.0-24.0-0.0-0.16","82632","List2A","black","woman","","","","","","","","survey_race","29","","","People my age have a lot in common with each other.","filler"
"3204.2000000476837","","","html-slider-response","425","1187022","0.0-24.0-0.0-0.17","82632","List2A","black","woman","","","","","","","","survey_race","27","","","It is pleasant to be my race.","pleasant"
"5108.5","","","html-slider-response","426","1192131","0.0-24.0-0.0-0.18","82632","List2A","black","woman","","","","","","","","survey_race","63","","","I am similar to the average person of my race.","similar"
"4483.400000095367","","","html-slider-response","427","1196616","0.0-24.0-0.0-0.19","82632","List2A","black","woman","","","","","","","","survey_race","20","","","Being my age gives me a good feeling.","filler"
"3218","","","html-slider-response","428","1199835","0.0-24.0-0.0-0.20","82632","List2A","black","woman","","","","","","","","survey_race","69","","","The fact that I am my race is an important part of my identity.","identity"
"2910.2999999523163","","","html-slider-response","429","1202747","0.0-24.0-0.0-0.21","82632","List2A","black","woman","","","","","","","","survey_race","19","","","Being my race gives me a good feeling.","feeling"
"5814","","","html-slider-response","430","1208562","0.0-24.0-0.0-0.22","82632","List2A","black","woman","","","","","","","","survey_race","16","","","I feel a bond with people the same age as me.","filler"
"3027.300000190735","","","html-slider-response","431","1211590","0.0-24.0-0.0-0.23","82632","List2A","black","woman","","","","","","","","survey_race","20","","","The older I get, the wiser I feel.","filler"
"3285.199999809265","","","html-slider-response","432","1214876","0.0-24.0-0.0-0.24","82632","List2A","black","woman","","","","","","","","survey_race","73","","","I often think about the fact that I am my race.","often"
"3807.2000000476837","","","html-slider-response","433","1218685","0.0-24.0-0.0-0.25","82632","List2A","black","woman","","","","","","","","survey_race","27","","","I feel solidarity with people the same age as me.","filler"
"5741.199999809265","","","html-slider-response","434","1224427","0.0-24.0-0.0-0.26","82632","List2A","black","woman","","","","","","","","survey_race","48","","","Being my race is an important part of how I see myself.","important"
"3616.100000143051","","","html-slider-response","435","1228044","0.0-24.0-0.0-0.27","82632","List2A","black","woman","","","","","","","","survey_race","0","","","I have a lot in common with the average person of my race.","average"
"3763","","","html-slider-response","436","1231808","0.0-24.0-1.0-0.0","82632","List2A","black","woman","","","","","","","","survey_gender","99","","","Being my gender gives me a good feeling.","feeling"
"3314.600000143051","","","html-slider-response","437","1235124","0.0-24.0-1.0-0.1","82632","List2A","black","woman","","","","","","","","survey_gender","66","","","I feel a bond with my friends.","filler"
"3086.5999999046326","","","html-slider-response","438","1238212","0.0-24.0-1.0-0.2","82632","List2A","black","woman","","","","","","","","survey_gender","81","","","I feel solidarity with my friends.","filler"
"2712","","","html-slider-response","439","1240925","0.0-24.0-1.0-0.3","82632","List2A","black","woman","","","","","","","","survey_gender","77","","","I am glad to be my gender.","glad"
"4285.5","","","html-slider-response","440","1245212","0.0-24.0-1.0-0.4","82632","List2A","black","woman","","","","","","","","survey_gender","17","","","I have a lot in common with the average person of my gender.","average"
"3814.5","","","html-slider-response","441","1249028","0.0-24.0-1.0-0.5","82632","List2A","black","woman","","","","","","","","survey_gender","72","","","The fact that I am my gender is an important part of my identity.","identity"
"4035.600000143051","","","html-slider-response","442","1253064","0.0-24.0-1.0-0.6","82632","List2A","black","woman","","","","","","","","survey_gender","84","","","I often think about my actions.","filler"
"2822.5","","","html-slider-response","443","1255888","0.0-24.0-1.0-0.7","82632","List2A","black","woman","","","","","","","","survey_gender","13","","","People of my gender are very similar to each other.","verysimilar"
"3294.5999999046326","","","html-slider-response","444","1259183","0.0-24.0-1.0-0.8","82632","List2A","black","woman","","","","","","","","survey_gender","14","","","People of my gender have a lot in common with each other.","common"
"2687","","","html-slider-response","445","1261871","0.0-24.0-1.0-0.9","82632","List2A","black","woman","","","","","","","","survey_gender","97","","","My friends understand me.","filler"
"2572.899999856949","","","html-slider-response","446","1264445","0.0-24.0-1.0-0.10","82632","List2A","black","woman","","","","","","","","survey_gender","100","","","I am glad to have the friends that I have.","filler"
"2491.4000000953674","","","html-slider-response","447","1266937","0.0-24.0-1.0-0.11","82632","List2A","black","woman","","","","","","","","survey_gender","23","","","Routine is not important to me.","filler"
"3270.5999999046326","","","html-slider-response","448","1270208","0.0-24.0-1.0-0.12","82632","List2A","black","woman","","","","","","","","survey_gender","85","","","Being my gender is an important part of how I see myself.","important"
"4792.800000190735","","","html-slider-response","449","1275002","0.0-24.0-1.0-0.13","82632","List2A","black","woman","","","","","","","","survey_gender","53","","","I feel committed to my gender.","committed"
"2102.0999999046326","","","html-slider-response","450","1277106","0.0-24.0-1.0-0.14","82632","List2A","black","woman","","","","","","","","survey_gender","94","","","I often think about the fact that I am my gender.","often"
"2960.4000000953674","","","html-slider-response","451","1280067","0.0-24.0-1.0-0.15","82632","List2A","black","woman","","","","","","","","survey_gender","100","","","I would say I am an animal person.","filler"
"3021.7999999523163","","","html-slider-response","452","1283089","0.0-24.0-1.0-0.16","82632","List2A","black","woman","","","","","","","","survey_gender","97","","","Most of the friends in my life are very similar to me.","filler"
"2659.5999999046326","","","html-slider-response","453","1285750","0.0-24.0-1.0-0.17","82632","List2A","black","woman","","","","","","","","survey_gender","100","","","I think that my gender has a lot to be proud of.","proud"
"1961.3999998569489","","","html-slider-response","454","1287712","0.0-24.0-1.0-0.18","82632","List2A","black","woman","","","","","","","","survey_gender","98","","","It is pleasant to be my gender.","pleasant"
"2712.300000190735","","","html-slider-response","455","1290425","0.0-24.0-1.0-0.19","82632","List2A","black","woman","","","","","","","","survey_gender","4","","","I feel a bond with my gender.","bond"
"2667.300000190735","","","html-slider-response","456","1293093","0.0-24.0-1.0-0.20","82632","List2A","black","woman","","","","","","","","survey_gender","73","","","I consider myself a highly empathetic person.","filler"
"3130.7999999523163","","","html-slider-response","457","1296225","0.0-24.0-1.0-0.21","82632","List2A","black","woman","","","","","","","","survey_gender","80","","","My friends have a lot in common with each other.","filler"
"3372.7999999523163","","","html-slider-response","458","1299599","0.0-24.0-1.0-0.22","82632","List2A","black","woman","","","","","","","","survey_gender","14","","","I am similar to the average person of my gender.","similar"
"2675.2000000476837","","","html-slider-response","459","1302275","0.0-24.0-1.0-0.23","82632","List2A","black","woman","","","","","","","","survey_gender","90","","","I have a lot in common with my friends.","filler"
"1939.2000000476837","","","html-slider-response","460","1304215","0.0-24.0-1.0-0.24","82632","List2A","black","woman","","","","","","","","survey_gender","76","","","Being around my friends gives me a good feeling.","filler"
"2483.4000000953674","","","html-slider-response","461","1306700","0.0-24.0-1.0-0.25","82632","List2A","black","woman","","","","","","","","survey_gender","98","","","It is not always easy for people to know what I am thinking.","filler"
"2476.600000143051","","","html-slider-response","462","1309177","0.0-24.0-1.0-0.26","82632","List2A","black","woman","","","","","","","","survey_gender","35","","","I feel solidarity with my gender.","solidarity"
"5783.799999952316","","","html-slider-response","463","1314962","0.0-24.0-1.0-0.27","82632","List2A","black","woman","","","","","","","","survey_gender","12","","","Family is not more important to me than friendship.","filler"
"3806.2000000476837","","","survey-text","464","1318770","0.0-25.0","82632","List2A","black","woman","","","","","{""Q0"":""616471df13339e265b16f63f""}","","","worker_id","","","","",""
"5850.400000095367","","","external-html","465","1325187","0.0-26.0","82632","List2A","black","woman","debrief.html","","","","","","","","","","","",""
