rt,stimulus,button_pressed,trial_type,trial_index,time_elapsed,internal_node_id,subject,list,ppt_race,ppt_gender,url,first_guess,correct,key_press,responses,image_type,phrase_type,test_part,response,stimulus1,stimulus2,question_type,survey_item
1895.5,Welcome to the experiment. Press Continue to begin.,0,html-button-response,0,1905,0.0-0.0,82856,List2B,black,woman,,,,,,,,,,,,,
6360.8,,,external-html,1,9419,0.0-1.0,82856,List2B,black,woman,consent.html,,,,,,,,,,,,
13498.7,"<p>On the next page, you will see portraits of 8 people and their names.</p><p>Your first task is to take a few minutes to memorise the names of these people.</p><p>You will have to recall their names during the rest of the experiment, so it is</p><p>essential that you try to memorise these people and their names as best as you can.</p><br><p><strong>You will then be tested on your memory of these names and portraits.</strong></p><br><p>The experiment will start after you have completed this memory test.</p><br><p>Ready?</p>",0,html-button-response,2,22919,0.0-2.0,82856,List2B,black,woman,,,,,,,,,,,,,
50176.9,"<img src='img/portrait_matrix_list2.jpg' style='width:900px;height:500px;''></img><p>If you have memorised all the portraits and names and are ready to start, press Continue.</p><p><strong>Please note: Your memory of these faces will be tested 4 times during this experiment.</strong></p>",0,html-button-response,3,74103,0.0-3.0-0.0,82856,List2B,black,woman,,,,,,,,,,,,,
6790.1,"<img src=""portrait/WW1.jpg""style=""height:400px;""></img>",1,html-button-response,4,81898,0.0-3.0-1.0,82856,List2B,black,woman,,TRUE,1,,,,,,,,,,
null,CORRECT,,html-keyboard-response,5,83404,0.0-3.0-2.0-0.0,82856,List2B,black,woman,,,,null,,,,,,,,,
2587.3,"<img src=""portrait/WW2.jpg""style=""height:400px;""></img>",3,html-button-response,6,85993,0.0-3.0-4.0,82856,List2B,black,woman,,TRUE,3,,,,,,,,,,
null,CORRECT,,html-keyboard-response,7,87501,0.0-3.0-5.0-0.0,82856,List2B,black,woman,,,,null,,,,,,,,,
3693.9,"<img src=""portrait/BM2.jpg""style=""height:400px;""></img>",5,html-button-response,8,91197,0.0-3.0-7.0,82856,List2B,black,woman,,TRUE,5,,,,,,,,,,
null,CORRECT,,html-keyboard-response,9,92702,0.0-3.0-8.0-0.0,82856,List2B,black,woman,,,,null,,,,,,,,,
2724.3,"<img src=""portrait/BW2.jpg""style=""height:400px;""></img>",2,html-button-response,10,95431,0.0-3.0-10.0,82856,List2B,black,woman,,TRUE,2,,,,,,,,,,
null,CORRECT,,html-keyboard-response,11,96937,0.0-3.0-11.0-0.0,82856,List2B,black,woman,,,,null,,,,,,,,,
7846.9,"<img src=""portrait/WM1.jpg""style=""height:400px;""></img>",6,html-button-response,12,104786,0.0-3.0-13.0,82856,List2B,black,woman,,TRUE,6,,,,,,,,,,
null,CORRECT,,html-keyboard-response,13,106288,0.0-3.0-14.0-0.0,82856,List2B,black,woman,,,,null,,,,,,,,,
4108.9,"<img src=""portrait/BW1.jpg""style=""height:400px;""></img>",0,html-button-response,14,110398,0.0-3.0-16.0,82856,List2B,black,woman,,TRUE,0,,,,,,,,,,
null,CORRECT,,html-keyboard-response,15,111905,0.0-3.0-17.0-0.0,82856,List2B,black,woman,,,,null,,,,,,,,,
2327.6,"<img src=""portrait/BM1.jpg""style=""height:400px;""></img>",4,html-button-response,16,114234,0.0-3.0-19.0,82856,List2B,black,woman,,TRUE,4,,,,,,,,,,
null,CORRECT,,html-keyboard-response,17,115742,0.0-3.0-20.0-0.0,82856,List2B,black,woman,,,,null,,,,,,,,,
1559.1,"<img src=""portrait/WM2.jpg""style=""height:400px;""></img>",7,html-button-response,18,117305,0.0-3.0-22.0,82856,List2B,black,woman,,TRUE,7,,,,,,,,,,
null,CORRECT,,html-keyboard-response,19,118809,0.0-3.0-23.0-0.0,82856,List2B,black,woman,,,,null,,,,,,,,,
1150.5,<p>You got 8 out of 8 right first time. Press Continue.</p>,0,html-button-response,20,119962,0.0-3.0-25.0,82856,List2B,black,woman,,,,,,,,,,,,,
25278,"<p>In this experiment, you will view photographs of the people from the memory game interacting.</p><p>By using the <strong>exact</strong> phrase given <i>after</i> the photograph appears and recalling the correct names of the people in the photographs, form a sentence describing the interaction. You do not need to capitalise names.</p><p>Type your answer in the space provided. Please complete every sentence before moving onto the next trial.</p><p>You will only have a few seconds to memorise each given photograph and phrase before you can respond, so try your best to focus.</p><p>An example is given below. Press 'Continue' when you are ready.</p><img src='img/speaking_example.jpg' style='width:800px;height:460px;''></img>",0,html-button-response,21,146246,0.0-4.0,82856,List2B,black,woman,,,,,,,,,,,,,
2735.4,"<p>Before the experiment starts, you will watch two example trials. Press 'Continue'.</p>",0,html-button-response,22,149988,0.0-5.0,82856,List2B,black,woman,,,,,,,,,,,,,
null,<img src='img/play_eg.gif' style='height:400px;''></img>,,html-keyboard-response,23,152991,0.0-6.0,82856,List2B,black,woman,,,,null,,,,,,,,,
null,<p>is playing with</p>,,html-keyboard-response,24,154992,0.0-7.0,82856,List2B,black,woman,,,,null,,,,,,,,,
10808.7,<p><b>Answer:</b> jane is playing with ruth</p>,0,html-button-response,25,165803,0.0-8.0,82856,List2B,black,woman,,,,,,,,,,,,,
null,<img src='img/dance_eg.gif' style='height:400px;''></img>,,html-keyboard-response,26,168809,0.0-9.0,82856,List2B,black,woman,,,,null,,,,,,,,,
null,<p>is being entertained by</p>,,html-keyboard-response,27,170810,0.0-10.0,82856,List2B,black,woman,,,,null,,,,,,,,,
8570.7,<p><b>Answer:</b> fred is being entertained by mike</p>,0,html-button-response,28,179382,0.0-11.0,82856,List2B,black,woman,,,,,,,,,,,,,
10319,"<p>Ready to start the experiment?</p><br><p><strong>Remember to describe the picture using a full sentence,</strong></p><p><strong>that combines the names of the people with the <i>exact</i> phrase given.</strong></p><p><strong>To receive full payment you must do this correctly.</strong></p><p><strong> You do not need to capitalise names or use punctuation.</strong></p><br><p>Press 'Continue' to begin.</p>",0,html-button-response,29,190708,0.0-12.0,82856,List2B,black,woman,,,,,,,,,,,,,
null,"<div style=""font-size:60px;"">+</div>",,html-keyboard-response,30,192216,0.0-13.0-0.0,82856,List2B,black,woman,,,,null,,,,,,,,,
null,"<img src=""stim_listB/oppose8.gif""style=""height:400px;""></stim_listB>",,html-keyboard-response,31,194228,0.0-13.0-1.0,82856,List2B,black,woman,,,,null,,,,,,,,,
null,is being opposed by,,html-keyboard-response,32,196128,0.0-13.0-2.0,82856,List2B,black,woman,,,,null,,,,,,,,,
9993.4,,,survey-text,33,206161,0.0-13.0-3.0,82856,List2B,black,woman,,,,,"{""Q0"":""ruth is being opposed by beth""}","<img src=""stim_listB/oppose8.gif""style=""height:400px;""></stim_listB>",is being opposed by,,,,,,
null,"<div style=""font-size:60px;"">+</div>",,html-keyboard-response,34,206665,0.0-13.0-0.1,82856,List2B,black,woman,,,,null,,,,,,,,,
null,"<img src=""stim_listB/touch8.gif""style=""height:400px;""></stim_listB>",,html-keyboard-response,35,208673,0.0-13.0-1.1,82856,List2B,black,woman,,,,null,,,,,,,,,
null,is being touched by,,html-keyboard-response,36,210677,0.0-13.0-2.1,82856,List2B,black,woman,,,,null,,,,,,,,,
11450.6,,,survey-text,37,222143,0.0-13.0-3.1,82856,List2B,black,woman,,,,,"{""Q0"":""beth is being touched by ruth""}","<img src=""stim_listB/touch8.gif""style=""height:400px;""></stim_listB>",is being touched by,,,,,,
null,"<div style=""font-size:60px;"">+</div>",,html-keyboard-response,38,222644,0.0-13.0-0.2,82856,List2B,black,woman,,,,null,,,,,,,,,
null,"<img src=""stim_listB/challenge4.gif""style=""height:400px;""></stim_listB>",,html-keyboard-response,39,224652,0.0-13.0-1.2,82856,List2B,black,woman,,,,null,,,,,,,,,
null,is being challenged by,,html-keyboard-response,40,226654,0.0-13.0-2.2,82856,List2B,black,woman,,,,null,,,,,,,,,
11749.4,,,survey-text,41,238417,0.0-13.0-3.2,82856,List2B,black,woman,,,,,"{""Q0"":""kate is being challenged by fred""}","<img src=""stim_listB/challenge4.gif""style=""height:400px;""></stim_listB>",is being challenged by,,,,,,
null,"<div style=""font-size:60px;"">+</div>",,html-keyboard-response,42,238920,0.0-13.0-0.3,82856,List2B,black,woman,,,,null,,,,,,,,,
null,"<img src=""stim_listB/greet1.gif""style=""height:400px;""></stim_listB>",,html-keyboard-response,43,240922,0.0-13.0-1.3,82856,List2B,black,woman,,,,null,,,,,,,,,
null,is greeting,,html-keyboard-response,44,242926,0.0-13.0-2.3,82856,List2B,black,woman,,,,null,,,,,,,,,
6845.8,,,survey-text,45,249777,0.0-13.0-3.3,82856,List2B,black,woman,,,,,"{""Q0"":""dave is greeting ruth""}","<img src=""stim_listB/greet1.gif""style=""height:400px;""></stim_listB>",is greeting,,,,,,
null,"<div style=""font-size:60px;"">+</div>",,html-keyboard-response,46,250278,0.0-13.0-0.4,82856,List2B,black,woman,,,,null,,,,,,,,,
null,"<img src=""stim_listB/greet8.gif""style=""height:400px;""></stim_listB>",,html-keyboard-response,47,252282,0.0-13.0-1.4,82856,List2B,black,woman,,,,null,,,,,,,,,
null,is being greeted by,,html-keyboard-response,48,254287,0.0-13.0-2.4,82856,List2B,black,woman,,,,null,,,,,,,,,
9457.8,,,survey-text,49,263750,0.0-13.0-3.4,82856,List2B,black,woman,,,,,"{""Q0"":""ruth is being greeted by kate""}","<img src=""stim_listB/greet8.gif""style=""height:400px;""></stim_listB>",is being greeted by,,,,,,
null,"<div style=""font-size:60px;"">+</div>",,html-keyboard-response,50,264253,0.0-13.0-0.5,82856,List2B,black,woman,,,,null,,,,,,,,,
null,"<img src=""stim_listB/greet7.gif""style=""height:400px;""></stim_listB>",,html-keyboard-response,51,266255,0.0-13.0-1.5,82856,List2B,black,woman,,,,null,,,,,,,,,
null,is greeting,,html-keyboard-response,52,268256,0.0-13.0-2.5,82856,List2B,black,woman,,,,null,,,,,,,,,
9130.6,,,survey-text,53,277396,0.0-13.0-3.5,82856,List2B,black,woman,,,,,"{""Q0"":""jane  is greeting beth""}","<img src=""stim_listB/greet7.gif""style=""height:400px;""></stim_listB>",is greeting,,,,,,
null,"<div style=""font-size:60px;"">+</div>",,html-keyboard-response,54,277900,0.0-13.0-0.6,82856,List2B,black,woman,,,,null,,,,,,,,,
null,"<img src=""stim_listB/challenge2.gif""style=""height:400px;""></stim_listB>",,html-keyboard-response,55,279902,0.0-13.0-1.6,82856,List2B,black,woman,,,,null,,,,,,,,,
null,is being challenged by,,html-keyboard-response,56,281908,0.0-13.0-2.6,82856,List2B,black,woman,,,,null,,,,,,,,,
23616.4,,,survey-text,57,305532,0.0-13.0-3.6,82856,List2B,black,woman,,,,,"{""Q0"":""jane is being challenged by luke""}","<img src=""stim_listB/challenge2.gif""style=""height:400px;""></stim_listB>",is being challenged by,,,,,,
null,"<div style=""font-size:60px;"">+</div>",,html-keyboard-response,58,306034,0.0-13.0-0.7,82856,List2B,black,woman,,,,null,,,,,,,,,
null,"<img src=""stim_listB/shout4.gif""style=""height:400px;""></stim_listB>",,html-keyboard-response,59,308038,0.0-13.0-1.7,82856,List2B,black,woman,,,,null,,,,,,,,,
null,is being shouted at by,,html-keyboard-response,60,310040,0.0-13.0-2.7,82856,List2B,black,woman,,,,null,,,,,,,,,
14432.1,,,survey-text,61,324479,0.0-13.0-3.7,82856,List2B,black,woman,,,,,"{""Q0"":""mike is being shouted out by kate""}","<img src=""stim_listB/shout4.gif""style=""height:400px;""></stim_listB>",is being shouted at by,,,,,,
null,"<div style=""font-size:60px;"">+</div>",,html-keyboard-response,62,324982,0.0-13.0-0.8,82856,List2B,black,woman,,,,null,,,,,,,,,
null,"<img src=""stim_listB/oppose1.gif""style=""height:400px;""></stim_listB>",,html-keyboard-response,63,326986,0.0-13.0-1.8,82856,List2B,black,woman,,,,null,,,,,,,,,
null,is opposing,,html-keyboard-response,64,328988,0.0-13.0-2.8,82856,List2B,black,woman,,,,null,,,,,,,,,
10946.9,,,survey-text,65,339939,0.0-13.0-3.8,82856,List2B,black,woman,,,,,"{""Q0"":""dave is opposing jane""}","<img src=""stim_listB/oppose1.gif""style=""height:400px;""></stim_listB>",is opposing,,,,,,
null,"<div style=""font-size:60px;"">+</div>",,html-keyboard-response,66,340440,0.0-13.0-0.9,82856,List2B,black,woman,,,,null,,,,,,,,,
null,"<img src=""stim_listB/oppose4.gif""style=""height:400px;""></stim_listB>",,html-keyboard-response,67,342441,0.0-13.0-1.9,82856,List2B,black,woman,,,,null,,,,,,,,,
null,is being opposed by,,html-keyboard-response,68,344445,0.0-13.0-2.9,82856,List2B,black,woman,,,,null,,,,,,,,,
9390.3,,,survey-text,69,353839,0.0-13.0-3.9,82856,List2B,black,woman,,,,,"{""Q0"":""fred is being opposed by beth""}","<img src=""stim_listB/oppose4.gif""style=""height:400px;""></stim_listB>",is being opposed by,,,,,,
null,"<div style=""font-size:60px;"">+</div>",,html-keyboard-response,70,354342,0.0-13.0-0.10,82856,List2B,black,woman,,,,null,,,,,,,,,
null,"<img src=""stim_listB/kiss4.gif""style=""height:400px;""></stim_listB>",,html-keyboard-response,71,356348,0.0-13.0-1.10,82856,List2B,black,woman,,,,null,,,,,,,,,
null,is being kissed by,,html-keyboard-response,72,358352,0.0-13.0-2.10,82856,List2B,black,woman,,,,null,,,,,,,,,
10822.1,,,survey-text,73,369180,0.0-13.0-3.10,82856,List2B,black,woman,,,,,"{""Q0"":""kate is being kissed by mike""}","<img src=""stim_listB/kiss4.gif""style=""height:400px;""></stim_listB>",is being kissed by,,,,,,
null,"<div style=""font-size:60px;"">+</div>",,html-keyboard-response,74,369682,0.0-13.0-0.11,82856,List2B,black,woman,,,,null,,,,,,,,,
null,"<img src=""stim_listB/challenge8.gif""style=""height:400px;""></stim_listB>",,html-keyboard-response,75,371688,0.0-13.0-1.11,82856,List2B,black,woman,,,,null,,,,,,,,,
null,is being challenged by,,html-keyboard-response,76,373690,0.0-13.0-2.11,82856,List2B,black,woman,,,,null,,,,,,,,,
10444.4,,,survey-text,77,384140,0.0-13.0-3.11,82856,List2B,black,woman,,,,,"{""Q0"":""kate is being challenged by ruth""}","<img src=""stim_listB/challenge8.gif""style=""height:400px;""></stim_listB>",is being challenged by,,,,,,
null,"<div style=""font-size:60px;"">+</div>",,html-keyboard-response,78,384644,0.0-13.0-0.12,82856,List2B,black,woman,,,,null,,,,,,,,,
null,"<img src=""stim_listB/copy3.gif""style=""height:400px;""></stim_listB>",,html-keyboard-response,79,386647,0.0-13.0-1.12,82856,List2B,black,woman,,,,null,,,,,,,,,
null,is copying,,html-keyboard-response,80,388649,0.0-13.0-2.12,82856,List2B,black,woman,,,,null,,,,,,,,,
5375,,,survey-text,81,394032,0.0-13.0-3.12,82856,List2B,black,woman,,,,,"{""Q0"":""beth is copying mike""}","<img src=""stim_listB/copy3.gif""style=""height:400px;""></stim_listB>",is copying,,,,,,
null,"<div style=""font-size:60px;"">+</div>",,html-keyboard-response,82,394535,0.0-13.0-0.13,82856,List2B,black,woman,,,,null,,,,,,,,,
null,"<img src=""stim_listB/greet2.gif""style=""height:400px;""></stim_listB>",,html-keyboard-response,83,396540,0.0-13.0-1.13,82856,List2B,black,woman,,,,null,,,,,,,,,
null,is being greeted by,,html-keyboard-response,84,398545,0.0-13.0-2.13,82856,List2B,black,woman,,,,null,,,,,,,,,
9174.6,,,survey-text,85,407724,0.0-13.0-3.13,82856,List2B,black,woman,,,,,"{""Q0"":""jane is being greeted by luke""}","<img src=""stim_listB/greet2.gif""style=""height:400px;""></stim_listB>",is being greeted by,,,,,,
null,"<div style=""font-size:60px;"">+</div>",,html-keyboard-response,86,408228,0.0-13.0-0.14,82856,List2B,black,woman,,,,null,,,,,,,,,
null,"<img src=""stim_listB/seduce2.gif""style=""height:400px;""></stim_listB>",,html-keyboard-response,87,410230,0.0-13.0-1.14,82856,List2B,black,woman,,,,null,,,,,,,,,
null,is being seduced by,,html-keyboard-response,88,412232,0.0-13.0-2.14,82856,List2B,black,woman,,,,null,,,,,,,,,
12207.6,,,survey-text,89,424443,0.0-13.0-3.14,82856,List2B,black,woman,,,,,"{""Q0"":""ruth is being seduced by dave""}","<img src=""stim_listB/seduce2.gif""style=""height:400px;""></stim_listB>",is being seduced by,,,,,,
null,"<div style=""font-size:60px;"">+</div>",,html-keyboard-response,90,424946,0.0-13.0-0.15,82856,List2B,black,woman,,,,null,,,,,,,,,
null,"<img src=""stim_listB/shout5.gif""style=""height:400px;""></stim_listB>",,html-keyboard-response,91,426950,0.0-13.0-1.15,82856,List2B,black,woman,,,,null,,,,,,,,,
null,is shouting at,,html-keyboard-response,92,428951,0.0-13.0-2.15,82856,List2B,black,woman,,,,null,,,,,,,,,
4935.9,,,survey-text,93,433891,0.0-13.0-3.15,82856,List2B,black,woman,,,,,"{""Q0"":""luke is shouting at fred""}","<img src=""stim_listB/shout5.gif""style=""height:400px;""></stim_listB>",is shouting at,,,,,,
null,"<div style=""font-size:60px;"">+</div>",,html-keyboard-response,94,434393,0.0-13.0-0.16,82856,List2B,black,woman,,,,null,,,,,,,,,
null,"<img src=""stim_listB/seduce1.gif""style=""height:400px;""></stim_listB>",,html-keyboard-response,95,436395,0.0-13.0-1.16,82856,List2B,black,woman,,,,null,,,,,,,,,
null,is seducing,,html-keyboard-response,96,438399,0.0-13.0-2.16,82856,List2B,black,woman,,,,null,,,,,,,,,
7618.1,,,survey-text,97,446022,0.0-13.0-3.16,82856,List2B,black,woman,,,,,"{""Q0"":""luke is seducing jane""}","<img src=""stim_listB/seduce1.gif""style=""height:400px;""></stim_listB>",is seducing,,,,,,
null,"<div style=""font-size:60px;"">+</div>",,html-keyboard-response,98,446523,0.0-13.0-0.17,82856,List2B,black,woman,,,,null,,,,,,,,,
null,"<img src=""stim_listB/copy2.gif""style=""height:400px;""></stim_listB>",,html-keyboard-response,99,448527,0.0-13.0-1.17,82856,List2B,black,woman,,,,null,,,,,,,,,
null,is being copied by,,html-keyboard-response,100,450529,0.0-13.0-2.17,82856,List2B,black,woman,,,,null,,,,,,,,,
7146.2,,,survey-text,101,457679,0.0-13.0-3.17,82856,List2B,black,woman,,,,,"{""Q0"":""jane is being copied by luke""}","<img src=""stim_listB/copy2.gif""style=""height:400px;""></stim_listB>",is being copied by,,,,,,
null,"<div style=""font-size:60px;"">+</div>",,html-keyboard-response,102,458181,0.0-13.0-0.18,82856,List2B,black,woman,,,,null,,,,,,,,,
null,"<img src=""stim_listB/oppose5.gif""style=""height:400px;""></stim_listB>",,html-keyboard-response,103,460183,0.0-13.0-1.18,82856,List2B,black,woman,,,,null,,,,,,,,,
null,is opposing,,html-keyboard-response,104,462191,0.0-13.0-2.18,82856,List2B,black,woman,,,,null,,,,,,,,,
6169,,,survey-text,105,468365,0.0-13.0-3.18,82856,List2B,black,woman,,,,,"{""Q0"":""mike is opposing dave""}","<img src=""stim_listB/oppose5.gif""style=""height:400px;""></stim_listB>",is opposing,,,,,,
null,"<div style=""font-size:60px;"">+</div>",,html-keyboard-response,106,468866,0.0-13.0-0.19,82856,List2B,black,woman,,,,null,,,,,,,,,
null,"<img src=""stim_listB/greet5.gif""style=""height:400px;""></stim_listB>",,html-keyboard-response,107,470868,0.0-13.0-1.19,82856,List2B,black,woman,,,,null,,,,,,,,,
null,is greeting,,html-keyboard-response,108,472869,0.0-13.0-2.19,82856,List2B,black,woman,,,,null,,,,,,,,,
6766.5,,,survey-text,109,479639,0.0-13.0-3.19,82856,List2B,black,woman,,,,,"{""Q0"":""fred is greeting  dave""}","<img src=""stim_listB/greet5.gif""style=""height:400px;""></stim_listB>",is greeting,,,,,,
7696.7,"<img src='img/portrait_matrix_list2.jpg' style='width:900px;height:500px;''></img><p>If you have memorised all the portraits and names and are ready to start, press Continue.</p><p><strong>Please note: Your memory of these faces will be tested 4 times during this experiment.</strong></p>",0,html-button-response,110,487339,0.0-14.0-0.0,82856,List2B,black,woman,,,,,,,,,,,,,
2197.9,"<img src=""portrait/BM2.jpg""style=""height:400px;""></img>",5,html-button-response,111,490542,0.0-14.0-1.0,82856,List2B,black,woman,,TRUE,5,,,,,,,,,,
null,CORRECT,,html-keyboard-response,112,492044,0.0-14.0-2.0-0.0,82856,List2B,black,woman,,,,null,,,,,,,,,
4597.7,"<img src=""portrait/WM1.jpg""style=""height:400px;""></img>",6,html-button-response,113,496644,0.0-14.0-4.0,82856,List2B,black,woman,,TRUE,6,,,,,,,,,,
null,CORRECT,,html-keyboard-response,114,498152,0.0-14.0-5.0-0.0,82856,List2B,black,woman,,,,null,,,,,,,,,
1947.1,"<img src=""portrait/BW1.jpg""style=""height:400px;""></img>",0,html-button-response,115,500102,0.0-14.0-7.0,82856,List2B,black,woman,,TRUE,0,,,,,,,,,,
null,CORRECT,,html-keyboard-response,116,501614,0.0-14.0-8.0-0.0,82856,List2B,black,woman,,,,null,,,,,,,,,
7964.8,"<img src=""portrait/WM2.jpg""style=""height:400px;""></img>",7,html-button-response,117,509582,0.0-14.0-10.0,82856,List2B,black,woman,,TRUE,7,,,,,,,,,,
null,CORRECT,,html-keyboard-response,118,511088,0.0-14.0-11.0-0.0,82856,List2B,black,woman,,,,null,,,,,,,,,
3372.2,"<img src=""portrait/BM1.jpg""style=""height:400px;""></img>",4,html-button-response,119,514464,0.0-14.0-13.0,82856,List2B,black,woman,,TRUE,4,,,,,,,,,,
null,CORRECT,,html-keyboard-response,120,515975,0.0-14.0-14.0-0.0,82856,List2B,black,woman,,,,null,,,,,,,,,
2617.1,"<img src=""portrait/BW2.jpg""style=""height:400px;""></img>",2,html-button-response,121,518594,0.0-14.0-16.0,82856,List2B,black,woman,,TRUE,2,,,,,,,,,,
null,CORRECT,,html-keyboard-response,122,520105,0.0-14.0-17.0-0.0,82856,List2B,black,woman,,,,null,,,,,,,,,
1321.7,"<img src=""portrait/WW2.jpg""style=""height:400px;""></img>",3,html-button-response,123,521429,0.0-14.0-19.0,82856,List2B,black,woman,,TRUE,3,,,,,,,,,,
null,CORRECT,,html-keyboard-response,124,522933,0.0-14.0-20.0-0.0,82856,List2B,black,woman,,,,null,,,,,,,,,
3180.1,"<img src=""portrait/WW1.jpg""style=""height:400px;""></img>",1,html-button-response,125,526115,0.0-14.0-22.0,82856,List2B,black,woman,,TRUE,1,,,,,,,,,,
null,CORRECT,,html-keyboard-response,126,527623,0.0-14.0-23.0-0.0,82856,List2B,black,woman,,,,null,,,,,,,,,
1251,<p>You got 8 out of 8 right first time. Press Continue.</p>,0,html-button-response,127,528878,0.0-14.0-25.0,82856,List2B,black,woman,,,,,,,,,,,,,
null,"<div style=""font-size:60px;"">+</div>",,html-keyboard-response,128,530386,0.0-15.0-0.0,82856,List2B,black,woman,,,,null,,,,,,,,,
null,"<img src=""stim_listB/challenge3.gif""style=""height:400px;""></stim_listB>",,html-keyboard-response,129,532388,0.0-15.0-1.0,82856,List2B,black,woman,,,,null,,,,,,,,,
null,is challenging,,html-keyboard-response,130,534393,0.0-15.0-2.0,82856,List2B,black,woman,,,,null,,,,,,,,,
13103.5,,,survey-text,131,547506,0.0-15.0-3.0,82856,List2B,black,woman,,,,,"{""Q0"":""mike is challenging beth""}","<img src=""stim_listB/challenge3.gif""style=""height:400px;""></stim_listB>",is challenging,,,,,,
null,"<div style=""font-size:60px;"">+</div>",,html-keyboard-response,132,548008,0.0-15.0-0.1,82856,List2B,black,woman,,,,null,,,,,,,,,
null,"<img src=""stim_listB/greet3.gif""style=""height:400px;""></stim_listB>",,html-keyboard-response,133,550015,0.0-15.0-1.1,82856,List2B,black,woman,,,,null,,,,,,,,,
null,is greeting,,html-keyboard-response,134,552020,0.0-15.0-2.1,82856,List2B,black,woman,,,,null,,,,,,,,,
5847.9,,,survey-text,135,557876,0.0-15.0-3.1,82856,List2B,black,woman,,,,,"{""Q0"":""beth is greeting mike""}","<img src=""stim_listB/greet3.gif""style=""height:400px;""></stim_listB>",is greeting,,,,,,
null,"<div style=""font-size:60px;"">+</div>",,html-keyboard-response,136,558381,0.0-15.0-0.2,82856,List2B,black,woman,,,,null,,,,,,,,,
null,"<img src=""stim_listB/seduce5.gif""style=""height:400px;""></stim_listB>",,html-keyboard-response,137,560384,0.0-15.0-1.2,82856,List2B,black,woman,,,,null,,,,,,,,,
null,is seducing,,html-keyboard-response,138,562388,0.0-15.0-2.2,82856,List2B,black,woman,,,,null,,,,,,,,,
5040.6,,,survey-text,139,567437,0.0-15.0-3.2,82856,List2B,black,woman,,,,,"{""Q0"":""luke is seducing mike""}","<img src=""stim_listB/seduce5.gif""style=""height:400px;""></stim_listB>",is seducing,,,,,,
null,"<div style=""font-size:60px;"">+</div>",,html-keyboard-response,140,567939,0.0-15.0-0.3,82856,List2B,black,woman,,,,null,,,,,,,,,
null,"<img src=""stim_listB/hug8.gif""style=""height:400px;""></stim_listB>",,html-keyboard-response,141,569945,0.0-15.0-1.3,82856,List2B,black,woman,,,,null,,,,,,,,,
null,is being hugged by,,html-keyboard-response,142,571952,0.0-15.0-2.3,82856,List2B,black,woman,,,,null,,,,,,,,,
8306.1,,,survey-text,143,580266,0.0-15.0-3.3,82856,List2B,black,woman,,,,,"{""Q0"":""kate is being hugged by jane""}","<img src=""stim_listB/hug8.gif""style=""height:400px;""></stim_listB>",is being hugged by,,,,,,
null,"<div style=""font-size:60px;"">+</div>",,html-keyboard-response,144,580768,0.0-15.0-0.4,82856,List2B,black,woman,,,,null,,,,,,,,,
null,"<img src=""stim_listB/look1.gif""style=""height:400px;""></stim_listB>",,html-keyboard-response,145,582771,0.0-15.0-1.4,82856,List2B,black,woman,,,,null,,,,,,,,,
null,is looking at,,html-keyboard-response,146,584776,0.0-15.0-2.4,82856,List2B,black,woman,,,,null,,,,,,,,,
7593.3,,,survey-text,147,592378,0.0-15.0-3.4,82856,List2B,black,woman,,,,,"{""Q0"":""luke is looking at ruth""}","<img src=""stim_listB/look1.gif""style=""height:400px;""></stim_listB>",is looking at,,,,,,
null,"<div style=""font-size:60px;"">+</div>",,html-keyboard-response,148,592881,0.0-15.0-0.5,82856,List2B,black,woman,,,,null,,,,,,,,,
null,"<img src=""stim_listB/shout6.gif""style=""height:400px;""></stim_listB>",,html-keyboard-response,149,594889,0.0-15.0-1.5,82856,List2B,black,woman,,,,null,,,,,,,,,
null,is being shouted at by,,html-keyboard-response,150,596896,0.0-15.0-2.5,82856,List2B,black,woman,,,,null,,,,,,,,,
6780.8,,,survey-text,151,603685,0.0-15.0-3.5,82856,List2B,black,woman,,,,,"{""Q0"":""dave is being shouted at by mike""}","<img src=""stim_listB/shout6.gif""style=""height:400px;""></stim_listB>",is being shouted at by,,,,,,
null,"<div style=""font-size:60px;"">+</div>",,html-keyboard-response,152,604187,0.0-15.0-0.6,82856,List2B,black,woman,,,,null,,,,,,,,,
null,"<img src=""stim_listB/challenge5.gif""style=""height:400px;""></stim_listB>",,html-keyboard-response,153,606195,0.0-15.0-1.6,82856,List2B,black,woman,,,,null,,,,,,,,,
null,is challenging,,html-keyboard-response,154,608201,0.0-15.0-2.6,82856,List2B,black,woman,,,,null,,,,,,,,,
8650.3,,,survey-text,155,616858,0.0-15.0-3.6,82856,List2B,black,woman,,,,,"{""Q0"":""dave is challenging fred""}","<img src=""stim_listB/challenge5.gif""style=""height:400px;""></stim_listB>",is challenging,,,,,,
null,"<div style=""font-size:60px;"">+</div>",,html-keyboard-response,156,617363,0.0-15.0-0.7,82856,List2B,black,woman,,,,null,,,,,,,,,
null,"<img src=""stim_listB/look3.gif""style=""height:400px;""></stim_listB>",,html-keyboard-response,157,619370,0.0-15.0-1.7,82856,List2B,black,woman,,,,null,,,,,,,,,
null,is looking at,,html-keyboard-response,158,621371,0.0-15.0-2.7,82856,List2B,black,woman,,,,null,,,,,,,,,
5049.2,,,survey-text,159,626428,0.0-15.0-3.7,82856,List2B,black,woman,,,,,"{""Q0"":""fred is looking at beth""}","<img src=""stim_listB/look3.gif""style=""height:400px;""></stim_listB>",is looking at,,,,,,
null,"<div style=""font-size:60px;"">+</div>",,html-keyboard-response,160,626932,0.0-15.0-0.8,82856,List2B,black,woman,,,,null,,,,,,,,,
null,"<img src=""stim_listB/oppose3.gif""style=""height:400px;""></stim_listB>",,html-keyboard-response,161,628935,0.0-15.0-1.8,82856,List2B,black,woman,,,,null,,,,,,,,,
null,is opposing,,html-keyboard-response,162,630941,0.0-15.0-2.8,82856,List2B,black,woman,,,,null,,,,,,,,,
6061.8,,,survey-text,163,637011,0.0-15.0-3.8,82856,List2B,black,woman,,,,,"{""Q0"":""kate is opposing mike""}","<img src=""stim_listB/oppose3.gif""style=""height:400px;""></stim_listB>",is opposing,,,,,,
null,"<div style=""font-size:60px;"">+</div>",,html-keyboard-response,164,637513,0.0-15.0-0.9,82856,List2B,black,woman,,,,null,,,,,,,,,
null,"<img src=""stim_listB/kiss1.gif""style=""height:400px;""></stim_listB>",,html-keyboard-response,165,639518,0.0-15.0-1.9,82856,List2B,black,woman,,,,null,,,,,,,,,
null,is kissing,,html-keyboard-response,166,641524,0.0-15.0-2.9,82856,List2B,black,woman,,,,null,,,,,,,,,
4890.2,,,survey-text,167,646422,0.0-15.0-3.9,82856,List2B,black,woman,,,,,"{""Q0"":""ruth is kissing luke""}","<img src=""stim_listB/kiss1.gif""style=""height:400px;""></stim_listB>",is kissing,,,,,,
null,"<div style=""font-size:60px;"">+</div>",,html-keyboard-response,168,646926,0.0-15.0-0.10,82856,List2B,black,woman,,,,null,,,,,,,,,
null,"<img src=""stim_listB/look5.gif""style=""height:400px;""></stim_listB>",,html-keyboard-response,169,648934,0.0-15.0-1.10,82856,List2B,black,woman,,,,null,,,,,,,,,
null,is looking at,,html-keyboard-response,170,650935,0.0-15.0-2.10,82856,List2B,black,woman,,,,null,,,,,,,,,
8973.7,,,survey-text,171,659917,0.0-15.0-3.10,82856,List2B,black,woman,,,,,"{""Q0"":""fred is looking at luke""}","<img src=""stim_listB/look5.gif""style=""height:400px;""></stim_listB>",is looking at,,,,,,
null,"<div style=""font-size:60px;"">+</div>",,html-keyboard-response,172,660422,0.0-15.0-0.11,82856,List2B,black,woman,,,,null,,,,,,,,,
null,"<img src=""stim_listB/greet6.gif""style=""height:400px;""></stim_listB>",,html-keyboard-response,173,662428,0.0-15.0-1.11,82856,List2B,black,woman,,,,null,,,,,,,,,
null,is being greeted by,,html-keyboard-response,174,664432,0.0-15.0-2.11,82856,List2B,black,woman,,,,null,,,,,,,,,
14694,,,survey-text,175,679134,0.0-15.0-3.11,82856,List2B,black,woman,,,,,"{""Q0"":""mike is being greeted by luke""}","<img src=""stim_listB/greet6.gif""style=""height:400px;""></stim_listB>",is being greeted by,,,,,,
null,"<div style=""font-size:60px;"">+</div>",,html-keyboard-response,176,679635,0.0-15.0-0.12,82856,List2B,black,woman,,,,null,,,,,,,,,
null,"<img src=""stim_listB/copy6.gif""style=""height:400px;""></stim_listB>",,html-keyboard-response,177,681640,0.0-15.0-1.12,82856,List2B,black,woman,,,,null,,,,,,,,,
null,is being copied by,,html-keyboard-response,178,683645,0.0-15.0-2.12,82856,List2B,black,woman,,,,null,,,,,,,,,
8650,,,survey-text,179,692303,0.0-15.0-3.12,82856,List2B,black,woman,,,,,"{""Q0"":""luke is being copied by mike""}","<img src=""stim_listB/copy6.gif""style=""height:400px;""></stim_listB>",is being copied by,,,,,,
null,"<div style=""font-size:60px;"">+</div>",,html-keyboard-response,180,692807,0.0-15.0-0.13,82856,List2B,black,woman,,,,null,,,,,,,,,
null,"<img src=""stim_listB/seduce8.gif""style=""height:400px;""></stim_listB>",,html-keyboard-response,181,694810,0.0-15.0-1.13,82856,List2B,black,woman,,,,null,,,,,,,,,
null,is being seduced by,,html-keyboard-response,182,696813,0.0-15.0-2.13,82856,List2B,black,woman,,,,null,,,,,,,,,
8978.7,,,survey-text,183,705801,0.0-15.0-3.13,82856,List2B,black,woman,,,,,"{""Q0"":""jane is being seduced by beth""}","<img src=""stim_listB/seduce8.gif""style=""height:400px;""></stim_listB>",is being seduced by,,,,,,
null,"<div style=""font-size:60px;"">+</div>",,html-keyboard-response,184,706302,0.0-15.0-0.14,82856,List2B,black,woman,,,,null,,,,,,,,,
null,"<img src=""stim_listB/seduce7.gif""style=""height:400px;""></stim_listB>",,html-keyboard-response,185,708304,0.0-15.0-1.14,82856,List2B,black,woman,,,,null,,,,,,,,,
null,is seducing,,html-keyboard-response,186,710305,0.0-15.0-2.14,82856,List2B,black,woman,,,,null,,,,,,,,,
6424.6,,,survey-text,187,716734,0.0-15.0-3.14,82856,List2B,black,woman,,,,,"{""Q0"":""ruth is seducing kate""}","<img src=""stim_listB/seduce7.gif""style=""height:400px;""></stim_listB>",is seducing,,,,,,
null,"<div style=""font-size:60px;"">+</div>",,html-keyboard-response,188,717237,0.0-15.0-0.15,82856,List2B,black,woman,,,,null,,,,,,,,,
null,"<img src=""stim_listB/copy8.gif""style=""height:400px;""></stim_listB>",,html-keyboard-response,189,719240,0.0-15.0-1.15,82856,List2B,black,woman,,,,null,,,,,,,,,
null,is being copied by,,html-keyboard-response,190,721242,0.0-15.0-2.15,82856,List2B,black,woman,,,,null,,,,,,,,,
5547.8,,,survey-text,191,726797,0.0-15.0-3.15,82856,List2B,black,woman,,,,,"{""Q0"":""kate is being copied by ruth""}","<img src=""stim_listB/copy8.gif""style=""height:400px;""></stim_listB>",is being copied by,,,,,,
null,"<div style=""font-size:60px;"">+</div>",,html-keyboard-response,192,727299,0.0-15.0-0.16,82856,List2B,black,woman,,,,null,,,,,,,,,
null,"<img src=""stim_listB/challenge7.gif""style=""height:400px;""></stim_listB>",,html-keyboard-response,193,729302,0.0-15.0-1.16,82856,List2B,black,woman,,,,null,,,,,,,,,
null,is challenging,,html-keyboard-response,194,731309,0.0-15.0-2.16,82856,List2B,black,woman,,,,null,,,,,,,,,
5805.9,,,survey-text,195,737123,0.0-15.0-3.16,82856,List2B,black,woman,,,,,"{""Q0"":""jane is challenging beth""}","<img src=""stim_listB/challenge7.gif""style=""height:400px;""></stim_listB>",is challenging,,,,,,
null,"<div style=""font-size:60px;"">+</div>",,html-keyboard-response,196,737627,0.0-15.0-0.17,82856,List2B,black,woman,,,,null,,,,,,,,,
null,"<img src=""stim_listB/touch6.gif""style=""height:400px;""></stim_listB>",,html-keyboard-response,197,739629,0.0-15.0-1.17,82856,List2B,black,woman,,,,null,,,,,,,,,
null,is being touched by,,html-keyboard-response,198,741632,0.0-15.0-2.17,82856,List2B,black,woman,,,,null,,,,,,,,,
7251.5,,,survey-text,199,748892,0.0-15.0-3.17,82856,List2B,black,woman,,,,,"{""Q0"":""fred is being touched by luke""}","<img src=""stim_listB/touch6.gif""style=""height:400px;""></stim_listB>",is being touched by,,,,,,
null,"<div style=""font-size:60px;"">+</div>",,html-keyboard-response,200,749393,0.0-15.0-0.18,82856,List2B,black,woman,,,,null,,,,,,,,,
null,"<img src=""stim_listB/copy5.gif""style=""height:400px;""></stim_listB>",,html-keyboard-response,201,751395,0.0-15.0-1.18,82856,List2B,black,woman,,,,null,,,,,,,,,
null,is copying,,html-keyboard-response,202,753401,0.0-15.0-2.18,82856,List2B,black,woman,,,,null,,,,,,,,,
5827.9,,,survey-text,203,759239,0.0-15.0-3.18,82856,List2B,black,woman,,,,,"{""Q0"":""fred is copying dave""}","<img src=""stim_listB/copy5.gif""style=""height:400px;""></stim_listB>",is copying,,,,,,
null,"<div style=""font-size:60px;"">+</div>",,html-keyboard-response,204,759741,0.0-15.0-0.19,82856,List2B,black,woman,,,,null,,,,,,,,,
null,"<img src=""stim_listB/oppose6.gif""style=""height:400px;""></stim_listB>",,html-keyboard-response,205,761744,0.0-15.0-1.19,82856,List2B,black,woman,,,,null,,,,,,,,,
null,is being opposed by,,html-keyboard-response,206,763747,0.0-15.0-2.19,82856,List2B,black,woman,,,,null,,,,,,,,,
7663,,,survey-text,207,771414,0.0-15.0-3.19,82856,List2B,black,woman,,,,,"{""Q0"":""fred is being opposed by  luke""}","<img src=""stim_listB/oppose6.gif""style=""height:400px;""></stim_listB>",is being opposed by,,,,,,
2633.5,"<img src='img/portrait_matrix_list2.jpg' style='width:900px;height:500px;''></img><p>If you have memorised all the portraits and names and are ready to start, press Continue.</p><p><strong>Please note: Your memory of these faces will be tested 4 times during this experiment.</strong></p>",0,html-button-response,208,774049,0.0-16.0-0.0,82856,List2B,black,woman,,,,,,,,,,,,,
1720.8,"<img src=""portrait/BM2.jpg""style=""height:400px;""></img>",5,html-button-response,209,776774,0.0-16.0-1.0,82856,List2B,black,woman,,TRUE,5,,,,,,,,,,
null,CORRECT,,html-keyboard-response,210,778280,0.0-16.0-2.0-0.0,82856,List2B,black,woman,,,,null,,,,,,,,,
3094.7,"<img src=""portrait/BW1.jpg""style=""height:400px;""></img>",0,html-button-response,211,781377,0.0-16.0-4.0,82856,List2B,black,woman,,TRUE,0,,,,,,,,,,
null,CORRECT,,html-keyboard-response,212,782885,0.0-16.0-5.0-0.0,82856,List2B,black,woman,,,,null,,,,,,,,,
2017.1,"<img src=""portrait/BM1.jpg""style=""height:400px;""></img>",4,html-button-response,213,784904,0.0-16.0-7.0,82856,List2B,black,woman,,TRUE,4,,,,,,,,,,
null,CORRECT,,html-keyboard-response,214,786416,0.0-16.0-8.0-0.0,82856,List2B,black,woman,,,,null,,,,,,,,,
1328.7,"<img src=""portrait/WM2.jpg""style=""height:400px;""></img>",7,html-button-response,215,787747,0.0-16.0-10.0,82856,List2B,black,woman,,TRUE,7,,,,,,,,,,
null,CORRECT,,html-keyboard-response,216,789253,0.0-16.0-11.0-0.0,82856,List2B,black,woman,,,,null,,,,,,,,,
2338.6,"<img src=""portrait/WW2.jpg""style=""height:400px;""></img>",3,html-button-response,217,791594,0.0-16.0-13.0,82856,List2B,black,woman,,TRUE,3,,,,,,,,,,
null,CORRECT,,html-keyboard-response,218,793096,0.0-16.0-14.0-0.0,82856,List2B,black,woman,,,,null,,,,,,,,,
1541,"<img src=""portrait/WW1.jpg""style=""height:400px;""></img>",1,html-button-response,219,794639,0.0-16.0-16.0,82856,List2B,black,woman,,TRUE,1,,,,,,,,,,
null,CORRECT,,html-keyboard-response,220,796141,0.0-16.0-17.0-0.0,82856,List2B,black,woman,,,,null,,,,,,,,,
1565.7,"<img src=""portrait/BW2.jpg""style=""height:400px;""></img>",2,html-button-response,221,797709,0.0-16.0-19.0,82856,List2B,black,woman,,TRUE,2,,,,,,,,,,
null,CORRECT,,html-keyboard-response,222,799222,0.0-16.0-20.0-0.0,82856,List2B,black,woman,,,,null,,,,,,,,,
1964.4,"<img src=""portrait/WM1.jpg""style=""height:400px;""></img>",6,html-button-response,223,801189,0.0-16.0-22.0,82856,List2B,black,woman,,TRUE,6,,,,,,,,,,
null,CORRECT,,html-keyboard-response,224,802693,0.0-16.0-23.0-0.0,82856,List2B,black,woman,,,,null,,,,,,,,,
1458.1,<p>You got 8 out of 8 right first time. Press Continue.</p>,0,html-button-response,225,804155,0.0-16.0-25.0,82856,List2B,black,woman,,,,,,,,,,,,,
null,"<div style=""font-size:60px;"">+</div>",,html-keyboard-response,226,805668,0.0-17.0-0.0,82856,List2B,black,woman,,,,null,,,,,,,,,
null,"<img src=""stim_listB/copy4.gif""style=""height:400px;""></stim_listB>",,html-keyboard-response,227,807675,0.0-17.0-1.0,82856,List2B,black,woman,,,,null,,,,,,,,,
null,is being copied by,,html-keyboard-response,228,809678,0.0-17.0-2.0,82856,List2B,black,woman,,,,null,,,,,,,,,
8937.8,,,survey-text,229,818625,0.0-17.0-3.0,82856,List2B,black,woman,,,,,"{""Q0"":""fred is being copied by kate""}","<img src=""stim_listB/copy4.gif""style=""height:400px;""></stim_listB>",is being copied by,,,,,,
null,"<div style=""font-size:60px;"">+</div>",,html-keyboard-response,230,819126,0.0-17.0-0.1,82856,List2B,black,woman,,,,null,,,,,,,,,
null,"<img src=""stim_listB/touch7.gif""style=""height:400px;""></stim_listB>",,html-keyboard-response,231,821128,0.0-17.0-1.1,82856,List2B,black,woman,,,,null,,,,,,,,,
null,is touching,,html-keyboard-response,232,823133,0.0-17.0-2.1,82856,List2B,black,woman,,,,null,,,,,,,,,
6351.3,,,survey-text,233,829492,0.0-17.0-3.1,82856,List2B,black,woman,,,,,"{""Q0"":""kate is touching jane""}","<img src=""stim_listB/touch7.gif""style=""height:400px;""></stim_listB>",is touching,,,,,,
null,"<div style=""font-size:60px;"">+</div>",,html-keyboard-response,234,829993,0.0-17.0-0.2,82856,List2B,black,woman,,,,null,,,,,,,,,
null,"<img src=""stim_listB/touch1.gif""style=""height:400px;""></stim_listB>",,html-keyboard-response,235,831996,0.0-17.0-1.2,82856,List2B,black,woman,,,,null,,,,,,,,,
null,is touching,,html-keyboard-response,236,834002,0.0-17.0-2.2,82856,List2B,black,woman,,,,null,,,,,,,,,
4898.4,,,survey-text,237,838905,0.0-17.0-3.2,82856,List2B,black,woman,,,,,"{""Q0"":""jane is touching dave""}","<img src=""stim_listB/touch1.gif""style=""height:400px;""></stim_listB>",is touching,,,,,,
null,"<div style=""font-size:60px;"">+</div>",,html-keyboard-response,238,839410,0.0-17.0-0.3,82856,List2B,black,woman,,,,null,,,,,,,,,
null,"<img src=""stim_listB/kiss8.gif""style=""height:400px;""></stim_listB>",,html-keyboard-response,239,841413,0.0-17.0-1.3,82856,List2B,black,woman,,,,null,,,,,,,,,
null,is being kissed by,,html-keyboard-response,240,843414,0.0-17.0-2.3,82856,List2B,black,woman,,,,null,,,,,,,,,
10452.9,,,survey-text,241,853872,0.0-17.0-3.3,82856,List2B,black,woman,,,,,"{""Q0"":""jane is being kissed by kate""}","<img src=""stim_listB/kiss8.gif""style=""height:400px;""></stim_listB>",is being kissed by,,,,,,
null,"<div style=""font-size:60px;"">+</div>",,html-keyboard-response,242,854377,0.0-17.0-0.4,82856,List2B,black,woman,,,,null,,,,,,,,,
null,"<img src=""stim_listB/seduce6.gif""style=""height:400px;""></stim_listB>",,html-keyboard-response,243,856380,0.0-17.0-1.4,82856,List2B,black,woman,,,,null,,,,,,,,,
null,is being seduced by,,html-keyboard-response,244,858384,0.0-17.0-2.4,82856,List2B,black,woman,,,,null,,,,,,,,,
9558,,,survey-text,245,867950,0.0-17.0-3.4,82856,List2B,black,woman,,,,,"{""Q0"":""dave is being seduced by fred""}","<img src=""stim_listB/seduce6.gif""style=""height:400px;""></stim_listB>",is being seduced by,,,,,,
null,"<div style=""font-size:60px;"">+</div>",,html-keyboard-response,246,868451,0.0-17.0-0.5,82856,List2B,black,woman,,,,null,,,,,,,,,
null,"<img src=""stim_listB/hug3.gif""style=""height:400px;""></stim_listB>",,html-keyboard-response,247,870454,0.0-17.0-1.5,82856,List2B,black,woman,,,,null,,,,,,,,,
null,is hugging,,html-keyboard-response,248,872455,0.0-17.0-2.5,82856,List2B,black,woman,,,,null,,,,,,,,,
6167.2,,,survey-text,249,878626,0.0-17.0-3.5,82856,List2B,black,woman,,,,,"{""Q0"":""beth is hugging fred""}","<img src=""stim_listB/hug3.gif""style=""height:400px;""></stim_listB>",is hugging,,,,,,
null,"<div style=""font-size:60px;"">+</div>",,html-keyboard-response,250,879130,0.0-17.0-0.6,82856,List2B,black,woman,,,,null,,,,,,,,,
null,"<img src=""stim_listB/kiss6.gif""style=""height:400px;""></stim_listB>",,html-keyboard-response,251,881136,0.0-17.0-1.6,82856,List2B,black,woman,,,,null,,,,,,,,,
null,is being kissed by,,html-keyboard-response,252,883141,0.0-17.0-2.6,82856,List2B,black,woman,,,,null,,,,,,,,,
7787.5,,,survey-text,253,890936,0.0-17.0-3.6,82856,List2B,black,woman,,,,,"{""Q0"":""mike is being kissed by dave""}","<img src=""stim_listB/kiss6.gif""style=""height:400px;""></stim_listB>",is being kissed by,,,,,,
null,"<div style=""font-size:60px;"">+</div>",,html-keyboard-response,254,891439,0.0-17.0-0.7,82856,List2B,black,woman,,,,null,,,,,,,,,
null,"<img src=""stim_listB/touch5.gif""style=""height:400px;""></stim_listB>",,html-keyboard-response,255,893446,0.0-17.0-1.7,82856,List2B,black,woman,,,,null,,,,,,,,,
null,is touching,,html-keyboard-response,256,895450,0.0-17.0-2.7,82856,List2B,black,woman,,,,null,,,,,,,,,
4937.7,,,survey-text,257,900395,0.0-17.0-3.7,82856,List2B,black,woman,,,,,"{""Q0"":""dave is touching mike""}","<img src=""stim_listB/touch5.gif""style=""height:400px;""></stim_listB>",is touching,,,,,,
null,"<div style=""font-size:60px;"">+</div>",,html-keyboard-response,258,900899,0.0-17.0-0.8,82856,List2B,black,woman,,,,null,,,,,,,,,
null,"<img src=""stim_listB/shout3.gif""style=""height:400px;""></stim_listB>",,html-keyboard-response,259,902905,0.0-17.0-1.8,82856,List2B,black,woman,,,,null,,,,,,,,,
null,is shouting at,,html-keyboard-response,260,904907,0.0-17.0-2.8,82856,List2B,black,woman,,,,null,,,,,,,,,
4980.3,,,survey-text,261,909893,0.0-17.0-3.8,82856,List2B,black,woman,,,,,"{""Q0"":""fred  is shouting at beth""}","<img src=""stim_listB/shout3.gif""style=""height:400px;""></stim_listB>",is shouting at,,,,,,
null,"<div style=""font-size:60px;"">+</div>",,html-keyboard-response,262,910395,0.0-17.0-0.9,82856,List2B,black,woman,,,,null,,,,,,,,,
null,"<img src=""stim_listB/hug2.gif""style=""height:400px;""></stim_listB>",,html-keyboard-response,263,912399,0.0-17.0-1.9,82856,List2B,black,woman,,,,null,,,,,,,,,
null,is being hugged by,,html-keyboard-response,264,914406,0.0-17.0-2.9,82856,List2B,black,woman,,,,null,,,,,,,,,
4559,,,survey-text,265,918971,0.0-17.0-3.9,82856,List2B,black,woman,,,,,"{""Q0"":""jane is being hugged by dave""}","<img src=""stim_listB/hug2.gif""style=""height:400px;""></stim_listB>",is being hugged by,,,,,,
null,"<div style=""font-size:60px;"">+</div>",,html-keyboard-response,266,919473,0.0-17.0-0.10,82856,List2B,black,woman,,,,null,,,,,,,,,
null,"<img src=""stim_listB/kiss2.gif""style=""height:400px;""></stim_listB>",,html-keyboard-response,267,921480,0.0-17.0-1.10,82856,List2B,black,woman,,,,null,,,,,,,,,
null,is being kissed by,,html-keyboard-response,268,923486,0.0-17.0-2.10,82856,List2B,black,woman,,,,null,,,,,,,,,
7144.1,,,survey-text,269,930637,0.0-17.0-3.10,82856,List2B,black,woman,,,,,"{""Q0"":""dave is being kissed by jane""}","<img src=""stim_listB/kiss2.gif""style=""height:400px;""></stim_listB>",is being kissed by,,,,,,
null,"<div style=""font-size:60px;"">+</div>",,html-keyboard-response,270,931140,0.0-17.0-0.11,82856,List2B,black,woman,,,,null,,,,,,,,,
null,"<img src=""stim_listB/hug6.gif""style=""height:400px;""></stim_listB>",,html-keyboard-response,271,933142,0.0-17.0-1.11,82856,List2B,black,woman,,,,null,,,,,,,,,
null,is being hugged by,,html-keyboard-response,272,935144,0.0-17.0-2.11,82856,List2B,black,woman,,,,null,,,,,,,,,
4615.2,,,survey-text,273,939766,0.0-17.0-3.11,82856,List2B,black,woman,,,,,"{""Q0"":""dave is being hugged by mike""}","<img src=""stim_listB/hug6.gif""style=""height:400px;""></stim_listB>",is being hugged by,,,,,,
null,"<div style=""font-size:60px;"">+</div>",,html-keyboard-response,274,940269,0.0-17.0-0.12,82856,List2B,black,woman,,,,null,,,,,,,,,
null,"<img src=""stim_listB/challenge6.gif""style=""height:400px;""></stim_listB>",,html-keyboard-response,275,942274,0.0-17.0-1.12,82856,List2B,black,woman,,,,null,,,,,,,,,
null,is being challenged by,,html-keyboard-response,276,944280,0.0-17.0-2.12,82856,List2B,black,woman,,,,null,,,,,,,,,
8882.7,,,survey-text,277,953167,0.0-17.0-3.12,82856,List2B,black,woman,,,,,"{""Q0"":""mike is being challenged by luke""}","<img src=""stim_listB/challenge6.gif""style=""height:400px;""></stim_listB>",is being challenged by,,,,,,
null,"<div style=""font-size:60px;"">+</div>",,html-keyboard-response,278,953668,0.0-17.0-0.13,82856,List2B,black,woman,,,,null,,,,,,,,,
null,"<img src=""stim_listB/touch2.gif""style=""height:400px;""></stim_listB>",,html-keyboard-response,279,955675,0.0-17.0-1.13,82856,List2B,black,woman,,,,null,,,,,,,,,
null,is being touched by,,html-keyboard-response,280,957677,0.0-17.0-2.13,82856,List2B,black,woman,,,,null,,,,,,,,,
9890.6,,,survey-text,281,967576,0.0-17.0-3.13,82856,List2B,black,woman,,,,,"{""Q0"":""ruth is being touched by luke""}","<img src=""stim_listB/touch2.gif""style=""height:400px;""></stim_listB>",is being touched by,,,,,,
null,"<div style=""font-size:60px;"">+</div>",,html-keyboard-response,282,968078,0.0-17.0-0.14,82856,List2B,black,woman,,,,null,,,,,,,,,
null,"<img src=""stim_listB/shout2.gif""style=""height:400px;""></stim_listB>",,html-keyboard-response,283,970082,0.0-17.0-1.14,82856,List2B,black,woman,,,,null,,,,,,,,,
null,is being shouted at by,,html-keyboard-response,284,972084,0.0-17.0-2.14,82856,List2B,black,woman,,,,null,,,,,,,,,
8446.7,,,survey-text,285,980538,0.0-17.0-3.14,82856,List2B,black,woman,,,,,"{""Q0"":""dave is being shouted at by jane""}","<img src=""stim_listB/shout2.gif""style=""height:400px;""></stim_listB>",is being shouted at by,,,,,,
null,"<div style=""font-size:60px;"">+</div>",,html-keyboard-response,286,981041,0.0-17.0-0.15,82856,List2B,black,woman,,,,null,,,,,,,,,
null,"<img src=""stim_listB/seduce4.gif""style=""height:400px;""></stim_listB>",,html-keyboard-response,287,983044,0.0-17.0-1.15,82856,List2B,black,woman,,,,null,,,,,,,,,
null,is being seduced by,,html-keyboard-response,288,985048,0.0-17.0-2.15,82856,List2B,black,woman,,,,null,,,,,,,,,
8875.7,,,survey-text,289,993931,0.0-17.0-3.15,82856,List2B,black,woman,,,,,"{""Q0"":""beth is being seduced by mike""}","<img src=""stim_listB/seduce4.gif""style=""height:400px;""></stim_listB>",is being seduced by,,,,,,
null,"<div style=""font-size:60px;"">+</div>",,html-keyboard-response,290,994436,0.0-17.0-0.16,82856,List2B,black,woman,,,,null,,,,,,,,,
null,"<img src=""stim_listB/shout8.gif""style=""height:400px;""></stim_listB>",,html-keyboard-response,291,996442,0.0-17.0-1.16,82856,List2B,black,woman,,,,null,,,,,,,,,
null,is being shouted at by,,html-keyboard-response,292,998444,0.0-17.0-2.16,82856,List2B,black,woman,,,,null,,,,,,,,,
13030,,,survey-text,293,1011484,0.0-17.0-3.16,82856,List2B,black,woman,,,,,"{""Q0"":""jane is being shouted at by kate""}","<img src=""stim_listB/shout8.gif""style=""height:400px;""></stim_listB>",is being shouted at by,,,,,,
null,"<div style=""font-size:60px;"">+</div>",,html-keyboard-response,294,1011985,0.0-17.0-0.17,82856,List2B,black,woman,,,,null,,,,,,,,,
null,"<img src=""stim_listB/kiss3.gif""style=""height:400px;""></stim_listB>",,html-keyboard-response,295,1013989,0.0-17.0-1.17,82856,List2B,black,woman,,,,null,,,,,,,,,
null,is kissing,,html-keyboard-response,296,1015991,0.0-17.0-2.17,82856,List2B,black,woman,,,,null,,,,,,,,,
5990.1,,,survey-text,297,1021990,0.0-17.0-3.17,82856,List2B,black,woman,,,,,"{""Q0"":""beth is kissing  fred""}","<img src=""stim_listB/kiss3.gif""style=""height:400px;""></stim_listB>",is kissing,,,,,,
null,"<div style=""font-size:60px;"">+</div>",,html-keyboard-response,298,1022493,0.0-17.0-0.18,82856,List2B,black,woman,,,,null,,,,,,,,,
null,"<img src=""stim_listB/hug1.gif""style=""height:400px;""></stim_listB>",,html-keyboard-response,299,1024498,0.0-17.0-1.18,82856,List2B,black,woman,,,,null,,,,,,,,,
null,is hugging,,html-keyboard-response,300,1026502,0.0-17.0-2.18,82856,List2B,black,woman,,,,null,,,,,,,,,
5432,,,survey-text,301,1031941,0.0-17.0-3.18,82856,List2B,black,woman,,,,,"{""Q0"":""ruth is hugging luke""}","<img src=""stim_listB/hug1.gif""style=""height:400px;""></stim_listB>",is hugging,,,,,,
null,"<div style=""font-size:60px;"">+</div>",,html-keyboard-response,302,1032442,0.0-17.0-0.19,82856,List2B,black,woman,,,,null,,,,,,,,,
null,"<img src=""stim_listB/look4.gif""style=""height:400px;""></stim_listB>",,html-keyboard-response,303,1034446,0.0-17.0-1.19,82856,List2B,black,woman,,,,null,,,,,,,,,
null,is being looked at by,,html-keyboard-response,304,1036447,0.0-17.0-2.19,82856,List2B,black,woman,,,,null,,,,,,,,,
11914.3,,,survey-text,305,1048369,0.0-17.0-3.19,82856,List2B,black,woman,,,,,"{""Q0"":""mike is being looked at by kate""}","<img src=""stim_listB/look4.gif""style=""height:400px;""></stim_listB>",is being looked at by,,,,,,
4951.9,"<img src='img/portrait_matrix_list2.jpg' style='width:900px;height:500px;''></img><p>If you have memorised all the portraits and names and are ready to start, press Continue.</p><p><strong>Please note: Your memory of these faces will be tested 4 times during this experiment.</strong></p>",0,html-button-response,306,1053323,0.0-18.0-0.0,82856,List2B,black,woman,,,,,,,,,,,,,
3012.9,"<img src=""portrait/WM1.jpg""style=""height:400px;""></img>",6,html-button-response,307,1057343,0.0-18.0-1.0,82856,List2B,black,woman,,TRUE,6,,,,,,,,,,
null,CORRECT,,html-keyboard-response,308,1058855,0.0-18.0-2.0-0.0,82856,List2B,black,woman,,,,null,,,,,,,,,
1587.4,"<img src=""portrait/BM1.jpg""style=""height:400px;""></img>",4,html-button-response,309,1060447,0.0-18.0-4.0,82856,List2B,black,woman,,TRUE,4,,,,,,,,,,
null,CORRECT,,html-keyboard-response,310,1061951,0.0-18.0-5.0-0.0,82856,List2B,black,woman,,,,null,,,,,,,,,
1532.7,"<img src=""portrait/WW1.jpg""style=""height:400px;""></img>",1,html-button-response,311,1063486,0.0-18.0-7.0,82856,List2B,black,woman,,TRUE,1,,,,,,,,,,
null,CORRECT,,html-keyboard-response,312,1064995,0.0-18.0-8.0-0.0,82856,List2B,black,woman,,,,null,,,,,,,,,
1415.1,"<img src=""portrait/WW2.jpg""style=""height:400px;""></img>",3,html-button-response,313,1066412,0.0-18.0-10.0,82856,List2B,black,woman,,TRUE,3,,,,,,,,,,
null,CORRECT,,html-keyboard-response,314,1067922,0.0-18.0-11.0-0.0,82856,List2B,black,woman,,,,null,,,,,,,,,
1655.4,"<img src=""portrait/BW2.jpg""style=""height:400px;""></img>",2,html-button-response,315,1069580,0.0-18.0-13.0,82856,List2B,black,woman,,TRUE,2,,,,,,,,,,
null,CORRECT,,html-keyboard-response,316,1071090,0.0-18.0-14.0-0.0,82856,List2B,black,woman,,,,null,,,,,,,,,
2716.7,"<img src=""portrait/WM2.jpg""style=""height:400px;""></img>",7,html-button-response,317,1073809,0.0-18.0-16.0,82856,List2B,black,woman,,TRUE,7,,,,,,,,,,
null,CORRECT,,html-keyboard-response,318,1075316,0.0-18.0-17.0-0.0,82856,List2B,black,woman,,,,null,,,,,,,,,
3036.6,"<img src=""portrait/BM2.jpg""style=""height:400px;""></img>",5,html-button-response,319,1078357,0.0-18.0-19.0,82856,List2B,black,woman,,TRUE,5,,,,,,,,,,
null,CORRECT,,html-keyboard-response,320,1079863,0.0-18.0-20.0-0.0,82856,List2B,black,woman,,,,null,,,,,,,,,
3641.2,"<img src=""portrait/BW1.jpg""style=""height:400px;""></img>",0,html-button-response,321,1083507,0.0-18.0-22.0,82856,List2B,black,woman,,TRUE,0,,,,,,,,,,
null,CORRECT,,html-keyboard-response,322,1085011,0.0-18.0-23.0-0.0,82856,List2B,black,woman,,,,null,,,,,,,,,
2598.1,<p>You got 8 out of 8 right first time. Press Continue.</p>,0,html-button-response,323,1087613,0.0-18.0-25.0,82856,List2B,black,woman,,,,,,,,,,,,,
null,"<div style=""font-size:60px;"">+</div>",,html-keyboard-response,324,1089125,0.0-19.0-0.0,82856,List2B,black,woman,,,,null,,,,,,,,,
null,"<img src=""stim_listB/touch3.gif""style=""height:400px;""></stim_listB>",,html-keyboard-response,325,1091128,0.0-19.0-1.0,82856,List2B,black,woman,,,,null,,,,,,,,,
null,is touching,,html-keyboard-response,326,1093132,0.0-19.0-2.0,82856,List2B,black,woman,,,,null,,,,,,,,,
4409,,,survey-text,327,1097549,0.0-19.0-3.0,82856,List2B,black,woman,,,,,"{""Q0"":""kate is touching mike""}","<img src=""stim_listB/touch3.gif""style=""height:400px;""></stim_listB>",is touching,,,,,,
null,"<div style=""font-size:60px;"">+</div>",,html-keyboard-response,328,1098051,0.0-19.0-0.1,82856,List2B,black,woman,,,,null,,,,,,,,,
null,"<img src=""stim_listB/oppose2.gif""style=""height:400px;""></stim_listB>",,html-keyboard-response,329,1100053,0.0-19.0-1.1,82856,List2B,black,woman,,,,null,,,,,,,,,
null,is being opposed by,,html-keyboard-response,330,1102057,0.0-19.0-2.1,82856,List2B,black,woman,,,,null,,,,,,,,,
8058.6,,,survey-text,331,1110124,0.0-19.0-3.1,82856,List2B,black,woman,,,,,"{""Q0"":""ruth is being opposed by luke""}","<img src=""stim_listB/oppose2.gif""style=""height:400px;""></stim_listB>",is being opposed by,,,,,,
null,"<div style=""font-size:60px;"">+</div>",,html-keyboard-response,332,1110628,0.0-19.0-0.2,82856,List2B,black,woman,,,,null,,,,,,,,,
null,"<img src=""stim_listB/hug7.gif""style=""height:400px;""></stim_listB>",,html-keyboard-response,333,1112633,0.0-19.0-1.2,82856,List2B,black,woman,,,,null,,,,,,,,,
null,is hugging,,html-keyboard-response,334,1114638,0.0-19.0-2.2,82856,List2B,black,woman,,,,null,,,,,,,,,
3762.9,,,survey-text,335,1118406,0.0-19.0-3.2,82856,List2B,black,woman,,,,,"{""Q0"":""ruth is hugging beth""}","<img src=""stim_listB/hug7.gif""style=""height:400px;""></stim_listB>",is hugging,,,,,,
null,"<div style=""font-size:60px;"">+</div>",,html-keyboard-response,336,1118914,0.0-19.0-0.3,82856,List2B,black,woman,,,,null,,,,,,,,,
null,"<img src=""stim_listB/seduce3.gif""style=""height:400px;""></stim_listB>",,html-keyboard-response,337,1120922,0.0-19.0-1.3,82856,List2B,black,woman,,,,null,,,,,,,,,
null,is seducing,,html-keyboard-response,338,1122929,0.0-19.0-2.3,82856,List2B,black,woman,,,,null,,,,,,,,,
7354.6,,,survey-text,339,1130291,0.0-19.0-3.3,82856,List2B,black,woman,,,,,"{""Q0"":""kate is seducing fred""}","<img src=""stim_listB/seduce3.gif""style=""height:400px;""></stim_listB>",is seducing,,,,,,
null,"<div style=""font-size:60px;"">+</div>",,html-keyboard-response,340,1130797,0.0-19.0-0.4,82856,List2B,black,woman,,,,null,,,,,,,,,
null,"<img src=""stim_listB/kiss7.gif""style=""height:400px;""></stim_listB>",,html-keyboard-response,341,1132802,0.0-19.0-1.4,82856,List2B,black,woman,,,,null,,,,,,,,,
null,is kissing,,html-keyboard-response,342,1134803,0.0-19.0-2.4,82856,List2B,black,woman,,,,null,,,,,,,,,
5369.3,,,survey-text,343,1140179,0.0-19.0-3.4,82856,List2B,black,woman,,,,,"{""Q0"":""ruth is kissing beth""}","<img src=""stim_listB/kiss7.gif""style=""height:400px;""></stim_listB>",is kissing,,,,,,
null,"<div style=""font-size:60px;"">+</div>",,html-keyboard-response,344,1140685,0.0-19.0-0.5,82856,List2B,black,woman,,,,null,,,,,,,,,
null,"<img src=""stim_listB/shout7.gif""style=""height:400px;""></stim_listB>",,html-keyboard-response,345,1142693,0.0-19.0-1.5,82856,List2B,black,woman,,,,null,,,,,,,,,
null,is shouting at,,html-keyboard-response,346,1144697,0.0-19.0-2.5,82856,List2B,black,woman,,,,null,,,,,,,,,
5207.4,,,survey-text,347,1149913,0.0-19.0-3.5,82856,List2B,black,woman,,,,,"{""Q0"":""beth is shouting at ruth""}","<img src=""stim_listB/shout7.gif""style=""height:400px;""></stim_listB>",is shouting at,,,,,,
null,"<div style=""font-size:60px;"">+</div>",,html-keyboard-response,348,1150416,0.0-19.0-0.6,82856,List2B,black,woman,,,,null,,,,,,,,,
null,"<img src=""stim_listB/hug5.gif""style=""height:400px;""></stim_listB>",,html-keyboard-response,349,1152423,0.0-19.0-1.6,82856,List2B,black,woman,,,,null,,,,,,,,,
null,is hugging,,html-keyboard-response,350,1154427,0.0-19.0-2.6,82856,List2B,black,woman,,,,null,,,,,,,,,
4075.9,,,survey-text,351,1158514,0.0-19.0-3.6,82856,List2B,black,woman,,,,,"{""Q0"":""fred is hugging luke""}","<img src=""stim_listB/hug5.gif""style=""height:400px;""></stim_listB>",is hugging,,,,,,
null,"<div style=""font-size:60px;"">+</div>",,html-keyboard-response,352,1159020,0.0-19.0-0.7,82856,List2B,black,woman,,,,null,,,,,,,,,
null,"<img src=""stim_listB/look6.gif""style=""height:400px;""></stim_listB>",,html-keyboard-response,353,1161028,0.0-19.0-1.7,82856,List2B,black,woman,,,,null,,,,,,,,,
null,is being looked at by,,html-keyboard-response,354,1163032,0.0-19.0-2.7,82856,List2B,black,woman,,,,null,,,,,,,,,
5248.7,,,survey-text,355,1168288,0.0-19.0-3.7,82856,List2B,black,woman,,,,,"{""Q0"":""dave is being looked at by mike""}","<img src=""stim_listB/look6.gif""style=""height:400px;""></stim_listB>",is being looked at by,,,,,,
null,"<div style=""font-size:60px;"">+</div>",,html-keyboard-response,356,1168790,0.0-19.0-0.8,82856,List2B,black,woman,,,,null,,,,,,,,,
null,"<img src=""stim_listB/shout1.gif""style=""height:400px;""></stim_listB>",,html-keyboard-response,357,1170794,0.0-19.0-1.8,82856,List2B,black,woman,,,,null,,,,,,,,,
null,is shouting at,,html-keyboard-response,358,1172801,0.0-19.0-2.8,82856,List2B,black,woman,,,,null,,,,,,,,,
5115.2,,,survey-text,359,1177924,0.0-19.0-3.8,82856,List2B,black,woman,,,,,"{""Q0"":""ruth is shouting at luke""}","<img src=""stim_listB/shout1.gif""style=""height:400px;""></stim_listB>",is shouting at,,,,,,
null,"<div style=""font-size:60px;"">+</div>",,html-keyboard-response,360,1178426,0.0-19.0-0.9,82856,List2B,black,woman,,,,null,,,,,,,,,
null,"<img src=""stim_listB/look8.gif""style=""height:400px;""></stim_listB>",,html-keyboard-response,361,1180430,0.0-19.0-1.9,82856,List2B,black,woman,,,,null,,,,,,,,,
null,is being looked at by,,html-keyboard-response,362,1182436,0.0-19.0-2.9,82856,List2B,black,woman,,,,null,,,,,,,,,
7236.5,,,survey-text,363,1189680,0.0-19.0-3.9,82856,List2B,black,woman,,,,,"{""Q0"":""jane  is being looked at by kate""}","<img src=""stim_listB/look8.gif""style=""height:400px;""></stim_listB>",is being looked at by,,,,,,
null,"<div style=""font-size:60px;"">+</div>",,html-keyboard-response,364,1190182,0.0-19.0-0.10,82856,List2B,black,woman,,,,null,,,,,,,,,
null,"<img src=""stim_listB/hug4.gif""style=""height:400px;""></stim_listB>",,html-keyboard-response,365,1192188,0.0-19.0-1.10,82856,List2B,black,woman,,,,null,,,,,,,,,
null,is being hugged by,,html-keyboard-response,366,1194195,0.0-19.0-2.10,82856,List2B,black,woman,,,,null,,,,,,,,,
6608.4,,,survey-text,367,1200810,0.0-19.0-3.10,82856,List2B,black,woman,,,,,"{""Q0"":""mike is being hugged by kate""}","<img src=""stim_listB/hug4.gif""style=""height:400px;""></stim_listB>",is being hugged by,,,,,,
null,"<div style=""font-size:60px;"">+</div>",,html-keyboard-response,368,1201314,0.0-19.0-0.11,82856,List2B,black,woman,,,,null,,,,,,,,,
null,"<img src=""stim_listB/greet4.gif""style=""height:400px;""></stim_listB>",,html-keyboard-response,369,1203321,0.0-19.0-1.11,82856,List2B,black,woman,,,,null,,,,,,,,,
null,is being greeted by,,html-keyboard-response,370,1205328,0.0-19.0-2.11,82856,List2B,black,woman,,,,null,,,,,,,,,
5433.7,,,survey-text,371,1210769,0.0-19.0-3.11,82856,List2B,black,woman,,,,,"{""Q0"":""kate is being greeted by fred""}","<img src=""stim_listB/greet4.gif""style=""height:400px;""></stim_listB>",is being greeted by,,,,,,
null,"<div style=""font-size:60px;"">+</div>",,html-keyboard-response,372,1211272,0.0-19.0-0.12,82856,List2B,black,woman,,,,null,,,,,,,,,
null,"<img src=""stim_listB/look7.gif""style=""height:400px;""></stim_listB>",,html-keyboard-response,373,1213279,0.0-19.0-1.12,82856,List2B,black,woman,,,,null,,,,,,,,,
null,is looking at,,html-keyboard-response,374,1215283,0.0-19.0-2.12,82856,List2B,black,woman,,,,null,,,,,,,,,
4509.3,,,survey-text,375,1219800,0.0-19.0-3.12,82856,List2B,black,woman,,,,,"{""Q0"":""beth is looking at ruth""}","<img src=""stim_listB/look7.gif""style=""height:400px;""></stim_listB>",is looking at,,,,,,
null,"<div style=""font-size:60px;"">+</div>",,html-keyboard-response,376,1220305,0.0-19.0-0.13,82856,List2B,black,woman,,,,null,,,,,,,,,
null,"<img src=""stim_listB/copy7.gif""style=""height:400px;""></stim_listB>",,html-keyboard-response,377,1222312,0.0-19.0-1.13,82856,List2B,black,woman,,,,null,,,,,,,,,
null,is copying,,html-keyboard-response,378,1224318,0.0-19.0-2.13,82856,List2B,black,woman,,,,null,,,,,,,,,
3492.3,,,survey-text,379,1227818,0.0-19.0-3.13,82856,List2B,black,woman,,,,,"{""Q0"":""jane is copying beth""}","<img src=""stim_listB/copy7.gif""style=""height:400px;""></stim_listB>",is copying,,,,,,
null,"<div style=""font-size:60px;"">+</div>",,html-keyboard-response,380,1228320,0.0-19.0-0.14,82856,List2B,black,woman,,,,null,,,,,,,,,
null,"<img src=""stim_listB/touch4.gif""style=""height:400px;""></stim_listB>",,html-keyboard-response,381,1230325,0.0-19.0-1.14,82856,List2B,black,woman,,,,null,,,,,,,,,
null,is being touched by,,html-keyboard-response,382,1232332,0.0-19.0-2.14,82856,List2B,black,woman,,,,null,,,,,,,,,
6531.9,,,survey-text,383,1238871,0.0-19.0-3.14,82856,List2B,black,woman,,,,,"{""Q0"":""fred is being touched by beth""}","<img src=""stim_listB/touch4.gif""style=""height:400px;""></stim_listB>",is being touched by,,,,,,
null,"<div style=""font-size:60px;"">+</div>",,html-keyboard-response,384,1239373,0.0-19.0-0.15,82856,List2B,black,woman,,,,null,,,,,,,,,
null,"<img src=""stim_listB/challenge1.gif""style=""height:400px;""></stim_listB>",,html-keyboard-response,385,1241378,0.0-19.0-1.15,82856,List2B,black,woman,,,,null,,,,,,,,,
null,is challenging,,html-keyboard-response,386,1243380,0.0-19.0-2.15,82856,List2B,black,woman,,,,null,,,,,,,,,
7429.1,,,survey-text,387,1250817,0.0-19.0-3.15,82856,List2B,black,woman,,,,,"{""Q0"":""dave is challenging ruth""}","<img src=""stim_listB/challenge1.gif""style=""height:400px;""></stim_listB>",is challenging,,,,,,
null,"<div style=""font-size:60px;"">+</div>",,html-keyboard-response,388,1251319,0.0-19.0-0.16,82856,List2B,black,woman,,,,null,,,,,,,,,
null,"<img src=""stim_listB/look2.gif""style=""height:400px;""></stim_listB>",,html-keyboard-response,389,1253326,0.0-19.0-1.16,82856,List2B,black,woman,,,,null,,,,,,,,,
null,is being looked at by,,html-keyboard-response,390,1255333,0.0-19.0-2.16,82856,List2B,black,woman,,,,null,,,,,,,,,
4598.7,,,survey-text,391,1259940,0.0-19.0-3.16,82856,List2B,black,woman,,,,,"{""Q0"":""jane is being looked at by dave""}","<img src=""stim_listB/look2.gif""style=""height:400px;""></stim_listB>",is being looked at by,,,,,,
null,"<div style=""font-size:60px;"">+</div>",,html-keyboard-response,392,1260444,0.0-19.0-0.17,82856,List2B,black,woman,,,,null,,,,,,,,,
null,"<img src=""stim_listB/copy1.gif""style=""height:400px;""></stim_listB>",,html-keyboard-response,393,1262450,0.0-19.0-1.17,82856,List2B,black,woman,,,,null,,,,,,,,,
null,is copying,,html-keyboard-response,394,1264457,0.0-19.0-2.17,82856,List2B,black,woman,,,,null,,,,,,,,,
3616.2,,,survey-text,395,1268081,0.0-19.0-3.17,82856,List2B,black,woman,,,,,"{""Q0"":""dave is copying ruth""}","<img src=""stim_listB/copy1.gif""style=""height:400px;""></stim_listB>",is copying,,,,,,
null,"<div style=""font-size:60px;"">+</div>",,html-keyboard-response,396,1268582,0.0-19.0-0.18,82856,List2B,black,woman,,,,null,,,,,,,,,
null,"<img src=""stim_listB/oppose7.gif""style=""height:400px;""></stim_listB>",,html-keyboard-response,397,1270588,0.0-19.0-1.18,82856,List2B,black,woman,,,,null,,,,,,,,,
null,is opposing,,html-keyboard-response,398,1272591,0.0-19.0-2.18,82856,List2B,black,woman,,,,null,,,,,,,,,
7900.4,,,survey-text,399,1280498,0.0-19.0-3.18,82856,List2B,black,woman,,,,,"{""Q0"":""jane is opposing kate""}","<img src=""stim_listB/oppose7.gif""style=""height:400px;""></stim_listB>",is opposing,,,,,,
null,"<div style=""font-size:60px;"">+</div>",,html-keyboard-response,400,1281003,0.0-19.0-0.19,82856,List2B,black,woman,,,,null,,,,,,,,,
null,"<img src=""stim_listB/kiss5.gif""style=""height:400px;""></stim_listB>",,html-keyboard-response,401,1283010,0.0-19.0-1.19,82856,List2B,black,woman,,,,null,,,,,,,,,
null,is kissing,,html-keyboard-response,402,1285012,0.0-19.0-2.19,82856,List2B,black,woman,,,,null,,,,,,,,,
3042.2,,,survey-text,403,1288062,0.0-19.0-3.19,82856,List2B,black,woman,,,,,"{""Q0"":""luke is kissing  fred""}","<img src=""stim_listB/kiss5.gif""style=""height:400px;""></stim_listB>",is kissing,,,,,,
4482,<p>Thank you for completing that task.</p><p>The final part of this session is a questionnaire that will take about 4 minutes.</p><p>Press Continue.</p>,0,html-button-response,404,1292546,0.0-20.0,82856,List2B,black,woman,,,,,,,,,,,,,
60144.5,,,survey-text,405,1353724,0.0-21.0,82856,List2B,black,woman,,,,,"{""Q0"":""20"",""Q1"":""English"",""Q2"":""English"",""Q3"":""America"",""Q4"":""American"",""Q5"":""Black "",""Q6"":""Female""}",,,demographics,,,,,
4973.2,<p>Have you lived in the USA for the last 5 years or more?</p>,0,html-button-response,406,1358701,0.0-22.0,82856,List2B,black,woman,,,,,,,,fiveyears,,,,,
1907.5,<p>Move the slider to show the extent to which you agree with the following statements.</p>,0,html-button-response,407,1361614,0.0-23.0,82856,List2B,black,woman,,,,,,,,,,,,,
4219.8,,,html-slider-response,408,1366844,0.0-24.0-0.0-0.0,82856,List2B,black,woman,,,,,,,,survey_gender,95,,,I feel solidarity with my friends.,filler
2638.4,,,html-slider-response,409,1369486,0.0-24.0-0.0-0.1,82856,List2B,black,woman,,,,,,,,survey_gender,96,,,I am glad to be my gender.,glad
3063.4,,,html-slider-response,410,1372555,0.0-24.0-0.0-0.2,82856,List2B,black,woman,,,,,,,,survey_gender,34,,,People of my gender are very similar to each other.,verysimilar
3565.5,,,html-slider-response,411,1376123,0.0-24.0-0.0-0.3,82856,List2B,black,woman,,,,,,,,survey_gender,58,,,It is not always easy for people to know what I am thinking.,filler
2180.1,,,html-slider-response,412,1378308,0.0-24.0-0.0-0.4,82856,List2B,black,woman,,,,,,,,survey_gender,80,,,My friends understand me.,filler
2865,,,html-slider-response,413,1381175,0.0-24.0-0.0-0.5,82856,List2B,black,woman,,,,,,,,survey_gender,47,,,I consider myself a highly empathetic person.,filler
3149.7,,,html-slider-response,414,1384327,0.0-24.0-0.0-0.6,82856,List2B,black,woman,,,,,,,,survey_gender,59,,,I have a lot in common with the average person of my gender.,average
2495.1,,,html-slider-response,415,1386826,0.0-24.0-0.0-0.7,82856,List2B,black,woman,,,,,,,,survey_gender,45,,,The fact that I am my gender is an important part of my identity.,identity
2519.6,,,html-slider-response,416,1389350,0.0-24.0-0.0-0.8,82856,List2B,black,woman,,,,,,,,survey_gender,64,,,I feel solidarity with my gender.,solidarity
3590.3,,,html-slider-response,417,1392943,0.0-24.0-0.0-0.9,82856,List2B,black,woman,,,,,,,,survey_gender,39,,,Being my gender is an important part of how I see myself.,important
2063.6,,,html-slider-response,418,1395012,0.0-24.0-0.0-0.10,82856,List2B,black,woman,,,,,,,,survey_gender,100,,,I feel a bond with my friends.,filler
2455.9,,,html-slider-response,419,1397470,0.0-24.0-0.0-0.11,82856,List2B,black,woman,,,,,,,,survey_gender,88,,,I have a lot in common with my friends.,filler
2690.9,,,html-slider-response,420,1400163,0.0-24.0-0.0-0.12,82856,List2B,black,woman,,,,,,,,survey_gender,72,,,I am similar to the average person of my gender.,similar
4820.3,,,html-slider-response,421,1404988,0.0-24.0-0.0-0.13,82856,List2B,black,woman,,,,,,,,survey_gender,51,,,I think that my gender has a lot to be proud of.,proud
4950,,,html-slider-response,422,1409940,0.0-24.0-0.0-0.14,82856,List2B,black,woman,,,,,,,,survey_gender,51,,,I feel a bond with my gender.,bond
2908.5,,,html-slider-response,423,1412851,0.0-24.0-0.0-0.15,82856,List2B,black,woman,,,,,,,,survey_gender,85,,,Being around my friends gives me a good feeling.,filler
2573.5,,,html-slider-response,424,1415427,0.0-24.0-0.0-0.16,82856,List2B,black,woman,,,,,,,,survey_gender,55,,,I would say I am an animal person.,filler
3908.6,,,html-slider-response,425,1419340,0.0-24.0-0.0-0.17,82856,List2B,black,woman,,,,,,,,survey_gender,60,,,People of my gender have a lot in common with each other.,common
2105.3,,,html-slider-response,426,1421447,0.0-24.0-0.0-0.18,82856,List2B,black,woman,,,,,,,,survey_gender,96,,,I am glad to have the friends that I have.,filler
2295.4,,,html-slider-response,427,1423745,0.0-24.0-0.0-0.19,82856,List2B,black,woman,,,,,,,,survey_gender,39,,,I often think about the fact that I am my gender.,often
2487.2,,,html-slider-response,428,1426235,0.0-24.0-0.0-0.20,82856,List2B,black,woman,,,,,,,,survey_gender,74,,,I often think about my actions.,filler
4080.2,,,html-slider-response,429,1430319,0.0-24.0-0.0-0.21,82856,List2B,black,woman,,,,,,,,survey_gender,63,,,Being my gender gives me a good feeling.,feeling
2231.6,,,html-slider-response,430,1432554,0.0-24.0-0.0-0.22,82856,List2B,black,woman,,,,,,,,survey_gender,68,,,I feel committed to my gender.,committed
2206.3,,,html-slider-response,431,1434763,0.0-24.0-0.0-0.23,82856,List2B,black,woman,,,,,,,,survey_gender,79,,,It is pleasant to be my gender.,pleasant
2107.4,,,html-slider-response,432,1436873,0.0-24.0-0.0-0.24,82856,List2B,black,woman,,,,,,,,survey_gender,85,,,My friends have a lot in common with each other.,filler
3037.5,,,html-slider-response,433,1439916,0.0-24.0-0.0-0.25,82856,List2B,black,woman,,,,,,,,survey_gender,69,,,Family is not more important to me than friendship.,filler
2621.1,,,html-slider-response,434,1442543,0.0-24.0-0.0-0.26,82856,List2B,black,woman,,,,,,,,survey_gender,19,,,Routine is not important to me.,filler
2362.1,,,html-slider-response,435,1444907,0.0-24.0-0.0-0.27,82856,List2B,black,woman,,,,,,,,survey_gender,80,,,Most of the friends in my life are very similar to me.,filler
4670,,,html-slider-response,436,1449581,0.0-24.0-1.0-0.0,82856,List2B,black,woman,,,,,,,,survey_race,71,,,I have a lot in common with people of a similar age to me.,filler
3422.6,,,html-slider-response,437,1453009,0.0-24.0-1.0-0.1,82856,List2B,black,woman,,,,,,,,survey_race,74,,,It is pleasant to be my race.,pleasant
2323.6,,,html-slider-response,438,1455335,0.0-24.0-1.0-0.2,82856,List2B,black,woman,,,,,,,,survey_race,82,,,I am glad to be my race.,glad
3210.2,,,html-slider-response,439,1458548,0.0-24.0-1.0-0.3,82856,List2B,black,woman,,,,,,,,survey_race,39,,,I often think about the fact that I am my race.,often
1806.8,,,html-slider-response,440,1460360,0.0-24.0-1.0-0.4,82856,List2B,black,woman,,,,,,,,survey_race,91,,,I feel committed to my race.,committed
1823,,,html-slider-response,441,1462186,0.0-24.0-1.0-0.5,82856,List2B,black,woman,,,,,,,,survey_race,72,,,I am similar to the average person of my race.,similar
2185,,,html-slider-response,442,1464373,0.0-24.0-1.0-0.6,82856,List2B,black,woman,,,,,,,,survey_race,79,,,I feel solidarity with people the same age as me.,filler
3068.5,,,html-slider-response,443,1467443,0.0-24.0-1.0-0.7,82856,List2B,black,woman,,,,,,,,survey_race,27,,,I feel a bond with people the same age as me.,filler
3862.8,,,html-slider-response,444,1471310,0.0-24.0-1.0-0.8,82856,List2B,black,woman,,,,,,,,survey_race,40,,,The fact that I am my race is an important part of my identity.,identity
2490.8,,,html-slider-response,445,1473803,0.0-24.0-1.0-0.9,82856,List2B,black,woman,,,,,,,,survey_race,22,,,I enjoy being in large groups.,filler
3435.1,,,html-slider-response,446,1477244,0.0-24.0-1.0-0.10,82856,List2B,black,woman,,,,,,,,survey_race,52,,,Being my race is an important part of how I see myself.,important
2984.8,,,html-slider-response,447,1480232,0.0-24.0-1.0-0.11,82856,List2B,black,woman,,,,,,,,survey_race,44,,,Getting older does not worry me.,filler
2757.4,,,html-slider-response,448,1482994,0.0-24.0-1.0-0.12,82856,List2B,black,woman,,,,,,,,survey_race,52,,,I feel a bond with my race.,bond
2561.7,,,html-slider-response,449,1485559,0.0-24.0-1.0-0.13,82856,List2B,black,woman,,,,,,,,survey_race,72,,,I feel solidarity with my race.,solidarity
2612.4,,,html-slider-response,450,1488175,0.0-24.0-1.0-0.14,82856,List2B,black,woman,,,,,,,,survey_race,44,,,Being my age gives me a good feeling.,filler
3482.2,,,html-slider-response,451,1491664,0.0-24.0-1.0-0.15,82856,List2B,black,woman,,,,,,,,survey_race,47,,,I am glad to be my age.,filler
2038.7,,,html-slider-response,452,1493705,0.0-24.0-1.0-0.16,82856,List2B,black,woman,,,,,,,,survey_race,91,,,I consider myself an introvert.,filler
3036,,,html-slider-response,453,1496745,0.0-24.0-1.0-0.17,82856,List2B,black,woman,,,,,,,,survey_race,61,,,I have a lot in common with the average person of my race.,average
2491.9,,,html-slider-response,454,1499242,0.0-24.0-1.0-0.18,82856,List2B,black,woman,,,,,,,,survey_race,58,,,People my age have a lot in common with each other.,filler
3153.3,,,html-slider-response,455,1502398,0.0-24.0-1.0-0.19,82856,List2B,black,woman,,,,,,,,survey_race,57,,,Being my race gives me a good feeling.,feeling
3279,,,html-slider-response,456,1505681,0.0-24.0-1.0-0.20,82856,List2B,black,woman,,,,,,,,survey_race,33,,,I often think about the fact that I am my age.,filler
3429.3,,,html-slider-response,457,1509115,0.0-24.0-1.0-0.21,82856,List2B,black,woman,,,,,,,,survey_race,76,,,I think that my race has a lot to be proud of.,proud
2628.1,,,html-slider-response,458,1511750,0.0-24.0-1.0-0.22,82856,List2B,black,woman,,,,,,,,survey_race,56,,,I am glad to be the age I am.,filler
2774.5,,,html-slider-response,459,1514529,0.0-24.0-1.0-0.23,82856,List2B,black,woman,,,,,,,,survey_race,30,,,I consider myself an extrovert.,filler
4961.5,,,html-slider-response,460,1519493,0.0-24.0-1.0-0.24,82856,List2B,black,woman,,,,,,,,survey_race,70,,,My age is not an important part of who I am.,filler
2818.4,,,html-slider-response,461,1522317,0.0-24.0-1.0-0.25,82856,List2B,black,woman,,,,,,,,survey_race,40,,,"The older I get, the wiser I feel.",filler
2951.3,,,html-slider-response,462,1525275,0.0-24.0-1.0-0.26,82856,List2B,black,woman,,,,,,,,survey_race,53,,,People of my race are very similar to each other.,verysimilar
2776.6,,,html-slider-response,463,1528057,0.0-24.0-1.0-0.27,82856,List2B,black,woman,,,,,,,,survey_race,79,,,People of my race have a lot in common with each other.,common
7850.4,,,survey-text,464,1535916,0.0-25.0,82856,List2B,black,woman,,,,,"{""Q0"":""ccc""}",,,worker_id,,,,,
7177.2,,,external-html,465,1543537,0.0-26.0,82856,List2B,black,woman,debrief.html,,,,,,,,,,,,
