rt,stimulus,button_pressed,trial_type,trial_index,time_elapsed,internal_node_id,subject,list,ppt_race,ppt_gender,url,first_guess,correct,key_press,responses,image_type,phrase_type,test_part,response,stimulus1,stimulus2,question_type,survey_item
3188.9,Welcome to the experiment. Press Continue to begin.,0,html-button-response,0,3192,0.0-0.0,83116,List2B,black,man,,,,,,,,,,,,,
211867.6,,,external-html,1,216690,0.0-1.0,83116,List2B,black,man,consent.html,,,,,,,,,,,,
33058.8,"<p>On the next page, you will see portraits of 8 people and their names.</p><p>Your first task is to take a few minutes to memorise the names of these people.</p><p>You will have to recall their names during the rest of the experiment, so it is</p><p>essential that you try to memorise these people and their names as best as you can.</p><br><p><strong>You will then be tested on your memory of these names and portraits.</strong></p><br><p>The experiment will start after you have completed this memory test.</p><br><p>Ready?</p>",0,html-button-response,2,249752,0.0-2.0,83116,List2B,black,man,,,,,,,,,,,,,
186671.3,"<img src='img/portrait_matrix_list2.jpg' style='width:900px;height:500px;''></img><p>If you have memorised all the portraits and names and are ready to start, press Continue.</p><p><strong>Please note: Your memory of these faces will be tested 4 times during this experiment.</strong></p>",0,html-button-response,3,437429,0.0-3.0-0.0,83116,List2B,black,man,,,,,,,,,,,,,
12716.8,"<img src=""portrait/WM1.jpg""style=""height:400px;""></img>",6,html-button-response,4,451149,0.0-3.0-1.0,83116,List2B,black,man,,TRUE,6,,,,,,,,,,
null,CORRECT,,html-keyboard-response,5,452659,0.0-3.0-2.0-0.0,83116,List2B,black,man,,,,null,,,,,,,,,
9515.1,"<img src=""portrait/BW2.jpg""style=""height:400px;""></img>",2,html-button-response,6,462175,0.0-3.0-4.0,83116,List2B,black,man,,TRUE,2,,,,,,,,,,
null,CORRECT,,html-keyboard-response,7,463682,0.0-3.0-5.0-0.0,83116,List2B,black,man,,,,null,,,,,,,,,
8350,"<img src=""portrait/WM2.jpg""style=""height:400px;""></img>",7,html-button-response,8,472033,0.0-3.0-7.0,83116,List2B,black,man,,TRUE,7,,,,,,,,,,
null,CORRECT,,html-keyboard-response,9,473536,0.0-3.0-8.0-0.0,83116,List2B,black,man,,,,null,,,,,,,,,
8566.2,"<img src=""portrait/WW1.jpg""style=""height:400px;""></img>",1,html-button-response,10,482104,0.0-3.0-10.0,83116,List2B,black,man,,TRUE,1,,,,,,,,,,
null,CORRECT,,html-keyboard-response,11,483610,0.0-3.0-11.0-0.0,83116,List2B,black,man,,,,null,,,,,,,,,
10809.6,"<img src=""portrait/BW1.jpg""style=""height:400px;""></img>",0,html-button-response,12,494420,0.0-3.0-13.0,83116,List2B,black,man,,TRUE,0,,,,,,,,,,
null,CORRECT,,html-keyboard-response,13,495927,0.0-3.0-14.0-0.0,83116,List2B,black,man,,,,null,,,,,,,,,
10025.5,"<img src=""portrait/BM1.jpg""style=""height:400px;""></img>",4,html-button-response,14,505954,0.0-3.0-16.0,83116,List2B,black,man,,TRUE,4,,,,,,,,,,
null,CORRECT,,html-keyboard-response,15,507460,0.0-3.0-17.0-0.0,83116,List2B,black,man,,,,null,,,,,,,,,
4109.3,"<img src=""portrait/WW2.jpg""style=""height:400px;""></img>",3,html-button-response,16,511571,0.0-3.0-19.0,83116,List2B,black,man,,TRUE,3,,,,,,,,,,
null,CORRECT,,html-keyboard-response,17,513072,0.0-3.0-20.0-0.0,83116,List2B,black,man,,,,null,,,,,,,,,
3963.4,"<img src=""portrait/BM2.jpg""style=""height:400px;""></img>",5,html-button-response,18,517037,0.0-3.0-22.0,83116,List2B,black,man,,TRUE,5,,,,,,,,,,
null,CORRECT,,html-keyboard-response,19,518541,0.0-3.0-23.0-0.0,83116,List2B,black,man,,,,null,,,,,,,,,
2828.4,<p>You got 8 out of 8 right first time. Press Continue.</p>,0,html-button-response,20,521370,0.0-3.0-25.0,83116,List2B,black,man,,,,,,,,,,,,,
91394.6,"<p>In this experiment, you will view photographs of the people from the memory game interacting.</p><p>By using the <strong>exact</strong> phrase given <i>after</i> the photograph appears and recalling the correct names of the people in the photographs, form a sentence describing the interaction. You do not need to capitalise names.</p><p>Type your answer in the space provided. Please complete every sentence before moving onto the next trial.</p><p>You will only have a few seconds to memorise each given photograph and phrase before you can respond, so try your best to focus.</p><p>An example is given below. Press 'Continue' when you are ready.</p><img src='img/speaking_example.jpg' style='width:800px;height:460px;''></img>",0,html-button-response,21,613773,0.0-4.0,83116,List2B,black,man,,,,,,,,,,,,,
4321.1,"<p>Before the experiment starts, you will watch two example trials. Press 'Continue'.</p>",0,html-button-response,22,619096,0.0-5.0,83116,List2B,black,man,,,,,,,,,,,,,
null,<img src='img/play_eg.gif' style='height:400px;''></img>,,html-keyboard-response,23,622106,0.0-6.0,83116,List2B,black,man,,,,null,,,,,,,,,
null,<p>is playing with</p>,,html-keyboard-response,24,624108,0.0-7.0,83116,List2B,black,man,,,,null,,,,,,,,,
6551.7,<p><b>Answer:</b> jane is playing with ruth</p>,0,html-button-response,25,630661,0.0-8.0,83116,List2B,black,man,,,,,,,,,,,,,
null,<img src='img/dance_eg.gif' style='height:400px;''></img>,,html-keyboard-response,26,633665,0.0-9.0,83116,List2B,black,man,,,,null,,,,,,,,,
null,<p>is being entertained by</p>,,html-keyboard-response,27,635667,0.0-10.0,83116,List2B,black,man,,,,null,,,,,,,,,
8771.2,<p><b>Answer:</b> fred is being entertained by mike</p>,0,html-button-response,28,644439,0.0-11.0,83116,List2B,black,man,,,,,,,,,,,,,
13786,"<p>Ready to start the experiment?</p><br><p><strong>Remember to describe the picture using a full sentence,</strong></p><p><strong>that combines the names of the people with the <i>exact</i> phrase given.</strong></p><p><strong>To receive full payment you must do this correctly.</strong></p><p><strong> You do not need to capitalise names or use punctuation.</strong></p><br><p>Press 'Continue' to begin.</p>",0,html-button-response,29,659226,0.0-12.0,83116,List2B,black,man,,,,,,,,,,,,,
null,"<div style=""font-size:60px;"">+</div>",,html-keyboard-response,30,660730,0.0-13.0-0.0,83116,List2B,black,man,,,,null,,,,,,,,,
null,"<img src=""stim_listB/greet8.gif""style=""height:400px;""></stim_listB>",,html-keyboard-response,31,662733,0.0-13.0-1.0,83116,List2B,black,man,,,,null,,,,,,,,,
null,is being greeted by,,html-keyboard-response,32,664734,0.0-13.0-2.0,83116,List2B,black,man,,,,null,,,,,,,,,
24780.3,,,survey-text,33,689517,0.0-13.0-3.0,83116,List2B,black,man,,,,,"{""Q0"":""jane is playing with kate""}","<img src=""stim_listB/greet8.gif""style=""height:400px;""></stim_listB>",is being greeted by,,,,,,
null,"<div style=""font-size:60px;"">+</div>",,html-keyboard-response,34,690019,0.0-13.0-0.1,83116,List2B,black,man,,,,null,,,,,,,,,
null,"<img src=""stim_listB/hug4.gif""style=""height:400px;""></stim_listB>",,html-keyboard-response,35,692022,0.0-13.0-1.1,83116,List2B,black,man,,,,null,,,,,,,,,
null,is being hugged by,,html-keyboard-response,36,694025,0.0-13.0-2.1,83116,List2B,black,man,,,,null,,,,,,,,,
22508.7,,,survey-text,37,716535,0.0-13.0-3.1,83116,List2B,black,man,,,,,"{""Q0"":""mike is being hugged by kate""}","<img src=""stim_listB/hug4.gif""style=""height:400px;""></stim_listB>",is being hugged by,,,,,,
null,"<div style=""font-size:60px;"">+</div>",,html-keyboard-response,38,717041,0.0-13.0-0.2,83116,List2B,black,man,,,,null,,,,,,,,,
null,"<img src=""stim_listB/copy7.gif""style=""height:400px;""></stim_listB>",,html-keyboard-response,39,719043,0.0-13.0-1.2,83116,List2B,black,man,,,,null,,,,,,,,,
null,is copying,,html-keyboard-response,40,721049,0.0-13.0-2.2,83116,List2B,black,man,,,,null,,,,,,,,,
21157.9,,,survey-text,41,742210,0.0-13.0-3.2,83116,List2B,black,man,,,,,"{""Q0"":""ruth is copying kate""}","<img src=""stim_listB/copy7.gif""style=""height:400px;""></stim_listB>",is copying,,,,,,
null,"<div style=""font-size:60px;"">+</div>",,html-keyboard-response,42,742716,0.0-13.0-0.3,83116,List2B,black,man,,,,null,,,,,,,,,
null,"<img src=""stim_listB/kiss5.gif""style=""height:400px;""></stim_listB>",,html-keyboard-response,43,744719,0.0-13.0-1.3,83116,List2B,black,man,,,,null,,,,,,,,,
null,is kissing,,html-keyboard-response,44,746722,0.0-13.0-2.3,83116,List2B,black,man,,,,null,,,,,,,,,
16632.7,,,survey-text,45,763356,0.0-13.0-3.3,83116,List2B,black,man,,,,,"{""Q0"":""luke is kissing fred""}","<img src=""stim_listB/kiss5.gif""style=""height:400px;""></stim_listB>",is kissing,,,,,,
null,"<div style=""font-size:60px;"">+</div>",,html-keyboard-response,46,763859,0.0-13.0-0.4,83116,List2B,black,man,,,,null,,,,,,,,,
null,"<img src=""stim_listB/kiss4.gif""style=""height:400px;""></stim_listB>",,html-keyboard-response,47,765863,0.0-13.0-1.4,83116,List2B,black,man,,,,null,,,,,,,,,
null,is being kissed by,,html-keyboard-response,48,767866,0.0-13.0-2.4,83116,List2B,black,man,,,,null,,,,,,,,,
13070.7,,,survey-text,49,780938,0.0-13.0-3.4,83116,List2B,black,man,,,,,"{""Q0"":""mike is being kissed by kate""}","<img src=""stim_listB/kiss4.gif""style=""height:400px;""></stim_listB>",is being kissed by,,,,,,
null,"<div style=""font-size:60px;"">+</div>",,html-keyboard-response,50,781443,0.0-13.0-0.5,83116,List2B,black,man,,,,null,,,,,,,,,
null,"<img src=""stim_listB/copy8.gif""style=""height:400px;""></stim_listB>",,html-keyboard-response,51,783446,0.0-13.0-1.5,83116,List2B,black,man,,,,null,,,,,,,,,
null,is being copied by,,html-keyboard-response,52,785451,0.0-13.0-2.5,83116,List2B,black,man,,,,null,,,,,,,,,
17515.7,,,survey-text,53,802967,0.0-13.0-3.5,83116,List2B,black,man,,,,,"{""Q0"":""ruth is being copied by kate""}","<img src=""stim_listB/copy8.gif""style=""height:400px;""></stim_listB>",is being copied by,,,,,,
null,"<div style=""font-size:60px;"">+</div>",,html-keyboard-response,54,803468,0.0-13.0-0.6,83116,List2B,black,man,,,,null,,,,,,,,,
null,"<img src=""stim_listB/copy3.gif""style=""height:400px;""></stim_listB>",,html-keyboard-response,55,805472,0.0-13.0-1.6,83116,List2B,black,man,,,,null,,,,,,,,,
null,is copying,,html-keyboard-response,56,807478,0.0-13.0-2.6,83116,List2B,black,man,,,,null,,,,,,,,,
12283.8,,,survey-text,57,819763,0.0-13.0-3.6,83116,List2B,black,man,,,,,"{""Q0"":""mike is copying beth""}","<img src=""stim_listB/copy3.gif""style=""height:400px;""></stim_listB>",is copying,,,,,,
null,"<div style=""font-size:60px;"">+</div>",,html-keyboard-response,58,820264,0.0-13.0-0.7,83116,List2B,black,man,,,,null,,,,,,,,,
null,"<img src=""stim_listB/touch1.gif""style=""height:400px;""></stim_listB>",,html-keyboard-response,59,822265,0.0-13.0-1.7,83116,List2B,black,man,,,,null,,,,,,,,,
null,is touching,,html-keyboard-response,60,824267,0.0-13.0-2.7,83116,List2B,black,man,,,,null,,,,,,,,,
13373.1,,,survey-text,61,837642,0.0-13.0-3.7,83116,List2B,black,man,,,,,"{""Q0"":""dave is touching jane""}","<img src=""stim_listB/touch1.gif""style=""height:400px;""></stim_listB>",is touching,,,,,,
null,"<div style=""font-size:60px;"">+</div>",,html-keyboard-response,62,838142,0.0-13.0-0.8,83116,List2B,black,man,,,,null,,,,,,,,,
null,"<img src=""stim_listB/greet4.gif""style=""height:400px;""></stim_listB>",,html-keyboard-response,63,840148,0.0-13.0-1.8,83116,List2B,black,man,,,,null,,,,,,,,,
null,is being greeted by,,html-keyboard-response,64,842149,0.0-13.0-2.8,83116,List2B,black,man,,,,null,,,,,,,,,
16375.2,,,survey-text,65,858525,0.0-13.0-3.8,83116,List2B,black,man,,,,,"{""Q0"":""kate is being greeted by fred""}","<img src=""stim_listB/greet4.gif""style=""height:400px;""></stim_listB>",is being greeted by,,,,,,
null,"<div style=""font-size:60px;"">+</div>",,html-keyboard-response,66,859031,0.0-13.0-0.9,83116,List2B,black,man,,,,null,,,,,,,,,
null,"<img src=""stim_listB/copy1.gif""style=""height:400px;""></stim_listB>",,html-keyboard-response,67,861036,0.0-13.0-1.9,83116,List2B,black,man,,,,null,,,,,,,,,
null,is copying,,html-keyboard-response,68,863038,0.0-13.0-2.9,83116,List2B,black,man,,,,null,,,,,,,,,
13250.6,,,survey-text,69,876290,0.0-13.0-3.9,83116,List2B,black,man,,,,,"{""Q0"":""ruth is copying dave""}","<img src=""stim_listB/copy1.gif""style=""height:400px;""></stim_listB>",is copying,,,,,,
null,"<div style=""font-size:60px;"">+</div>",,html-keyboard-response,70,876795,0.0-13.0-0.10,83116,List2B,black,man,,,,null,,,,,,,,,
null,"<img src=""stim_listB/hug1.gif""style=""height:400px;""></stim_listB>",,html-keyboard-response,71,878798,0.0-13.0-1.10,83116,List2B,black,man,,,,null,,,,,,,,,
null,is hugging,,html-keyboard-response,72,880800,0.0-13.0-2.10,83116,List2B,black,man,,,,null,,,,,,,,,
18872.1,,,survey-text,73,899674,0.0-13.0-3.10,83116,List2B,black,man,,,,,"{""Q0"":""luke is hugging ruth""}","<img src=""stim_listB/hug1.gif""style=""height:400px;""></stim_listB>",is hugging,,,,,,
null,"<div style=""font-size:60px;"">+</div>",,html-keyboard-response,74,900179,0.0-13.0-0.11,83116,List2B,black,man,,,,null,,,,,,,,,
null,"<img src=""stim_listB/hug6.gif""style=""height:400px;""></stim_listB>",,html-keyboard-response,75,902183,0.0-13.0-1.11,83116,List2B,black,man,,,,null,,,,,,,,,
null,is being hugged by,,html-keyboard-response,76,904188,0.0-13.0-2.11,83116,List2B,black,man,,,,null,,,,,,,,,
13331.4,,,survey-text,77,917521,0.0-13.0-3.11,83116,List2B,black,man,,,,,"{""Q0"":""mike is being hugged by dave""}","<img src=""stim_listB/hug6.gif""style=""height:400px;""></stim_listB>",is being hugged by,,,,,,
null,"<div style=""font-size:60px;"">+</div>",,html-keyboard-response,78,918024,0.0-13.0-0.12,83116,List2B,black,man,,,,null,,,,,,,,,
null,"<img src=""stim_listB/oppose2.gif""style=""height:400px;""></stim_listB>",,html-keyboard-response,79,920028,0.0-13.0-1.12,83116,List2B,black,man,,,,null,,,,,,,,,
null,is being opposed by,,html-keyboard-response,80,922033,0.0-13.0-2.12,83116,List2B,black,man,,,,null,,,,,,,,,
16187.4,,,survey-text,81,938222,0.0-13.0-3.12,83116,List2B,black,man,,,,,"{""Q0"":""luke is being opposed by ruth""}","<img src=""stim_listB/oppose2.gif""style=""height:400px;""></stim_listB>",is being opposed by,,,,,,
null,"<div style=""font-size:60px;"">+</div>",,html-keyboard-response,82,938724,0.0-13.0-0.13,83116,List2B,black,man,,,,null,,,,,,,,,
null,"<img src=""stim_listB/seduce2.gif""style=""height:400px;""></stim_listB>",,html-keyboard-response,83,940726,0.0-13.0-1.13,83116,List2B,black,man,,,,null,,,,,,,,,
null,is being seduced by,,html-keyboard-response,84,942732,0.0-13.0-2.13,83116,List2B,black,man,,,,null,,,,,,,,,
16275,,,survey-text,85,959009,0.0-13.0-3.13,83116,List2B,black,man,,,,,"{""Q0"":""ruth is being seduced by dave""}","<img src=""stim_listB/seduce2.gif""style=""height:400px;""></stim_listB>",is being seduced by,,,,,,
null,"<div style=""font-size:60px;"">+</div>",,html-keyboard-response,86,959514,0.0-13.0-0.14,83116,List2B,black,man,,,,null,,,,,,,,,
null,"<img src=""stim_listB/look2.gif""style=""height:400px;""></stim_listB>",,html-keyboard-response,87,961515,0.0-13.0-1.14,83116,List2B,black,man,,,,null,,,,,,,,,
null,is being looked at by,,html-keyboard-response,88,963519,0.0-13.0-2.14,83116,List2B,black,man,,,,null,,,,,,,,,
33284,,,survey-text,89,996805,0.0-13.0-3.14,83116,List2B,black,man,,,,,"{""Q0"":""dave is being looked at by jane""}","<img src=""stim_listB/look2.gif""style=""height:400px;""></stim_listB>",is being looked at by,,,,,,
null,"<div style=""font-size:60px;"">+</div>",,html-keyboard-response,90,997308,0.0-13.0-0.15,83116,List2B,black,man,,,,null,,,,,,,,,
null,"<img src=""stim_listB/hug5.gif""style=""height:400px;""></stim_listB>",,html-keyboard-response,91,999310,0.0-13.0-1.15,83116,List2B,black,man,,,,null,,,,,,,,,
null,is hugging,,html-keyboard-response,92,1001313,0.0-13.0-2.15,83116,List2B,black,man,,,,null,,,,,,,,,
17996.9,,,survey-text,93,1019311,0.0-13.0-3.15,83116,List2B,black,man,,,,,"{""Q0"":""luke is hugging fred""}","<img src=""stim_listB/hug5.gif""style=""height:400px;""></stim_listB>",is hugging,,,,,,
null,"<div style=""font-size:60px;"">+</div>",,html-keyboard-response,94,1019812,0.0-13.0-0.16,83116,List2B,black,man,,,,null,,,,,,,,,
null,"<img src=""stim_listB/look7.gif""style=""height:400px;""></stim_listB>",,html-keyboard-response,95,1021816,0.0-13.0-1.16,83116,List2B,black,man,,,,null,,,,,,,,,
null,is looking at,,html-keyboard-response,96,1023821,0.0-13.0-2.16,83116,List2B,black,man,,,,null,,,,,,,,,
22584.4,,,survey-text,97,1046407,0.0-13.0-3.16,83116,List2B,black,man,,,,,"{""Q0"":""ruth is looking at kate""}","<img src=""stim_listB/look7.gif""style=""height:400px;""></stim_listB>",is looking at,,,,,,
null,"<div style=""font-size:60px;"">+</div>",,html-keyboard-response,98,1046909,0.0-13.0-0.17,83116,List2B,black,man,,,,null,,,,,,,,,
null,"<img src=""stim_listB/seduce8.gif""style=""height:400px;""></stim_listB>",,html-keyboard-response,99,1048915,0.0-13.0-1.17,83116,List2B,black,man,,,,null,,,,,,,,,
null,is being seduced by,,html-keyboard-response,100,1050917,0.0-13.0-2.17,83116,List2B,black,man,,,,null,,,,,,,,,
19507.6,,,survey-text,101,1070426,0.0-13.0-3.17,83116,List2B,black,man,,,,,"{""Q0"":""jane is being seduced by kate""}","<img src=""stim_listB/seduce8.gif""style=""height:400px;""></stim_listB>",is being seduced by,,,,,,
null,"<div style=""font-size:60px;"">+</div>",,html-keyboard-response,102,1070930,0.0-13.0-0.18,83116,List2B,black,man,,,,null,,,,,,,,,
null,"<img src=""stim_listB/copy6.gif""style=""height:400px;""></stim_listB>",,html-keyboard-response,103,1072931,0.0-13.0-1.18,83116,List2B,black,man,,,,null,,,,,,,,,
null,is being copied by,,html-keyboard-response,104,1074934,0.0-13.0-2.18,83116,List2B,black,man,,,,null,,,,,,,,,
14372.5,,,survey-text,105,1089308,0.0-13.0-3.18,83116,List2B,black,man,,,,,"{""Q0"":""luke is being copied by mike""}","<img src=""stim_listB/copy6.gif""style=""height:400px;""></stim_listB>",is being copied by,,,,,,
null,"<div style=""font-size:60px;"">+</div>",,html-keyboard-response,106,1089809,0.0-13.0-0.19,83116,List2B,black,man,,,,null,,,,,,,,,
null,"<img src=""stim_listB/touch3.gif""style=""height:400px;""></stim_listB>",,html-keyboard-response,107,1091814,0.0-13.0-1.19,83116,List2B,black,man,,,,null,,,,,,,,,
null,is touching,,html-keyboard-response,108,1093818,0.0-13.0-2.19,83116,List2B,black,man,,,,null,,,,,,,,,
16991.2,,,survey-text,109,1110811,0.0-13.0-3.19,83116,List2B,black,man,,,,,"{""Q0"":""mike is touched by kate""}","<img src=""stim_listB/touch3.gif""style=""height:400px;""></stim_listB>",is touching,,,,,,
9211.4,"<img src='img/portrait_matrix_list2.jpg' style='width:900px;height:500px;''></img><p>If you have memorised all the portraits and names and are ready to start, press Continue.</p><p><strong>Please note: Your memory of these faces will be tested 4 times during this experiment.</strong></p>",0,html-button-response,110,1120024,0.0-14.0-0.0,83116,List2B,black,man,,,,,,,,,,,,,
6373,"<img src=""portrait/WM2.jpg""style=""height:400px;""></img>",7,html-button-response,111,1127404,0.0-14.0-1.0,83116,List2B,black,man,,TRUE,7,,,,,,,,,,
null,CORRECT,,html-keyboard-response,112,1128911,0.0-14.0-2.0-0.0,83116,List2B,black,man,,,,null,,,,,,,,,
3868,"<img src=""portrait/WM1.jpg""style=""height:400px;""></img>",6,html-button-response,113,1132781,0.0-14.0-4.0,83116,List2B,black,man,,TRUE,6,,,,,,,,,,
null,CORRECT,,html-keyboard-response,114,1134286,0.0-14.0-5.0-0.0,83116,List2B,black,man,,,,null,,,,,,,,,
3275.9,"<img src=""portrait/BW2.jpg""style=""height:400px;""></img>",2,html-button-response,115,1137563,0.0-14.0-7.0,83116,List2B,black,man,,TRUE,2,,,,,,,,,,
null,CORRECT,,html-keyboard-response,116,1139071,0.0-14.0-8.0-0.0,83116,List2B,black,man,,,,null,,,,,,,,,
1997.5,"<img src=""portrait/WW2.jpg""style=""height:400px;""></img>",3,html-button-response,117,1141070,0.0-14.0-10.0,83116,List2B,black,man,,TRUE,3,,,,,,,,,,
null,CORRECT,,html-keyboard-response,118,1142580,0.0-14.0-11.0-0.0,83116,List2B,black,man,,,,null,,,,,,,,,
2740.1,"<img src=""portrait/BM1.jpg""style=""height:400px;""></img>",4,html-button-response,119,1145322,0.0-14.0-13.0,83116,List2B,black,man,,TRUE,4,,,,,,,,,,
null,CORRECT,,html-keyboard-response,120,1146828,0.0-14.0-14.0-0.0,83116,List2B,black,man,,,,null,,,,,,,,,
3590.8,"<img src=""portrait/WW1.jpg""style=""height:400px;""></img>",1,html-button-response,121,1150420,0.0-14.0-16.0,83116,List2B,black,man,,TRUE,1,,,,,,,,,,
null,CORRECT,,html-keyboard-response,122,1151929,0.0-14.0-17.0-0.0,83116,List2B,black,man,,,,null,,,,,,,,,
2884.3,"<img src=""portrait/BM2.jpg""style=""height:400px;""></img>",5,html-button-response,123,1154814,0.0-14.0-19.0,83116,List2B,black,man,,TRUE,5,,,,,,,,,,
null,CORRECT,,html-keyboard-response,124,1156316,0.0-14.0-20.0-0.0,83116,List2B,black,man,,,,null,,,,,,,,,
5675.7,"<img src=""portrait/BW1.jpg""style=""height:400px;""></img>",0,html-button-response,125,1161993,0.0-14.0-22.0,83116,List2B,black,man,,TRUE,0,,,,,,,,,,
null,CORRECT,,html-keyboard-response,126,1163501,0.0-14.0-23.0-0.0,83116,List2B,black,man,,,,null,,,,,,,,,
3649.9,<p>You got 8 out of 8 right first time. Press Continue.</p>,0,html-button-response,127,1167152,0.0-14.0-25.0,83116,List2B,black,man,,,,,,,,,,,,,
null,"<div style=""font-size:60px;"">+</div>",,html-keyboard-response,128,1168657,0.0-15.0-0.0,83116,List2B,black,man,,,,null,,,,,,,,,
null,"<img src=""stim_listB/seduce3.gif""style=""height:400px;""></stim_listB>",,html-keyboard-response,129,1170659,0.0-15.0-1.0,83116,List2B,black,man,,,,null,,,,,,,,,
null,is seducing,,html-keyboard-response,130,1172662,0.0-15.0-2.0,83116,List2B,black,man,,,,null,,,,,,,,,
15232.1,,,survey-text,131,1187896,0.0-15.0-3.0,83116,List2B,black,man,,,,,"{""Q0"":""kate is seducing fred""}","<img src=""stim_listB/seduce3.gif""style=""height:400px;""></stim_listB>",is seducing,,,,,,
null,"<div style=""font-size:60px;"">+</div>",,html-keyboard-response,132,1188400,0.0-15.0-0.1,83116,List2B,black,man,,,,null,,,,,,,,,
null,"<img src=""stim_listB/oppose1.gif""style=""height:400px;""></stim_listB>",,html-keyboard-response,133,1190402,0.0-15.0-1.1,83116,List2B,black,man,,,,null,,,,,,,,,
null,is opposing,,html-keyboard-response,134,1192408,0.0-15.0-2.1,83116,List2B,black,man,,,,null,,,,,,,,,
11435.4,,,survey-text,135,1203844,0.0-15.0-3.1,83116,List2B,black,man,,,,,"{""Q0"":""jane is opposing dave""}","<img src=""stim_listB/oppose1.gif""style=""height:400px;""></stim_listB>",is opposing,,,,,,
null,"<div style=""font-size:60px;"">+</div>",,html-keyboard-response,136,1204350,0.0-15.0-0.2,83116,List2B,black,man,,,,null,,,,,,,,,
null,"<img src=""stim_listB/kiss8.gif""style=""height:400px;""></stim_listB>",,html-keyboard-response,137,1206352,0.0-15.0-1.2,83116,List2B,black,man,,,,null,,,,,,,,,
null,is being kissed by,,html-keyboard-response,138,1208355,0.0-15.0-2.2,83116,List2B,black,man,,,,null,,,,,,,,,
28880,,,survey-text,139,1237236,0.0-15.0-3.2,83116,List2B,black,man,,,,,"{""Q0"":""jane is being kissed by kate""}","<img src=""stim_listB/kiss8.gif""style=""height:400px;""></stim_listB>",is being kissed by,,,,,,
null,"<div style=""font-size:60px;"">+</div>",,html-keyboard-response,140,1237740,0.0-15.0-0.3,83116,List2B,black,man,,,,null,,,,,,,,,
null,"<img src=""stim_listB/shout6.gif""style=""height:400px;""></stim_listB>",,html-keyboard-response,141,1239746,0.0-15.0-1.3,83116,List2B,black,man,,,,null,,,,,,,,,
null,is being shouted at by,,html-keyboard-response,142,1241749,0.0-15.0-2.3,83116,List2B,black,man,,,,null,,,,,,,,,
13911,,,survey-text,143,1255661,0.0-15.0-3.3,83116,List2B,black,man,,,,,"{""Q0"":""mike is being shouted at by dave""}","<img src=""stim_listB/shout6.gif""style=""height:400px;""></stim_listB>",is being shouted at by,,,,,,
null,"<div style=""font-size:60px;"">+</div>",,html-keyboard-response,144,1256165,0.0-15.0-0.4,83116,List2B,black,man,,,,null,,,,,,,,,
null,"<img src=""stim_listB/look4.gif""style=""height:400px;""></stim_listB>",,html-keyboard-response,145,1258170,0.0-15.0-1.4,83116,List2B,black,man,,,,null,,,,,,,,,
null,is being looked at by,,html-keyboard-response,146,1260175,0.0-15.0-2.4,83116,List2B,black,man,,,,null,,,,,,,,,
13400.5,,,survey-text,147,1273577,0.0-15.0-3.4,83116,List2B,black,man,,,,,"{""Q0"":""mike is being looked at by kate""}","<img src=""stim_listB/look4.gif""style=""height:400px;""></stim_listB>",is being looked at by,,,,,,
null,"<div style=""font-size:60px;"">+</div>",,html-keyboard-response,148,1274081,0.0-15.0-0.5,83116,List2B,black,man,,,,null,,,,,,,,,
null,"<img src=""stim_listB/kiss7.gif""style=""height:400px;""></stim_listB>",,html-keyboard-response,149,1276085,0.0-15.0-1.5,83116,List2B,black,man,,,,null,,,,,,,,,
null,is kissing,,html-keyboard-response,150,1278086,0.0-15.0-2.5,83116,List2B,black,man,,,,null,,,,,,,,,
17838.2,,,survey-text,151,1295926,0.0-15.0-3.5,83116,List2B,black,man,,,,,"{""Q0"":""beth is kissing ruth""}","<img src=""stim_listB/kiss7.gif""style=""height:400px;""></stim_listB>",is kissing,,,,,,
null,"<div style=""font-size:60px;"">+</div>",,html-keyboard-response,152,1296428,0.0-15.0-0.6,83116,List2B,black,man,,,,null,,,,,,,,,
null,"<img src=""stim_listB/oppose3.gif""style=""height:400px;""></stim_listB>",,html-keyboard-response,153,1298434,0.0-15.0-1.6,83116,List2B,black,man,,,,null,,,,,,,,,
null,is opposing,,html-keyboard-response,154,1300435,0.0-15.0-2.6,83116,List2B,black,man,,,,null,,,,,,,,,
10550,,,survey-text,155,1310987,0.0-15.0-3.6,83116,List2B,black,man,,,,,"{""Q0"":""mike is opposing kate""}","<img src=""stim_listB/oppose3.gif""style=""height:400px;""></stim_listB>",is opposing,,,,,,
null,"<div style=""font-size:60px;"">+</div>",,html-keyboard-response,156,1311489,0.0-15.0-0.7,83116,List2B,black,man,,,,null,,,,,,,,,
null,"<img src=""stim_listB/greet6.gif""style=""height:400px;""></stim_listB>",,html-keyboard-response,157,1313494,0.0-15.0-1.7,83116,List2B,black,man,,,,null,,,,,,,,,
null,is being greeted by,,html-keyboard-response,158,1315499,0.0-15.0-2.7,83116,List2B,black,man,,,,null,,,,,,,,,
11081.5,,,survey-text,159,1326583,0.0-15.0-3.7,83116,List2B,black,man,,,,,"{""Q0"":""luke is greeted by mike""}","<img src=""stim_listB/greet6.gif""style=""height:400px;""></stim_listB>",is being greeted by,,,,,,
null,"<div style=""font-size:60px;"">+</div>",,html-keyboard-response,160,1327086,0.0-15.0-0.8,83116,List2B,black,man,,,,null,,,,,,,,,
null,"<img src=""stim_listB/shout1.gif""style=""height:400px;""></stim_listB>",,html-keyboard-response,161,1329093,0.0-15.0-1.8,83116,List2B,black,man,,,,null,,,,,,,,,
null,is shouting at,,html-keyboard-response,162,1331097,0.0-15.0-2.8,83116,List2B,black,man,,,,null,,,,,,,,,
13776.3,,,survey-text,163,1344874,0.0-15.0-3.8,83116,List2B,black,man,,,,,"{""Q0"":""luke is shouting at ruth""}","<img src=""stim_listB/shout1.gif""style=""height:400px;""></stim_listB>",is shouting at,,,,,,
null,"<div style=""font-size:60px;"">+</div>",,html-keyboard-response,164,1345378,0.0-15.0-0.9,83116,List2B,black,man,,,,null,,,,,,,,,
null,"<img src=""stim_listB/look6.gif""style=""height:400px;""></stim_listB>",,html-keyboard-response,165,1347383,0.0-15.0-1.9,83116,List2B,black,man,,,,null,,,,,,,,,
null,is being looked at by,,html-keyboard-response,166,1349388,0.0-15.0-2.9,83116,List2B,black,man,,,,null,,,,,,,,,
13118.7,,,survey-text,167,1362508,0.0-15.0-3.9,83116,List2B,black,man,,,,,"{""Q0"":""mike is being looked at by dave""}","<img src=""stim_listB/look6.gif""style=""height:400px;""></stim_listB>",is being looked at by,,,,,,
null,"<div style=""font-size:60px;"">+</div>",,html-keyboard-response,168,1363013,0.0-15.0-0.10,83116,List2B,black,man,,,,null,,,,,,,,,
null,"<img src=""stim_listB/touch6.gif""style=""height:400px;""></stim_listB>",,html-keyboard-response,169,1365018,0.0-15.0-1.10,83116,List2B,black,man,,,,null,,,,,,,,,
null,is being touched by,,html-keyboard-response,170,1367020,0.0-15.0-2.10,83116,List2B,black,man,,,,null,,,,,,,,,
11273.1,,,survey-text,171,1378295,0.0-15.0-3.10,83116,List2B,black,man,,,,,"{""Q0"":""luke is being touched by fred""}","<img src=""stim_listB/touch6.gif""style=""height:400px;""></stim_listB>",is being touched by,,,,,,
null,"<div style=""font-size:60px;"">+</div>",,html-keyboard-response,172,1378799,0.0-15.0-0.11,83116,List2B,black,man,,,,null,,,,,,,,,
null,"<img src=""stim_listB/oppose4.gif""style=""height:400px;""></stim_listB>",,html-keyboard-response,173,1380801,0.0-15.0-1.11,83116,List2B,black,man,,,,null,,,,,,,,,
null,is being opposed by,,html-keyboard-response,174,1382802,0.0-15.0-2.11,83116,List2B,black,man,,,,null,,,,,,,,,
12550.6,,,survey-text,175,1395354,0.0-15.0-3.11,83116,List2B,black,man,,,,,"{""Q0"":""beth is being opposed by fred""}","<img src=""stim_listB/oppose4.gif""style=""height:400px;""></stim_listB>",is being opposed by,,,,,,
null,"<div style=""font-size:60px;"">+</div>",,html-keyboard-response,176,1395860,0.0-15.0-0.12,83116,List2B,black,man,,,,null,,,,,,,,,
null,"<img src=""stim_listB/touch5.gif""style=""height:400px;""></stim_listB>",,html-keyboard-response,177,1397862,0.0-15.0-1.12,83116,List2B,black,man,,,,null,,,,,,,,,
null,is touching,,html-keyboard-response,178,1399868,0.0-15.0-2.12,83116,List2B,black,man,,,,null,,,,,,,,,
13572.1,,,survey-text,179,1413442,0.0-15.0-3.12,83116,List2B,black,man,,,,,"{""Q0"":""mike is touching dave""}","<img src=""stim_listB/touch5.gif""style=""height:400px;""></stim_listB>",is touching,,,,,,
null,"<div style=""font-size:60px;"">+</div>",,html-keyboard-response,180,1413946,0.0-15.0-0.13,83116,List2B,black,man,,,,null,,,,,,,,,
null,"<img src=""stim_listB/oppose6.gif""style=""height:400px;""></stim_listB>",,html-keyboard-response,181,1415952,0.0-15.0-1.13,83116,List2B,black,man,,,,null,,,,,,,,,
null,is being opposed by,,html-keyboard-response,182,1417956,0.0-15.0-2.13,83116,List2B,black,man,,,,null,,,,,,,,,
14309.2,,,survey-text,183,1432267,0.0-15.0-3.13,83116,List2B,black,man,,,,,"{""Q0"":""luke is being opposed by fred""}","<img src=""stim_listB/oppose6.gif""style=""height:400px;""></stim_listB>",is being opposed by,,,,,,
null,"<div style=""font-size:60px;"">+</div>",,html-keyboard-response,184,1432772,0.0-15.0-0.14,83116,List2B,black,man,,,,null,,,,,,,,,
null,"<img src=""stim_listB/hug7.gif""style=""height:400px;""></stim_listB>",,html-keyboard-response,185,1434774,0.0-15.0-1.14,83116,List2B,black,man,,,,null,,,,,,,,,
null,is hugging,,html-keyboard-response,186,1436779,0.0-15.0-2.14,83116,List2B,black,man,,,,null,,,,,,,,,
10443.2,,,survey-text,187,1447224,0.0-15.0-3.14,83116,List2B,black,man,,,,,"{""Q0"":""beth is hugging ruth""}","<img src=""stim_listB/hug7.gif""style=""height:400px;""></stim_listB>",is hugging,,,,,,
null,"<div style=""font-size:60px;"">+</div>",,html-keyboard-response,188,1447728,0.0-15.0-0.15,83116,List2B,black,man,,,,null,,,,,,,,,
null,"<img src=""stim_listB/copy5.gif""style=""height:400px;""></stim_listB>",,html-keyboard-response,189,1449732,0.0-15.0-1.15,83116,List2B,black,man,,,,null,,,,,,,,,
null,is copying,,html-keyboard-response,190,1451734,0.0-15.0-2.15,83116,List2B,black,man,,,,null,,,,,,,,,
13840.9,,,survey-text,191,1465577,0.0-15.0-3.15,83116,List2B,black,man,,,,,"{""Q0"":""fred is copying dave""}","<img src=""stim_listB/copy5.gif""style=""height:400px;""></stim_listB>",is copying,,,,,,
null,"<div style=""font-size:60px;"">+</div>",,html-keyboard-response,192,1466079,0.0-15.0-0.16,83116,List2B,black,man,,,,null,,,,,,,,,
null,"<img src=""stim_listB/challenge8.gif""style=""height:400px;""></stim_listB>",,html-keyboard-response,193,1468085,0.0-15.0-1.16,83116,List2B,black,man,,,,null,,,,,,,,,
null,is being challenged by,,html-keyboard-response,194,1470090,0.0-15.0-2.16,83116,List2B,black,man,,,,null,,,,,,,,,
22710.7,,,survey-text,195,1492802,0.0-15.0-3.16,83116,List2B,black,man,,,,,"{""Q0"":""ruth is being challenged by kate""}","<img src=""stim_listB/challenge8.gif""style=""height:400px;""></stim_listB>",is being challenged by,,,,,,
null,"<div style=""font-size:60px;"">+</div>",,html-keyboard-response,196,1493304,0.0-15.0-0.17,83116,List2B,black,man,,,,null,,,,,,,,,
null,"<img src=""stim_listB/shout4.gif""style=""height:400px;""></stim_listB>",,html-keyboard-response,197,1495308,0.0-15.0-1.17,83116,List2B,black,man,,,,null,,,,,,,,,
null,is being shouted at by,,html-keyboard-response,198,1497310,0.0-15.0-2.17,83116,List2B,black,man,,,,null,,,,,,,,,
11886.3,,,survey-text,199,1509198,0.0-15.0-3.17,83116,List2B,black,man,,,,,"{""Q0"":""mike is being shouted at by kate""}","<img src=""stim_listB/shout4.gif""style=""height:400px;""></stim_listB>",is being shouted at by,,,,,,
null,"<div style=""font-size:60px;"">+</div>",,html-keyboard-response,200,1509703,0.0-15.0-0.18,83116,List2B,black,man,,,,null,,,,,,,,,
null,"<img src=""stim_listB/seduce7.gif""style=""height:400px;""></stim_listB>",,html-keyboard-response,201,1511706,0.0-15.0-1.18,83116,List2B,black,man,,,,null,,,,,,,,,
null,is seducing,,html-keyboard-response,202,1513710,0.0-15.0-2.18,83116,List2B,black,man,,,,null,,,,,,,,,
14332.6,,,survey-text,203,1528044,0.0-15.0-3.18,83116,List2B,black,man,,,,,"{""Q0"":""kate is seducing ruth""}","<img src=""stim_listB/seduce7.gif""style=""height:400px;""></stim_listB>",is seducing,,,,,,
null,"<div style=""font-size:60px;"">+</div>",,html-keyboard-response,204,1528545,0.0-15.0-0.19,83116,List2B,black,man,,,,null,,,,,,,,,
null,"<img src=""stim_listB/challenge6.gif""style=""height:400px;""></stim_listB>",,html-keyboard-response,205,1530549,0.0-15.0-1.19,83116,List2B,black,man,,,,null,,,,,,,,,
null,is being challenged by,,html-keyboard-response,206,1532555,0.0-15.0-2.19,83116,List2B,black,man,,,,null,,,,,,,,,
12474.3,,,survey-text,207,1545031,0.0-15.0-3.19,83116,List2B,black,man,,,,,"{""Q0"":""luke is being challenged by mike""}","<img src=""stim_listB/challenge6.gif""style=""height:400px;""></stim_listB>",is being challenged by,,,,,,
5943.7,"<img src='img/portrait_matrix_list2.jpg' style='width:900px;height:500px;''></img><p>If you have memorised all the portraits and names and are ready to start, press Continue.</p><p><strong>Please note: Your memory of these faces will be tested 4 times during this experiment.</strong></p>",0,html-button-response,208,1550976,0.0-16.0-0.0,83116,List2B,black,man,,,,,,,,,,,,,
3336.3,"<img src=""portrait/WM1.jpg""style=""height:400px;""></img>",6,html-button-response,209,1555319,0.0-16.0-1.0,83116,List2B,black,man,,TRUE,6,,,,,,,,,,
null,CORRECT,,html-keyboard-response,210,1556826,0.0-16.0-2.0-0.0,83116,List2B,black,man,,,,null,,,,,,,,,
3049.7,"<img src=""portrait/WW2.jpg""style=""height:400px;""></img>",3,html-button-response,211,1559877,0.0-16.0-4.0,83116,List2B,black,man,,TRUE,3,,,,,,,,,,
null,CORRECT,,html-keyboard-response,212,1561379,0.0-16.0-5.0-0.0,83116,List2B,black,man,,,,null,,,,,,,,,
2910,"<img src=""portrait/WM2.jpg""style=""height:400px;""></img>",7,html-button-response,213,1564290,0.0-16.0-7.0,83116,List2B,black,man,,TRUE,7,,,,,,,,,,
null,CORRECT,,html-keyboard-response,214,1565799,0.0-16.0-8.0-0.0,83116,List2B,black,man,,,,null,,,,,,,,,
2975.5,"<img src=""portrait/BM1.jpg""style=""height:400px;""></img>",4,html-button-response,215,1568776,0.0-16.0-10.0,83116,List2B,black,man,,TRUE,4,,,,,,,,,,
null,CORRECT,,html-keyboard-response,216,1570278,0.0-16.0-11.0-0.0,83116,List2B,black,man,,,,null,,,,,,,,,
2981.2,"<img src=""portrait/BM2.jpg""style=""height:400px;""></img>",5,html-button-response,217,1573261,0.0-16.0-13.0,83116,List2B,black,man,,TRUE,5,,,,,,,,,,
null,CORRECT,,html-keyboard-response,218,1574770,0.0-16.0-14.0-0.0,83116,List2B,black,man,,,,null,,,,,,,,,
2119.2,"<img src=""portrait/BW2.jpg""style=""height:400px;""></img>",2,html-button-response,219,1576890,0.0-16.0-16.0,83116,List2B,black,man,,TRUE,2,,,,,,,,,,
null,CORRECT,,html-keyboard-response,220,1578398,0.0-16.0-17.0-0.0,83116,List2B,black,man,,,,null,,,,,,,,,
1905.5,"<img src=""portrait/BW1.jpg""style=""height:400px;""></img>",0,html-button-response,221,1580305,0.0-16.0-19.0,83116,List2B,black,man,,TRUE,0,,,,,,,,,,
null,CORRECT,,html-keyboard-response,222,1581812,0.0-16.0-20.0-0.0,83116,List2B,black,man,,,,null,,,,,,,,,
6156.2,"<img src=""portrait/WW1.jpg""style=""height:400px;""></img>",1,html-button-response,223,1587970,0.0-16.0-22.0,83116,List2B,black,man,,TRUE,1,,,,,,,,,,
null,CORRECT,,html-keyboard-response,224,1589475,0.0-16.0-23.0-0.0,83116,List2B,black,man,,,,null,,,,,,,,,
3867.1,<p>You got 8 out of 8 right first time. Press Continue.</p>,0,html-button-response,225,1593344,0.0-16.0-25.0,83116,List2B,black,man,,,,,,,,,,,,,
null,"<div style=""font-size:60px;"">+</div>",,html-keyboard-response,226,1594852,0.0-17.0-0.0,83116,List2B,black,man,,,,null,,,,,,,,,
null,"<img src=""stim_listB/challenge1.gif""style=""height:400px;""></stim_listB>",,html-keyboard-response,227,1596854,0.0-17.0-1.0,83116,List2B,black,man,,,,null,,,,,,,,,
null,is challenging,,html-keyboard-response,228,1598858,0.0-17.0-2.0,83116,List2B,black,man,,,,null,,,,,,,,,
12688.6,,,survey-text,229,1611549,0.0-17.0-3.0,83116,List2B,black,man,,,,,"{""Q0"":""ruth is challenging dave""}","<img src=""stim_listB/challenge1.gif""style=""height:400px;""></stim_listB>",is challenging,,,,,,
null,"<div style=""font-size:60px;"">+</div>",,html-keyboard-response,230,1612053,0.0-17.0-0.1,83116,List2B,black,man,,,,null,,,,,,,,,
null,"<img src=""stim_listB/shout3.gif""style=""height:400px;""></stim_listB>",,html-keyboard-response,231,1614055,0.0-17.0-1.1,83116,List2B,black,man,,,,null,,,,,,,,,
null,is shouting at,,html-keyboard-response,232,1616056,0.0-17.0-2.1,83116,List2B,black,man,,,,null,,,,,,,,,
16662,,,survey-text,233,1632720,0.0-17.0-3.1,83116,List2B,black,man,,,,,"{""Q0"":""beth is shouting at fred""}","<img src=""stim_listB/shout3.gif""style=""height:400px;""></stim_listB>",is shouting at,,,,,,
null,"<div style=""font-size:60px;"">+</div>",,html-keyboard-response,234,1633222,0.0-17.0-0.2,83116,List2B,black,man,,,,null,,,,,,,,,
null,"<img src=""stim_listB/copy2.gif""style=""height:400px;""></stim_listB>",,html-keyboard-response,235,1635227,0.0-17.0-1.2,83116,List2B,black,man,,,,null,,,,,,,,,
null,is being copied by,,html-keyboard-response,236,1637230,0.0-17.0-2.2,83116,List2B,black,man,,,,null,,,,,,,,,
18272.1,,,survey-text,237,1655505,0.0-17.0-3.2,83116,List2B,black,man,,,,,"{""Q0"":""luke is being copied by jane""}","<img src=""stim_listB/copy2.gif""style=""height:400px;""></stim_listB>",is being copied by,,,,,,
null,"<div style=""font-size:60px;"">+</div>",,html-keyboard-response,238,1656007,0.0-17.0-0.3,83116,List2B,black,man,,,,null,,,,,,,,,
null,"<img src=""stim_listB/touch7.gif""style=""height:400px;""></stim_listB>",,html-keyboard-response,239,1658012,0.0-17.0-1.3,83116,List2B,black,man,,,,null,,,,,,,,,
null,is touching,,html-keyboard-response,240,1660014,0.0-17.0-2.3,83116,List2B,black,man,,,,null,,,,,,,,,
32735,,,survey-text,241,1692751,0.0-17.0-3.3,83116,List2B,black,man,,,,,"{""Q0"":""jane is touching kate""}","<img src=""stim_listB/touch7.gif""style=""height:400px;""></stim_listB>",is touching,,,,,,
null,"<div style=""font-size:60px;"">+</div>",,html-keyboard-response,242,1693255,0.0-17.0-0.4,83116,List2B,black,man,,,,null,,,,,,,,,
null,"<img src=""stim_listB/seduce6.gif""style=""height:400px;""></stim_listB>",,html-keyboard-response,243,1695258,0.0-17.0-1.4,83116,List2B,black,man,,,,null,,,,,,,,,
null,is being seduced by,,html-keyboard-response,244,1697260,0.0-17.0-2.4,83116,List2B,black,man,,,,null,,,,,,,,,
12464.7,,,survey-text,245,1709726,0.0-17.0-3.4,83116,List2B,black,man,,,,,"{""Q0"":""fred is being seduced by dave""}","<img src=""stim_listB/seduce6.gif""style=""height:400px;""></stim_listB>",is being seduced by,,,,,,
null,"<div style=""font-size:60px;"">+</div>",,html-keyboard-response,246,1710229,0.0-17.0-0.5,83116,List2B,black,man,,,,null,,,,,,,,,
null,"<img src=""stim_listB/touch2.gif""style=""height:400px;""></stim_listB>",,html-keyboard-response,247,1712234,0.0-17.0-1.5,83116,List2B,black,man,,,,null,,,,,,,,,
null,is being touched by,,html-keyboard-response,248,1714236,0.0-17.0-2.5,83116,List2B,black,man,,,,null,,,,,,,,,
12677.1,,,survey-text,249,1726915,0.0-17.0-3.5,83116,List2B,black,man,,,,,"{""Q0"":""luke is being touched by ruth""}","<img src=""stim_listB/touch2.gif""style=""height:400px;""></stim_listB>",is being touched by,,,,,,
null,"<div style=""font-size:60px;"">+</div>",,html-keyboard-response,250,1727417,0.0-17.0-0.6,83116,List2B,black,man,,,,null,,,,,,,,,
null,"<img src=""stim_listB/challenge4.gif""style=""height:400px;""></stim_listB>",,html-keyboard-response,251,1729424,0.0-17.0-1.6,83116,List2B,black,man,,,,null,,,,,,,,,
null,is being challenged by,,html-keyboard-response,252,1731429,0.0-17.0-2.6,83116,List2B,black,man,,,,null,,,,,,,,,
14728.3,,,survey-text,253,1746160,0.0-17.0-3.6,83116,List2B,black,man,,,,,"{""Q0"":""fred is being challenged by kate""}","<img src=""stim_listB/challenge4.gif""style=""height:400px;""></stim_listB>",is being challenged by,,,,,,
null,"<div style=""font-size:60px;"">+</div>",,html-keyboard-response,254,1746663,0.0-17.0-0.7,83116,List2B,black,man,,,,null,,,,,,,,,
null,"<img src=""stim_listB/hug2.gif""style=""height:400px;""></stim_listB>",,html-keyboard-response,255,1748667,0.0-17.0-1.7,83116,List2B,black,man,,,,null,,,,,,,,,
null,is being hugged by,,html-keyboard-response,256,1750671,0.0-17.0-2.7,83116,List2B,black,man,,,,null,,,,,,,,,
18126.4,,,survey-text,257,1768800,0.0-17.0-3.7,83116,List2B,black,man,,,,,"{""Q0"":""jane is being hugged by dave""}","<img src=""stim_listB/hug2.gif""style=""height:400px;""></stim_listB>",is being hugged by,,,,,,
null,"<div style=""font-size:60px;"">+</div>",,html-keyboard-response,258,1769305,0.0-17.0-0.8,83116,List2B,black,man,,,,null,,,,,,,,,
null,"<img src=""stim_listB/copy4.gif""style=""height:400px;""></stim_listB>",,html-keyboard-response,259,1771310,0.0-17.0-1.8,83116,List2B,black,man,,,,null,,,,,,,,,
null,is being copied by,,html-keyboard-response,260,1773312,0.0-17.0-2.8,83116,List2B,black,man,,,,null,,,,,,,,,
15861.1,,,survey-text,261,1789175,0.0-17.0-3.8,83116,List2B,black,man,,,,,"{""Q0"":""fred is being copied by kate""}","<img src=""stim_listB/copy4.gif""style=""height:400px;""></stim_listB>",is being copied by,,,,,,
null,"<div style=""font-size:60px;"">+</div>",,html-keyboard-response,262,1789676,0.0-17.0-0.9,83116,List2B,black,man,,,,null,,,,,,,,,
null,"<img src=""stim_listB/kiss6.gif""style=""height:400px;""></stim_listB>",,html-keyboard-response,263,1791680,0.0-17.0-1.9,83116,List2B,black,man,,,,null,,,,,,,,,
null,is being kissed by,,html-keyboard-response,264,1793681,0.0-17.0-2.9,83116,List2B,black,man,,,,null,,,,,,,,,
18115.5,,,survey-text,265,1811798,0.0-17.0-3.9,83116,List2B,black,man,,,,,"{""Q0"":""mike is being kissed by dave""}","<img src=""stim_listB/kiss6.gif""style=""height:400px;""></stim_listB>",is being kissed by,,,,,,
null,"<div style=""font-size:60px;"">+</div>",,html-keyboard-response,266,1812305,0.0-17.0-0.10,83116,List2B,black,man,,,,null,,,,,,,,,
null,"<img src=""stim_listB/shout7.gif""style=""height:400px;""></stim_listB>",,html-keyboard-response,267,1814310,0.0-17.0-1.10,83116,List2B,black,man,,,,null,,,,,,,,,
null,is shouting at,,html-keyboard-response,268,1816313,0.0-17.0-2.10,83116,List2B,black,man,,,,null,,,,,,,,,
13316.5,,,survey-text,269,1829632,0.0-17.0-3.10,83116,List2B,black,man,,,,,"{""Q0"":""beth is shouting at ruth""}","<img src=""stim_listB/shout7.gif""style=""height:400px;""></stim_listB>",is shouting at,,,,,,
null,"<div style=""font-size:60px;"">+</div>",,html-keyboard-response,270,1830137,0.0-17.0-0.11,83116,List2B,black,man,,,,null,,,,,,,,,
null,"<img src=""stim_listB/look1.gif""style=""height:400px;""></stim_listB>",,html-keyboard-response,271,1832143,0.0-17.0-1.11,83116,List2B,black,man,,,,null,,,,,,,,,
null,is looking at,,html-keyboard-response,272,1834144,0.0-17.0-2.11,83116,List2B,black,man,,,,null,,,,,,,,,
16775.4,,,survey-text,273,1850922,0.0-17.0-3.11,83116,List2B,black,man,,,,,"{""Q0"":""luke is looking at ruth""}","<img src=""stim_listB/look1.gif""style=""height:400px;""></stim_listB>",is looking at,,,,,,
null,"<div style=""font-size:60px;"">+</div>",,html-keyboard-response,274,1851426,0.0-17.0-0.12,83116,List2B,black,man,,,,null,,,,,,,,,
null,"<img src=""stim_listB/greet1.gif""style=""height:400px;""></stim_listB>",,html-keyboard-response,275,1853432,0.0-17.0-1.12,83116,List2B,black,man,,,,null,,,,,,,,,
null,is greeting,,html-keyboard-response,276,1855435,0.0-17.0-2.12,83116,List2B,black,man,,,,null,,,,,,,,,
15764.2,,,survey-text,277,1871201,0.0-17.0-3.12,83116,List2B,black,man,,,,,"{""Q0"":""ruth is greeting dave""}","<img src=""stim_listB/greet1.gif""style=""height:400px;""></stim_listB>",is greeting,,,,,,
null,"<div style=""font-size:60px;"">+</div>",,html-keyboard-response,278,1871705,0.0-17.0-0.13,83116,List2B,black,man,,,,null,,,,,,,,,
null,"<img src=""stim_listB/challenge3.gif""style=""height:400px;""></stim_listB>",,html-keyboard-response,279,1873711,0.0-17.0-1.13,83116,List2B,black,man,,,,null,,,,,,,,,
null,is challenging,,html-keyboard-response,280,1875716,0.0-17.0-2.13,83116,List2B,black,man,,,,null,,,,,,,,,
12216.8,,,survey-text,281,1887935,0.0-17.0-3.13,83116,List2B,black,man,,,,,"{""Q0"":""beth is challenging mike""}","<img src=""stim_listB/challenge3.gif""style=""height:400px;""></stim_listB>",is challenging,,,,,,
null,"<div style=""font-size:60px;"">+</div>",,html-keyboard-response,282,1888440,0.0-17.0-0.14,83116,List2B,black,man,,,,null,,,,,,,,,
null,"<img src=""stim_listB/greet7.gif""style=""height:400px;""></stim_listB>",,html-keyboard-response,283,1890442,0.0-17.0-1.14,83116,List2B,black,man,,,,null,,,,,,,,,
null,is greeting,,html-keyboard-response,284,1892445,0.0-17.0-2.14,83116,List2B,black,man,,,,null,,,,,,,,,
10579.3,,,survey-text,285,1903026,0.0-17.0-3.14,83116,List2B,black,man,,,,,"{""Q0"":""beth is greeting jane""}","<img src=""stim_listB/greet7.gif""style=""height:400px;""></stim_listB>",is greeting,,,,,,
null,"<div style=""font-size:60px;"">+</div>",,html-keyboard-response,286,1903529,0.0-17.0-0.15,83116,List2B,black,man,,,,null,,,,,,,,,
null,"<img src=""stim_listB/greet2.gif""style=""height:400px;""></stim_listB>",,html-keyboard-response,287,1905530,0.0-17.0-1.15,83116,List2B,black,man,,,,null,,,,,,,,,
null,is being greeted by,,html-keyboard-response,288,1907531,0.0-17.0-2.15,83116,List2B,black,man,,,,null,,,,,,,,,
10451.3,,,survey-text,289,1917984,0.0-17.0-3.15,83116,List2B,black,man,,,,,"{""Q0"":""luke is being greeted by jane""}","<img src=""stim_listB/greet2.gif""style=""height:400px;""></stim_listB>",is being greeted by,,,,,,
null,"<div style=""font-size:60px;"">+</div>",,html-keyboard-response,290,1918485,0.0-17.0-0.16,83116,List2B,black,man,,,,null,,,,,,,,,
null,"<img src=""stim_listB/challenge5.gif""style=""height:400px;""></stim_listB>",,html-keyboard-response,291,1920487,0.0-17.0-1.16,83116,List2B,black,man,,,,null,,,,,,,,,
null,is challenging,,html-keyboard-response,292,1922492,0.0-17.0-2.16,83116,List2B,black,man,,,,null,,,,,,,,,
12054.4,,,survey-text,293,1934548,0.0-17.0-3.16,83116,List2B,black,man,,,,,"{""Q0"":""fred is challenging dave""}","<img src=""stim_listB/challenge5.gif""style=""height:400px;""></stim_listB>",is challenging,,,,,,
null,"<div style=""font-size:60px;"">+</div>",,html-keyboard-response,294,1935049,0.0-17.0-0.17,83116,List2B,black,man,,,,null,,,,,,,,,
null,"<img src=""stim_listB/challenge7.gif""style=""height:400px;""></stim_listB>",,html-keyboard-response,295,1937051,0.0-17.0-1.17,83116,List2B,black,man,,,,null,,,,,,,,,
null,is challenging,,html-keyboard-response,296,1939051,0.0-17.0-2.17,83116,List2B,black,man,,,,null,,,,,,,,,
17264.8,,,survey-text,297,1956318,0.0-17.0-3.17,83116,List2B,black,man,,,,,"{""Q0"":""beth is challenging jane""}","<img src=""stim_listB/challenge7.gif""style=""height:400px;""></stim_listB>",is challenging,,,,,,
null,"<div style=""font-size:60px;"">+</div>",,html-keyboard-response,298,1956820,0.0-17.0-0.18,83116,List2B,black,man,,,,null,,,,,,,,,
null,"<img src=""stim_listB/oppose5.gif""style=""height:400px;""></stim_listB>",,html-keyboard-response,299,1958821,0.0-17.0-1.18,83116,List2B,black,man,,,,null,,,,,,,,,
null,is opposing,,html-keyboard-response,300,1960825,0.0-17.0-2.18,83116,List2B,black,man,,,,null,,,,,,,,,
13539.6,,,survey-text,301,1974366,0.0-17.0-3.18,83116,List2B,black,man,,,,,"{""Q0"":""mike is opposing dave""}","<img src=""stim_listB/oppose5.gif""style=""height:400px;""></stim_listB>",is opposing,,,,,,
null,"<div style=""font-size:60px;"">+</div>",,html-keyboard-response,302,1974867,0.0-17.0-0.19,83116,List2B,black,man,,,,null,,,,,,,,,
null,"<img src=""stim_listB/greet3.gif""style=""height:400px;""></stim_listB>",,html-keyboard-response,303,1976872,0.0-17.0-1.19,83116,List2B,black,man,,,,null,,,,,,,,,
null,is greeting,,html-keyboard-response,304,1978874,0.0-17.0-2.19,83116,List2B,black,man,,,,null,,,,,,,,,
10120.8,,,survey-text,305,1988996,0.0-17.0-3.19,83116,List2B,black,man,,,,,"{""Q0"":""mike is greeting beth""}","<img src=""stim_listB/greet3.gif""style=""height:400px;""></stim_listB>",is greeting,,,,,,
6510.2,"<img src='img/portrait_matrix_list2.jpg' style='width:900px;height:500px;''></img><p>If you have memorised all the portraits and names and are ready to start, press Continue.</p><p><strong>Please note: Your memory of these faces will be tested 4 times during this experiment.</strong></p>",0,html-button-response,306,1995508,0.0-18.0-0.0,83116,List2B,black,man,,,,,,,,,,,,,
4069.6,"<img src=""portrait/BW2.jpg""style=""height:400px;""></img>",2,html-button-response,307,2000583,0.0-18.0-1.0,83116,List2B,black,man,,TRUE,2,,,,,,,,,,
null,CORRECT,,html-keyboard-response,308,2002086,0.0-18.0-2.0-0.0,83116,List2B,black,man,,,,null,,,,,,,,,
2347.7,"<img src=""portrait/WM1.jpg""style=""height:400px;""></img>",6,html-button-response,309,2004435,0.0-18.0-4.0,83116,List2B,black,man,,TRUE,6,,,,,,,,,,
null,CORRECT,,html-keyboard-response,310,2005942,0.0-18.0-5.0-0.0,83116,List2B,black,man,,,,null,,,,,,,,,
3160.3,"<img src=""portrait/WW1.jpg""style=""height:400px;""></img>",1,html-button-response,311,2009104,0.0-18.0-7.0,83116,List2B,black,man,,TRUE,1,,,,,,,,,,
null,CORRECT,,html-keyboard-response,312,2010606,0.0-18.0-8.0-0.0,83116,List2B,black,man,,,,null,,,,,,,,,
1829.2,"<img src=""portrait/BM2.jpg""style=""height:400px;""></img>",5,html-button-response,313,2012436,0.0-18.0-10.0,83116,List2B,black,man,,TRUE,5,,,,,,,,,,
null,CORRECT,,html-keyboard-response,314,2013942,0.0-18.0-11.0-0.0,83116,List2B,black,man,,,,null,,,,,,,,,
2070.2,"<img src=""portrait/BM1.jpg""style=""height:400px;""></img>",4,html-button-response,315,2016014,0.0-18.0-13.0,83116,List2B,black,man,,TRUE,4,,,,,,,,,,
null,CORRECT,,html-keyboard-response,316,2017522,0.0-18.0-14.0-0.0,83116,List2B,black,man,,,,null,,,,,,,,,
1873.3,"<img src=""portrait/WW2.jpg""style=""height:400px;""></img>",3,html-button-response,317,2019397,0.0-18.0-16.0,83116,List2B,black,man,,TRUE,3,,,,,,,,,,
null,CORRECT,,html-keyboard-response,318,2020906,0.0-18.0-17.0-0.0,83116,List2B,black,man,,,,null,,,,,,,,,
2749.9,"<img src=""portrait/BW1.jpg""style=""height:400px;""></img>",0,html-button-response,319,2023657,0.0-18.0-19.0,83116,List2B,black,man,,TRUE,0,,,,,,,,,,
null,CORRECT,,html-keyboard-response,320,2025160,0.0-18.0-20.0-0.0,83116,List2B,black,man,,,,null,,,,,,,,,
3164.5,"<img src=""portrait/WM2.jpg""style=""height:400px;""></img>",7,html-button-response,321,2028326,0.0-18.0-22.0,83116,List2B,black,man,,TRUE,7,,,,,,,,,,
null,CORRECT,,html-keyboard-response,322,2029835,0.0-18.0-23.0-0.0,83116,List2B,black,man,,,,null,,,,,,,,,
2270.7,<p>You got 8 out of 8 right first time. Press Continue.</p>,0,html-button-response,323,2032107,0.0-18.0-25.0,83116,List2B,black,man,,,,,,,,,,,,,
null,"<div style=""font-size:60px;"">+</div>",,html-keyboard-response,324,2033612,0.0-19.0-0.0,83116,List2B,black,man,,,,null,,,,,,,,,
null,"<img src=""stim_listB/look5.gif""style=""height:400px;""></stim_listB>",,html-keyboard-response,325,2035618,0.0-19.0-1.0,83116,List2B,black,man,,,,null,,,,,,,,,
null,is looking at,,html-keyboard-response,326,2037623,0.0-19.0-2.0,83116,List2B,black,man,,,,null,,,,,,,,,
16995.9,,,survey-text,327,2054621,0.0-19.0-3.0,83116,List2B,black,man,,,,,"{""Q0"":""luke is looking at fred""}","<img src=""stim_listB/look5.gif""style=""height:400px;""></stim_listB>",is looking at,,,,,,
null,"<div style=""font-size:60px;"">+</div>",,html-keyboard-response,328,2055124,0.0-19.0-0.1,83116,List2B,black,man,,,,null,,,,,,,,,
null,"<img src=""stim_listB/challenge2.gif""style=""height:400px;""></stim_listB>",,html-keyboard-response,329,2057126,0.0-19.0-1.1,83116,List2B,black,man,,,,null,,,,,,,,,
null,is being challenged by,,html-keyboard-response,330,2059128,0.0-19.0-2.1,83116,List2B,black,man,,,,null,,,,,,,,,
12478.7,,,survey-text,331,2071609,0.0-19.0-3.1,83116,List2B,black,man,,,,,"{""Q0"":""luke is being challenged by jane""}","<img src=""stim_listB/challenge2.gif""style=""height:400px;""></stim_listB>",is being challenged by,,,,,,
null,"<div style=""font-size:60px;"">+</div>",,html-keyboard-response,332,2072114,0.0-19.0-0.2,83116,List2B,black,man,,,,null,,,,,,,,,
null,"<img src=""stim_listB/seduce4.gif""style=""height:400px;""></stim_listB>",,html-keyboard-response,333,2074117,0.0-19.0-1.2,83116,List2B,black,man,,,,null,,,,,,,,,
null,is being seduced by,,html-keyboard-response,334,2076123,0.0-19.0-2.2,83116,List2B,black,man,,,,null,,,,,,,,,
14290,,,survey-text,335,2090415,0.0-19.0-3.2,83116,List2B,black,man,,,,,"{""Q0"":""mike is being seduced by beth""}","<img src=""stim_listB/seduce4.gif""style=""height:400px;""></stim_listB>",is being seduced by,,,,,,
null,"<div style=""font-size:60px;"">+</div>",,html-keyboard-response,336,2090920,0.0-19.0-0.3,83116,List2B,black,man,,,,null,,,,,,,,,
null,"<img src=""stim_listB/seduce5.gif""style=""height:400px;""></stim_listB>",,html-keyboard-response,337,2092926,0.0-19.0-1.3,83116,List2B,black,man,,,,null,,,,,,,,,
null,is seducing,,html-keyboard-response,338,2094927,0.0-19.0-2.3,83116,List2B,black,man,,,,null,,,,,,,,,
9974.1,,,survey-text,339,2104903,0.0-19.0-3.3,83116,List2B,black,man,,,,,"{""Q0"":""luke is seducing mike""}","<img src=""stim_listB/seduce5.gif""style=""height:400px;""></stim_listB>",is seducing,,,,,,
null,"<div style=""font-size:60px;"">+</div>",,html-keyboard-response,340,2105409,0.0-19.0-0.4,83116,List2B,black,man,,,,null,,,,,,,,,
null,"<img src=""stim_listB/kiss3.gif""style=""height:400px;""></stim_listB>",,html-keyboard-response,341,2107415,0.0-19.0-1.4,83116,List2B,black,man,,,,null,,,,,,,,,
null,is kissing,,html-keyboard-response,342,2109419,0.0-19.0-2.4,83116,List2B,black,man,,,,null,,,,,,,,,
11131.8,,,survey-text,343,2120553,0.0-19.0-3.4,83116,List2B,black,man,,,,,"{""Q0"":""fred is kissing beth""}","<img src=""stim_listB/kiss3.gif""style=""height:400px;""></stim_listB>",is kissing,,,,,,
null,"<div style=""font-size:60px;"">+</div>",,html-keyboard-response,344,2121058,0.0-19.0-0.5,83116,List2B,black,man,,,,null,,,,,,,,,
null,"<img src=""stim_listB/shout2.gif""style=""height:400px;""></stim_listB>",,html-keyboard-response,345,2123064,0.0-19.0-1.5,83116,List2B,black,man,,,,null,,,,,,,,,
null,is being shouted at by,,html-keyboard-response,346,2125068,0.0-19.0-2.5,83116,List2B,black,man,,,,null,,,,,,,,,
15618.6,,,survey-text,347,2140688,0.0-19.0-3.5,83116,List2B,black,man,,,,,"{""Q0"":""jane is being shouted at by dave""}","<img src=""stim_listB/shout2.gif""style=""height:400px;""></stim_listB>",is being shouted at by,,,,,,
null,"<div style=""font-size:60px;"">+</div>",,html-keyboard-response,348,2141194,0.0-19.0-0.6,83116,List2B,black,man,,,,null,,,,,,,,,
null,"<img src=""stim_listB/look8.gif""style=""height:400px;""></stim_listB>",,html-keyboard-response,349,2143195,0.0-19.0-1.6,83116,List2B,black,man,,,,null,,,,,,,,,
null,is being looked at by,,html-keyboard-response,350,2145199,0.0-19.0-2.6,83116,List2B,black,man,,,,null,,,,,,,,,
14037.7,,,survey-text,351,2159239,0.0-19.0-3.6,83116,List2B,black,man,,,,,"{""Q0"":""jane is being looked at by kate""}","<img src=""stim_listB/look8.gif""style=""height:400px;""></stim_listB>",is being looked at by,,,,,,
null,"<div style=""font-size:60px;"">+</div>",,html-keyboard-response,352,2159740,0.0-19.0-0.7,83116,List2B,black,man,,,,null,,,,,,,,,
null,"<img src=""stim_listB/kiss1.gif""style=""height:400px;""></stim_listB>",,html-keyboard-response,353,2161741,0.0-19.0-1.7,83116,List2B,black,man,,,,null,,,,,,,,,
null,is kissing,,html-keyboard-response,354,2163743,0.0-19.0-2.7,83116,List2B,black,man,,,,null,,,,,,,,,
13519.6,,,survey-text,355,2177264,0.0-19.0-3.7,83116,List2B,black,man,,,,,"{""Q0"":""luke is kissing ruth""}","<img src=""stim_listB/kiss1.gif""style=""height:400px;""></stim_listB>",is kissing,,,,,,
null,"<div style=""font-size:60px;"">+</div>",,html-keyboard-response,356,2177766,0.0-19.0-0.8,83116,List2B,black,man,,,,null,,,,,,,,,
null,"<img src=""stim_listB/touch4.gif""style=""height:400px;""></stim_listB>",,html-keyboard-response,357,2179773,0.0-19.0-1.8,83116,List2B,black,man,,,,null,,,,,,,,,
null,is being touched by,,html-keyboard-response,358,2181775,0.0-19.0-2.8,83116,List2B,black,man,,,,null,,,,,,,,,
12390.7,,,survey-text,359,2194167,0.0-19.0-3.8,83116,List2B,black,man,,,,,"{""Q0"":""beth is being touched by fred""}","<img src=""stim_listB/touch4.gif""style=""height:400px;""></stim_listB>",is being touched by,,,,,,
null,"<div style=""font-size:60px;"">+</div>",,html-keyboard-response,360,2194670,0.0-19.0-0.9,83116,List2B,black,man,,,,null,,,,,,,,,
null,"<img src=""stim_listB/hug3.gif""style=""height:400px;""></stim_listB>",,html-keyboard-response,361,2196676,0.0-19.0-1.9,83116,List2B,black,man,,,,null,,,,,,,,,
null,is hugging,,html-keyboard-response,362,2198679,0.0-19.0-2.9,83116,List2B,black,man,,,,null,,,,,,,,,
11112.3,,,survey-text,363,2209793,0.0-19.0-3.9,83116,List2B,black,man,,,,,"{""Q0"":""fred is hugging beth""}","<img src=""stim_listB/hug3.gif""style=""height:400px;""></stim_listB>",is hugging,,,,,,
null,"<div style=""font-size:60px;"">+</div>",,html-keyboard-response,364,2210297,0.0-19.0-0.10,83116,List2B,black,man,,,,null,,,,,,,,,
null,"<img src=""stim_listB/kiss2.gif""style=""height:400px;""></stim_listB>",,html-keyboard-response,365,2212300,0.0-19.0-1.10,83116,List2B,black,man,,,,null,,,,,,,,,
null,is being kissed by,,html-keyboard-response,366,2214305,0.0-19.0-2.10,83116,List2B,black,man,,,,null,,,,,,,,,
10890.1,,,survey-text,367,2225198,0.0-19.0-3.10,83116,List2B,black,man,,,,,"{""Q0"":""jane is being kissed by dave""}","<img src=""stim_listB/kiss2.gif""style=""height:400px;""></stim_listB>",is being kissed by,,,,,,
null,"<div style=""font-size:60px;"">+</div>",,html-keyboard-response,368,2225704,0.0-19.0-0.11,83116,List2B,black,man,,,,null,,,,,,,,,
null,"<img src=""stim_listB/oppose8.gif""style=""height:400px;""></stim_listB>",,html-keyboard-response,369,2227711,0.0-19.0-1.11,83116,List2B,black,man,,,,null,,,,,,,,,
null,is being opposed by,,html-keyboard-response,370,2229711,0.0-19.0-2.11,83116,List2B,black,man,,,,null,,,,,,,,,
13120.9,,,survey-text,371,2242835,0.0-19.0-3.11,83116,List2B,black,man,,,,,"{""Q0"":""beth is being opposed by ruth""}","<img src=""stim_listB/oppose8.gif""style=""height:400px;""></stim_listB>",is being opposed by,,,,,,
null,"<div style=""font-size:60px;"">+</div>",,html-keyboard-response,372,2243339,0.0-19.0-0.12,83116,List2B,black,man,,,,null,,,,,,,,,
null,"<img src=""stim_listB/hug8.gif""style=""height:400px;""></stim_listB>",,html-keyboard-response,373,2245340,0.0-19.0-1.12,83116,List2B,black,man,,,,null,,,,,,,,,
null,is being hugged by,,html-keyboard-response,374,2247342,0.0-19.0-2.12,83116,List2B,black,man,,,,null,,,,,,,,,
13267.7,,,survey-text,375,2260612,0.0-19.0-3.12,83116,List2B,black,man,,,,,"{""Q0"":""kate is being hugged by jane""}","<img src=""stim_listB/hug8.gif""style=""height:400px;""></stim_listB>",is being hugged by,,,,,,
null,"<div style=""font-size:60px;"">+</div>",,html-keyboard-response,376,2261116,0.0-19.0-0.13,83116,List2B,black,man,,,,null,,,,,,,,,
null,"<img src=""stim_listB/shout8.gif""style=""height:400px;""></stim_listB>",,html-keyboard-response,377,2263119,0.0-19.0-1.13,83116,List2B,black,man,,,,null,,,,,,,,,
null,is being shouted at by,,html-keyboard-response,378,2265122,0.0-19.0-2.13,83116,List2B,black,man,,,,null,,,,,,,,,
12489.5,,,survey-text,379,2277614,0.0-19.0-3.13,83116,List2B,black,man,,,,,"{""Q0"":""jane is being shouted at by kate""}","<img src=""stim_listB/shout8.gif""style=""height:400px;""></stim_listB>",is being shouted at by,,,,,,
null,"<div style=""font-size:60px;"">+</div>",,html-keyboard-response,380,2278115,0.0-19.0-0.14,83116,List2B,black,man,,,,null,,,,,,,,,
null,"<img src=""stim_listB/touch8.gif""style=""height:400px;""></stim_listB>",,html-keyboard-response,381,2280120,0.0-19.0-1.14,83116,List2B,black,man,,,,null,,,,,,,,,
null,is being touched by,,html-keyboard-response,382,2282125,0.0-19.0-2.14,83116,List2B,black,man,,,,null,,,,,,,,,
23090.7,,,survey-text,383,2305218,0.0-19.0-3.14,83116,List2B,black,man,,,,,"{""Q0"":""beth is being touched by ruth""}","<img src=""stim_listB/touch8.gif""style=""height:400px;""></stim_listB>",is being touched by,,,,,,
null,"<div style=""font-size:60px;"">+</div>",,html-keyboard-response,384,2305720,0.0-19.0-0.15,83116,List2B,black,man,,,,null,,,,,,,,,
null,"<img src=""stim_listB/greet5.gif""style=""height:400px;""></stim_listB>",,html-keyboard-response,385,2307726,0.0-19.0-1.15,83116,List2B,black,man,,,,null,,,,,,,,,
null,is greeting,,html-keyboard-response,386,2309728,0.0-19.0-2.15,83116,List2B,black,man,,,,null,,,,,,,,,
14999.5,,,survey-text,387,2324730,0.0-19.0-3.15,83116,List2B,black,man,,,,,"{""Q0"":""dave is greeting fred""}","<img src=""stim_listB/greet5.gif""style=""height:400px;""></stim_listB>",is greeting,,,,,,
null,"<div style=""font-size:60px;"">+</div>",,html-keyboard-response,388,2325233,0.0-19.0-0.16,83116,List2B,black,man,,,,null,,,,,,,,,
null,"<img src=""stim_listB/oppose7.gif""style=""height:400px;""></stim_listB>",,html-keyboard-response,389,2327240,0.0-19.0-1.16,83116,List2B,black,man,,,,null,,,,,,,,,
null,is opposing,,html-keyboard-response,390,2329244,0.0-19.0-2.16,83116,List2B,black,man,,,,null,,,,,,,,,
16151.7,,,survey-text,391,2345399,0.0-19.0-3.16,83116,List2B,black,man,,,,,"{""Q0"":""jane is opposing kate""}","<img src=""stim_listB/oppose7.gif""style=""height:400px;""></stim_listB>",is opposing,,,,,,
null,"<div style=""font-size:60px;"">+</div>",,html-keyboard-response,392,2345905,0.0-19.0-0.17,83116,List2B,black,man,,,,null,,,,,,,,,
null,"<img src=""stim_listB/seduce1.gif""style=""height:400px;""></stim_listB>",,html-keyboard-response,393,2347909,0.0-19.0-1.17,83116,List2B,black,man,,,,null,,,,,,,,,
null,is seducing,,html-keyboard-response,394,2349916,0.0-19.0-2.17,83116,List2B,black,man,,,,null,,,,,,,,,
9891.8,,,survey-text,395,2359810,0.0-19.0-3.17,83116,List2B,black,man,,,,,"{""Q0"":""jane is seducing luke""}","<img src=""stim_listB/seduce1.gif""style=""height:400px;""></stim_listB>",is seducing,,,,,,
null,"<div style=""font-size:60px;"">+</div>",,html-keyboard-response,396,2360314,0.0-19.0-0.18,83116,List2B,black,man,,,,null,,,,,,,,,
null,"<img src=""stim_listB/shout5.gif""style=""height:400px;""></stim_listB>",,html-keyboard-response,397,2362317,0.0-19.0-1.18,83116,List2B,black,man,,,,null,,,,,,,,,
null,is shouting at,,html-keyboard-response,398,2364320,0.0-19.0-2.18,83116,List2B,black,man,,,,null,,,,,,,,,
10703.4,,,survey-text,399,2375026,0.0-19.0-3.18,83116,List2B,black,man,,,,,"{""Q0"":""luke is shouting at fred""}","<img src=""stim_listB/shout5.gif""style=""height:400px;""></stim_listB>",is shouting at,,,,,,
null,"<div style=""font-size:60px;"">+</div>",,html-keyboard-response,400,2375527,0.0-19.0-0.19,83116,List2B,black,man,,,,null,,,,,,,,,
null,"<img src=""stim_listB/look3.gif""style=""height:400px;""></stim_listB>",,html-keyboard-response,401,2377531,0.0-19.0-1.19,83116,List2B,black,man,,,,null,,,,,,,,,
null,is looking at,,html-keyboard-response,402,2379533,0.0-19.0-2.19,83116,List2B,black,man,,,,null,,,,,,,,,
10987.6,,,survey-text,403,2390523,0.0-19.0-3.19,83116,List2B,black,man,,,,,"{""Q0"":""fred is looking at beth""}","<img src=""stim_listB/look3.gif""style=""height:400px;""></stim_listB>",is looking at,,,,,,
4695.3,<p>Thank you for completing that task.</p><p>The final part of this session is a questionnaire that will take about 4 minutes.</p><p>Press Continue.</p>,0,html-button-response,404,2395220,0.0-20.0,83116,List2B,black,man,,,,,,,,,,,,,
72651.4,,,survey-text,405,2468879,0.0-21.0,83116,List2B,black,man,,,,,"{""Q0"":""32"",""Q1"":""English"",""Q2"":""English"",""Q3"":""United State of America"",""Q4"":""United State of America"",""Q5"":""Black American"",""Q6"":""Male""}",,,demographics,,,,,
3981.2,<p>Have you lived in the USA for the last 5 years or more?</p>,0,html-button-response,406,2472862,0.0-22.0,83116,List2B,black,man,,,,,,,,fiveyears,,,,,
4018.4,<p>Move the slider to show the extent to which you agree with the following statements.</p>,0,html-button-response,407,2477886,0.0-23.0,83116,List2B,black,man,,,,,,,,,,,,,
7348.4,,,html-slider-response,408,2486273,0.0-24.0-0.0-0.0,83116,List2B,black,man,,,,,,,,survey_race,100,,,I often think about the fact that I am my age.,filler
4165.9,,,html-slider-response,409,2490441,0.0-24.0-0.0-0.1,83116,List2B,black,man,,,,,,,,survey_race,100,,,I am glad to be the age I am.,filler
4033,,,html-slider-response,410,2494475,0.0-24.0-0.0-0.2,83116,List2B,black,man,,,,,,,,survey_race,100,,,People of my race have a lot in common with each other.,common
6071.6,,,html-slider-response,411,2500549,0.0-24.0-0.0-0.3,83116,List2B,black,man,,,,,,,,survey_race,100,,,"The older I get, the wiser I feel.",filler
4339.4,,,html-slider-response,412,2504890,0.0-24.0-0.0-0.4,83116,List2B,black,man,,,,,,,,survey_race,100,,,People of my race are very similar to each other.,verysimilar
4553.1,,,html-slider-response,413,2509445,0.0-24.0-0.0-0.5,83116,List2B,black,man,,,,,,,,survey_race,100,,,I feel solidarity with people the same age as me.,filler
8211.2,,,html-slider-response,414,2517658,0.0-24.0-0.0-0.6,83116,List2B,black,man,,,,,,,,survey_race,83,,,I feel committed to my race.,committed
4950.3,,,html-slider-response,415,2522611,0.0-24.0-0.0-0.7,83116,List2B,black,man,,,,,,,,survey_race,79,,,I am similar to the average person of my race.,similar
9189.2,,,html-slider-response,416,2531802,0.0-24.0-0.0-0.8,83116,List2B,black,man,,,,,,,,survey_race,89,,,I consider myself an extrovert.,filler
5103.3,,,html-slider-response,417,2536908,0.0-24.0-0.0-0.9,83116,List2B,black,man,,,,,,,,survey_race,86,,,I have a lot in common with the average person of my race.,average
3840.5,,,html-slider-response,418,2540750,0.0-24.0-0.0-0.10,83116,List2B,black,man,,,,,,,,survey_race,71,,,I enjoy being in large groups.,filler
13852.6,,,html-slider-response,419,2554604,0.0-24.0-0.0-0.11,83116,List2B,black,man,,,,,,,,survey_race,76,,,People my age have a lot in common with each other.,filler
7151.2,,,html-slider-response,420,2561757,0.0-24.0-0.0-0.12,83116,List2B,black,man,,,,,,,,survey_race,85,,,The fact that I am my race is an important part of my identity.,identity
4187.2,,,html-slider-response,421,2565945,0.0-24.0-0.0-0.13,83116,List2B,black,man,,,,,,,,survey_race,83,,,I feel solidarity with my race.,solidarity
3901.4,,,html-slider-response,422,2569848,0.0-24.0-0.0-0.14,83116,List2B,black,man,,,,,,,,survey_race,86,,,I feel a bond with people the same age as me.,filler
5725.8,,,html-slider-response,423,2575575,0.0-24.0-0.0-0.15,83116,List2B,black,man,,,,,,,,survey_race,82,,,I have a lot in common with people of a similar age to me.,filler
4604,,,html-slider-response,424,2580181,0.0-24.0-0.0-0.16,83116,List2B,black,man,,,,,,,,survey_race,78,,,It is pleasant to be my race.,pleasant
6734.1,,,html-slider-response,425,2586916,0.0-24.0-0.0-0.17,83116,List2B,black,man,,,,,,,,survey_race,0,,,I consider myself an introvert.,filler
4777.4,,,html-slider-response,426,2591696,0.0-24.0-0.0-0.18,83116,List2B,black,man,,,,,,,,survey_race,78,,,Being my race gives me a good feeling.,feeling
4125.5,,,html-slider-response,427,2595823,0.0-24.0-0.0-0.19,83116,List2B,black,man,,,,,,,,survey_race,70,,,Getting older does not worry me.,filler
6957.9,,,html-slider-response,428,2602782,0.0-24.0-0.0-0.20,83116,List2B,black,man,,,,,,,,survey_race,68,,,I often think about the fact that I am my race.,often
4594.1,,,html-slider-response,429,2607378,0.0-24.0-0.0-0.21,83116,List2B,black,man,,,,,,,,survey_race,78,,,I am glad to be my age.,filler
3391.9,,,html-slider-response,430,2610771,0.0-24.0-0.0-0.22,83116,List2B,black,man,,,,,,,,survey_race,74,,,I feel a bond with my race.,bond
4655,,,html-slider-response,431,2615428,0.0-24.0-0.0-0.23,83116,List2B,black,man,,,,,,,,survey_race,80,,,Being my age gives me a good feeling.,filler
11187,,,html-slider-response,432,2626617,0.0-24.0-0.0-0.24,83116,List2B,black,man,,,,,,,,survey_race,0,,,My age is not an important part of who I am.,filler
5836.5,,,html-slider-response,433,2632456,0.0-24.0-0.0-0.25,83116,List2B,black,man,,,,,,,,survey_race,78,,,I think that my race has a lot to be proud of.,proud
4502.4,,,html-slider-response,434,2636960,0.0-24.0-0.0-0.26,83116,List2B,black,man,,,,,,,,survey_race,79,,,I am glad to be my race.,glad
5490.8,,,html-slider-response,435,2642452,0.0-24.0-0.0-0.27,83116,List2B,black,man,,,,,,,,survey_race,78,,,Being my race is an important part of how I see myself.,important
7804.2,,,html-slider-response,436,2650259,0.0-24.0-1.0-0.0,83116,List2B,black,man,,,,,,,,survey_gender,78,,,The fact that I am my gender is an important part of my identity.,identity
8169.9,,,html-slider-response,437,2658431,0.0-24.0-1.0-0.1,83116,List2B,black,man,,,,,,,,survey_gender,8,,,Family is not more important to me than friendship.,filler
5113.6,,,html-slider-response,438,2663546,0.0-24.0-1.0-0.2,83116,List2B,black,man,,,,,,,,survey_gender,77,,,Being my gender is an important part of how I see myself.,important
4767.2,,,html-slider-response,439,2668315,0.0-24.0-1.0-0.3,83116,List2B,black,man,,,,,,,,survey_gender,66,,,Most of the friends in my life are very similar to me.,filler
3809.4,,,html-slider-response,440,2672126,0.0-24.0-1.0-0.4,83116,List2B,black,man,,,,,,,,survey_gender,75,,,I am glad to have the friends that I have.,filler
4644.9,,,html-slider-response,441,2676773,0.0-24.0-1.0-0.5,83116,List2B,black,man,,,,,,,,survey_gender,76,,,I have a lot in common with my friends.,filler
4298.9,,,html-slider-response,442,2681074,0.0-24.0-1.0-0.6,83116,List2B,black,man,,,,,,,,survey_gender,80,,,People of my gender have a lot in common with each other.,common
6968.4,,,html-slider-response,443,2688044,0.0-24.0-1.0-0.7,83116,List2B,black,man,,,,,,,,survey_gender,97,,,I feel solidarity with my friends.,filler
10290.1,,,html-slider-response,444,2698336,0.0-24.0-1.0-0.8,83116,List2B,black,man,,,,,,,,survey_gender,85,,,My friends have a lot in common with each other.,filler
8353,,,html-slider-response,445,2706691,0.0-24.0-1.0-0.9,83116,List2B,black,man,,,,,,,,survey_gender,65,,,I often think about the fact that I am my gender.,often
5032.2,,,html-slider-response,446,2711726,0.0-24.0-1.0-0.10,83116,List2B,black,man,,,,,,,,survey_gender,83,,,I consider myself a highly empathetic person.,filler
5734.7,,,html-slider-response,447,2717462,0.0-24.0-1.0-0.11,83116,List2B,black,man,,,,,,,,survey_gender,87,,,Being around my friends gives me a good feeling.,filler
4685.8,,,html-slider-response,448,2722150,0.0-24.0-1.0-0.12,83116,List2B,black,man,,,,,,,,survey_gender,86,,,I think that my gender has a lot to be proud of.,proud
4339.6,,,html-slider-response,449,2726492,0.0-24.0-1.0-0.13,83116,List2B,black,man,,,,,,,,survey_gender,93,,,People of my gender are very similar to each other.,verysimilar
5164.5,,,html-slider-response,450,2731658,0.0-24.0-1.0-0.14,83116,List2B,black,man,,,,,,,,survey_gender,82,,,I am glad to be my gender.,glad
4450.7,,,html-slider-response,451,2736111,0.0-24.0-1.0-0.15,83116,List2B,black,man,,,,,,,,survey_gender,83,,,I feel committed to my gender.,committed
4654.7,,,html-slider-response,452,2740768,0.0-24.0-1.0-0.16,83116,List2B,black,man,,,,,,,,survey_gender,82,,,I would say I am an animal person.,filler
10707.6,,,html-slider-response,453,2751477,0.0-24.0-1.0-0.17,83116,List2B,black,man,,,,,,,,survey_gender,47,,,Routine is not important to me.,filler
8120,,,html-slider-response,454,2759599,0.0-24.0-1.0-0.18,83116,List2B,black,man,,,,,,,,survey_gender,83,,,I am similar to the average person of my gender.,similar
4124.5,,,html-slider-response,455,2763725,0.0-24.0-1.0-0.19,83116,List2B,black,man,,,,,,,,survey_gender,91,,,Being my gender gives me a good feeling.,feeling
37948.1,,,html-slider-response,456,2801675,0.0-24.0-1.0-0.20,83116,List2B,black,man,,,,,,,,survey_gender,85,,,It is not always easy for people to know what I am thinking.,filler
5113.7,,,html-slider-response,457,2806791,0.0-24.0-1.0-0.21,83116,List2B,black,man,,,,,,,,survey_gender,76,,,I feel solidarity with my gender.,solidarity
5470.7,,,html-slider-response,458,2812264,0.0-24.0-1.0-0.22,83116,List2B,black,man,,,,,,,,survey_gender,87,,,I feel a bond with my gender.,bond
6540.9,,,html-slider-response,459,2818806,0.0-24.0-1.0-0.23,83116,List2B,black,man,,,,,,,,survey_gender,89,,,I feel a bond with my friends.,filler
4869.3,,,html-slider-response,460,2823677,0.0-24.0-1.0-0.24,83116,List2B,black,man,,,,,,,,survey_gender,81,,,I often think about my actions.,filler
3778.2,,,html-slider-response,461,2827458,0.0-24.0-1.0-0.25,83116,List2B,black,man,,,,,,,,survey_gender,82,,,My friends understand me.,filler
7886,,,html-slider-response,462,2835346,0.0-24.0-1.0-0.26,83116,List2B,black,man,,,,,,,,survey_gender,85,,,I have a lot in common with the average person of my gender.,average
4370.7,,,html-slider-response,463,2839718,0.0-24.0-1.0-0.27,83116,List2B,black,man,,,,,,,,survey_gender,83,,,It is pleasant to be my gender.,pleasant
16954,,,survey-text,464,2856677,0.0-25.0,83116,List2B,black,man,,,,,"{""Q0"":""ccc""}",,,worker_id,,,,,
15942.3,,,external-html,465,2874587,0.0-26.0,83116,List2B,black,man,debrief.html,,,,,,,,,,,,
