"rt","stimulus","button_pressed","trial_type","trial_index","time_elapsed","internal_node_id","subject","list","ppt_race","ppt_gender","url","first_guess","correct","key_press","responses","image_type","phrase_type","test_part","response","stimulus1","stimulus2","question_type","survey_item"
"4900.799999952316","Welcome to the experiment. Press Continue to begin.","0","html-button-response","0","4905","0.0-0.0","83843","List2A","white","woman","","","","","","","","","","","","",""
"39720.799999952316","","","external-html","1","45884","0.0-1.0","83843","List2A","white","woman","consent.html","","","","","","","","","","","",""
"49584.89999985695","<p>On the next page, you will see portraits of 8 people and their names.</p><p>Your first task is to take a few minutes to memorise the names of these people.</p><p>You will have to recall their names during the rest of the experiment, so it is</p><p>essential that you try to memorise these people and their names as best as you can.</p><br><p><strong>You will then be tested on your memory of these names and portraits.</strong></p><br><p>The experiment will start after you have completed this memory test.</p><br><p>Ready?</p>","0","html-button-response","2","95471","0.0-2.0","83843","List2A","white","woman","","","","","","","","","","","","",""
"70830.60000014305","<img src='img/portrait_matrix_list2.jpg' style='width:900px;height:500px;''></img><p>If you have memorised all the portraits and names and are ready to start, press Continue.</p><p><strong>Please note: Your memory of these faces will be tested 4 times during this experiment.</strong></p>","0","html-button-response","3","167307","0.0-3.0-0.0","83843","List2A","white","woman","","","","","","","","","","","","",""
"2990.9000000953674","<img src=""portrait/BM1.jpg""style=""height:400px;""></img>","4","html-button-response","4","171306","0.0-3.0-1.0","83843","List2A","white","woman","","true","4","","","","","","","","","",""
"null","CORRECT","","html-keyboard-response","5","172825","0.0-3.0-2.0-0.0","83843","List2A","white","woman","","","","null","","","","","","","","",""
"3362.2000000476837","<img src=""portrait/WM1.jpg""style=""height:400px;""></img>","6","html-button-response","6","176189","0.0-3.0-4.0","83843","List2A","white","woman","","true","6","","","","","","","","","",""
"null","CORRECT","","html-keyboard-response","7","177711","0.0-3.0-5.0-0.0","83843","List2A","white","woman","","","","null","","","","","","","","",""
"5296.099999904633","<img src=""portrait/WW1.jpg""style=""height:400px;""></img>","1","html-button-response","8","183009","0.0-3.0-7.0","83843","List2A","white","woman","","true","1","","","","","","","","","",""
"null","CORRECT","","html-keyboard-response","9","184524","0.0-3.0-8.0-0.0","83843","List2A","white","woman","","","","null","","","","","","","","",""
"5586.699999809265","<img src=""portrait/BW1.jpg""style=""height:400px;""></img>","0","html-button-response","10","190113","0.0-3.0-10.0","83843","List2A","white","woman","","true","0","","","","","","","","","",""
"null","CORRECT","","html-keyboard-response","11","191625","0.0-3.0-11.0-0.0","83843","List2A","white","woman","","","","null","","","","","","","","",""
"2661.699999809265","<img src=""portrait/BM2.jpg""style=""height:400px;""></img>","5","html-button-response","12","194289","0.0-3.0-13.0","83843","List2A","white","woman","","true","5","","","","","","","","","",""
"null","CORRECT","","html-keyboard-response","13","195803","0.0-3.0-14.0-0.0","83843","List2A","white","woman","","","","null","","","","","","","","",""
"3710.7000000476837","<img src=""portrait/WM2.jpg""style=""height:400px;""></img>","7","html-button-response","14","199516","0.0-3.0-16.0","83843","List2A","white","woman","","true","7","","","","","","","","","",""
"null","CORRECT","","html-keyboard-response","15","201027","0.0-3.0-17.0-0.0","83843","List2A","white","woman","","","","null","","","","","","","","",""
"4579.099999904633","<img src=""portrait/BW2.jpg""style=""height:400px;""></img>","2","html-button-response","16","205608","0.0-3.0-19.0","83843","List2A","white","woman","","true","2","","","","","","","","","",""
"null","CORRECT","","html-keyboard-response","17","207122","0.0-3.0-20.0-0.0","83843","List2A","white","woman","","","","null","","","","","","","","",""
"1962.3000001907349","<img src=""portrait/WW2.jpg""style=""height:400px;""></img>","2","html-button-response","18","209086","0.0-3.0-22.0","83843","List2A","white","woman","","true","3","","","","","","","","","",""
"2815.5","<img src=""portrait/WW2.jpg""style=""height:400px;""></img>","3","html-button-response","19","212907","0.0-3.0-24.0-0.0","83843","List2A","white","woman","","false","3","","","","","","","","","",""
"null","CORRECT","","html-keyboard-response","20","214427","0.0-3.0-24.0-1.0-0.0","83843","List2A","white","woman","","","","null","","","","","","","","",""
"2023.5","<p>You got 7 out of 8 right first time. Press Continue.</p>","0","html-button-response","21","216453","0.0-3.0-25.0","83843","List2A","white","woman","","","","","","","","","","","","",""
"2579.0999999046326","As you did not score 100%, the memory game will repeat. Press Continue.","0","html-button-response","22","220048","0.0-3.0-26.0-0.0","83843","List2A","white","woman","","","","","","","","","","","","",""
"2174.4000000953674","<img src='img/portrait_matrix_list2.jpg' style='width:900px;height:500px;''></img><p>If you have memorised all the portraits and names and are ready to start, press Continue.</p><p><strong>Please note: Your memory of these faces will be tested 4 times during this experiment.</strong></p>","0","html-button-response","23","223241","0.0-3.1-0.1","83843","List2A","white","woman","","","","","","","","","","","","",""
"1905.5999999046326","<img src=""portrait/BM1.jpg""style=""height:400px;""></img>","4","html-button-response","24","226150","0.0-3.1-1.1","83843","List2A","white","woman","","true","4","","","","","","","","","",""
"null","CORRECT","","html-keyboard-response","25","227672","0.0-3.1-2.1-0.1","83843","List2A","white","woman","","","","null","","","","","","","","",""
"4006.7000000476837","<img src=""portrait/WM1.jpg""style=""height:400px;""></img>","6","html-button-response","26","231681","0.0-3.1-4.1","83843","List2A","white","woman","","true","6","","","","","","","","","",""
"null","CORRECT","","html-keyboard-response","27","233193","0.0-3.1-5.1-0.1","83843","List2A","white","woman","","","","null","","","","","","","","",""
"3645.7000000476837","<img src=""portrait/WW1.jpg""style=""height:400px;""></img>","1","html-button-response","28","236840","0.0-3.1-7.1","83843","List2A","white","woman","","true","1","","","","","","","","","",""
"null","CORRECT","","html-keyboard-response","29","238354","0.0-3.1-8.1-0.1","83843","List2A","white","woman","","","","null","","","","","","","","",""
"6353.400000095367","<img src=""portrait/BW1.jpg""style=""height:400px;""></img>","0","html-button-response","30","244710","0.0-3.1-10.1","83843","List2A","white","woman","","true","0","","","","","","","","","",""
"null","CORRECT","","html-keyboard-response","31","246231","0.0-3.1-11.1-0.1","83843","List2A","white","woman","","","","null","","","","","","","","",""
"4548.400000095367","<img src=""portrait/BM2.jpg""style=""height:400px;""></img>","5","html-button-response","32","250781","0.0-3.1-13.1","83843","List2A","white","woman","","true","5","","","","","","","","","",""
"null","CORRECT","","html-keyboard-response","33","252306","0.0-3.1-14.1-0.1","83843","List2A","white","woman","","","","null","","","","","","","","",""
"3249.100000143051","<img src=""portrait/WM2.jpg""style=""height:400px;""></img>","7","html-button-response","34","255557","0.0-3.1-16.1","83843","List2A","white","woman","","true","7","","","","","","","","","",""
"null","CORRECT","","html-keyboard-response","35","257073","0.0-3.1-17.1-0.1","83843","List2A","white","woman","","","","null","","","","","","","","",""
"2493","<img src=""portrait/BW2.jpg""style=""height:400px;""></img>","2","html-button-response","36","259568","0.0-3.1-19.1","83843","List2A","white","woman","","true","2","","","","","","","","","",""
"null","CORRECT","","html-keyboard-response","37","261077","0.0-3.1-20.1-0.1","83843","List2A","white","woman","","","","null","","","","","","","","",""
"2016.1000001430511","<img src=""portrait/WW2.jpg""style=""height:400px;""></img>","3","html-button-response","38","263095","0.0-3.1-22.1","83843","List2A","white","woman","","true","3","","","","","","","","","",""
"null","CORRECT","","html-keyboard-response","39","264611","0.0-3.1-23.1-0.1","83843","List2A","white","woman","","","","null","","","","","","","","",""
"2921.399999856949","<p>You got 8 out of 8 right first time. Press Continue.</p>","0","html-button-response","40","267535","0.0-3.1-25.1","83843","List2A","white","woman","","","","","","","","","","","","",""
"48461.40000009537","<p>In this experiment, you will view photographs of the people from the memory game interacting.</p><p>By using the <strong>exact</strong> phrase given <i>after</i> the photograph appears and recalling the correct names of the people in the photographs, form a sentence describing the interaction. You do not need to capitalise names.</p><p>Type your answer in the space provided. Please complete every sentence before moving onto the next trial.</p><p>You will only have a few seconds to memorise each given photograph and phrase before you can respond, so try your best to focus.</p><p>An example is given below. Press 'Continue' when you are ready.</p><img src='img/speaking_example.jpg' style='width:800px;height:460px;''></img>","0","html-button-response","41","317002","0.0-4.0","83843","List2A","white","woman","","","","","","","","","","","","",""
"2953","<p>Before the experiment starts, you will watch two example trials. Press 'Continue'.</p>","0","html-button-response","42","320971","0.0-5.0","83843","List2A","white","woman","","","","","","","","","","","","",""
"null","<img src='img/play_eg.gif' style='height:400px;''></img>","","html-keyboard-response","43","323987","0.0-6.0","83843","List2A","white","woman","","","","null","","","","","","","","",""
"null","<p>is playing with</p>","","html-keyboard-response","44","325989","0.0-7.0","83843","List2A","white","woman","","","","null","","","","","","","","",""
"2762.7000000476837","<p><b>Answer:</b> jane is playing with ruth</p>","0","html-button-response","45","328753","0.0-8.0","83843","List2A","white","woman","","","","","","","","","","","","",""
"null","<img src='img/dance_eg.gif' style='height:400px;''></img>","","html-keyboard-response","46","331773","0.0-9.0","83843","List2A","white","woman","","","","null","","","","","","","","",""
"null","<p>is being entertained by</p>","","html-keyboard-response","47","333774","0.0-10.0","83843","List2A","white","woman","","","","null","","","","","","","","",""
"1640.4000000953674","<p><b>Answer:</b> fred is being entertained by mike</p>","0","html-button-response","48","335416","0.0-11.0","83843","List2A","white","woman","","","","","","","","","","","","",""
"3719","<p>Ready to start the experiment?</p><br><p><strong>Remember to describe the picture using a full sentence,</strong></p><p><strong>that combines the names of the people with the <i>exact</i> phrase given.</strong></p><p><strong>To receive full payment you must do this correctly.</strong></p><p><strong> You do not need to capitalise names or use punctuation.</strong></p><br><p>Press 'Continue' to begin.</p>","0","html-button-response","49","340143","0.0-12.0","83843","List2A","white","woman","","","","","","","","","","","","",""
"null","<div style=""font-size:60px;"">+</div>","","html-keyboard-response","50","341653","0.0-13.0-0.0","83843","List2A","white","woman","","","","null","","","","","","","","",""
"null","<img src=""stim_listA/touch1.gif""style=""height:400px;""></stim_listA>","","html-keyboard-response","51","343668","0.0-13.0-1.0","83843","List2A","white","woman","","","","null","","","","","","","","",""
"null","is touching","","html-keyboard-response","52","345674","0.0-13.0-2.0","83843","List2A","white","woman","","","","null","","","","","","","","",""
"4870.799999952316","","","survey-text","53","350549","0.0-13.0-3.0","83843","List2A","white","woman","","","","","{""Q0"":""kate is touching dave""}","<img src=""stim_listA/touch1.gif""style=""height:400px;""></stim_listA>","is touching","","","","","",""
"null","<div style=""font-size:60px;"">+</div>","","html-keyboard-response","54","351061","0.0-13.0-0.1","83843","List2A","white","woman","","","","null","","","","","","","","",""
"null","<img src=""stim_listA/copy2.gif""style=""height:400px;""></stim_listA>","","html-keyboard-response","55","353068","0.0-13.0-1.1","83843","List2A","white","woman","","","","null","","","","","","","","",""
"null","is being copied by","","html-keyboard-response","56","355084","0.0-13.0-2.1","83843","List2A","white","woman","","","","null","","","","","","","","",""
"8305.899999856949","","","survey-text","57","363393","0.0-13.0-3.1","83843","List2A","white","woman","","","","","{""Q0"":""kate is being copied by luke""}","<img src=""stim_listA/copy2.gif""style=""height:400px;""></stim_listA>","is being copied by","","","","","",""
"null","<div style=""font-size:60px;"">+</div>","","html-keyboard-response","58","363895","0.0-13.0-0.2","83843","List2A","white","woman","","","","null","","","","","","","","",""
"null","<img src=""stim_listA/kiss2.gif""style=""height:400px;""></stim_listA>","","html-keyboard-response","59","365910","0.0-13.0-1.2","83843","List2A","white","woman","","","","null","","","","","","","","",""
"null","is being kissed by","","html-keyboard-response","60","367911","0.0-13.0-2.2","83843","List2A","white","woman","","","","null","","","","","","","","",""
"8544","","","survey-text","61","376460","0.0-13.0-3.2","83843","List2A","white","woman","","","","","{""Q0"":""dave is being kissed by jane""}","<img src=""stim_listA/kiss2.gif""style=""height:400px;""></stim_listA>","is being kissed by","","","","","",""
"null","<div style=""font-size:60px;"">+</div>","","html-keyboard-response","62","376965","0.0-13.0-0.3","83843","List2A","white","woman","","","","null","","","","","","","","",""
"null","<img src=""stim_listA/seduce1.gif""style=""height:400px;""></stim_listA>","","html-keyboard-response","63","378977","0.0-13.0-1.3","83843","List2A","white","woman","","","","null","","","","","","","","",""
"null","is seducing","","html-keyboard-response","64","380993","0.0-13.0-2.3","83843","List2A","white","woman","","","","null","","","","","","","","",""
"6530.099999904633","","","survey-text","65","387526","0.0-13.0-3.3","83843","List2A","white","woman","","","","","{""Q0"":""luke is seducing jane""}","<img src=""stim_listA/seduce1.gif""style=""height:400px;""></stim_listA>","is seducing","","","","","",""
"null","<div style=""font-size:60px;"">+</div>","","html-keyboard-response","66","388042","0.0-13.0-0.4","83843","List2A","white","woman","","","","null","","","","","","","","",""
"null","<img src=""stim_listA/copy7.gif""style=""height:400px;""></stim_listA>","","html-keyboard-response","67","390054","0.0-13.0-1.4","83843","List2A","white","woman","","","","null","","","","","","","","",""
"null","is copying","","html-keyboard-response","68","392062","0.0-13.0-2.4","83843","List2A","white","woman","","","","null","","","","","","","","",""
"7616.099999904633","","","survey-text","69","399681","0.0-13.0-3.4","83843","List2A","white","woman","","","","","{""Q0"":""jane is copying beth""}","<img src=""stim_listA/copy7.gif""style=""height:400px;""></stim_listA>","is copying","","","","","",""
"null","<div style=""font-size:60px;"">+</div>","","html-keyboard-response","70","400193","0.0-13.0-0.5","83843","List2A","white","woman","","","","null","","","","","","","","",""
"null","<img src=""stim_listA/hug1.gif""style=""height:400px;""></stim_listA>","","html-keyboard-response","71","402210","0.0-13.0-1.5","83843","List2A","white","woman","","","","null","","","","","","","","",""
"null","is hugging","","html-keyboard-response","72","404222","0.0-13.0-2.5","83843","List2A","white","woman","","","","null","","","","","","","","",""
"8504.700000047684","","","survey-text","73","412729","0.0-13.0-3.5","83843","List2A","white","woman","","","","","{""Q0"":""luke is hugging ruth""}","<img src=""stim_listA/hug1.gif""style=""height:400px;""></stim_listA>","is hugging","","","","","",""
"null","<div style=""font-size:60px;"">+</div>","","html-keyboard-response","74","413233","0.0-13.0-0.6","83843","List2A","white","woman","","","","null","","","","","","","","",""
"null","<img src=""stim_listA/touch4.gif""style=""height:400px;""></stim_listA>","","html-keyboard-response","75","415243","0.0-13.0-1.6","83843","List2A","white","woman","","","","null","","","","","","","","",""
"null","is being touched by","","html-keyboard-response","76","417254","0.0-13.0-2.6","83843","List2A","white","woman","","","","null","","","","","","","","",""
"7512","","","survey-text","77","424768","0.0-13.0-3.6","83843","List2A","white","woman","","","","","{""Q0"":""beth is being touched by fred""}","<img src=""stim_listA/touch4.gif""style=""height:400px;""></stim_listA>","is being touched by","","","","","",""
"null","<div style=""font-size:60px;"">+</div>","","html-keyboard-response","78","425282","0.0-13.0-0.7","83843","List2A","white","woman","","","","null","","","","","","","","",""
"null","<img src=""stim_listA/seduce6.gif""style=""height:400px;""></stim_listA>","","html-keyboard-response","79","427290","0.0-13.0-1.7","83843","List2A","white","woman","","","","null","","","","","","","","",""
"null","is being seduced by","","html-keyboard-response","80","429307","0.0-13.0-2.7","83843","List2A","white","woman","","","","null","","","","","","","","",""
"9579.299999952316","","","survey-text","81","438889","0.0-13.0-3.7","83843","List2A","white","woman","","","","","{""Q0"":""fred is being seduced by dave""}","<img src=""stim_listA/seduce6.gif""style=""height:400px;""></stim_listA>","is being seduced by","","","","","",""
"null","<div style=""font-size:60px;"">+</div>","","html-keyboard-response","82","439392","0.0-13.0-0.8","83843","List2A","white","woman","","","","null","","","","","","","","",""
"null","<img src=""stim_listA/seduce8.gif""style=""height:400px;""></stim_listA>","","html-keyboard-response","83","441409","0.0-13.0-1.8","83843","List2A","white","woman","","","","null","","","","","","","","",""
"null","is being seduced by","","html-keyboard-response","84","443411","0.0-13.0-2.8","83843","List2A","white","woman","","","","null","","","","","","","","",""
"9082.799999952316","","","survey-text","85","452497","0.0-13.0-3.8","83843","List2A","white","woman","","","","","{""Q0"":""beth is being seduced by jane""}","<img src=""stim_listA/seduce8.gif""style=""height:400px;""></stim_listA>","is being seduced by","","","","","",""
"null","<div style=""font-size:60px;"">+</div>","","html-keyboard-response","86","453001","0.0-13.0-0.9","83843","List2A","white","woman","","","","null","","","","","","","","",""
"null","<img src=""stim_listA/seduce7.gif""style=""height:400px;""></stim_listA>","","html-keyboard-response","87","455018","0.0-13.0-1.9","83843","List2A","white","woman","","","","null","","","","","","","","",""
"null","is seducing","","html-keyboard-response","88","457035","0.0-13.0-2.9","83843","List2A","white","woman","","","","null","","","","","","","","",""
"7062.200000047684","","","survey-text","89","464100","0.0-13.0-3.9","83843","List2A","white","woman","","","","","{""Q0"":""ruth is seducing kate""}","<img src=""stim_listA/seduce7.gif""style=""height:400px;""></stim_listA>","is seducing","","","","","",""
"null","<div style=""font-size:60px;"">+</div>","","html-keyboard-response","90","464615","0.0-13.0-0.10","83843","List2A","white","woman","","","","null","","","","","","","","",""
"null","<img src=""stim_listA/greet2.gif""style=""height:400px;""></stim_listA>","","html-keyboard-response","91","466618","0.0-13.0-1.10","83843","List2A","white","woman","","","","null","","","","","","","","",""
"null","is being greeted by","","html-keyboard-response","92","468634","0.0-13.0-2.10","83843","List2A","white","woman","","","","null","","","","","","","","",""
"6918.900000095367","","","survey-text","93","475556","0.0-13.0-3.10","83843","List2A","white","woman","","","","","{""Q0"":""luke is being greeted by jane""}","<img src=""stim_listA/greet2.gif""style=""height:400px;""></stim_listA>","is being greeted by","","","","","",""
"null","<div style=""font-size:60px;"">+</div>","","html-keyboard-response","94","476066","0.0-13.0-0.11","83843","List2A","white","woman","","","","null","","","","","","","","",""
"null","<img src=""stim_listA/greet3.gif""style=""height:400px;""></stim_listA>","","html-keyboard-response","95","478070","0.0-13.0-1.11","83843","List2A","white","woman","","","","null","","","","","","","","",""
"null","is greeting","","html-keyboard-response","96","480081","0.0-13.0-2.11","83843","List2A","white","woman","","","","null","","","","","","","","",""
"5253.5","","","survey-text","97","485336","0.0-13.0-3.11","83843","List2A","white","woman","","","","","{""Q0"":""mike is greeting beth""}","<img src=""stim_listA/greet3.gif""style=""height:400px;""></stim_listA>","is greeting","","","","","",""
"null","<div style=""font-size:60px;"">+</div>","","html-keyboard-response","98","485843","0.0-13.0-0.12","83843","List2A","white","woman","","","","null","","","","","","","","",""
"null","<img src=""stim_listA/hug6.gif""style=""height:400px;""></stim_listA>","","html-keyboard-response","99","487858","0.0-13.0-1.12","83843","List2A","white","woman","","","","null","","","","","","","","",""
"null","is being hugged by","","html-keyboard-response","100","489860","0.0-13.0-2.12","83843","List2A","white","woman","","","","null","","","","","","","","",""
"5324.200000047684","","","survey-text","101","495186","0.0-13.0-3.12","83843","List2A","white","woman","","","","","{""Q0"":""mike is being hugged by dave""}","<img src=""stim_listA/hug6.gif""style=""height:400px;""></stim_listA>","is being hugged by","","","","","",""
"null","<div style=""font-size:60px;"">+</div>","","html-keyboard-response","102","495695","0.0-13.0-0.13","83843","List2A","white","woman","","","","null","","","","","","","","",""
"null","<img src=""stim_listA/kiss4.gif""style=""height:400px;""></stim_listA>","","html-keyboard-response","103","497704","0.0-13.0-1.13","83843","List2A","white","woman","","","","null","","","","","","","","",""
"null","is being kissed by","","html-keyboard-response","104","499713","0.0-13.0-2.13","83843","List2A","white","woman","","","","null","","","","","","","","",""
"4196.5","","","survey-text","105","503912","0.0-13.0-3.13","83843","List2A","white","woman","","","","","{""Q0"":""kate is being kissed by mike""}","<img src=""stim_listA/kiss4.gif""style=""height:400px;""></stim_listA>","is being kissed by","","","","","",""
"null","<div style=""font-size:60px;"">+</div>","","html-keyboard-response","106","504419","0.0-13.0-0.14","83843","List2A","white","woman","","","","null","","","","","","","","",""
"null","<img src=""stim_listA/greet7.gif""style=""height:400px;""></stim_listA>","","html-keyboard-response","107","506437","0.0-13.0-1.14","83843","List2A","white","woman","","","","null","","","","","","","","",""
"null","is greeting","","html-keyboard-response","108","508440","0.0-13.0-2.14","83843","List2A","white","woman","","","","null","","","","","","","","",""
"3544.600000143051","","","survey-text","109","511988","0.0-13.0-3.14","83843","List2A","white","woman","","","","","{""Q0"":""beth is greeting kate""}","<img src=""stim_listA/greet7.gif""style=""height:400px;""></stim_listA>","is greeting","","","","","",""
"null","<div style=""font-size:60px;"">+</div>","","html-keyboard-response","110","512493","0.0-13.0-0.15","83843","List2A","white","woman","","","","null","","","","","","","","",""
"null","<img src=""stim_listA/challenge5.gif""style=""height:400px;""></stim_listA>","","html-keyboard-response","111","514497","0.0-13.0-1.15","83843","List2A","white","woman","","","","null","","","","","","","","",""
"null","is challenging","","html-keyboard-response","112","516510","0.0-13.0-2.15","83843","List2A","white","woman","","","","null","","","","","","","","",""
"4825.099999904633","","","survey-text","113","521337","0.0-13.0-3.15","83843","List2A","white","woman","","","","","{""Q0"":""fred is challenging dave""}","<img src=""stim_listA/challenge5.gif""style=""height:400px;""></stim_listA>","is challenging","","","","","",""
"null","<div style=""font-size:60px;"">+</div>","","html-keyboard-response","114","521841","0.0-13.0-0.16","83843","List2A","white","woman","","","","null","","","","","","","","",""
"null","<img src=""stim_listA/shout1.gif""style=""height:400px;""></stim_listA>","","html-keyboard-response","115","523850","0.0-13.0-1.16","83843","List2A","white","woman","","","","null","","","","","","","","",""
"null","is shouting at","","html-keyboard-response","116","525863","0.0-13.0-2.16","83843","List2A","white","woman","","","","null","","","","","","","","",""
"5221.299999952316","","","survey-text","117","531086","0.0-13.0-3.16","83843","List2A","white","woman","","","","","{""Q0"":""luke is shouting at ruth""}","<img src=""stim_listA/shout1.gif""style=""height:400px;""></stim_listA>","is shouting at","","","","","",""
"null","<div style=""font-size:60px;"">+</div>","","html-keyboard-response","118","531599","0.0-13.0-0.17","83843","List2A","white","woman","","","","null","","","","","","","","",""
"null","<img src=""stim_listA/touch2.gif""style=""height:400px;""></stim_listA>","","html-keyboard-response","119","533605","0.0-13.0-1.17","83843","List2A","white","woman","","","","null","","","","","","","","",""
"null","is being touched by","","html-keyboard-response","120","535606","0.0-13.0-2.17","83843","List2A","white","woman","","","","null","","","","","","","","",""
"8029.5","","","survey-text","121","543638","0.0-13.0-3.17","83843","List2A","white","woman","","","","","{""Q0"":""luke is being touched by ruth""}","<img src=""stim_listA/touch2.gif""style=""height:400px;""></stim_listA>","is being touched by","","","","","",""
"null","<div style=""font-size:60px;"">+</div>","","html-keyboard-response","122","544146","0.0-13.0-0.18","83843","List2A","white","woman","","","","null","","","","","","","","",""
"null","<img src=""stim_listA/kiss6.gif""style=""height:400px;""></stim_listA>","","html-keyboard-response","123","546152","0.0-13.0-1.18","83843","List2A","white","woman","","","","null","","","","","","","","",""
"null","is being kissed by","","html-keyboard-response","124","548153","0.0-13.0-2.18","83843","List2A","white","woman","","","","null","","","","","","","","",""
"7383.400000095367","","","survey-text","125","555539","0.0-13.0-3.18","83843","List2A","white","woman","","","","","{""Q0"":""dave is being kissed by mike""}","<img src=""stim_listA/kiss6.gif""style=""height:400px;""></stim_listA>","is being kissed by","","","","","",""
"null","<div style=""font-size:60px;"">+</div>","","html-keyboard-response","126","556041","0.0-13.0-0.19","83843","List2A","white","woman","","","","null","","","","","","","","",""
"null","<img src=""stim_listA/touch5.gif""style=""height:400px;""></stim_listA>","","html-keyboard-response","127","558053","0.0-13.0-1.19","83843","List2A","white","woman","","","","null","","","","","","","","",""
"null","is touching","","html-keyboard-response","128","560063","0.0-13.0-2.19","83843","List2A","white","woman","","","","null","","","","","","","","",""
"3423.9000000953674","","","survey-text","129","563489","0.0-13.0-3.19","83843","List2A","white","woman","","","","","{""Q0"":""mike is touching dave""}","<img src=""stim_listA/touch5.gif""style=""height:400px;""></stim_listA>","is touching","","","","","",""
"4198.799999952316","<img src='img/portrait_matrix_list2.jpg' style='width:900px;height:500px;''></img><p>If you have memorised all the portraits and names and are ready to start, press Continue.</p><p><strong>Please note: Your memory of these faces will be tested 4 times during this experiment.</strong></p>","0","html-button-response","130","567690","0.0-14.0-0.0","83843","List2A","white","woman","","","","","","","","","","","","",""
"1782.7000000476837","<img src=""portrait/WW1.jpg""style=""height:400px;""></img>","1","html-button-response","131","570489","0.0-14.0-1.0","83843","List2A","white","woman","","true","1","","","","","","","","","",""
"null","CORRECT","","html-keyboard-response","132","572015","0.0-14.0-2.0-0.0","83843","List2A","white","woman","","","","null","","","","","","","","",""
"2123","<img src=""portrait/BW1.jpg""style=""height:400px;""></img>","0","html-button-response","133","574139","0.0-14.0-4.0","83843","List2A","white","woman","","true","0","","","","","","","","","",""
"null","CORRECT","","html-keyboard-response","134","575658","0.0-14.0-5.0-0.0","83843","List2A","white","woman","","","","null","","","","","","","","",""
"2179.7000000476837","<img src=""portrait/WW2.jpg""style=""height:400px;""></img>","3","html-button-response","135","577839","0.0-14.0-7.0","83843","List2A","white","woman","","true","3","","","","","","","","","",""
"null","CORRECT","","html-keyboard-response","136","579350","0.0-14.0-8.0-0.0","83843","List2A","white","woman","","","","null","","","","","","","","",""
"2039.3999998569489","<img src=""portrait/WM2.jpg""style=""height:400px;""></img>","7","html-button-response","137","581390","0.0-14.0-10.0","83843","List2A","white","woman","","true","7","","","","","","","","","",""
"null","CORRECT","","html-keyboard-response","138","582911","0.0-14.0-11.0-0.0","83843","List2A","white","woman","","","","null","","","","","","","","",""
"2103.2000000476837","<img src=""portrait/BW2.jpg""style=""height:400px;""></img>","2","html-button-response","139","585016","0.0-14.0-13.0","83843","List2A","white","woman","","true","2","","","","","","","","","",""
"null","CORRECT","","html-keyboard-response","140","586531","0.0-14.0-14.0-0.0","83843","List2A","white","woman","","","","null","","","","","","","","",""
"2633.600000143051","<img src=""portrait/WM1.jpg""style=""height:400px;""></img>","6","html-button-response","141","589166","0.0-14.0-16.0","83843","List2A","white","woman","","true","6","","","","","","","","","",""
"null","CORRECT","","html-keyboard-response","142","590688","0.0-14.0-17.0-0.0","83843","List2A","white","woman","","","","null","","","","","","","","",""
"1851.5","<img src=""portrait/BM1.jpg""style=""height:400px;""></img>","4","html-button-response","143","592541","0.0-14.0-19.0","83843","List2A","white","woman","","true","4","","","","","","","","","",""
"null","CORRECT","","html-keyboard-response","144","594054","0.0-14.0-20.0-0.0","83843","List2A","white","woman","","","","null","","","","","","","","",""
"1757.2999999523163","<img src=""portrait/BM2.jpg""style=""height:400px;""></img>","5","html-button-response","145","595813","0.0-14.0-22.0","83843","List2A","white","woman","","true","5","","","","","","","","","",""
"null","CORRECT","","html-keyboard-response","146","597330","0.0-14.0-23.0-0.0","83843","List2A","white","woman","","","","null","","","","","","","","",""
"1409.7000000476837","<p>You got 8 out of 8 right first time. Press Continue.</p>","0","html-button-response","147","598741","0.0-14.0-25.0","83843","List2A","white","woman","","","","","","","","","","","","",""
"null","<div style=""font-size:60px;"">+</div>","","html-keyboard-response","148","600258","0.0-15.0-0.0","83843","List2A","white","woman","","","","null","","","","","","","","",""
"null","<img src=""stim_listA/copy3.gif""style=""height:400px;""></stim_listA>","","html-keyboard-response","149","602262","0.0-15.0-1.0","83843","List2A","white","woman","","","","null","","","","","","","","",""
"null","is copying","","html-keyboard-response","150","604278","0.0-15.0-2.0","83843","List2A","white","woman","","","","null","","","","","","","","",""
"10462","","","survey-text","151","614743","0.0-15.0-3.0","83843","List2A","white","woman","","","","","{""Q0"":""mike is copying beth""}","<img src=""stim_listA/copy3.gif""style=""height:400px;""></stim_listA>","is copying","","","","","",""
"null","<div style=""font-size:60px;"">+</div>","","html-keyboard-response","152","615251","0.0-15.0-0.1","83843","List2A","white","woman","","","","null","","","","","","","","",""
"null","<img src=""stim_listA/kiss3.gif""style=""height:400px;""></stim_listA>","","html-keyboard-response","153","617261","0.0-15.0-1.1","83843","List2A","white","woman","","","","null","","","","","","","","",""
"null","is kissing","","html-keyboard-response","154","619273","0.0-15.0-2.1","83843","List2A","white","woman","","","","null","","","","","","","","",""
"3643","","","survey-text","155","622919","0.0-15.0-3.1","83843","List2A","white","woman","","","","","{""Q0"":""beth is kissing fred""}","<img src=""stim_listA/kiss3.gif""style=""height:400px;""></stim_listA>","is kissing","","","","","",""
"null","<div style=""font-size:60px;"">+</div>","","html-keyboard-response","156","623426","0.0-15.0-0.2","83843","List2A","white","woman","","","","null","","","","","","","","",""
"null","<img src=""stim_listA/shout4.gif""style=""height:400px;""></stim_listA>","","html-keyboard-response","157","625442","0.0-15.0-1.2","83843","List2A","white","woman","","","","null","","","","","","","","",""
"null","is being shouted at by","","html-keyboard-response","158","627447","0.0-15.0-2.2","83843","List2A","white","woman","","","","null","","","","","","","","",""
"6294.200000047684","","","survey-text","159","633744","0.0-15.0-3.2","83843","List2A","white","woman","","","","","{""Q0"":""kate is being shouted at by mike""}","<img src=""stim_listA/shout4.gif""style=""height:400px;""></stim_listA>","is being shouted at by","","","","","",""
"null","<div style=""font-size:60px;"">+</div>","","html-keyboard-response","160","634252","0.0-15.0-0.3","83843","List2A","white","woman","","","","null","","","","","","","","",""
"null","<img src=""stim_listA/kiss5.gif""style=""height:400px;""></stim_listA>","","html-keyboard-response","161","636258","0.0-15.0-1.3","83843","List2A","white","woman","","","","null","","","","","","","","",""
"null","is kissing","","html-keyboard-response","162","638267","0.0-15.0-2.3","83843","List2A","white","woman","","","","null","","","","","","","","",""
"5549.900000095367","","","survey-text","163","643819","0.0-15.0-3.3","83843","List2A","white","woman","","","","","{""Q0"":""luke is kissing fred""}","<img src=""stim_listA/kiss5.gif""style=""height:400px;""></stim_listA>","is kissing","","","","","",""
"null","<div style=""font-size:60px;"">+</div>","","html-keyboard-response","164","644323","0.0-15.0-0.4","83843","List2A","white","woman","","","","null","","","","","","","","",""
"null","<img src=""stim_listA/touch6.gif""style=""height:400px;""></stim_listA>","","html-keyboard-response","165","646328","0.0-15.0-1.4","83843","List2A","white","woman","","","","null","","","","","","","","",""
"null","is being touched by","","html-keyboard-response","166","648333","0.0-15.0-2.4","83843","List2A","white","woman","","","","null","","","","","","","","",""
"6984.200000047684","","","survey-text","167","655319","0.0-15.0-3.4","83843","List2A","white","woman","","","","","{""Q0"":""fred is being touched by luke""}","<img src=""stim_listA/touch6.gif""style=""height:400px;""></stim_listA>","is being touched by","","","","","",""
"null","<div style=""font-size:60px;"">+</div>","","html-keyboard-response","168","655828","0.0-15.0-0.5","83843","List2A","white","woman","","","","null","","","","","","","","",""
"null","<img src=""stim_listA/copy4.gif""style=""height:400px;""></stim_listA>","","html-keyboard-response","169","657835","0.0-15.0-1.5","83843","List2A","white","woman","","","","null","","","","","","","","",""
"null","is being copied by","","html-keyboard-response","170","659847","0.0-15.0-2.5","83843","List2A","white","woman","","","","null","","","","","","","","",""
"4146.799999952316","","","survey-text","171","663996","0.0-15.0-3.5","83843","List2A","white","woman","","","","","{""Q0"":""kate is being copied by fred""}","<img src=""stim_listA/copy4.gif""style=""height:400px;""></stim_listA>","is being copied by","","","","","",""
"null","<div style=""font-size:60px;"">+</div>","","html-keyboard-response","172","664506","0.0-15.0-0.6","83843","List2A","white","woman","","","","null","","","","","","","","",""
"null","<img src=""stim_listA/oppose2.gif""style=""height:400px;""></stim_listA>","","html-keyboard-response","173","666519","0.0-15.0-1.6","83843","List2A","white","woman","","","","null","","","","","","","","",""
"null","is being opposed by","","html-keyboard-response","174","668527","0.0-15.0-2.6","83843","List2A","white","woman","","","","null","","","","","","","","",""
"5966.200000047684","","","survey-text","175","674495","0.0-15.0-3.6","83843","List2A","white","woman","","","","","{""Q0"":""luke is being opposed by ruth""}","<img src=""stim_listA/oppose2.gif""style=""height:400px;""></stim_listA>","is being opposed by","","","","","",""
"null","<div style=""font-size:60px;"">+</div>","","html-keyboard-response","176","675003","0.0-15.0-0.7","83843","List2A","white","woman","","","","null","","","","","","","","",""
"null","<img src=""stim_listA/challenge6.gif""style=""height:400px;""></stim_listA>","","html-keyboard-response","177","677016","0.0-15.0-1.7","83843","List2A","white","woman","","","","null","","","","","","","","",""
"null","is being challenged by","","html-keyboard-response","178","679018","0.0-15.0-2.7","83843","List2A","white","woman","","","","null","","","","","","","","",""
"7175.200000047684","","","survey-text","179","686195","0.0-15.0-3.7","83843","List2A","white","woman","","","","","{""Q0"":""luke is being challenged by mike""}","<img src=""stim_listA/challenge6.gif""style=""height:400px;""></stim_listA>","is being challenged by","","","","","",""
"null","<div style=""font-size:60px;"">+</div>","","html-keyboard-response","180","686704","0.0-15.0-0.8","83843","List2A","white","woman","","","","null","","","","","","","","",""
"null","<img src=""stim_listA/seduce3.gif""style=""height:400px;""></stim_listA>","","html-keyboard-response","181","688707","0.0-15.0-1.8","83843","List2A","white","woman","","","","null","","","","","","","","",""
"null","is seducing","","html-keyboard-response","182","690715","0.0-15.0-2.8","83843","List2A","white","woman","","","","null","","","","","","","","",""
"9553.5","","","survey-text","183","700271","0.0-15.0-3.8","83843","List2A","white","woman","","","","","{""Q0"":""kate is seducing fred""}","<img src=""stim_listA/seduce3.gif""style=""height:400px;""></stim_listA>","is seducing","","","","","",""
"null","<div style=""font-size:60px;"">+</div>","","html-keyboard-response","184","700780","0.0-15.0-0.9","83843","List2A","white","woman","","","","null","","","","","","","","",""
"null","<img src=""stim_listA/touch3.gif""style=""height:400px;""></stim_listA>","","html-keyboard-response","185","702787","0.0-15.0-1.9","83843","List2A","white","woman","","","","null","","","","","","","","",""
"null","is touching","","html-keyboard-response","186","704807","0.0-15.0-2.9","83843","List2A","white","woman","","","","null","","","","","","","","",""
"5013.299999952316","","","survey-text","187","709823","0.0-15.0-3.9","83843","List2A","white","woman","","","","","{""Q0"":""mike is touching kate""}","<img src=""stim_listA/touch3.gif""style=""height:400px;""></stim_listA>","is touching","","","","","",""
"null","<div style=""font-size:60px;"">+</div>","","html-keyboard-response","188","710332","0.0-15.0-0.10","83843","List2A","white","woman","","","","null","","","","","","","","",""
"null","<img src=""stim_listA/greet8.gif""style=""height:400px;""></stim_listA>","","html-keyboard-response","189","712336","0.0-15.0-1.10","83843","List2A","white","woman","","","","null","","","","","","","","",""
"null","is being greeted by","","html-keyboard-response","190","714351","0.0-15.0-2.10","83843","List2A","white","woman","","","","null","","","","","","","","",""
"9819.700000047684","","","survey-text","191","724174","0.0-15.0-3.10","83843","List2A","white","woman","","","","","{""Q0"":""ruth is being greeted by kate""}","<img src=""stim_listA/greet8.gif""style=""height:400px;""></stim_listA>","is being greeted by","","","","","",""
"null","<div style=""font-size:60px;"">+</div>","","html-keyboard-response","192","724687","0.0-15.0-0.11","83843","List2A","white","woman","","","","null","","","","","","","","",""
"null","<img src=""stim_listA/look2.gif""style=""height:400px;""></stim_listA>","","html-keyboard-response","193","726698","0.0-15.0-1.11","83843","List2A","white","woman","","","","null","","","","","","","","",""
"null","is being looked at by","","html-keyboard-response","194","728713","0.0-15.0-2.11","83843","List2A","white","woman","","","","null","","","","","","","","",""
"7307.899999856949","","","survey-text","195","736025","0.0-15.0-3.11","83843","List2A","white","woman","","","","","{""Q0"":""jane is being looked at by dave""}","<img src=""stim_listA/look2.gif""style=""height:400px;""></stim_listA>","is being looked at by","","","","","",""
"null","<div style=""font-size:60px;"">+</div>","","html-keyboard-response","196","736533","0.0-15.0-0.12","83843","List2A","white","woman","","","","null","","","","","","","","",""
"null","<img src=""stim_listA/greet4.gif""style=""height:400px;""></stim_listA>","","html-keyboard-response","197","738537","0.0-15.0-1.12","83843","List2A","white","woman","","","","null","","","","","","","","",""
"null","is being greeted by","","html-keyboard-response","198","740540","0.0-15.0-2.12","83843","List2A","white","woman","","","","null","","","","","","","","",""
"5780.700000047684","","","survey-text","199","746323","0.0-15.0-3.12","83843","List2A","white","woman","","","","","{""Q0"":""fred is being greeted by kate""}","<img src=""stim_listA/greet4.gif""style=""height:400px;""></stim_listA>","is being greeted by","","","","","",""
"null","<div style=""font-size:60px;"">+</div>","","html-keyboard-response","200","746824","0.0-15.0-0.13","83843","List2A","white","woman","","","","null","","","","","","","","",""
"null","<img src=""stim_listA/oppose3.gif""style=""height:400px;""></stim_listA>","","html-keyboard-response","201","748841","0.0-15.0-1.13","83843","List2A","white","woman","","","","null","","","","","","","","",""
"null","is opposing","","html-keyboard-response","202","750857","0.0-15.0-2.13","83843","List2A","white","woman","","","","null","","","","","","","","",""
"8166","","","survey-text","203","759026","0.0-15.0-3.13","83843","List2A","white","woman","","","","","{""Q0"":""mike is opposing kate""}","<img src=""stim_listA/oppose3.gif""style=""height:400px;""></stim_listA>","is opposing","","","","","",""
"null","<div style=""font-size:60px;"">+</div>","","html-keyboard-response","204","759544","0.0-15.0-0.14","83843","List2A","white","woman","","","","null","","","","","","","","",""
"null","<img src=""stim_listA/hug3.gif""style=""height:400px;""></stim_listA>","","html-keyboard-response","205","761551","0.0-15.0-1.14","83843","List2A","white","woman","","","","null","","","","","","","","",""
"null","is hugging","","html-keyboard-response","206","763567","0.0-15.0-2.14","83843","List2A","white","woman","","","","null","","","","","","","","",""
"4531.399999856949","","","survey-text","207","768101","0.0-15.0-3.14","83843","List2A","white","woman","","","","","{""Q0"":""beth is hugging fred""}","<img src=""stim_listA/hug3.gif""style=""height:400px;""></stim_listA>","is hugging","","","","","",""
"null","<div style=""font-size:60px;"">+</div>","","html-keyboard-response","208","768612","0.0-15.0-0.15","83843","List2A","white","woman","","","","null","","","","","","","","",""
"null","<img src=""stim_listA/look3.gif""style=""height:400px;""></stim_listA>","","html-keyboard-response","209","770624","0.0-15.0-1.15","83843","List2A","white","woman","","","","null","","","","","","","","",""
"null","is looking at","","html-keyboard-response","210","772639","0.0-15.0-2.15","83843","List2A","white","woman","","","","null","","","","","","","","",""
"5260.299999952316","","","survey-text","211","777902","0.0-15.0-3.15","83843","List2A","white","woman","","","","","{""Q0"":""fred is looking at beth""}","<img src=""stim_listA/look3.gif""style=""height:400px;""></stim_listA>","is looking at","","","","","",""
"null","<div style=""font-size:60px;"">+</div>","","html-keyboard-response","212","778411","0.0-15.0-0.16","83843","List2A","white","woman","","","","null","","","","","","","","",""
"null","<img src=""stim_listA/look4.gif""style=""height:400px;""></stim_listA>","","html-keyboard-response","213","780427","0.0-15.0-1.16","83843","List2A","white","woman","","","","null","","","","","","","","",""
"null","is being looked at by","","html-keyboard-response","214","782443","0.0-15.0-2.16","83843","List2A","white","woman","","","","null","","","","","","","","",""
"7355.5","","","survey-text","215","789802","0.0-15.0-3.16","83843","List2A","white","woman","","","","","{""Q0"":""kate is being looked at by mike""}","<img src=""stim_listA/look4.gif""style=""height:400px;""></stim_listA>","is being looked at by","","","","","",""
"null","<div style=""font-size:60px;"">+</div>","","html-keyboard-response","216","790310","0.0-15.0-0.17","83843","List2A","white","woman","","","","null","","","","","","","","",""
"null","<img src=""stim_listA/hug8.gif""style=""height:400px;""></stim_listA>","","html-keyboard-response","217","792318","0.0-15.0-1.17","83843","List2A","white","woman","","","","null","","","","","","","","",""
"null","is being hugged by","","html-keyboard-response","218","794327","0.0-15.0-2.17","83843","List2A","white","woman","","","","null","","","","","","","","",""
"7023.900000095367","","","survey-text","219","801353","0.0-15.0-3.17","83843","List2A","white","woman","","","","","{""Q0"":""jane is being hugged by kate""}","<img src=""stim_listA/hug8.gif""style=""height:400px;""></stim_listA>","is being hugged by","","","","","",""
"null","<div style=""font-size:60px;"">+</div>","","html-keyboard-response","220","801863","0.0-15.0-0.18","83843","List2A","white","woman","","","","null","","","","","","","","",""
"null","<img src=""stim_listA/kiss7.gif""style=""height:400px;""></stim_listA>","","html-keyboard-response","221","803873","0.0-15.0-1.18","83843","List2A","white","woman","","","","null","","","","","","","","",""
"null","is kissing","","html-keyboard-response","222","805889","0.0-15.0-2.18","83843","List2A","white","woman","","","","null","","","","","","","","",""
"4787.599999904633","","","survey-text","223","810678","0.0-15.0-3.18","83843","List2A","white","woman","","","","","{""Q0"":""ruth is kissing beth""}","<img src=""stim_listA/kiss7.gif""style=""height:400px;""></stim_listA>","is kissing","","","","","",""
"null","<div style=""font-size:60px;"">+</div>","","html-keyboard-response","224","811188","0.0-15.0-0.19","83843","List2A","white","woman","","","","null","","","","","","","","",""
"null","<img src=""stim_listA/greet5.gif""style=""height:400px;""></stim_listA>","","html-keyboard-response","225","813190","0.0-15.0-1.19","83843","List2A","white","woman","","","","null","","","","","","","","",""
"null","is greeting","","html-keyboard-response","226","815192","0.0-15.0-2.19","83843","List2A","white","woman","","","","null","","","","","","","","",""
"5785.799999952316","","","survey-text","227","820980","0.0-15.0-3.19","83843","List2A","white","woman","","","","","{""Q0"":""dave is greeting fred""}","<img src=""stim_listA/greet5.gif""style=""height:400px;""></stim_listA>","is greeting","","","","","",""
"3222.5","<img src='img/portrait_matrix_list2.jpg' style='width:900px;height:500px;''></img><p>If you have memorised all the portraits and names and are ready to start, press Continue.</p><p><strong>Please note: Your memory of these faces will be tested 4 times during this experiment.</strong></p>","0","html-button-response","228","824204","0.0-16.0-0.0","83843","List2A","white","woman","","","","","","","","","","","","",""
"1764.3000001907349","<img src=""portrait/BM1.jpg""style=""height:400px;""></img>","4","html-button-response","229","826977","0.0-16.0-1.0","83843","List2A","white","woman","","true","4","","","","","","","","","",""
"null","CORRECT","","html-keyboard-response","230","828495","0.0-16.0-2.0-0.0","83843","List2A","white","woman","","","","null","","","","","","","","",""
"2133","<img src=""portrait/BW1.jpg""style=""height:400px;""></img>","0","html-button-response","231","830629","0.0-16.0-4.0","83843","List2A","white","woman","","true","0","","","","","","","","","",""
"null","CORRECT","","html-keyboard-response","232","832154","0.0-16.0-5.0-0.0","83843","List2A","white","woman","","","","null","","","","","","","","",""
"1725.2999999523163","<img src=""portrait/WM2.jpg""style=""height:400px;""></img>","7","html-button-response","233","833881","0.0-16.0-7.0","83843","List2A","white","woman","","true","7","","","","","","","","","",""
"null","CORRECT","","html-keyboard-response","234","835411","0.0-16.0-8.0-0.0","83843","List2A","white","woman","","","","null","","","","","","","","",""
"2218.100000143051","<img src=""portrait/WW2.jpg""style=""height:400px;""></img>","3","html-button-response","235","837630","0.0-16.0-10.0","83843","List2A","white","woman","","true","3","","","","","","","","","",""
"null","CORRECT","","html-keyboard-response","236","839138","0.0-16.0-11.0-0.0","83843","List2A","white","woman","","","","null","","","","","","","","",""
"1865.5","<img src=""portrait/WW1.jpg""style=""height:400px;""></img>","1","html-button-response","237","841005","0.0-16.0-13.0","83843","List2A","white","woman","","true","1","","","","","","","","","",""
"null","CORRECT","","html-keyboard-response","238","842516","0.0-16.0-14.0-0.0","83843","List2A","white","woman","","","","null","","","","","","","","",""
"1736.9000000953674","<img src=""portrait/BM2.jpg""style=""height:400px;""></img>","5","html-button-response","239","844254","0.0-16.0-16.0","83843","List2A","white","woman","","true","5","","","","","","","","","",""
"null","CORRECT","","html-keyboard-response","240","845779","0.0-16.0-17.0-0.0","83843","List2A","white","woman","","","","null","","","","","","","","",""
"2024.7999999523163","<img src=""portrait/WM1.jpg""style=""height:400px;""></img>","6","html-button-response","241","847806","0.0-16.0-19.0","83843","List2A","white","woman","","true","6","","","","","","","","","",""
"null","CORRECT","","html-keyboard-response","242","849325","0.0-16.0-20.0-0.0","83843","List2A","white","woman","","","","null","","","","","","","","",""
"1530.2999999523163","<img src=""portrait/BW2.jpg""style=""height:400px;""></img>","2","html-button-response","243","850857","0.0-16.0-22.0","83843","List2A","white","woman","","true","2","","","","","","","","","",""
"null","CORRECT","","html-keyboard-response","244","852371","0.0-16.0-23.0-0.0","83843","List2A","white","woman","","","","null","","","","","","","","",""
"1709.0999999046326","<p>You got 8 out of 8 right first time. Press Continue.</p>","0","html-button-response","245","854081","0.0-16.0-25.0","83843","List2A","white","woman","","","","","","","","","","","","",""
"null","<div style=""font-size:60px;"">+</div>","","html-keyboard-response","246","855592","0.0-17.0-0.0","83843","List2A","white","woman","","","","null","","","","","","","","",""
"null","<img src=""stim_listA/seduce2.gif""style=""height:400px;""></stim_listA>","","html-keyboard-response","247","857596","0.0-17.0-1.0","83843","List2A","white","woman","","","","null","","","","","","","","",""
"null","is being seduced by","","html-keyboard-response","248","859597","0.0-17.0-2.0","83843","List2A","white","woman","","","","null","","","","","","","","",""
"8582.5","","","survey-text","249","868182","0.0-17.0-3.0","83843","List2A","white","woman","","","","","{""Q0"":""dave is being seduced by ruth""}","<img src=""stim_listA/seduce2.gif""style=""height:400px;""></stim_listA>","is being seduced by","","","","","",""
"null","<div style=""font-size:60px;"">+</div>","","html-keyboard-response","250","868691","0.0-17.0-0.1","83843","List2A","white","woman","","","","null","","","","","","","","",""
"null","<img src=""stim_listA/hug5.gif""style=""height:400px;""></stim_listA>","","html-keyboard-response","251","870706","0.0-17.0-1.1","83843","List2A","white","woman","","","","null","","","","","","","","",""
"null","is hugging","","html-keyboard-response","252","872707","0.0-17.0-2.1","83843","List2A","white","woman","","","","null","","","","","","","","",""
"6722.700000047684","","","survey-text","253","879432","0.0-17.0-3.1","83843","List2A","white","woman","","","","","{""Q0"":""luke is hugging fred""}","<img src=""stim_listA/hug5.gif""style=""height:400px;""></stim_listA>","is hugging","","","","","",""
"null","<div style=""font-size:60px;"">+</div>","","html-keyboard-response","254","879938","0.0-17.0-0.2","83843","List2A","white","woman","","","","null","","","","","","","","",""
"null","<img src=""stim_listA/hug2.gif""style=""height:400px;""></stim_listA>","","html-keyboard-response","255","881949","0.0-17.0-1.2","83843","List2A","white","woman","","","","null","","","","","","","","",""
"null","is being hugged by","","html-keyboard-response","256","883950","0.0-17.0-2.2","83843","List2A","white","woman","","","","null","","","","","","","","",""
"7055.599999904633","","","survey-text","257","891008","0.0-17.0-3.2","83843","List2A","white","woman","","","","","{""Q0"":""jane is being hugged by dave""}","<img src=""stim_listA/hug2.gif""style=""height:400px;""></stim_listA>","is being hugged by","","","","","",""
"null","<div style=""font-size:60px;"">+</div>","","html-keyboard-response","258","891516","0.0-17.0-0.3","83843","List2A","white","woman","","","","null","","","","","","","","",""
"null","<img src=""stim_listA/look5.gif""style=""height:400px;""></stim_listA>","","html-keyboard-response","259","893532","0.0-17.0-1.3","83843","List2A","white","woman","","","","null","","","","","","","","",""
"null","is looking at","","html-keyboard-response","260","895543","0.0-17.0-2.3","83843","List2A","white","woman","","","","null","","","","","","","","",""
"7864.300000190735","","","survey-text","261","903409","0.0-17.0-3.3","83843","List2A","white","woman","","","","","{""Q0"":""fred is looking at luke""}","<img src=""stim_listA/look5.gif""style=""height:400px;""></stim_listA>","is looking at","","","","","",""
"null","<div style=""font-size:60px;"">+</div>","","html-keyboard-response","262","903914","0.0-17.0-0.4","83843","List2A","white","woman","","","","null","","","","","","","","",""
"null","<img src=""stim_listA/challenge7.gif""style=""height:400px;""></stim_listA>","","html-keyboard-response","263","905930","0.0-17.0-1.4","83843","List2A","white","woman","","","","null","","","","","","","","",""
"null","is challenging","","html-keyboard-response","264","907946","0.0-17.0-2.4","83843","List2A","white","woman","","","","null","","","","","","","","",""
"5986.299999952316","","","survey-text","265","913934","0.0-17.0-3.4","83843","List2A","white","woman","","","","","{""Q0"":""jane is challenging beth""}","<img src=""stim_listA/challenge7.gif""style=""height:400px;""></stim_listA>","is challenging","","","","","",""
"null","<div style=""font-size:60px;"">+</div>","","html-keyboard-response","266","914443","0.0-17.0-0.5","83843","List2A","white","woman","","","","null","","","","","","","","",""
"null","<img src=""stim_listA/oppose7.gif""style=""height:400px;""></stim_listA>","","html-keyboard-response","267","916447","0.0-17.0-1.5","83843","List2A","white","woman","","","","null","","","","","","","","",""
"null","is opposing","","html-keyboard-response","268","918453","0.0-17.0-2.5","83843","List2A","white","woman","","","","null","","","","","","","","",""
"5279.100000143051","","","survey-text","269","923735","0.0-17.0-3.5","83843","List2A","white","woman","","","","","{""Q0"":""jane is opposing kate""}","<img src=""stim_listA/oppose7.gif""style=""height:400px;""></stim_listA>","is opposing","","","","","",""
"null","<div style=""font-size:60px;"">+</div>","","html-keyboard-response","270","924245","0.0-17.0-0.6","83843","List2A","white","woman","","","","null","","","","","","","","",""
"null","<img src=""stim_listA/oppose6.gif""style=""height:400px;""></stim_listA>","","html-keyboard-response","271","926256","0.0-17.0-1.6","83843","List2A","white","woman","","","","null","","","","","","","","",""
"null","is being opposed by","","html-keyboard-response","272","928267","0.0-17.0-2.6","83843","List2A","white","woman","","","","null","","","","","","","","",""
"7991","","","survey-text","273","936261","0.0-17.0-3.6","83843","List2A","white","woman","","","","","{""Q0"":""fred is being opposed by luke""}","<img src=""stim_listA/oppose6.gif""style=""height:400px;""></stim_listA>","is being opposed by","","","","","",""
"null","<div style=""font-size:60px;"">+</div>","","html-keyboard-response","274","936762","0.0-17.0-0.7","83843","List2A","white","woman","","","","null","","","","","","","","",""
"null","<img src=""stim_listA/hug4.gif""style=""height:400px;""></stim_listA>","","html-keyboard-response","275","938772","0.0-17.0-1.7","83843","List2A","white","woman","","","","null","","","","","","","","",""
"null","is being hugged by","","html-keyboard-response","276","940784","0.0-17.0-2.7","83843","List2A","white","woman","","","","null","","","","","","","","",""
"4949.599999904633","","","survey-text","277","945736","0.0-17.0-3.7","83843","List2A","white","woman","","","","","{""Q0"":""kate is being hugged by mike""}","<img src=""stim_listA/hug4.gif""style=""height:400px;""></stim_listA>","is being hugged by","","","","","",""
"null","<div style=""font-size:60px;"">+</div>","","html-keyboard-response","278","946252","0.0-17.0-0.8","83843","List2A","white","woman","","","","null","","","","","","","","",""
"null","<img src=""stim_listA/challenge3.gif""style=""height:400px;""></stim_listA>","","html-keyboard-response","279","948254","0.0-17.0-1.8","83843","List2A","white","woman","","","","null","","","","","","","","",""
"null","is challenging","","html-keyboard-response","280","950265","0.0-17.0-2.8","83843","List2A","white","woman","","","","null","","","","","","","","",""
"5595.200000047684","","","survey-text","281","955863","0.0-17.0-3.8","83843","List2A","white","woman","","","","","{""Q0"":""beth is challenging mike""}","<img src=""stim_listA/challenge3.gif""style=""height:400px;""></stim_listA>","is challenging","","","","","",""
"null","<div style=""font-size:60px;"">+</div>","","html-keyboard-response","282","956366","0.0-17.0-0.9","83843","List2A","white","woman","","","","null","","","","","","","","",""
"null","<img src=""stim_listA/challenge8.gif""style=""height:400px;""></stim_listA>","","html-keyboard-response","283","958376","0.0-17.0-1.9","83843","List2A","white","woman","","","","null","","","","","","","","",""
"null","is being challenged by","","html-keyboard-response","284","960382","0.0-17.0-2.9","83843","List2A","white","woman","","","","null","","","","","","","","",""
"7877.900000095367","","","survey-text","285","968262","0.0-17.0-3.9","83843","List2A","white","woman","","","","","{""Q0"":""kate is being challenged by ruth""}","<img src=""stim_listA/challenge8.gif""style=""height:400px;""></stim_listA>","is being challenged by","","","","","",""
"null","<div style=""font-size:60px;"">+</div>","","html-keyboard-response","286","968772","0.0-17.0-0.10","83843","List2A","white","woman","","","","null","","","","","","","","",""
"null","<img src=""stim_listA/greet6.gif""style=""height:400px;""></stim_listA>","","html-keyboard-response","287","970787","0.0-17.0-1.10","83843","List2A","white","woman","","","","null","","","","","","","","",""
"null","is being greeted by","","html-keyboard-response","288","972798","0.0-17.0-2.10","83843","List2A","white","woman","","","","null","","","","","","","","",""
"5713.200000047684","","","survey-text","289","978514","0.0-17.0-3.10","83843","List2A","white","woman","","","","","{""Q0"":""mike is greeted by luke""}","<img src=""stim_listA/greet6.gif""style=""height:400px;""></stim_listA>","is being greeted by","","","","","",""
"null","<div style=""font-size:60px;"">+</div>","","html-keyboard-response","290","979024","0.0-17.0-0.11","83843","List2A","white","woman","","","","null","","","","","","","","",""
"null","<img src=""stim_listA/seduce5.gif""style=""height:400px;""></stim_listA>","","html-keyboard-response","291","981037","0.0-17.0-1.11","83843","List2A","white","woman","","","","null","","","","","","","","",""
"null","is seducing","","html-keyboard-response","292","983038","0.0-17.0-2.11","83843","List2A","white","woman","","","","null","","","","","","","","",""
"6274.700000047684","","","survey-text","293","989316","0.0-17.0-3.11","83843","List2A","white","woman","","","","","{""Q0"":""mike is seducing luke""}","<img src=""stim_listA/seduce5.gif""style=""height:400px;""></stim_listA>","is seducing","","","","","",""
"null","<div style=""font-size:60px;"">+</div>","","html-keyboard-response","294","989827","0.0-17.0-0.12","83843","List2A","white","woman","","","","null","","","","","","","","",""
"null","<img src=""stim_listA/shout5.gif""style=""height:400px;""></stim_listA>","","html-keyboard-response","295","991835","0.0-17.0-1.12","83843","List2A","white","woman","","","","null","","","","","","","","",""
"null","is shouting at","","html-keyboard-response","296","993857","0.0-17.0-2.12","83843","List2A","white","woman","","","","null","","","","","","","","",""
"4179.799999952316","","","survey-text","297","998039","0.0-17.0-3.12","83843","List2A","white","woman","","","","","{""Q0"":""fred is shouting at luke""}","<img src=""stim_listA/shout5.gif""style=""height:400px;""></stim_listA>","is shouting at","","","","","",""
"null","<div style=""font-size:60px;"">+</div>","","html-keyboard-response","298","998549","0.0-17.0-0.13","83843","List2A","white","woman","","","","null","","","","","","","","",""
"null","<img src=""stim_listA/oppose5.gif""style=""height:400px;""></stim_listA>","","html-keyboard-response","299","1000554","0.0-17.0-1.13","83843","List2A","white","woman","","","","null","","","","","","","","",""
"null","is opposing","","html-keyboard-response","300","1002564","0.0-17.0-2.13","83843","List2A","white","woman","","","","null","","","","","","","","",""
"4871.5","","","survey-text","301","1007438","0.0-17.0-3.13","83843","List2A","white","woman","","","","","{""Q0"":""dave is opposing mike""}","<img src=""stim_listA/oppose5.gif""style=""height:400px;""></stim_listA>","is opposing","","","","","",""
"null","<div style=""font-size:60px;"">+</div>","","html-keyboard-response","302","1007945","0.0-17.0-0.14","83843","List2A","white","woman","","","","null","","","","","","","","",""
"null","<img src=""stim_listA/greet1.gif""style=""height:400px;""></stim_listA>","","html-keyboard-response","303","1009949","0.0-17.0-1.14","83843","List2A","white","woman","","","","null","","","","","","","","",""
"null","is greeting","","html-keyboard-response","304","1011962","0.0-17.0-2.14","83843","List2A","white","woman","","","","null","","","","","","","","",""
"3851.2000000476837","","","survey-text","305","1015816","0.0-17.0-3.14","83843","List2A","white","woman","","","","","{""Q0"":""dave is greeting ruth""}","<img src=""stim_listA/greet1.gif""style=""height:400px;""></stim_listA>","is greeting","","","","","",""
"null","<div style=""font-size:60px;"">+</div>","","html-keyboard-response","306","1016323","0.0-17.0-0.15","83843","List2A","white","woman","","","","null","","","","","","","","",""
"null","<img src=""stim_listA/touch7.gif""style=""height:400px;""></stim_listA>","","html-keyboard-response","307","1018326","0.0-17.0-1.15","83843","List2A","white","woman","","","","null","","","","","","","","",""
"null","is touching","","html-keyboard-response","308","1020331","0.0-17.0-2.15","83843","List2A","white","woman","","","","null","","","","","","","","",""
"3283.5","","","survey-text","309","1023617","0.0-17.0-3.15","83843","List2A","white","woman","","","","","{""Q0"":""jane is touching kate""}","<img src=""stim_listA/touch7.gif""style=""height:400px;""></stim_listA>","is touching","","","","","",""
"null","<div style=""font-size:60px;"">+</div>","","html-keyboard-response","310","1024126","0.0-17.0-0.16","83843","List2A","white","woman","","","","null","","","","","","","","",""
"null","<img src=""stim_listA/challenge1.gif""style=""height:400px;""></stim_listA>","","html-keyboard-response","311","1026137","0.0-17.0-1.16","83843","List2A","white","woman","","","","null","","","","","","","","",""
"null","is challenging","","html-keyboard-response","312","1028143","0.0-17.0-2.16","83843","List2A","white","woman","","","","null","","","","","","","","",""
"6321.599999904633","","","survey-text","313","1034467","0.0-17.0-3.16","83843","List2A","white","woman","","","","","{""Q0"":""ruth is challenging dave""}","<img src=""stim_listA/challenge1.gif""style=""height:400px;""></stim_listA>","is challenging","","","","","",""
"null","<div style=""font-size:60px;"">+</div>","","html-keyboard-response","314","1034977","0.0-17.0-0.17","83843","List2A","white","woman","","","","null","","","","","","","","",""
"null","<img src=""stim_listA/shout8.gif""style=""height:400px;""></stim_listA>","","html-keyboard-response","315","1036984","0.0-17.0-1.17","83843","List2A","white","woman","","","","null","","","","","","","","",""
"null","is being shouted at by","","html-keyboard-response","316","1038995","0.0-17.0-2.17","83843","List2A","white","woman","","","","null","","","","","","","","",""
"5393.900000095367","","","survey-text","317","1044391","0.0-17.0-3.17","83843","List2A","white","woman","","","","","{""Q0"":""jane is being shouted at by kate""}","<img src=""stim_listA/shout8.gif""style=""height:400px;""></stim_listA>","is being shouted at by","","","","","",""
"null","<div style=""font-size:60px;"">+</div>","","html-keyboard-response","318","1044897","0.0-17.0-0.18","83843","List2A","white","woman","","","","null","","","","","","","","",""
"null","<img src=""stim_listA/challenge4.gif""style=""height:400px;""></stim_listA>","","html-keyboard-response","319","1046900","0.0-17.0-1.18","83843","List2A","white","woman","","","","null","","","","","","","","",""
"null","is being challenged by","","html-keyboard-response","320","1048917","0.0-17.0-2.18","83843","List2A","white","woman","","","","null","","","","","","","","",""
"5574.299999952316","","","survey-text","321","1054494","0.0-17.0-3.18","83843","List2A","white","woman","","","","","{""Q0"":""fred is being challenged by kate""}","<img src=""stim_listA/challenge4.gif""style=""height:400px;""></stim_listA>","is being challenged by","","","","","",""
"null","<div style=""font-size:60px;"">+</div>","","html-keyboard-response","322","1054996","0.0-17.0-0.19","83843","List2A","white","woman","","","","null","","","","","","","","",""
"null","<img src=""stim_listA/kiss8.gif""style=""height:400px;""></stim_listA>","","html-keyboard-response","323","1057008","0.0-17.0-1.19","83843","List2A","white","woman","","","","null","","","","","","","","",""
"null","is being kissed by","","html-keyboard-response","324","1059012","0.0-17.0-2.19","83843","List2A","white","woman","","","","null","","","","","","","","",""
"6827.100000143051","","","survey-text","325","1065842","0.0-17.0-3.19","83843","List2A","white","woman","","","","","{""Q0"":""jane is being kissed by kate""}","<img src=""stim_listA/kiss8.gif""style=""height:400px;""></stim_listA>","is being kissed by","","","","","",""
"2324.5","<img src='img/portrait_matrix_list2.jpg' style='width:900px;height:500px;''></img><p>If you have memorised all the portraits and names and are ready to start, press Continue.</p><p><strong>Please note: Your memory of these faces will be tested 4 times during this experiment.</strong></p>","0","html-button-response","326","1068168","0.0-18.0-0.0","83843","List2A","white","woman","","","","","","","","","","","","",""
"2465.5","<img src=""portrait/WW2.jpg""style=""height:400px;""></img>","3","html-button-response","327","1071651","0.0-18.0-1.0","83843","List2A","white","woman","","true","3","","","","","","","","","",""
"null","CORRECT","","html-keyboard-response","328","1073154","0.0-18.0-2.0-0.0","83843","List2A","white","woman","","","","null","","","","","","","","",""
"2427","<img src=""portrait/WM2.jpg""style=""height:400px;""></img>","7","html-button-response","329","1075582","0.0-18.0-4.0","83843","List2A","white","woman","","true","7","","","","","","","","","",""
"null","CORRECT","","html-keyboard-response","330","1077111","0.0-18.0-5.0-0.0","83843","List2A","white","woman","","","","null","","","","","","","","",""
"2195.399999856949","<img src=""portrait/BW1.jpg""style=""height:400px;""></img>","0","html-button-response","331","1079308","0.0-18.0-7.0","83843","List2A","white","woman","","true","0","","","","","","","","","",""
"null","CORRECT","","html-keyboard-response","332","1080826","0.0-18.0-8.0-0.0","83843","List2A","white","woman","","","","null","","","","","","","","",""
"2304.100000143051","<img src=""portrait/BM2.jpg""style=""height:400px;""></img>","5","html-button-response","333","1083131","0.0-18.0-10.0","83843","List2A","white","woman","","true","5","","","","","","","","","",""
"null","CORRECT","","html-keyboard-response","334","1084644","0.0-18.0-11.0-0.0","83843","List2A","white","woman","","","","null","","","","","","","","",""
"2330","<img src=""portrait/WW1.jpg""style=""height:400px;""></img>","1","html-button-response","335","1086975","0.0-18.0-13.0","83843","List2A","white","woman","","true","1","","","","","","","","","",""
"null","CORRECT","","html-keyboard-response","336","1088485","0.0-18.0-14.0-0.0","83843","List2A","white","woman","","","","null","","","","","","","","",""
"1938.2999999523163","<img src=""portrait/BM1.jpg""style=""height:400px;""></img>","4","html-button-response","337","1090425","0.0-18.0-16.0","83843","List2A","white","woman","","true","4","","","","","","","","","",""
"null","CORRECT","","html-keyboard-response","338","1091948","0.0-18.0-17.0-0.0","83843","List2A","white","woman","","","","null","","","","","","","","",""
"4381.299999952316","<img src=""portrait/BW2.jpg""style=""height:400px;""></img>","2","html-button-response","339","1096331","0.0-18.0-19.0","83843","List2A","white","woman","","true","2","","","","","","","","","",""
"null","CORRECT","","html-keyboard-response","340","1097853","0.0-18.0-20.0-0.0","83843","List2A","white","woman","","","","null","","","","","","","","",""
"2486.2999999523163","<img src=""portrait/WM1.jpg""style=""height:400px;""></img>","6","html-button-response","341","1100341","0.0-18.0-22.0","83843","List2A","white","woman","","true","6","","","","","","","","","",""
"null","CORRECT","","html-keyboard-response","342","1101851","0.0-18.0-23.0-0.0","83843","List2A","white","woman","","","","null","","","","","","","","",""
"1358.5","<p>You got 8 out of 8 right first time. Press Continue.</p>","0","html-button-response","343","1103212","0.0-18.0-25.0","83843","List2A","white","woman","","","","","","","","","","","","",""
"null","<div style=""font-size:60px;"">+</div>","","html-keyboard-response","344","1104728","0.0-19.0-0.0","83843","List2A","white","woman","","","","null","","","","","","","","",""
"null","<img src=""stim_listA/oppose1.gif""style=""height:400px;""></stim_listA>","","html-keyboard-response","345","1106745","0.0-19.0-1.0","83843","List2A","white","woman","","","","null","","","","","","","","",""
"null","is opposing","","html-keyboard-response","346","1108752","0.0-19.0-2.0","83843","List2A","white","woman","","","","null","","","","","","","","",""
"3993.9000000953674","","","survey-text","347","1112748","0.0-19.0-3.0","83843","List2A","white","woman","","","","","{""Q0"":""kate is opposing dave""}","<img src=""stim_listA/oppose1.gif""style=""height:400px;""></stim_listA>","is opposing","","","","","",""
"null","<div style=""font-size:60px;"">+</div>","","html-keyboard-response","348","1113254","0.0-19.0-0.1","83843","List2A","white","woman","","","","null","","","","","","","","",""
"null","<img src=""stim_listA/copy5.gif""style=""height:400px;""></stim_listA>","","html-keyboard-response","349","1115270","0.0-19.0-1.1","83843","List2A","white","woman","","","","null","","","","","","","","",""
"null","is copying","","html-keyboard-response","350","1117287","0.0-19.0-2.1","83843","List2A","white","woman","","","","null","","","","","","","","",""
"4282","","","survey-text","351","1121572","0.0-19.0-3.1","83843","List2A","white","woman","","","","","{""Q0"":""fred is copying dave""}","<img src=""stim_listA/copy5.gif""style=""height:400px;""></stim_listA>","is copying","","","","","",""
"null","<div style=""font-size:60px;"">+</div>","","html-keyboard-response","352","1122088","0.0-19.0-0.2","83843","List2A","white","woman","","","","null","","","","","","","","",""
"null","<img src=""stim_listA/look1.gif""style=""height:400px;""></stim_listA>","","html-keyboard-response","353","1124096","0.0-19.0-1.2","83843","List2A","white","woman","","","","null","","","","","","","","",""
"null","is looking at","","html-keyboard-response","354","1126110","0.0-19.0-2.2","83843","List2A","white","woman","","","","null","","","","","","","","",""
"3930.7000000476837","","","survey-text","355","1130044","0.0-19.0-3.2","83843","List2A","white","woman","","","","","{""Q0"":""luke is looking at ruth""}","<img src=""stim_listA/look1.gif""style=""height:400px;""></stim_listA>","is looking at","","","","","",""
"null","<div style=""font-size:60px;"">+</div>","","html-keyboard-response","356","1130559","0.0-19.0-0.3","83843","List2A","white","woman","","","","null","","","","","","","","",""
"null","<img src=""stim_listA/seduce4.gif""style=""height:400px;""></stim_listA>","","html-keyboard-response","357","1132567","0.0-19.0-1.3","83843","List2A","white","woman","","","","null","","","","","","","","",""
"null","is being seduced by","","html-keyboard-response","358","1134574","0.0-19.0-2.3","83843","List2A","white","woman","","","","null","","","","","","","","",""
"5237.399999856949","","","survey-text","359","1139814","0.0-19.0-3.3","83843","List2A","white","woman","","","","","{""Q0"":""beth is being seduced by mike""}","<img src=""stim_listA/seduce4.gif""style=""height:400px;""></stim_listA>","is being seduced by","","","","","",""
"null","<div style=""font-size:60px;"">+</div>","","html-keyboard-response","360","1140323","0.0-19.0-0.4","83843","List2A","white","woman","","","","null","","","","","","","","",""
"null","<img src=""stim_listA/look6.gif""style=""height:400px;""></stim_listA>","","html-keyboard-response","361","1142336","0.0-19.0-1.4","83843","List2A","white","woman","","","","null","","","","","","","","",""
"null","is being looked at by","","html-keyboard-response","362","1144347","0.0-19.0-2.4","83843","List2A","white","woman","","","","null","","","","","","","","",""
"5918","","","survey-text","363","1150267","0.0-19.0-3.4","83843","List2A","white","woman","","","","","{""Q0"":""dave is being looked at by mike""}","<img src=""stim_listA/look6.gif""style=""height:400px;""></stim_listA>","is being looked at by","","","","","",""
"null","<div style=""font-size:60px;"">+</div>","","html-keyboard-response","364","1150782","0.0-19.0-0.5","83843","List2A","white","woman","","","","null","","","","","","","","",""
"null","<img src=""stim_listA/oppose8.gif""style=""height:400px;""></stim_listA>","","html-keyboard-response","365","1152787","0.0-19.0-1.5","83843","List2A","white","woman","","","","null","","","","","","","","",""
"null","is being opposed by","","html-keyboard-response","366","1154797","0.0-19.0-2.5","83843","List2A","white","woman","","","","null","","","","","","","","",""
"7640.400000095367","","","survey-text","367","1162440","0.0-19.0-3.5","83843","List2A","white","woman","","","","","{""Q0"":""beth is being opposed by ruth""}","<img src=""stim_listA/oppose8.gif""style=""height:400px;""></stim_listA>","is being opposed by","","","","","",""
"null","<div style=""font-size:60px;"">+</div>","","html-keyboard-response","368","1162948","0.0-19.0-0.6","83843","List2A","white","woman","","","","null","","","","","","","","",""
"null","<img src=""stim_listA/touch8.gif""style=""height:400px;""></stim_listA>","","html-keyboard-response","369","1164958","0.0-19.0-1.6","83843","List2A","white","woman","","","","null","","","","","","","","",""
"null","is being touched by","","html-keyboard-response","370","1166969","0.0-19.0-2.6","83843","List2A","white","woman","","","","null","","","","","","","","",""
"4137.600000143051","","","survey-text","371","1171109","0.0-19.0-3.6","83843","List2A","white","woman","","","","","{""Q0"":""ruth is being touched by beth""}","<img src=""stim_listA/touch8.gif""style=""height:400px;""></stim_listA>","is being touched by","","","","","",""
"null","<div style=""font-size:60px;"">+</div>","","html-keyboard-response","372","1171623","0.0-19.0-0.7","83843","List2A","white","woman","","","","null","","","","","","","","",""
"null","<img src=""stim_listA/look8.gif""style=""height:400px;""></stim_listA>","","html-keyboard-response","373","1173634","0.0-19.0-1.7","83843","List2A","white","woman","","","","null","","","","","","","","",""
"null","is being looked at by","","html-keyboard-response","374","1175649","0.0-19.0-2.7","83843","List2A","white","woman","","","","null","","","","","","","","",""
"4547.099999904633","","","survey-text","375","1180199","0.0-19.0-3.7","83843","List2A","white","woman","","","","","{""Q0"":""jane is being looked at by kate""}","<img src=""stim_listA/look8.gif""style=""height:400px;""></stim_listA>","is being looked at by","","","","","",""
"null","<div style=""font-size:60px;"">+</div>","","html-keyboard-response","376","1180708","0.0-19.0-0.8","83843","List2A","white","woman","","","","null","","","","","","","","",""
"null","<img src=""stim_listA/copy1.gif""style=""height:400px;""></stim_listA>","","html-keyboard-response","377","1182726","0.0-19.0-1.8","83843","List2A","white","woman","","","","null","","","","","","","","",""
"null","is copying","","html-keyboard-response","378","1184728","0.0-19.0-2.8","83843","List2A","white","woman","","","","null","","","","","","","","",""
"6708.099999904633","","","survey-text","379","1191439","0.0-19.0-3.8","83843","List2A","white","woman","","","","","{""Q0"":""ruth is copying dave""}","<img src=""stim_listA/copy1.gif""style=""height:400px;""></stim_listA>","is copying","","","","","",""
"null","<div style=""font-size:60px;"">+</div>","","html-keyboard-response","380","1191944","0.0-19.0-0.9","83843","List2A","white","woman","","","","null","","","","","","","","",""
"null","<img src=""stim_listA/shout6.gif""style=""height:400px;""></stim_listA>","","html-keyboard-response","381","1193960","0.0-19.0-1.9","83843","List2A","white","woman","","","","null","","","","","","","","",""
"null","is being shouted at by","","html-keyboard-response","382","1195975","0.0-19.0-2.9","83843","List2A","white","woman","","","","null","","","","","","","","",""
"5666","","","survey-text","383","1201643","0.0-19.0-3.9","83843","List2A","white","woman","","","","","{""Q0"":""dave is being shouted at by mike""}","<img src=""stim_listA/shout6.gif""style=""height:400px;""></stim_listA>","is being shouted at by","","","","","",""
"null","<div style=""font-size:60px;"">+</div>","","html-keyboard-response","384","1202150","0.0-19.0-0.10","83843","List2A","white","woman","","","","null","","","","","","","","",""
"null","<img src=""stim_listA/challenge2.gif""style=""height:400px;""></stim_listA>","","html-keyboard-response","385","1204159","0.0-19.0-1.10","83843","List2A","white","woman","","","","null","","","","","","","","",""
"null","is being challenged by","","html-keyboard-response","386","1206161","0.0-19.0-2.10","83843","List2A","white","woman","","","","null","","","","","","","","",""
"5693.199999809265","","","survey-text","387","1211860","0.0-19.0-3.10","83843","List2A","white","woman","","","","","{""Q0"":""luke is being challenged by kate""}","<img src=""stim_listA/challenge2.gif""style=""height:400px;""></stim_listA>","is being challenged by","","","","","",""
"null","<div style=""font-size:60px;"">+</div>","","html-keyboard-response","388","1212368","0.0-19.0-0.11","83843","List2A","white","woman","","","","null","","","","","","","","",""
"null","<img src=""stim_listA/shout2.gif""style=""height:400px;""></stim_listA>","","html-keyboard-response","389","1214382","0.0-19.0-1.11","83843","List2A","white","woman","","","","null","","","","","","","","",""
"null","is being shouted at by","","html-keyboard-response","390","1216391","0.0-19.0-2.11","83843","List2A","white","woman","","","","null","","","","","","","","",""
"11145.899999856949","","","survey-text","391","1227538","0.0-19.0-3.11","83843","List2A","white","woman","","","","","{""Q0"":""jane is being shouted at by dave""}","<img src=""stim_listA/shout2.gif""style=""height:400px;""></stim_listA>","is being shouted at by","","","","","",""
"null","<div style=""font-size:60px;"">+</div>","","html-keyboard-response","392","1228051","0.0-19.0-0.12","83843","List2A","white","woman","","","","null","","","","","","","","",""
"null","<img src=""stim_listA/look7.gif""style=""height:400px;""></stim_listA>","","html-keyboard-response","393","1230054","0.0-19.0-1.12","83843","List2A","white","woman","","","","null","","","","","","","","",""
"null","is looking at","","html-keyboard-response","394","1232062","0.0-19.0-2.12","83843","List2A","white","woman","","","","null","","","","","","","","",""
"3872.899999856949","","","survey-text","395","1235938","0.0-19.0-3.12","83843","List2A","white","woman","","","","","{""Q0"":""beth is looking at ruth""}","<img src=""stim_listA/look7.gif""style=""height:400px;""></stim_listA>","is looking at","","","","","",""
"null","<div style=""font-size:60px;"">+</div>","","html-keyboard-response","396","1236451","0.0-19.0-0.13","83843","List2A","white","woman","","","","null","","","","","","","","",""
"null","<img src=""stim_listA/shout7.gif""style=""height:400px;""></stim_listA>","","html-keyboard-response","397","1238461","0.0-19.0-1.13","83843","List2A","white","woman","","","","null","","","","","","","","",""
"null","is shouting at","","html-keyboard-response","398","1240476","0.0-19.0-2.13","83843","List2A","white","woman","","","","null","","","","","","","","",""
"4842.799999952316","","","survey-text","399","1245322","0.0-19.0-3.13","83843","List2A","white","woman","","","","","{""Q0"":""ruth is shouting at beth""}","<img src=""stim_listA/shout7.gif""style=""height:400px;""></stim_listA>","is shouting at","","","","","",""
"null","<div style=""font-size:60px;"">+</div>","","html-keyboard-response","400","1245827","0.0-19.0-0.14","83843","List2A","white","woman","","","","null","","","","","","","","",""
"null","<img src=""stim_listA/copy6.gif""style=""height:400px;""></stim_listA>","","html-keyboard-response","401","1247839","0.0-19.0-1.14","83843","List2A","white","woman","","","","null","","","","","","","","",""
"null","is being copied by","","html-keyboard-response","402","1249853","0.0-19.0-2.14","83843","List2A","white","woman","","","","null","","","","","","","","",""
"3337.399999856949","","","survey-text","403","1253194","0.0-19.0-3.14","83843","List2A","white","woman","","","","","{""Q0"":""mike is copying luke""}","<img src=""stim_listA/copy6.gif""style=""height:400px;""></stim_listA>","is being copied by","","","","","",""
"null","<div style=""font-size:60px;"">+</div>","","html-keyboard-response","404","1253704","0.0-19.0-0.15","83843","List2A","white","woman","","","","null","","","","","","","","",""
"null","<img src=""stim_listA/copy8.gif""style=""height:400px;""></stim_listA>","","html-keyboard-response","405","1255707","0.0-19.0-1.15","83843","List2A","white","woman","","","","null","","","","","","","","",""
"null","is being copied by","","html-keyboard-response","406","1257711","0.0-19.0-2.15","83843","List2A","white","woman","","","","null","","","","","","","","",""
"4117.5","","","survey-text","407","1261831","0.0-19.0-3.15","83843","List2A","white","woman","","","","","{""Q0"":""kate is copying ruth""}","<img src=""stim_listA/copy8.gif""style=""height:400px;""></stim_listA>","is being copied by","","","","","",""
"null","<div style=""font-size:60px;"">+</div>","","html-keyboard-response","408","1262338","0.0-19.0-0.16","83843","List2A","white","woman","","","","null","","","","","","","","",""
"null","<img src=""stim_listA/kiss1.gif""style=""height:400px;""></stim_listA>","","html-keyboard-response","409","1264353","0.0-19.0-1.16","83843","List2A","white","woman","","","","null","","","","","","","","",""
"null","is kissing","","html-keyboard-response","410","1266362","0.0-19.0-2.16","83843","List2A","white","woman","","","","null","","","","","","","","",""
"3251.899999856949","","","survey-text","411","1269616","0.0-19.0-3.16","83843","List2A","white","woman","","","","","{""Q0"":""luke is kissing ruth""}","<img src=""stim_listA/kiss1.gif""style=""height:400px;""></stim_listA>","is kissing","","","","","",""
"null","<div style=""font-size:60px;"">+</div>","","html-keyboard-response","412","1270130","0.0-19.0-0.17","83843","List2A","white","woman","","","","null","","","","","","","","",""
"null","<img src=""stim_listA/oppose4.gif""style=""height:400px;""></stim_listA>","","html-keyboard-response","413","1272133","0.0-19.0-1.17","83843","List2A","white","woman","","","","null","","","","","","","","",""
"null","is being opposed by","","html-keyboard-response","414","1274148","0.0-19.0-2.17","83843","List2A","white","woman","","","","null","","","","","","","","",""
"4458.200000047684","","","survey-text","415","1278609","0.0-19.0-3.17","83843","List2A","white","woman","","","","","{""Q0"":""fred is being opposed by beth""}","<img src=""stim_listA/oppose4.gif""style=""height:400px;""></stim_listA>","is being opposed by","","","","","",""
"null","<div style=""font-size:60px;"">+</div>","","html-keyboard-response","416","1279114","0.0-19.0-0.18","83843","List2A","white","woman","","","","null","","","","","","","","",""
"null","<img src=""stim_listA/hug7.gif""style=""height:400px;""></stim_listA>","","html-keyboard-response","417","1281118","0.0-19.0-1.18","83843","List2A","white","woman","","","","null","","","","","","","","",""
"null","is hugging","","html-keyboard-response","418","1283130","0.0-19.0-2.18","83843","List2A","white","woman","","","","null","","","","","","","","",""
"3953.2999999523163","","","survey-text","419","1287086","0.0-19.0-3.18","83843","List2A","white","woman","","","","","{""Q0"":""ruth is hugging beth""}","<img src=""stim_listA/hug7.gif""style=""height:400px;""></stim_listA>","is hugging","","","","","",""
"null","<div style=""font-size:60px;"">+</div>","","html-keyboard-response","420","1287592","0.0-19.0-0.19","83843","List2A","white","woman","","","","null","","","","","","","","",""
"null","<img src=""stim_listA/shout3.gif""style=""height:400px;""></stim_listA>","","html-keyboard-response","421","1289602","0.0-19.0-1.19","83843","List2A","white","woman","","","","null","","","","","","","","",""
"null","is shouting at","","html-keyboard-response","422","1291618","0.0-19.0-2.19","83843","List2A","white","woman","","","","null","","","","","","","","",""
"3490.399999856949","","","survey-text","423","1295111","0.0-19.0-3.19","83843","List2A","white","woman","","","","","{""Q0"":""beth is shouting at fred""}","<img src=""stim_listA/shout3.gif""style=""height:400px;""></stim_listA>","is shouting at","","","","","",""
"3015.399999856949","<p>Thank you for completing that task.</p><p>The final part of this session is a questionnaire that will take about 4 minutes.</p><p>Press Continue.</p>","0","html-button-response","424","1298127","0.0-20.0","83843","List2A","white","woman","","","","","","","","","","","","",""
"24028.200000047684","","","survey-text","425","1323174","0.0-21.0","83843","List2A","white","woman","","","","","{""Q0"":""30"",""Q1"":""English"",""Q2"":""English"",""Q3"":""United States"",""Q4"":""White"",""Q5"":""White"",""Q6"":""Female""}","","","demographics","","","","",""
"3077.2000000476837","<p>Have you lived in the USA for the last 5 years or more?</p>","0","html-button-response","426","1326252","0.0-22.0","83843","List2A","white","woman","","","","","","","","fiveyears","","","","",""
"2987.2999999523163","<p>Move the slider to show the extent to which you agree with the following statements.</p>","0","html-button-response","427","1330252","0.0-23.0","83843","List2A","white","woman","","","","","","","","","","","","",""
"9034.400000095367","","","html-slider-response","428","1340298","0.0-24.0-0.0-0.0","83843","List2A","white","woman","","","","","","","","survey_gender","49","","","I am glad to be my gender.","glad"
"11258.299999952316","","","html-slider-response","429","1351560","0.0-24.0-0.0-0.1","83843","List2A","white","woman","","","","","","","","survey_gender","60","","","Being around my friends gives me a good feeling.","filler"
"7506.900000095367","","","html-slider-response","430","1359069","0.0-24.0-0.0-0.2","83843","List2A","white","woman","","","","","","","","survey_gender","100","","","People of my gender have a lot in common with each other.","common"
"12657.200000047684","","","html-slider-response","431","1371729","0.0-24.0-0.0-0.3","83843","List2A","white","woman","","","","","","","","survey_gender","97","","","I feel committed to my gender.","committed"
"5560.299999952316","","","html-slider-response","432","1377293","0.0-24.0-0.0-0.4","83843","List2A","white","woman","","","","","","","","survey_gender","100","","","I feel a bond with my gender.","bond"
"5019.200000047684","","","html-slider-response","433","1382315","0.0-24.0-0.0-0.5","83843","List2A","white","woman","","","","","","","","survey_gender","83","","","I feel a bond with my friends.","filler"
"6039.899999856949","","","html-slider-response","434","1388357","0.0-24.0-0.0-0.6","83843","List2A","white","woman","","","","","","","","survey_gender","30","","","Routine is not important to me.","filler"
"4005.7999999523163","","","html-slider-response","435","1392365","0.0-24.0-0.0-0.7","83843","List2A","white","woman","","","","","","","","survey_gender","100","","","I feel solidarity with my friends.","filler"
"9255.299999952316","","","html-slider-response","436","1401623","0.0-24.0-0.0-0.8","83843","List2A","white","woman","","","","","","","","survey_gender","99","","","I am glad to have the friends that I have.","filler"
"5636.200000047684","","","html-slider-response","437","1407262","0.0-24.0-0.0-0.9","83843","List2A","white","woman","","","","","","","","survey_gender","47","","","Being my gender gives me a good feeling.","feeling"
"16877.299999952316","","","html-slider-response","438","1424142","0.0-24.0-0.0-0.10","83843","List2A","white","woman","","","","","","","","survey_gender","100","","","I often think about the fact that I am my gender.","often"
"5910.200000047684","","","html-slider-response","439","1430055","0.0-24.0-0.0-0.11","83843","List2A","white","woman","","","","","","","","survey_gender","100","","","I feel solidarity with my gender.","solidarity"
"3605","","","html-slider-response","440","1433662","0.0-24.0-0.0-0.12","83843","List2A","white","woman","","","","","","","","survey_gender","100","","","I would say I am an animal person.","filler"
"8388.399999856949","","","html-slider-response","441","1442053","0.0-24.0-0.0-0.13","83843","List2A","white","woman","","","","","","","","survey_gender","77","","","I consider myself a highly empathetic person.","filler"
"11219.100000143051","","","html-slider-response","442","1453275","0.0-24.0-0.0-0.14","83843","List2A","white","woman","","","","","","","","survey_gender","100","","","Family is not more important to me than friendship.","filler"
"5233.400000095367","","","html-slider-response","443","1458512","0.0-24.0-0.0-0.15","83843","List2A","white","woman","","","","","","","","survey_gender","59","","","I have a lot in common with the average person of my gender.","average"
"3652","","","html-slider-response","444","1462166","0.0-24.0-0.0-0.16","83843","List2A","white","woman","","","","","","","","survey_gender","100","","","My friends have a lot in common with each other.","filler"
"4595.799999952316","","","html-slider-response","445","1466765","0.0-24.0-0.0-0.17","83843","List2A","white","woman","","","","","","","","survey_gender","100","","","The fact that I am my gender is an important part of my identity.","identity"
"5487.5","","","html-slider-response","446","1472255","0.0-24.0-0.0-0.18","83843","List2A","white","woman","","","","","","","","survey_gender","87","","","It is not always easy for people to know what I am thinking.","filler"
"5864.5","","","html-slider-response","447","1478122","0.0-24.0-0.0-0.19","83843","List2A","white","woman","","","","","","","","survey_gender","15","","","It is pleasant to be my gender.","pleasant"
"5626.400000095367","","","html-slider-response","448","1483750","0.0-24.0-0.0-0.20","83843","List2A","white","woman","","","","","","","","survey_gender","27","","","I am similar to the average person of my gender.","similar"
"3603.899999856949","","","html-slider-response","449","1487357","0.0-24.0-0.0-0.21","83843","List2A","white","woman","","","","","","","","survey_gender","100","","","I often think about my actions.","filler"
"3573.5","","","html-slider-response","450","1490933","0.0-24.0-0.0-0.22","83843","List2A","white","woman","","","","","","","","survey_gender","91","","","I have a lot in common with my friends.","filler"
"3536.0999999046326","","","html-slider-response","451","1494470","0.0-24.0-0.0-0.23","83843","List2A","white","woman","","","","","","","","survey_gender","65","","","My friends understand me.","filler"
"5351","","","html-slider-response","452","1499824","0.0-24.0-0.0-0.24","83843","List2A","white","woman","","","","","","","","survey_gender","100","","","I think that my gender has a lot to be proud of.","proud"
"9850.800000190735","","","html-slider-response","453","1509677","0.0-24.0-0.0-0.25","83843","List2A","white","woman","","","","","","","","survey_gender","13","","","People of my gender are very similar to each other.","verysimilar"
"4860","","","html-slider-response","454","1514540","0.0-24.0-0.0-0.26","83843","List2A","white","woman","","","","","","","","survey_gender","67","","","Most of the friends in my life are very similar to me.","filler"
"4280.700000047684","","","html-slider-response","455","1518823","0.0-24.0-0.0-0.27","83843","List2A","white","woman","","","","","","","","survey_gender","100","","","Being my gender is an important part of how I see myself.","important"
"6845.399999856949","","","html-slider-response","456","1525671","0.0-24.0-1.0-0.0","83843","List2A","white","woman","","","","","","","","survey_race","15","","","I feel a bond with my race.","bond"
"4792.100000143051","","","html-slider-response","457","1530466","0.0-24.0-1.0-0.1","83843","List2A","white","woman","","","","","","","","survey_race","65","","","I feel solidarity with people the same age as me.","filler"
"3996.7999999523163","","","html-slider-response","458","1534466","0.0-24.0-1.0-0.2","83843","List2A","white","woman","","","","","","","","survey_race","59","","","I feel a bond with people the same age as me.","filler"
"5193.700000047684","","","html-slider-response","459","1539662","0.0-24.0-1.0-0.3","83843","List2A","white","woman","","","","","","","","survey_race","57","","","I have a lot in common with people of a similar age to me.","filler"
"7562.899999856949","","","html-slider-response","460","1547227","0.0-24.0-1.0-0.4","83843","List2A","white","woman","","","","","","","","survey_race","78","","","My age is not an important part of who I am.","filler"
"5341.700000047684","","","html-slider-response","461","1552571","0.0-24.0-1.0-0.5","83843","List2A","white","woman","","","","","","","","survey_race","20","","","I am similar to the average person of my race.","similar"
"4420.5","","","html-slider-response","462","1556994","0.0-24.0-1.0-0.6","83843","List2A","white","woman","","","","","","","","survey_race","0","","","I feel committed to my race.","committed"
"6798.200000047684","","","html-slider-response","463","1563795","0.0-24.0-1.0-0.7","83843","List2A","white","woman","","","","","","","","survey_race","49","","","It is pleasant to be my race.","pleasant"
"5499.5","","","html-slider-response","464","1569297","0.0-24.0-1.0-0.8","83843","List2A","white","woman","","","","","","","","survey_race","9","","","I have a lot in common with the average person of my race.","average"
"4056","","","html-slider-response","465","1573356","0.0-24.0-1.0-0.9","83843","List2A","white","woman","","","","","","","","survey_race","0","","","I enjoy being in large groups.","filler"
"3760.9000000953674","","","html-slider-response","466","1577119","0.0-24.0-1.0-0.10","83843","List2A","white","woman","","","","","","","","survey_race","11","","","I feel solidarity with my race.","solidarity"
"7534.900000095367","","","html-slider-response","467","1584656","0.0-24.0-1.0-0.11","83843","List2A","white","woman","","","","","","","","survey_race","49","","","People of my race are very similar to each other.","verysimilar"
"6196.400000095367","","","html-slider-response","468","1590856","0.0-24.0-1.0-0.12","83843","List2A","white","woman","","","","","","","","survey_race","71","","","People my age have a lot in common with each other.","filler"
"4252.299999952316","","","html-slider-response","469","1595111","0.0-24.0-1.0-0.13","83843","List2A","white","woman","","","","","","","","survey_race","90","","","I am glad to be my age.","filler"
"4389.899999856949","","","html-slider-response","470","1599503","0.0-24.0-1.0-0.14","83843","List2A","white","woman","","","","","","","","survey_race","0","","","Being my race gives me a good feeling.","feeling"
"4880.700000047684","","","html-slider-response","471","1604386","0.0-24.0-1.0-0.15","83843","List2A","white","woman","","","","","","","","survey_race","52","","","I am glad to be my race.","glad"
"5352.299999952316","","","html-slider-response","472","1609741","0.0-24.0-1.0-0.16","83843","List2A","white","woman","","","","","","","","survey_race","92","","","Being my age gives me a good feeling.","filler"
"4458.5","","","html-slider-response","473","1614202","0.0-24.0-1.0-0.17","83843","List2A","white","woman","","","","","","","","survey_race","5","","","Being my race is an important part of how I see myself.","important"
"6462","","","html-slider-response","474","1620667","0.0-24.0-1.0-0.18","83843","List2A","white","woman","","","","","","","","survey_race","4","","","The fact that I am my race is an important part of my identity.","identity"
"7278.099999904633","","","html-slider-response","475","1627947","0.0-24.0-1.0-0.19","83843","List2A","white","woman","","","","","","","","survey_race","52","","","People of my race have a lot in common with each other.","common"
