"rt","stimulus","button_pressed","trial_type","trial_index","time_elapsed","internal_node_id","subject","list","ppt_race","ppt_gender","url","first_guess","correct","key_press","responses","image_type","phrase_type","test_part","response","stimulus1","stimulus2","question_type","survey_item"
"2034.2999999970198","Welcome to the experiment. Press Continue to begin.","0","html-button-response","0","2037","0.0-0.0","83893","List1A","black","woman","","","","","","","","","","","","",""
"21983.89999999106","","","external-html","1","25141","0.0-1.0","83893","List1A","black","woman","consent.html","","","","","","","","","","","",""
"8047.9000000059605","<p>On the next page, you will see portraits of 8 people and their names.</p><p>Your first task is to take a few minutes to memorise the names of these people.</p><p>You will have to recall their names during the rest of the experiment, so it is</p><p>essential that you try to memorise these people and their names as best as you can.</p><br><p><strong>You will then be tested on your memory of these names and portraits.</strong></p><br><p>The experiment will start after you have completed this memory test.</p><br><p>Ready?</p>","0","html-button-response","2","33191","0.0-2.0","83893","List1A","black","woman","","","","","","","","","","","","",""
"35153.09999999404","<img src='img/portrait_matrix_list1.jpg' style='width:900px;height:500px;''></img><p>If you have memorised all the portraits and names and are ready to start, press Continue.</p><p><strong>Please note: Your memory of these faces will be tested 4 times during this experiment.</strong></p>","0","html-button-response","3","69350","0.0-3.0-0.0","83893","List1A","black","woman","","","","","","","","","","","","",""
"3783.7999999970198","<img src=""portrait/BW1.jpg""style=""height:400px;""></img>","0","html-button-response","4","74140","0.0-3.0-1.0","83893","List1A","black","woman","","true","0","","","","","","","","","",""
"null","CORRECT","","html-keyboard-response","5","75650","0.0-3.0-2.0-0.0","83893","List1A","black","woman","","","","null","","","","","","","","",""
"2422.1000000089407","<img src=""portrait/BM2.jpg""style=""height:400px;""></img>","5","html-button-response","6","78075","0.0-3.0-4.0","83893","List1A","black","woman","","true","5","","","","","","","","","",""
"null","CORRECT","","html-keyboard-response","7","79584","0.0-3.0-5.0-0.0","83893","List1A","black","woman","","","","null","","","","","","","","",""
"2033.5999999940395","<img src=""portrait/WW1.jpg""style=""height:400px;""></img>","1","html-button-response","8","81620","0.0-3.0-7.0","83893","List1A","black","woman","","true","1","","","","","","","","","",""
"null","CORRECT","","html-keyboard-response","9","83125","0.0-3.0-8.0-0.0","83893","List1A","black","woman","","","","null","","","","","","","","",""
"2214.6000000089407","<img src=""portrait/WW2.jpg""style=""height:400px;""></img>","3","html-button-response","10","85342","0.0-3.0-10.0","83893","List1A","black","woman","","true","3","","","","","","","","","",""
"null","CORRECT","","html-keyboard-response","11","86852","0.0-3.0-11.0-0.0","83893","List1A","black","woman","","","","null","","","","","","","","",""
"2357.5","<img src=""portrait/BW2.jpg""style=""height:400px;""></img>","2","html-button-response","12","89212","0.0-3.0-13.0","83893","List1A","black","woman","","true","2","","","","","","","","","",""
"null","CORRECT","","html-keyboard-response","13","90718","0.0-3.0-14.0-0.0","83893","List1A","black","woman","","","","null","","","","","","","","",""
"3861.9000000059605","<img src=""portrait/WM1.jpg""style=""height:400px;""></img>","6","html-button-response","14","94582","0.0-3.0-16.0","83893","List1A","black","woman","","true","6","","","","","","","","","",""
"null","CORRECT","","html-keyboard-response","15","96094","0.0-3.0-17.0-0.0","83893","List1A","black","woman","","","","null","","","","","","","","",""
"3957.7000000029802","<img src=""portrait/WM2.jpg""style=""height:400px;""></img>","7","html-button-response","16","100054","0.0-3.0-19.0","83893","List1A","black","woman","","true","7","","","","","","","","","",""
"null","CORRECT","","html-keyboard-response","17","101558","0.0-3.0-20.0-0.0","83893","List1A","black","woman","","","","null","","","","","","","","",""
"1417.0999999940395","<img src=""portrait/BM1.jpg""style=""height:400px;""></img>","4","html-button-response","18","102978","0.0-3.0-22.0","83893","List1A","black","woman","","true","4","","","","","","","","","",""
"null","CORRECT","","html-keyboard-response","19","104488","0.0-3.0-23.0-0.0","83893","List1A","black","woman","","","","null","","","","","","","","",""
"1592.7000000029802","<p>You got 8 out of 8 right first time. Press Continue.</p>","0","html-button-response","20","106083","0.0-3.0-25.0","83893","List1A","black","woman","","","","","","","","","","","","",""
"28004.20000000298","<p>In this experiment, you will view photographs of the people from the memory game interacting.</p><p>By using the <strong>exact</strong> phrase given <i>after</i> the photograph appears and recalling the correct names of the people in the photographs, form a sentence describing the interaction. You do not need to capitalise names.</p><p>Type your answer in the space provided. Please complete every sentence before moving onto the next trial.</p><p>You will only have a few seconds to memorise each given photograph and phrase before you can respond, so try your best to focus.</p><p>An example is given below. Press 'Continue' when you are ready.</p><img src='img/speaking_example.jpg' style='width:800px;height:460px;''></img>","0","html-button-response","21","135096","0.0-4.0","83893","List1A","black","woman","","","","","","","","","","","","",""
"2744.5999999940395","<p>Before the experiment starts, you will watch two example trials. Press 'Continue'.</p>","0","html-button-response","22","138843","0.0-5.0","83893","List1A","black","woman","","","","","","","","","","","","",""
"null","<img src='img/play_eg.gif' style='height:400px;''></img>","","html-keyboard-response","23","141849","0.0-6.0","83893","List1A","black","woman","","","","null","","","","","","","","",""
"null","<p>is playing with</p>","","html-keyboard-response","24","143851","0.0-7.0","83893","List1A","black","woman","","","","null","","","","","","","","",""
"4098.79999999702","<p><b>Answer:</b> kate is playing with beth</p>","0","html-button-response","25","147950","0.0-8.0","83893","List1A","black","woman","","","","","","","","","","","","",""
"null","<img src='img/dance_eg.gif' style='height:400px;''></img>","","html-keyboard-response","26","150956","0.0-9.0","83893","List1A","black","woman","","","","null","","","","","","","","",""
"null","<p>is being entertained by</p>","","html-keyboard-response","27","152959","0.0-10.0","83893","List1A","black","woman","","","","null","","","","","","","","",""
"1793","<p><b>Answer:</b> luke is being entertained by dave</p>","0","html-button-response","28","154753","0.0-11.0","83893","List1A","black","woman","","","","","","","","","","","","",""
"7274.300000011921","<p>Ready to start the experiment?</p><br><p><strong>Remember to describe the picture using a full sentence,</strong></p><p><strong>that combines the names of the people with the <i>exact</i> phrase given.</strong></p><p><strong>To receive full payment you must do this correctly.</strong></p><p><strong> You do not need to capitalise names or use punctuation.</strong></p><br><p>Press 'Continue' to begin.</p>","0","html-button-response","29","163029","0.0-12.0","83893","List1A","black","woman","","","","","","","","","","","","",""
"null","<div style=""font-size:60px;"">+</div>","","html-keyboard-response","30","164535","0.0-13.0-0.0","83893","List1A","black","woman","","","","null","","","","","","","","",""
"null","<img src=""stim_listA/shout7.gif""style=""height:400px;""></stim_listA>","","html-keyboard-response","31","166537","0.0-13.0-1.0","83893","List1A","black","woman","","","","null","","","","","","","","",""
"null","is shouting at","","html-keyboard-response","32","168539","0.0-13.0-2.0","83893","List1A","black","woman","","","","null","","","","","","","","",""
"6792","","","survey-text","33","175334","0.0-13.0-3.0","83893","List1A","black","woman","","","","","{""Q0"":""ruth is shouting at beth""}","<img src=""stim_listA/shout7.gif""style=""height:400px;""></stim_listA>","is shouting at","","","","","",""
"null","<div style=""font-size:60px;"">+</div>","","html-keyboard-response","34","175836","0.0-13.0-0.1","83893","List1A","black","woman","","","","null","","","","","","","","",""
"null","<img src=""stim_listA/greet8.gif""style=""height:400px;""></stim_listA>","","html-keyboard-response","35","177839","0.0-13.0-1.1","83893","List1A","black","woman","","","","null","","","","","","","","",""
"null","is being greeted by","","html-keyboard-response","36","179842","0.0-13.0-2.1","83893","List1A","black","woman","","","","null","","","","","","","","",""
"7915","","","survey-text","37","187760","0.0-13.0-3.1","83893","List1A","black","woman","","","","","{""Q0"":""beth is greeted by jane""}","<img src=""stim_listA/greet8.gif""style=""height:400px;""></stim_listA>","is being greeted by","","","","","",""
"null","<div style=""font-size:60px;"">+</div>","","html-keyboard-response","38","188262","0.0-13.0-0.2","83893","List1A","black","woman","","","","null","","","","","","","","",""
"null","<img src=""stim_listA/look7.gif""style=""height:400px;""></stim_listA>","","html-keyboard-response","39","190268","0.0-13.0-1.2","83893","List1A","black","woman","","","","null","","","","","","","","",""
"null","is looking at","","html-keyboard-response","40","192270","0.0-13.0-2.2","83893","List1A","black","woman","","","","null","","","","","","","","",""
"5903","","","survey-text","41","198177","0.0-13.0-3.2","83893","List1A","black","woman","","","","","{""Q0"":""beth is looking at ruth""}","<img src=""stim_listA/look7.gif""style=""height:400px;""></stim_listA>","is looking at","","","","","",""
"null","<div style=""font-size:60px;"">+</div>","","html-keyboard-response","42","198678","0.0-13.0-0.3","83893","List1A","black","woman","","","","null","","","","","","","","",""
"null","<img src=""stim_listA/oppose1.gif""style=""height:400px;""></stim_listA>","","html-keyboard-response","43","200682","0.0-13.0-1.3","83893","List1A","black","woman","","","","null","","","","","","","","",""
"null","is opposing","","html-keyboard-response","44","202685","0.0-13.0-2.3","83893","List1A","black","woman","","","","null","","","","","","","","",""
"5736.20000000298","","","survey-text","45","208424","0.0-13.0-3.3","83893","List1A","black","woman","","","","","{""Q0"":""mike is opposing kate""}","<img src=""stim_listA/oppose1.gif""style=""height:400px;""></stim_listA>","is opposing","","","","","",""
"null","<div style=""font-size:60px;"">+</div>","","html-keyboard-response","46","208927","0.0-13.0-0.4","83893","List1A","black","woman","","","","null","","","","","","","","",""
"null","<img src=""stim_listA/copy1.gif""style=""height:400px;""></stim_listA>","","html-keyboard-response","47","210934","0.0-13.0-1.4","83893","List1A","black","woman","","","","null","","","","","","","","",""
"null","is copying","","html-keyboard-response","48","212936","0.0-13.0-2.4","83893","List1A","black","woman","","","","null","","","","","","","","",""
"4525.79999999702","","","survey-text","49","217465","0.0-13.0-3.4","83893","List1A","black","woman","","","","","{""Q0"":""mike is copying beth""}","<img src=""stim_listA/copy1.gif""style=""height:400px;""></stim_listA>","is copying","","","","","",""
"null","<div style=""font-size:60px;"">+</div>","","html-keyboard-response","50","217968","0.0-13.0-0.5","83893","List1A","black","woman","","","","null","","","","","","","","",""
"null","<img src=""stim_listA/copy6.gif""style=""height:400px;""></stim_listA>","","html-keyboard-response","51","219972","0.0-13.0-1.5","83893","List1A","black","woman","","","","null","","","","","","","","",""
"null","is being copied by","","html-keyboard-response","52","221974","0.0-13.0-2.5","83893","List1A","black","woman","","","","null","","","","","","","","",""
"9864.79999999702","","","survey-text","53","231843","0.0-13.0-3.5","83893","List1A","black","woman","","","","","{""Q0"":""fred is being copied by dave""}","<img src=""stim_listA/copy6.gif""style=""height:400px;""></stim_listA>","is being copied by","","","","","",""
"null","<div style=""font-size:60px;"">+</div>","","html-keyboard-response","54","232346","0.0-13.0-0.6","83893","List1A","black","woman","","","","null","","","","","","","","",""
"null","<img src=""stim_listA/look3.gif""style=""height:400px;""></stim_listA>","","html-keyboard-response","55","234350","0.0-13.0-1.6","83893","List1A","black","woman","","","","null","","","","","","","","",""
"null","is looking at","","html-keyboard-response","56","236354","0.0-13.0-2.6","83893","List1A","black","woman","","","","null","","","","","","","","",""
"5355.4000000059605","","","survey-text","57","241713","0.0-13.0-3.6","83893","List1A","black","woman","","","","","{""Q0"":""ruth is looking at luke""}","<img src=""stim_listA/look3.gif""style=""height:400px;""></stim_listA>","is looking at","","","","","",""
"null","<div style=""font-size:60px;"">+</div>","","html-keyboard-response","58","242217","0.0-13.0-0.7","83893","List1A","black","woman","","","","null","","","","","","","","",""
"null","<img src=""stim_listA/oppose4.gif""style=""height:400px;""></stim_listA>","","html-keyboard-response","59","244220","0.0-13.0-1.7","83893","List1A","black","woman","","","","null","","","","","","","","",""
"null","is being opposed by","","html-keyboard-response","60","246222","0.0-13.0-2.7","83893","List1A","black","woman","","","","null","","","","","","","","",""
"7851.20000000298","","","survey-text","61","254076","0.0-13.0-3.7","83893","List1A","black","woman","","","","","{""Q0"":""luke is being opposed by ruth""}","<img src=""stim_listA/oppose4.gif""style=""height:400px;""></stim_listA>","is being opposed by","","","","","",""
"null","<div style=""font-size:60px;"">+</div>","","html-keyboard-response","62","254578","0.0-13.0-0.8","83893","List1A","black","woman","","","","null","","","","","","","","",""
"null","<img src=""stim_listA/look1.gif""style=""height:400px;""></stim_listA>","","html-keyboard-response","63","256584","0.0-13.0-1.8","83893","List1A","black","woman","","","","null","","","","","","","","",""
"null","is looking at","","html-keyboard-response","64","258586","0.0-13.0-2.8","83893","List1A","black","woman","","","","null","","","","","","","","",""
"5314.5999999940395","","","survey-text","65","263904","0.0-13.0-3.8","83893","List1A","black","woman","","","","","{""Q0"":""beth is looking at fred""}","<img src=""stim_listA/look1.gif""style=""height:400px;""></stim_listA>","is looking at","","","","","",""
"null","<div style=""font-size:60px;"">+</div>","","html-keyboard-response","66","264406","0.0-13.0-0.9","83893","List1A","black","woman","","","","null","","","","","","","","",""
"null","<img src=""stim_listA/challenge4.gif""style=""height:400px;""></stim_listA>","","html-keyboard-response","67","266412","0.0-13.0-1.9","83893","List1A","black","woman","","","","null","","","","","","","","",""
"null","is being challenged by","","html-keyboard-response","68","268415","0.0-13.0-2.9","83893","List1A","black","woman","","","","null","","","","","","","","",""
"7366.399999991059","","","survey-text","69","275786","0.0-13.0-3.9","83893","List1A","black","woman","","","","","{""Q0"":""jane is being challenged by luke""}","<img src=""stim_listA/challenge4.gif""style=""height:400px;""></stim_listA>","is being challenged by","","","","","",""
"null","<div style=""font-size:60px;"">+</div>","","html-keyboard-response","70","276287","0.0-13.0-0.10","83893","List1A","black","woman","","","","null","","","","","","","","",""
"null","<img src=""stim_listA/copy7.gif""style=""height:400px;""></stim_listA>","","html-keyboard-response","71","278294","0.0-13.0-1.10","83893","List1A","black","woman","","","","null","","","","","","","","",""
"null","is copying","","html-keyboard-response","72","280297","0.0-13.0-2.10","83893","List1A","black","woman","","","","null","","","","","","","","",""
"5746.20000000298","","","survey-text","73","286046","0.0-13.0-3.10","83893","List1A","black","woman","","","","","{""Q0"":""ruth is copying kate""}","<img src=""stim_listA/copy7.gif""style=""height:400px;""></stim_listA>","is copying","","","","","",""
"null","<div style=""font-size:60px;"">+</div>","","html-keyboard-response","74","286549","0.0-13.0-0.11","83893","List1A","black","woman","","","","null","","","","","","","","",""
"null","<img src=""stim_listA/hug4.gif""style=""height:400px;""></stim_listA>","","html-keyboard-response","75","288555","0.0-13.0-1.11","83893","List1A","black","woman","","","","null","","","","","","","","",""
"null","is being hugged by","","html-keyboard-response","76","290561","0.0-13.0-2.11","83893","List1A","black","woman","","","","null","","","","","","","","",""
"5254.0999999940395","","","survey-text","77","295818","0.0-13.0-3.11","83893","List1A","black","woman","","","","","{""Q0"":""dave is being hugged by jane""}","<img src=""stim_listA/hug4.gif""style=""height:400px;""></stim_listA>","is being hugged by","","","","","",""
"null","<div style=""font-size:60px;"">+</div>","","html-keyboard-response","78","296320","0.0-13.0-0.12","83893","List1A","black","woman","","","","null","","","","","","","","",""
"null","<img src=""stim_listA/seduce2.gif""style=""height:400px;""></stim_listA>","","html-keyboard-response","79","298326","0.0-13.0-1.12","83893","List1A","black","woman","","","","null","","","","","","","","",""
"null","is being seduced by","","html-keyboard-response","80","300330","0.0-13.0-2.12","83893","List1A","black","woman","","","","null","","","","","","","","",""
"7808.0999999940395","","","survey-text","81","308141","0.0-13.0-3.12","83893","List1A","black","woman","","","","","{""Q0"":""beth is being seduced by mike""}","<img src=""stim_listA/seduce2.gif""style=""height:400px;""></stim_listA>","is being seduced by","","","","","",""
"null","<div style=""font-size:60px;"">+</div>","","html-keyboard-response","82","308643","0.0-13.0-0.13","83893","List1A","black","woman","","","","null","","","","","","","","",""
"null","<img src=""stim_listA/copy8.gif""style=""height:400px;""></stim_listA>","","html-keyboard-response","83","310646","0.0-13.0-1.13","83893","List1A","black","woman","","","","null","","","","","","","","",""
"null","is being copied by","","html-keyboard-response","84","312648","0.0-13.0-2.13","83893","List1A","black","woman","","","","null","","","","","","","","",""
"5632.70000000298","","","survey-text","85","318285","0.0-13.0-3.13","83893","List1A","black","woman","","","","","{""Q0"":""beth is being copied by jane""}","<img src=""stim_listA/copy8.gif""style=""height:400px;""></stim_listA>","is being copied by","","","","","",""
"null","<div style=""font-size:60px;"">+</div>","","html-keyboard-response","86","318787","0.0-13.0-0.14","83893","List1A","black","woman","","","","null","","","","","","","","",""
"null","<img src=""stim_listA/seduce5.gif""style=""height:400px;""></stim_listA>","","html-keyboard-response","87","320793","0.0-13.0-1.14","83893","List1A","black","woman","","","","null","","","","","","","","",""
"null","is seducing","","html-keyboard-response","88","322795","0.0-13.0-2.14","83893","List1A","black","woman","","","","null","","","","","","","","",""
"5358.600000008941","","","survey-text","89","328157","0.0-13.0-3.14","83893","List1A","black","woman","","","","","{""Q0"":""dave is seducing fred""}","<img src=""stim_listA/seduce5.gif""style=""height:400px;""></stim_listA>","is seducing","","","","","",""
"null","<div style=""font-size:60px;"">+</div>","","html-keyboard-response","90","328659","0.0-13.0-0.15","83893","List1A","black","woman","","","","null","","","","","","","","",""
"null","<img src=""stim_listA/touch2.gif""style=""height:400px;""></stim_listA>","","html-keyboard-response","91","330664","0.0-13.0-1.15","83893","List1A","black","woman","","","","null","","","","","","","","",""
"null","is being touched by","","html-keyboard-response","92","332670","0.0-13.0-2.15","83893","List1A","black","woman","","","","null","","","","","","","","",""
"5406.399999991059","","","survey-text","93","338080","0.0-13.0-3.15","83893","List1A","black","woman","","","","","{""Q0"":""fred is being touched by beth""}","<img src=""stim_listA/touch2.gif""style=""height:400px;""></stim_listA>","is being touched by","","","","","",""
"null","<div style=""font-size:60px;"">+</div>","","html-keyboard-response","94","338582","0.0-13.0-0.16","83893","List1A","black","woman","","","","null","","","","","","","","",""
"null","<img src=""stim_listA/oppose5.gif""style=""height:400px;""></stim_listA>","","html-keyboard-response","95","340588","0.0-13.0-1.16","83893","List1A","black","woman","","","","null","","","","","","","","",""
"null","is opposing","","html-keyboard-response","96","342589","0.0-13.0-2.16","83893","List1A","black","woman","","","","null","","","","","","","","",""
"5238.70000000298","","","survey-text","97","347831","0.0-13.0-3.16","83893","List1A","black","woman","","","","","{""Q0"":""dave is opposing mike""}","<img src=""stim_listA/oppose5.gif""style=""height:400px;""></stim_listA>","is opposing","","","","","",""
"null","<div style=""font-size:60px;"">+</div>","","html-keyboard-response","98","348333","0.0-13.0-0.17","83893","List1A","black","woman","","","","null","","","","","","","","",""
"null","<img src=""stim_listA/challenge7.gif""style=""height:400px;""></stim_listA>","","html-keyboard-response","99","350338","0.0-13.0-1.17","83893","List1A","black","woman","","","","null","","","","","","","","",""
"null","is challenging","","html-keyboard-response","100","352343","0.0-13.0-2.17","83893","List1A","black","woman","","","","null","","","","","","","","",""
"6941.29999999702","","","survey-text","101","359287","0.0-13.0-3.17","83893","List1A","black","woman","","","","","{""Q0"":""ruth is challenging kate""}","<img src=""stim_listA/challenge7.gif""style=""height:400px;""></stim_listA>","is challenging","","","","","",""
"null","<div style=""font-size:60px;"">+</div>","","html-keyboard-response","102","359791","0.0-13.0-0.18","83893","List1A","black","woman","","","","null","","","","","","","","",""
"null","<img src=""stim_listA/look8.gif""style=""height:400px;""></stim_listA>","","html-keyboard-response","103","361793","0.0-13.0-1.18","83893","List1A","black","woman","","","","null","","","","","","","","",""
"null","is being looked at by","","html-keyboard-response","104","363798","0.0-13.0-2.18","83893","List1A","black","woman","","","","null","","","","","","","","",""
"5467.5","","","survey-text","105","369268","0.0-13.0-3.18","83893","List1A","black","woman","","","","","{""Q0"":""kate is being looked at by jane""}","<img src=""stim_listA/look8.gif""style=""height:400px;""></stim_listA>","is being looked at by","","","","","",""
"null","<div style=""font-size:60px;"">+</div>","","html-keyboard-response","106","369770","0.0-13.0-0.19","83893","List1A","black","woman","","","","null","","","","","","","","",""
"null","<img src=""stim_listA/look2.gif""style=""height:400px;""></stim_listA>","","html-keyboard-response","107","371772","0.0-13.0-1.19","83893","List1A","black","woman","","","","null","","","","","","","","",""
"null","is being looked at by","","html-keyboard-response","108","373775","0.0-13.0-2.19","83893","List1A","black","woman","","","","null","","","","","","","","",""
"6849.20000000298","","","survey-text","109","380627","0.0-13.0-3.19","83893","List1A","black","woman","","","","","{""Q0"":""mike is being looked at by kate""}","<img src=""stim_listA/look2.gif""style=""height:400px;""></stim_listA>","is being looked at by","","","","","",""
"6588.4000000059605","<img src='img/portrait_matrix_list1.jpg' style='width:900px;height:500px;''></img><p>If you have memorised all the portraits and names and are ready to start, press Continue.</p><p><strong>Please note: Your memory of these faces will be tested 4 times during this experiment.</strong></p>","0","html-button-response","110","387217","0.0-14.0-0.0","83893","List1A","black","woman","","","","","","","","","","","","",""
"3922.7000000029802","<img src=""portrait/BW2.jpg""style=""height:400px;""></img>","2","html-button-response","111","392145","0.0-14.0-1.0","83893","List1A","black","woman","","true","2","","","","","","","","","",""
"null","CORRECT","","html-keyboard-response","112","393648","0.0-14.0-2.0-0.0","83893","List1A","black","woman","","","","null","","","","","","","","",""
"1533.2999999970198","<img src=""portrait/WW1.jpg""style=""height:400px;""></img>","1","html-button-response","113","395183","0.0-14.0-4.0","83893","List1A","black","woman","","true","1","","","","","","","","","",""
"null","CORRECT","","html-keyboard-response","114","396690","0.0-14.0-5.0-0.0","83893","List1A","black","woman","","","","null","","","","","","","","",""
"2041.699999988079","<img src=""portrait/BM2.jpg""style=""height:400px;""></img>","5","html-button-response","115","398733","0.0-14.0-7.0","83893","List1A","black","woman","","true","5","","","","","","","","","",""
"null","CORRECT","","html-keyboard-response","116","400239","0.0-14.0-8.0-0.0","83893","List1A","black","woman","","","","null","","","","","","","","",""
"1548.6000000089407","<img src=""portrait/BM1.jpg""style=""height:400px;""></img>","4","html-button-response","117","401790","0.0-14.0-10.0","83893","List1A","black","woman","","true","4","","","","","","","","","",""
"null","CORRECT","","html-keyboard-response","118","403299","0.0-14.0-11.0-0.0","83893","List1A","black","woman","","","","null","","","","","","","","",""
"2325.7000000029802","<img src=""portrait/WM1.jpg""style=""height:400px;""></img>","6","html-button-response","119","405626","0.0-14.0-13.0","83893","List1A","black","woman","","true","6","","","","","","","","","",""
"null","CORRECT","","html-keyboard-response","120","407137","0.0-14.0-14.0-0.0","83893","List1A","black","woman","","","","null","","","","","","","","",""
"1656.2999999970198","<img src=""portrait/BW1.jpg""style=""height:400px;""></img>","0","html-button-response","121","408795","0.0-14.0-16.0","83893","List1A","black","woman","","true","0","","","","","","","","","",""
"null","CORRECT","","html-keyboard-response","122","410306","0.0-14.0-17.0-0.0","83893","List1A","black","woman","","","","null","","","","","","","","",""
"1484.800000011921","<img src=""portrait/WM2.jpg""style=""height:400px;""></img>","7","html-button-response","123","411793","0.0-14.0-19.0","83893","List1A","black","woman","","true","7","","","","","","","","","",""
"null","CORRECT","","html-keyboard-response","124","413301","0.0-14.0-20.0-0.0","83893","List1A","black","woman","","","","null","","","","","","","","",""
"1507.7000000029802","<img src=""portrait/WW2.jpg""style=""height:400px;""></img>","3","html-button-response","125","414811","0.0-14.0-22.0","83893","List1A","black","woman","","true","3","","","","","","","","","",""
"null","CORRECT","","html-keyboard-response","126","416320","0.0-14.0-23.0-0.0","83893","List1A","black","woman","","","","null","","","","","","","","",""
"1994.4000000059605","<p>You got 8 out of 8 right first time. Press Continue.</p>","0","html-button-response","127","418317","0.0-14.0-25.0","83893","List1A","black","woman","","","","","","","","","","","","",""
"null","<div style=""font-size:60px;"">+</div>","","html-keyboard-response","128","419826","0.0-15.0-0.0","83893","List1A","black","woman","","","","null","","","","","","","","",""
"null","<img src=""stim_listA/seduce1.gif""style=""height:400px;""></stim_listA>","","html-keyboard-response","129","421829","0.0-15.0-1.0","83893","List1A","black","woman","","","","null","","","","","","","","",""
"null","is seducing","","html-keyboard-response","130","423832","0.0-15.0-2.0","83893","List1A","black","woman","","","","null","","","","","","","","",""
"5666","","","survey-text","131","429502","0.0-15.0-3.0","83893","List1A","black","woman","","","","","{""Q0"":""fred is seducing kate""}","<img src=""stim_listA/seduce1.gif""style=""height:400px;""></stim_listA>","is seducing","","","","","",""
"null","<div style=""font-size:60px;"">+</div>","","html-keyboard-response","132","430004","0.0-15.0-0.1","83893","List1A","black","woman","","","","null","","","","","","","","",""
"null","<img src=""stim_listA/shout6.gif""style=""height:400px;""></stim_listA>","","html-keyboard-response","133","432011","0.0-15.0-1.1","83893","List1A","black","woman","","","","null","","","","","","","","",""
"null","is being shouted at by","","html-keyboard-response","134","434013","0.0-15.0-2.1","83893","List1A","black","woman","","","","null","","","","","","","","",""
"5901.70000000298","","","survey-text","135","439918","0.0-15.0-3.1","83893","List1A","black","woman","","","","","{""Q0"":""dave is being shouted at by mike""}","<img src=""stim_listA/shout6.gif""style=""height:400px;""></stim_listA>","is being shouted at by","","","","","",""
"null","<div style=""font-size:60px;"">+</div>","","html-keyboard-response","136","440422","0.0-15.0-0.2","83893","List1A","black","woman","","","","null","","","","","","","","",""
"null","<img src=""stim_listA/oppose6.gif""style=""height:400px;""></stim_listA>","","html-keyboard-response","137","442425","0.0-15.0-1.2","83893","List1A","black","woman","","","","null","","","","","","","","",""
"null","is being opposed by","","html-keyboard-response","138","444427","0.0-15.0-2.2","83893","List1A","black","woman","","","","null","","","","","","","","",""
"7128.79999999702","","","survey-text","139","451560","0.0-15.0-3.2","83893","List1A","black","woman","","","","","{""Q0"":""fred is being opposed by luke""}","<img src=""stim_listA/oppose6.gif""style=""height:400px;""></stim_listA>","is being opposed by","","","","","",""
"null","<div style=""font-size:60px;"">+</div>","","html-keyboard-response","140","452061","0.0-15.0-0.3","83893","List1A","black","woman","","","","null","","","","","","","","",""
"null","<img src=""stim_listA/copy2.gif""style=""height:400px;""></stim_listA>","","html-keyboard-response","141","454069","0.0-15.0-1.3","83893","List1A","black","woman","","","","null","","","","","","","","",""
"null","is being copied by","","html-keyboard-response","142","456071","0.0-15.0-2.3","83893","List1A","black","woman","","","","null","","","","","","","","",""
"9794.79999999702","","","survey-text","143","465869","0.0-15.0-3.3","83893","List1A","black","woman","","","","","{""Q0"":""fred is being copied by kate""}","<img src=""stim_listA/copy2.gif""style=""height:400px;""></stim_listA>","is being copied by","","","","","",""
"null","<div style=""font-size:60px;"">+</div>","","html-keyboard-response","144","466370","0.0-15.0-0.4","83893","List1A","black","woman","","","","null","","","","","","","","",""
"null","<img src=""stim_listA/kiss1.gif""style=""height:400px;""></stim_listA>","","html-keyboard-response","145","468373","0.0-15.0-1.4","83893","List1A","black","woman","","","","null","","","","","","","","",""
"null","is kissing","","html-keyboard-response","146","470375","0.0-15.0-2.4","83893","List1A","black","woman","","","","null","","","","","","","","",""
"4142.79999999702","","","survey-text","147","474521","0.0-15.0-3.4","83893","List1A","black","woman","","","","","{""Q0"":""beth is kissing fred""}","<img src=""stim_listA/kiss1.gif""style=""height:400px;""></stim_listA>","is kissing","","","","","",""
"null","<div style=""font-size:60px;"">+</div>","","html-keyboard-response","148","475023","0.0-15.0-0.5","83893","List1A","black","woman","","","","null","","","","","","","","",""
"null","<img src=""stim_listA/look6.gif""style=""height:400px;""></stim_listA>","","html-keyboard-response","149","477029","0.0-15.0-1.5","83893","List1A","black","woman","","","","null","","","","","","","","",""
"null","is being looked at by","","html-keyboard-response","150","479031","0.0-15.0-2.5","83893","List1A","black","woman","","","","null","","","","","","","","",""
"5577.5999999940395","","","survey-text","151","484612","0.0-15.0-3.5","83893","List1A","black","woman","","","","","{""Q0"":""mike is being looked at by dave""}","<img src=""stim_listA/look6.gif""style=""height:400px;""></stim_listA>","is being looked at by","","","","","",""
"null","<div style=""font-size:60px;"">+</div>","","html-keyboard-response","152","485115","0.0-15.0-0.6","83893","List1A","black","woman","","","","null","","","","","","","","",""
"null","<img src=""stim_listA/seduce8.gif""style=""height:400px;""></stim_listA>","","html-keyboard-response","153","487123","0.0-15.0-1.6","83893","List1A","black","woman","","","","null","","","","","","","","",""
"null","is being seduced by","","html-keyboard-response","154","489126","0.0-15.0-2.6","83893","List1A","black","woman","","","","null","","","","","","","","",""
"6091","","","survey-text","155","495221","0.0-15.0-3.6","83893","List1A","black","woman","","","","","{""Q0"":""ruth is being seduced by kate""}","<img src=""stim_listA/seduce8.gif""style=""height:400px;""></stim_listA>","is being seduced by","","","","","",""
"null","<div style=""font-size:60px;"">+</div>","","html-keyboard-response","156","495723","0.0-15.0-0.7","83893","List1A","black","woman","","","","null","","","","","","","","",""
"null","<img src=""stim_listA/greet3.gif""style=""height:400px;""></stim_listA>","","html-keyboard-response","157","497729","0.0-15.0-1.7","83893","List1A","black","woman","","","","null","","","","","","","","",""
"null","is greeting","","html-keyboard-response","158","499732","0.0-15.0-2.7","83893","List1A","black","woman","","","","null","","","","","","","","",""
"3883.8999999910593","","","survey-text","159","503619","0.0-15.0-3.7","83893","List1A","black","woman","","","","","{""Q0"":""dave is greeting ruth""}","<img src=""stim_listA/greet3.gif""style=""height:400px;""></stim_listA>","is greeting","","","","","",""
"null","<div style=""font-size:60px;"">+</div>","","html-keyboard-response","160","504120","0.0-15.0-0.8","83893","List1A","black","woman","","","","null","","","","","","","","",""
"null","<img src=""stim_listA/greet6.gif""style=""height:400px;""></stim_listA>","","html-keyboard-response","161","506123","0.0-15.0-1.8","83893","List1A","black","woman","","","","null","","","","","","","","",""
"null","is being greeted by","","html-keyboard-response","162","508125","0.0-15.0-2.8","83893","List1A","black","woman","","","","null","","","","","","","","",""
"5417.899999991059","","","survey-text","163","513546","0.0-15.0-3.8","83893","List1A","black","woman","","","","","{""Q0"":""fred is greeted by dave""}","<img src=""stim_listA/greet6.gif""style=""height:400px;""></stim_listA>","is being greeted by","","","","","",""
"null","<div style=""font-size:60px;"">+</div>","","html-keyboard-response","164","514048","0.0-15.0-0.9","83893","List1A","black","woman","","","","null","","","","","","","","",""
"null","<img src=""stim_listA/hug3.gif""style=""height:400px;""></stim_listA>","","html-keyboard-response","165","516050","0.0-15.0-1.9","83893","List1A","black","woman","","","","null","","","","","","","","",""
"null","is hugging","","html-keyboard-response","166","518051","0.0-15.0-2.9","83893","List1A","black","woman","","","","null","","","","","","","","",""
"4729.70000000298","","","survey-text","167","522784","0.0-15.0-3.9","83893","List1A","black","woman","","","","","{""Q0"":""ruth is hugging luke""}","<img src=""stim_listA/hug3.gif""style=""height:400px;""></stim_listA>","is hugging","","","","","",""
"null","<div style=""font-size:60px;"">+</div>","","html-keyboard-response","168","523286","0.0-15.0-0.10","83893","List1A","black","woman","","","","null","","","","","","","","",""
"null","<img src=""stim_listA/touch1.gif""style=""height:400px;""></stim_listA>","","html-keyboard-response","169","525291","0.0-15.0-1.10","83893","List1A","black","woman","","","","null","","","","","","","","",""
"null","is touching","","html-keyboard-response","170","527294","0.0-15.0-2.10","83893","List1A","black","woman","","","","null","","","","","","","","",""
"3825.5","","","survey-text","171","531123","0.0-15.0-3.10","83893","List1A","black","woman","","","","","{""Q0"":""mike is touching kate""}","<img src=""stim_listA/touch1.gif""style=""height:400px;""></stim_listA>","is touching","","","","","",""
"null","<div style=""font-size:60px;"">+</div>","","html-keyboard-response","172","531625","0.0-15.0-0.11","83893","List1A","black","woman","","","","null","","","","","","","","",""
"null","<img src=""stim_listA/copy3.gif""style=""height:400px;""></stim_listA>","","html-keyboard-response","173","533629","0.0-15.0-1.11","83893","List1A","black","woman","","","","null","","","","","","","","",""
"null","is copying","","html-keyboard-response","174","535631","0.0-15.0-2.11","83893","List1A","black","woman","","","","null","","","","","","","","",""
"5731.9000000059605","","","survey-text","175","541366","0.0-15.0-3.11","83893","List1A","black","woman","","","","","{""Q0"":""ruth is copying dave""}","<img src=""stim_listA/copy3.gif""style=""height:400px;""></stim_listA>","is copying","","","","","",""
"null","<div style=""font-size:60px;"">+</div>","","html-keyboard-response","176","541868","0.0-15.0-0.12","83893","List1A","black","woman","","","","null","","","","","","","","",""
"null","<img src=""stim_listA/touch6.gif""style=""height:400px;""></stim_listA>","","html-keyboard-response","177","543873","0.0-15.0-1.12","83893","List1A","black","woman","","","","null","","","","","","","","",""
"null","is being touched by","","html-keyboard-response","178","545875","0.0-15.0-2.12","83893","List1A","black","woman","","","","null","","","","","","","","",""
"6431.4000000059605","","","survey-text","179","552310","0.0-15.0-3.12","83893","List1A","black","woman","","","","","{""Q0"":""fred is being touched by luke""}","<img src=""stim_listA/touch6.gif""style=""height:400px;""></stim_listA>","is being touched by","","","","","",""
"null","<div style=""font-size:60px;"">+</div>","","html-keyboard-response","180","552812","0.0-15.0-0.13","83893","List1A","black","woman","","","","null","","","","","","","","",""
"null","<img src=""stim_listA/hug5.gif""style=""height:400px;""></stim_listA>","","html-keyboard-response","181","554815","0.0-15.0-1.13","83893","List1A","black","woman","","","","null","","","","","","","","",""
"null","is hugging","","html-keyboard-response","182","556817","0.0-15.0-2.13","83893","List1A","black","woman","","","","null","","","","","","","","",""
"4692.20000000298","","","survey-text","183","561513","0.0-15.0-3.13","83893","List1A","black","woman","","","","","{""Q0"":""luke is hugging fred""}","<img src=""stim_listA/hug5.gif""style=""height:400px;""></stim_listA>","is hugging","","","","","",""
"null","<div style=""font-size:60px;"">+</div>","","html-keyboard-response","184","562017","0.0-15.0-0.14","83893","List1A","black","woman","","","","null","","","","","","","","",""
"null","<img src=""stim_listA/touch7.gif""style=""height:400px;""></stim_listA>","","html-keyboard-response","185","564022","0.0-15.0-1.14","83893","List1A","black","woman","","","","null","","","","","","","","",""
"null","is touching","","html-keyboard-response","186","566027","0.0-15.0-2.14","83893","List1A","black","woman","","","","null","","","","","","","","",""
"3415.2999999970198","","","survey-text","187","569445","0.0-15.0-3.14","83893","List1A","black","woman","","","","","{""Q0"":""jane is touching kate""}","<img src=""stim_listA/touch7.gif""style=""height:400px;""></stim_listA>","is touching","","","","","",""
"null","<div style=""font-size:60px;"">+</div>","","html-keyboard-response","188","569949","0.0-15.0-0.15","83893","List1A","black","woman","","","","null","","","","","","","","",""
"null","<img src=""stim_listA/kiss5.gif""style=""height:400px;""></stim_listA>","","html-keyboard-response","189","571952","0.0-15.0-1.15","83893","List1A","black","woman","","","","null","","","","","","","","",""
"null","is kissing","","html-keyboard-response","190","573954","0.0-15.0-2.15","83893","List1A","black","woman","","","","null","","","","","","","","",""
"4189.399999991059","","","survey-text","191","578148","0.0-15.0-3.15","83893","List1A","black","woman","","","","","{""Q0"":""luke is kissing fred""}","<img src=""stim_listA/kiss5.gif""style=""height:400px;""></stim_listA>","is kissing","","","","","",""
"null","<div style=""font-size:60px;"">+</div>","","html-keyboard-response","192","578650","0.0-15.0-0.16","83893","List1A","black","woman","","","","null","","","","","","","","",""
"null","<img src=""stim_listA/kiss4.gif""style=""height:400px;""></stim_listA>","","html-keyboard-response","193","580653","0.0-15.0-1.16","83893","List1A","black","woman","","","","null","","","","","","","","",""
"null","is being kissed by","","html-keyboard-response","194","582656","0.0-15.0-2.16","83893","List1A","black","woman","","","","null","","","","","","","","",""
"6187.9000000059605","","","survey-text","195","588847","0.0-15.0-3.16","83893","List1A","black","woman","","","","","{""Q0"":""dave is being kissed by jane""}","<img src=""stim_listA/kiss4.gif""style=""height:400px;""></stim_listA>","is being kissed by","","","","","",""
"null","<div style=""font-size:60px;"">+</div>","","html-keyboard-response","196","589350","0.0-15.0-0.17","83893","List1A","black","woman","","","","null","","","","","","","","",""
"null","<img src=""stim_listA/look5.gif""style=""height:400px;""></stim_listA>","","html-keyboard-response","197","591358","0.0-15.0-1.17","83893","List1A","black","woman","","","","null","","","","","","","","",""
"null","is looking at","","html-keyboard-response","198","593361","0.0-15.0-2.17","83893","List1A","black","woman","","","","null","","","","","","","","",""
"4722.79999999702","","","survey-text","199","598086","0.0-15.0-3.17","83893","List1A","black","woman","","","","","{""Q0"":""luke is looking at fred""}","<img src=""stim_listA/look5.gif""style=""height:400px;""></stim_listA>","is looking at","","","","","",""
"null","<div style=""font-size:60px;"">+</div>","","html-keyboard-response","200","598588","0.0-15.0-0.18","83893","List1A","black","woman","","","","null","","","","","","","","",""
"null","<img src=""stim_listA/copy4.gif""style=""height:400px;""></stim_listA>","","html-keyboard-response","201","600594","0.0-15.0-1.18","83893","List1A","black","woman","","","","null","","","","","","","","",""
"null","is being copied by","","html-keyboard-response","202","602596","0.0-15.0-2.18","83893","List1A","black","woman","","","","null","","","","","","","","",""
"5109.5999999940395","","","survey-text","203","607708","0.0-15.0-3.18","83893","List1A","black","woman","","","","","{""Q0"":""luke is being copied by jane""}","<img src=""stim_listA/copy4.gif""style=""height:400px;""></stim_listA>","is being copied by","","","","","",""
"null","<div style=""font-size:60px;"">+</div>","","html-keyboard-response","204","608210","0.0-15.0-0.19","83893","List1A","black","woman","","","","null","","","","","","","","",""
"null","<img src=""stim_listA/hug8.gif""style=""height:400px;""></stim_listA>","","html-keyboard-response","205","610212","0.0-15.0-1.19","83893","List1A","black","woman","","","","null","","","","","","","","",""
"null","is being hugged by","","html-keyboard-response","206","612215","0.0-15.0-2.19","83893","List1A","black","woman","","","","null","","","","","","","","",""
"5392.600000008941","","","survey-text","207","617611","0.0-15.0-3.19","83893","List1A","black","woman","","","","","{""Q0"":""kate is being hugged by jane""}","<img src=""stim_listA/hug8.gif""style=""height:400px;""></stim_listA>","is being hugged by","","","","","",""
"10303.70000000298","<img src='img/portrait_matrix_list1.jpg' style='width:900px;height:500px;''></img><p>If you have memorised all the portraits and names and are ready to start, press Continue.</p><p><strong>Please note: Your memory of these faces will be tested 4 times during this experiment.</strong></p>","0","html-button-response","208","627916","0.0-16.0-0.0","83893","List1A","black","woman","","","","","","","","","","","","",""
"3628.5999999940395","<img src=""portrait/WW2.jpg""style=""height:400px;""></img>","3","html-button-response","209","632551","0.0-16.0-1.0","83893","List1A","black","woman","","true","3","","","","","","","","","",""
"null","CORRECT","","html-keyboard-response","210","634055","0.0-16.0-2.0-0.0","83893","List1A","black","woman","","","","null","","","","","","","","",""
"2012.300000011921","<img src=""portrait/BM2.jpg""style=""height:400px;""></img>","5","html-button-response","211","636070","0.0-16.0-4.0","83893","List1A","black","woman","","true","5","","","","","","","","","",""
"null","CORRECT","","html-keyboard-response","212","637577","0.0-16.0-5.0-0.0","83893","List1A","black","woman","","","","null","","","","","","","","",""
"1351.4000000059605","<img src=""portrait/WW1.jpg""style=""height:400px;""></img>","1","html-button-response","213","638930","0.0-16.0-7.0","83893","List1A","black","woman","","true","1","","","","","","","","","",""
"null","CORRECT","","html-keyboard-response","214","640439","0.0-16.0-8.0-0.0","83893","List1A","black","woman","","","","null","","","","","","","","",""
"1954.7999999970198","<img src=""portrait/WM2.jpg""style=""height:400px;""></img>","7","html-button-response","215","642396","0.0-16.0-10.0","83893","List1A","black","woman","","true","7","","","","","","","","","",""
"null","CORRECT","","html-keyboard-response","216","643904","0.0-16.0-11.0-0.0","83893","List1A","black","woman","","","","null","","","","","","","","",""
"1468.7999999970198","<img src=""portrait/BM1.jpg""style=""height:400px;""></img>","4","html-button-response","217","645375","0.0-16.0-13.0","83893","List1A","black","woman","","true","4","","","","","","","","","",""
"null","CORRECT","","html-keyboard-response","218","646882","0.0-16.0-14.0-0.0","83893","List1A","black","woman","","","","null","","","","","","","","",""
"2132.5999999940395","<img src=""portrait/WM1.jpg""style=""height:400px;""></img>","6","html-button-response","219","649017","0.0-16.0-16.0","83893","List1A","black","woman","","true","6","","","","","","","","","",""
"null","CORRECT","","html-keyboard-response","220","650528","0.0-16.0-17.0-0.0","83893","List1A","black","woman","","","","null","","","","","","","","",""
"1338.7000000029802","<img src=""portrait/BW2.jpg""style=""height:400px;""></img>","2","html-button-response","221","651869","0.0-16.0-19.0","83893","List1A","black","woman","","true","2","","","","","","","","","",""
"null","CORRECT","","html-keyboard-response","222","653378","0.0-16.0-20.0-0.0","83893","List1A","black","woman","","","","null","","","","","","","","",""
"1594.0999999940395","<img src=""portrait/BW1.jpg""style=""height:400px;""></img>","0","html-button-response","223","654974","0.0-16.0-22.0","83893","List1A","black","woman","","true","0","","","","","","","","","",""
"null","CORRECT","","html-keyboard-response","224","656483","0.0-16.0-23.0-0.0","83893","List1A","black","woman","","","","null","","","","","","","","",""
"2251","<p>You got 8 out of 8 right first time. Press Continue.</p>","0","html-button-response","225","658736","0.0-16.0-25.0","83893","List1A","black","woman","","","","","","","","","","","","",""
"null","<div style=""font-size:60px;"">+</div>","","html-keyboard-response","226","660246","0.0-17.0-0.0","83893","List1A","black","woman","","","","null","","","","","","","","",""
"null","<img src=""stim_listA/shout5.gif""style=""height:400px;""></stim_listA>","","html-keyboard-response","227","662254","0.0-17.0-1.0","83893","List1A","black","woman","","","","null","","","","","","","","",""
"null","is shouting at","","html-keyboard-response","228","664257","0.0-17.0-2.0","83893","List1A","black","woman","","","","null","","","","","","","","",""
"6182.600000008941","","","survey-text","229","670443","0.0-17.0-3.0","83893","List1A","black","woman","","","","","{""Q0"":""fred is shouting at luke""}","<img src=""stim_listA/shout5.gif""style=""height:400px;""></stim_listA>","is shouting at","","","","","",""
"null","<div style=""font-size:60px;"">+</div>","","html-keyboard-response","230","670945","0.0-17.0-0.1","83893","List1A","black","woman","","","","null","","","","","","","","",""
"null","<img src=""stim_listA/oppose7.gif""style=""height:400px;""></stim_listA>","","html-keyboard-response","231","672952","0.0-17.0-1.1","83893","List1A","black","woman","","","","null","","","","","","","","",""
"null","is opposing","","html-keyboard-response","232","674954","0.0-17.0-2.1","83893","List1A","black","woman","","","","null","","","","","","","","",""
"4325.100000008941","","","survey-text","233","679284","0.0-17.0-3.1","83893","List1A","black","woman","","","","","{""Q0"":""jane is opposing kate""}","<img src=""stim_listA/oppose7.gif""style=""height:400px;""></stim_listA>","is opposing","","","","","",""
"null","<div style=""font-size:60px;"">+</div>","","html-keyboard-response","234","679787","0.0-17.0-0.2","83893","List1A","black","woman","","","","null","","","","","","","","",""
"null","<img src=""stim_listA/oppose8.gif""style=""height:400px;""></stim_listA>","","html-keyboard-response","235","681794","0.0-17.0-1.2","83893","List1A","black","woman","","","","null","","","","","","","","",""
"null","is being opposed by","","html-keyboard-response","236","683800","0.0-17.0-2.2","83893","List1A","black","woman","","","","null","","","","","","","","",""
"8554.39999999106","","","survey-text","237","692359","0.0-17.0-3.2","83893","List1A","black","woman","","","","","{""Q0"":""beth is being opposed by ruth""}","<img src=""stim_listA/oppose8.gif""style=""height:400px;""></stim_listA>","is being opposed by","","","","","",""
"null","<div style=""font-size:60px;"">+</div>","","html-keyboard-response","238","692861","0.0-17.0-0.3","83893","List1A","black","woman","","","","null","","","","","","","","",""
"null","<img src=""stim_listA/greet7.gif""style=""height:400px;""></stim_listA>","","html-keyboard-response","239","694867","0.0-17.0-1.3","83893","List1A","black","woman","","","","null","","","","","","","","",""
"null","is greeting","","html-keyboard-response","240","696869","0.0-17.0-2.3","83893","List1A","black","woman","","","","null","","","","","","","","",""
"5052.699999988079","","","survey-text","241","701925","0.0-17.0-3.3","83893","List1A","black","woman","","","","","{""Q0"":""ruth is greeting kate""}","<img src=""stim_listA/greet7.gif""style=""height:400px;""></stim_listA>","is greeting","","","","","",""
"null","<div style=""font-size:60px;"">+</div>","","html-keyboard-response","242","702427","0.0-17.0-0.4","83893","List1A","black","woman","","","","null","","","","","","","","",""
"null","<img src=""stim_listA/hug7.gif""style=""height:400px;""></stim_listA>","","html-keyboard-response","243","704433","0.0-17.0-1.4","83893","List1A","black","woman","","","","null","","","","","","","","",""
"null","is hugging","","html-keyboard-response","244","706436","0.0-17.0-2.4","83893","List1A","black","woman","","","","null","","","","","","","","",""
"3130.5","","","survey-text","245","709569","0.0-17.0-3.4","83893","List1A","black","woman","","","","","{""Q0"":""ruth is hugging beth""}","<img src=""stim_listA/hug7.gif""style=""height:400px;""></stim_listA>","is hugging","","","","","",""
"null","<div style=""font-size:60px;"">+</div>","","html-keyboard-response","246","710071","0.0-17.0-0.5","83893","List1A","black","woman","","","","null","","","","","","","","",""
"null","<img src=""stim_listA/shout3.gif""style=""height:400px;""></stim_listA>","","html-keyboard-response","247","712078","0.0-17.0-1.5","83893","List1A","black","woman","","","","null","","","","","","","","",""
"null","is shouting at","","html-keyboard-response","248","714081","0.0-17.0-2.5","83893","List1A","black","woman","","","","null","","","","","","","","",""
"8612.39999999106","","","survey-text","249","722697","0.0-17.0-3.5","83893","List1A","black","woman","","","","","{""Q0"":""ruth is shouting at luke""}","<img src=""stim_listA/shout3.gif""style=""height:400px;""></stim_listA>","is shouting at","","","","","",""
"null","<div style=""font-size:60px;"">+</div>","","html-keyboard-response","250","723201","0.0-17.0-0.6","83893","List1A","black","woman","","","","null","","","","","","","","",""
"null","<img src=""stim_listA/touch8.gif""style=""height:400px;""></stim_listA>","","html-keyboard-response","251","725203","0.0-17.0-1.6","83893","List1A","black","woman","","","","null","","","","","","","","",""
"null","is being touched by","","html-keyboard-response","252","727206","0.0-17.0-2.6","83893","List1A","black","woman","","","","null","","","","","","","","",""
"4510.4000000059605","","","survey-text","253","731720","0.0-17.0-3.6","83893","List1A","black","woman","","","","","{""Q0"":""beth is being touched by ruth""}","<img src=""stim_listA/touch8.gif""style=""height:400px;""></stim_listA>","is being touched by","","","","","",""
"null","<div style=""font-size:60px;"">+</div>","","html-keyboard-response","254","732223","0.0-17.0-0.7","83893","List1A","black","woman","","","","null","","","","","","","","",""
"null","<img src=""stim_listA/challenge5.gif""style=""height:400px;""></stim_listA>","","html-keyboard-response","255","734226","0.0-17.0-1.7","83893","List1A","black","woman","","","","null","","","","","","","","",""
"null","is challenging","","html-keyboard-response","256","736229","0.0-17.0-2.7","83893","List1A","black","woman","","","","null","","","","","","","","",""
"6535.70000000298","","","survey-text","257","742767","0.0-17.0-3.7","83893","List1A","black","woman","","","","","{""Q0"":""luke is challenging mike""}","<img src=""stim_listA/challenge5.gif""style=""height:400px;""></stim_listA>","is challenging","","","","","",""
"null","<div style=""font-size:60px;"">+</div>","","html-keyboard-response","258","743269","0.0-17.0-0.8","83893","List1A","black","woman","","","","null","","","","","","","","",""
"null","<img src=""stim_listA/seduce4.gif""style=""height:400px;""></stim_listA>","","html-keyboard-response","259","745271","0.0-17.0-1.8","83893","List1A","black","woman","","","","null","","","","","","","","",""
"null","is being seduced by","","html-keyboard-response","260","747273","0.0-17.0-2.8","83893","List1A","black","woman","","","","null","","","","","","","","",""
"5117.79999999702","","","survey-text","261","752394","0.0-17.0-3.8","83893","List1A","black","woman","","","","","{""Q0"":""dave is being seduced by ruth""}","<img src=""stim_listA/seduce4.gif""style=""height:400px;""></stim_listA>","is being seduced by","","","","","",""
"null","<div style=""font-size:60px;"">+</div>","","html-keyboard-response","262","752896","0.0-17.0-0.9","83893","List1A","black","woman","","","","null","","","","","","","","",""
"null","<img src=""stim_listA/challenge2.gif""style=""height:400px;""></stim_listA>","","html-keyboard-response","263","754902","0.0-17.0-1.9","83893","List1A","black","woman","","","","null","","","","","","","","",""
"null","is being challenged by","","html-keyboard-response","264","756904","0.0-17.0-2.9","83893","List1A","black","woman","","","","null","","","","","","","","",""
"7329.399999991059","","","survey-text","265","764237","0.0-17.0-3.9","83893","List1A","black","woman","","","","","{""Q0"":""fred is being challenged by kate""}","<img src=""stim_listA/challenge2.gif""style=""height:400px;""></stim_listA>","is being challenged by","","","","","",""
"null","<div style=""font-size:60px;"">+</div>","","html-keyboard-response","266","764740","0.0-17.0-0.10","83893","List1A","black","woman","","","","null","","","","","","","","",""
"null","<img src=""stim_listA/hug6.gif""style=""height:400px;""></stim_listA>","","html-keyboard-response","267","766743","0.0-17.0-1.10","83893","List1A","black","woman","","","","null","","","","","","","","",""
"null","is being hugged by","","html-keyboard-response","268","768746","0.0-17.0-2.10","83893","List1A","black","woman","","","","null","","","","","","","","",""
"5957.70000000298","","","survey-text","269","774706","0.0-17.0-3.10","83893","List1A","black","woman","","","","","{""Q0"":""mike is being hugged by dave""}","<img src=""stim_listA/hug6.gif""style=""height:400px;""></stim_listA>","is being hugged by","","","","","",""
"null","<div style=""font-size:60px;"">+</div>","","html-keyboard-response","270","775207","0.0-17.0-0.11","83893","List1A","black","woman","","","","null","","","","","","","","",""
"null","<img src=""stim_listA/greet2.gif""style=""height:400px;""></stim_listA>","","html-keyboard-response","271","777210","0.0-17.0-1.11","83893","List1A","black","woman","","","","null","","","","","","","","",""
"null","is being greeted by","","html-keyboard-response","272","779212","0.0-17.0-2.11","83893","List1A","black","woman","","","","null","","","","","","","","",""
"5433.9000000059605","","","survey-text","273","784650","0.0-17.0-3.11","83893","List1A","black","woman","","","","","{""Q0"":""fred is being greeted by kate""}","<img src=""stim_listA/greet2.gif""style=""height:400px;""></stim_listA>","is being greeted by","","","","","",""
"null","<div style=""font-size:60px;"">+</div>","","html-keyboard-response","274","785151","0.0-17.0-0.12","83893","List1A","black","woman","","","","null","","","","","","","","",""
"null","<img src=""stim_listA/shout1.gif""style=""height:400px;""></stim_listA>","","html-keyboard-response","275","787154","0.0-17.0-1.12","83893","List1A","black","woman","","","","null","","","","","","","","",""
"null","is shouting at","","html-keyboard-response","276","789157","0.0-17.0-2.12","83893","List1A","black","woman","","","","null","","","","","","","","",""
"3619","","","survey-text","277","792780","0.0-17.0-3.12","83893","List1A","black","woman","","","","","{""Q0"":""beth is shouting at fred""}","<img src=""stim_listA/shout1.gif""style=""height:400px;""></stim_listA>","is shouting at","","","","","",""
"null","<div style=""font-size:60px;"">+</div>","","html-keyboard-response","278","793282","0.0-17.0-0.13","83893","List1A","black","woman","","","","null","","","","","","","","",""
"null","<img src=""stim_listA/oppose2.gif""style=""height:400px;""></stim_listA>","","html-keyboard-response","279","795285","0.0-17.0-1.13","83893","List1A","black","woman","","","","null","","","","","","","","",""
"null","is being opposed by","","html-keyboard-response","280","797287","0.0-17.0-2.13","83893","List1A","black","woman","","","","null","","","","","","","","",""
"4574.20000000298","","","survey-text","281","801864","0.0-17.0-3.13","83893","List1A","black","woman","","","","","{""Q0"":""fred is being opposed by beth""}","<img src=""stim_listA/oppose2.gif""style=""height:400px;""></stim_listA>","is being opposed by","","","","","",""
"null","<div style=""font-size:60px;"">+</div>","","html-keyboard-response","282","802365","0.0-17.0-0.14","83893","List1A","black","woman","","","","null","","","","","","","","",""
"null","<img src=""stim_listA/look4.gif""style=""height:400px;""></stim_listA>","","html-keyboard-response","283","804366","0.0-17.0-1.14","83893","List1A","black","woman","","","","null","","","","","","","","",""
"null","is being looked at by","","html-keyboard-response","284","806369","0.0-17.0-2.14","83893","List1A","black","woman","","","","null","","","","","","","","",""
"4202.9000000059605","","","survey-text","285","810575","0.0-17.0-3.14","83893","List1A","black","woman","","","","","{""Q0"":""dave is being looked at by jane""}","<img src=""stim_listA/look4.gif""style=""height:400px;""></stim_listA>","is being looked at by","","","","","",""
"null","<div style=""font-size:60px;"">+</div>","","html-keyboard-response","286","811077","0.0-17.0-0.15","83893","List1A","black","woman","","","","null","","","","","","","","",""
"null","<img src=""stim_listA/greet1.gif""style=""height:400px;""></stim_listA>","","html-keyboard-response","287","813079","0.0-17.0-1.15","83893","List1A","black","woman","","","","null","","","","","","","","",""
"null","is greeting","","html-keyboard-response","288","815082","0.0-17.0-2.15","83893","List1A","black","woman","","","","null","","","","","","","","",""
"6025.4000000059605","","","survey-text","289","821111","0.0-17.0-3.15","83893","List1A","black","woman","","","","","{""Q0"":""beth is greeting mike""}","<img src=""stim_listA/greet1.gif""style=""height:400px;""></stim_listA>","is greeting","","","","","",""
"null","<div style=""font-size:60px;"">+</div>","","html-keyboard-response","290","821613","0.0-17.0-0.16","83893","List1A","black","woman","","","","null","","","","","","","","",""
"null","<img src=""stim_listA/touch3.gif""style=""height:400px;""></stim_listA>","","html-keyboard-response","291","823615","0.0-17.0-1.16","83893","List1A","black","woman","","","","null","","","","","","","","",""
"null","is touching","","html-keyboard-response","292","825617","0.0-17.0-2.16","83893","List1A","black","woman","","","","null","","","","","","","","",""
"3677.7999999970198","","","survey-text","293","829299","0.0-17.0-3.16","83893","List1A","black","woman","","","","","{""Q0"":""jane is touching dave""}","<img src=""stim_listA/touch3.gif""style=""height:400px;""></stim_listA>","is touching","","","","","",""
"null","<div style=""font-size:60px;"">+</div>","","html-keyboard-response","294","829801","0.0-17.0-0.17","83893","List1A","black","woman","","","","null","","","","","","","","",""
"null","<img src=""stim_listA/seduce7.gif""style=""height:400px;""></stim_listA>","","html-keyboard-response","295","831806","0.0-17.0-1.17","83893","List1A","black","woman","","","","null","","","","","","","","",""
"null","is seducing","","html-keyboard-response","296","833809","0.0-17.0-2.17","83893","List1A","black","woman","","","","null","","","","","","","","",""
"2965.9000000059605","","","survey-text","297","836778","0.0-17.0-3.17","83893","List1A","black","woman","","","","","{""Q0"":""jane is seducing beth""}","<img src=""stim_listA/seduce7.gif""style=""height:400px;""></stim_listA>","is seducing","","","","","",""
"null","<div style=""font-size:60px;"">+</div>","","html-keyboard-response","298","837280","0.0-17.0-0.18","83893","List1A","black","woman","","","","null","","","","","","","","",""
"null","<img src=""stim_listA/kiss7.gif""style=""height:400px;""></stim_listA>","","html-keyboard-response","299","839283","0.0-17.0-1.18","83893","List1A","black","woman","","","","null","","","","","","","","",""
"null","is kissing","","html-keyboard-response","300","841286","0.0-17.0-2.18","83893","List1A","black","woman","","","","null","","","","","","","","",""
"2979.8999999910593","","","survey-text","301","844269","0.0-17.0-3.18","83893","List1A","black","woman","","","","","{""Q0"":""ruth is kissing beth""}","<img src=""stim_listA/kiss7.gif""style=""height:400px;""></stim_listA>","is kissing","","","","","",""
"null","<div style=""font-size:60px;"">+</div>","","html-keyboard-response","302","844772","0.0-17.0-0.19","83893","List1A","black","woman","","","","null","","","","","","","","",""
"null","<img src=""stim_listA/kiss6.gif""style=""height:400px;""></stim_listA>","","html-keyboard-response","303","846776","0.0-17.0-1.19","83893","List1A","black","woman","","","","null","","","","","","","","",""
"null","is being kissed by","","html-keyboard-response","304","848780","0.0-17.0-2.19","83893","List1A","black","woman","","","","null","","","","","","","","",""
"4504.399999991059","","","survey-text","305","853287","0.0-17.0-3.19","83893","List1A","black","woman","","","","","{""Q0"":""mike is being kissed by dave""}","<img src=""stim_listA/kiss6.gif""style=""height:400px;""></stim_listA>","is being kissed by","","","","","",""
"2371.7000000029802","<img src='img/portrait_matrix_list1.jpg' style='width:900px;height:500px;''></img><p>If you have memorised all the portraits and names and are ready to start, press Continue.</p><p><strong>Please note: Your memory of these faces will be tested 4 times during this experiment.</strong></p>","0","html-button-response","306","855661","0.0-18.0-0.0","83893","List1A","black","woman","","","","","","","","","","","","",""
"2238.2000000029802","<img src=""portrait/BW2.jpg""style=""height:400px;""></img>","2","html-button-response","307","858903","0.0-18.0-1.0","83893","List1A","black","woman","","true","2","","","","","","","","","",""
"null","CORRECT","","html-keyboard-response","308","860405","0.0-18.0-2.0-0.0","83893","List1A","black","woman","","","","null","","","","","","","","",""
"1803.2999999970198","<img src=""portrait/WW1.jpg""style=""height:400px;""></img>","1","html-button-response","309","862211","0.0-18.0-4.0","83893","List1A","black","woman","","true","1","","","","","","","","","",""
"null","CORRECT","","html-keyboard-response","310","863716","0.0-18.0-5.0-0.0","83893","List1A","black","woman","","","","null","","","","","","","","",""
"1710.4000000059605","<img src=""portrait/WM2.jpg""style=""height:400px;""></img>","7","html-button-response","311","865429","0.0-18.0-7.0","83893","List1A","black","woman","","true","7","","","","","","","","","",""
"null","CORRECT","","html-keyboard-response","312","866932","0.0-18.0-8.0-0.0","83893","List1A","black","woman","","","","null","","","","","","","","",""
"1403.3999999910593","<img src=""portrait/WW2.jpg""style=""height:400px;""></img>","3","html-button-response","313","868337","0.0-18.0-10.0","83893","List1A","black","woman","","true","3","","","","","","","","","",""
"null","CORRECT","","html-keyboard-response","314","869841","0.0-18.0-11.0-0.0","83893","List1A","black","woman","","","","null","","","","","","","","",""
"1908.7000000029802","<img src=""portrait/BM1.jpg""style=""height:400px;""></img>","4","html-button-response","315","871751","0.0-18.0-13.0","83893","List1A","black","woman","","true","4","","","","","","","","","",""
"null","CORRECT","","html-keyboard-response","316","873259","0.0-18.0-14.0-0.0","83893","List1A","black","woman","","","","null","","","","","","","","",""
"2376.5999999940395","<img src=""portrait/BM2.jpg""style=""height:400px;""></img>","5","html-button-response","317","875638","0.0-18.0-16.0","83893","List1A","black","woman","","true","5","","","","","","","","","",""
"null","CORRECT","","html-keyboard-response","318","877143","0.0-18.0-17.0-0.0","83893","List1A","black","woman","","","","null","","","","","","","","",""
"1475","<img src=""portrait/BW1.jpg""style=""height:400px;""></img>","0","html-button-response","319","878619","0.0-18.0-19.0","83893","List1A","black","woman","","true","0","","","","","","","","","",""
"null","CORRECT","","html-keyboard-response","320","880127","0.0-18.0-20.0-0.0","83893","List1A","black","woman","","","","null","","","","","","","","",""
"943.7000000029802","<img src=""portrait/WM1.jpg""style=""height:400px;""></img>","6","html-button-response","321","881072","0.0-18.0-22.0","83893","List1A","black","woman","","true","6","","","","","","","","","",""
"null","CORRECT","","html-keyboard-response","322","882583","0.0-18.0-23.0-0.0","83893","List1A","black","woman","","","","null","","","","","","","","",""
"1387.5999999940395","<p>You got 8 out of 8 right first time. Press Continue.</p>","0","html-button-response","323","883972","0.0-18.0-25.0","83893","List1A","black","woman","","","","","","","","","","","","",""
"null","<div style=""font-size:60px;"">+</div>","","html-keyboard-response","324","885479","0.0-19.0-0.0","83893","List1A","black","woman","","","","null","","","","","","","","",""
"null","<img src=""stim_listA/challenge1.gif""style=""height:400px;""></stim_listA>","","html-keyboard-response","325","887482","0.0-19.0-1.0","83893","List1A","black","woman","","","","null","","","","","","","","",""
"null","is challenging","","html-keyboard-response","326","889484","0.0-19.0-2.0","83893","List1A","black","woman","","","","null","","","","","","","","",""
"42311.89999999106","","","survey-text","327","931800","0.0-19.0-3.0","83893","List1A","black","woman","","","","","{""Q0"":""beth is challenging mike""}","<img src=""stim_listA/challenge1.gif""style=""height:400px;""></stim_listA>","is challenging","","","","","",""
"null","<div style=""font-size:60px;"">+</div>","","html-keyboard-response","328","932302","0.0-19.0-0.1","83893","List1A","black","woman","","","","null","","","","","","","","",""
"null","<img src=""stim_listA/shout2.gif""style=""height:400px;""></stim_listA>","","html-keyboard-response","329","934305","0.0-19.0-1.1","83893","List1A","black","woman","","","","null","","","","","","","","",""
"null","is being shouted at by","","html-keyboard-response","330","936307","0.0-19.0-2.1","83893","List1A","black","woman","","","","null","","","","","","","","",""
"11280.29999999702","","","survey-text","331","947589","0.0-19.0-3.1","83893","List1A","black","woman","","","","","{""Q0"":""mike is being shouted at by kate""}","<img src=""stim_listA/shout2.gif""style=""height:400px;""></stim_listA>","is being shouted at by","","","","","",""
"null","<div style=""font-size:60px;"">+</div>","","html-keyboard-response","332","948091","0.0-19.0-0.2","83893","List1A","black","woman","","","","null","","","","","","","","",""
"null","<img src=""stim_listA/touch5.gif""style=""height:400px;""></stim_listA>","","html-keyboard-response","333","950094","0.0-19.0-1.2","83893","List1A","black","woman","","","","null","","","","","","","","",""
"null","is touching","","html-keyboard-response","334","952097","0.0-19.0-2.2","83893","List1A","black","woman","","","","null","","","","","","","","",""
"3691","","","survey-text","335","955792","0.0-19.0-3.2","83893","List1A","black","woman","","","","","{""Q0"":""dave is touching mike""}","<img src=""stim_listA/touch5.gif""style=""height:400px;""></stim_listA>","is touching","","","","","",""
"null","<div style=""font-size:60px;"">+</div>","","html-keyboard-response","336","956294","0.0-19.0-0.3","83893","List1A","black","woman","","","","null","","","","","","","","",""
"null","<img src=""stim_listA/copy5.gif""style=""height:400px;""></stim_listA>","","html-keyboard-response","337","958297","0.0-19.0-1.3","83893","List1A","black","woman","","","","null","","","","","","","","",""
"null","is copying","","html-keyboard-response","338","960300","0.0-19.0-2.3","83893","List1A","black","woman","","","","null","","","","","","","","",""
"5030.100000008941","","","survey-text","339","965333","0.0-19.0-3.3","83893","List1A","black","woman","","","","","{""Q0"":""luke is copying mike""}","<img src=""stim_listA/copy5.gif""style=""height:400px;""></stim_listA>","is copying","","","","","",""
"null","<div style=""font-size:60px;"">+</div>","","html-keyboard-response","340","965836","0.0-19.0-0.4","83893","List1A","black","woman","","","","null","","","","","","","","",""
"null","<img src=""stim_listA/touch4.gif""style=""height:400px;""></stim_listA>","","html-keyboard-response","341","967840","0.0-19.0-1.4","83893","List1A","black","woman","","","","null","","","","","","","","",""
"null","is being touched by","","html-keyboard-response","342","969843","0.0-19.0-2.4","83893","List1A","black","woman","","","","null","","","","","","","","",""
"4713.4000000059605","","","survey-text","343","974560","0.0-19.0-3.4","83893","List1A","black","woman","","","","","{""Q0"":""luke is being touched by ruth""}","<img src=""stim_listA/touch4.gif""style=""height:400px;""></stim_listA>","is being touched by","","","","","",""
"null","<div style=""font-size:60px;"">+</div>","","html-keyboard-response","344","975063","0.0-19.0-0.5","83893","List1A","black","woman","","","","null","","","","","","","","",""
"null","<img src=""stim_listA/seduce6.gif""style=""height:400px;""></stim_listA>","","html-keyboard-response","345","977070","0.0-19.0-1.5","83893","List1A","black","woman","","","","null","","","","","","","","",""
"null","is being seduced by","","html-keyboard-response","346","979073","0.0-19.0-2.5","83893","List1A","black","woman","","","","null","","","","","","","","",""
"7088.600000008941","","","survey-text","347","986165","0.0-19.0-3.5","83893","List1A","black","woman","","","","","{""Q0"":""mike is being seduced by luke""}","<img src=""stim_listA/seduce6.gif""style=""height:400px;""></stim_listA>","is being seduced by","","","","","",""
"null","<div style=""font-size:60px;"">+</div>","","html-keyboard-response","348","986668","0.0-19.0-0.6","83893","List1A","black","woman","","","","null","","","","","","","","",""
"null","<img src=""stim_listA/challenge6.gif""style=""height:400px;""></stim_listA>","","html-keyboard-response","349","988674","0.0-19.0-1.6","83893","List1A","black","woman","","","","null","","","","","","","","",""
"null","is being challenged by","","html-keyboard-response","350","990677","0.0-19.0-2.6","83893","List1A","black","woman","","","","null","","","","","","","","",""
"5889","","","survey-text","351","996570","0.0-19.0-3.6","83893","List1A","black","woman","","","","","{""Q0"":""fred is being challenged by dave""}","<img src=""stim_listA/challenge6.gif""style=""height:400px;""></stim_listA>","is being challenged by","","","","","",""
"null","<div style=""font-size:60px;"">+</div>","","html-keyboard-response","352","997073","0.0-19.0-0.7","83893","List1A","black","woman","","","","null","","","","","","","","",""
"null","<img src=""stim_listA/kiss2.gif""style=""height:400px;""></stim_listA>","","html-keyboard-response","353","999077","0.0-19.0-1.7","83893","List1A","black","woman","","","","null","","","","","","","","",""
"null","is being kissed by","","html-keyboard-response","354","1001082","0.0-19.0-2.7","83893","List1A","black","woman","","","","null","","","","","","","","",""
"5410.899999991059","","","survey-text","355","1006496","0.0-19.0-3.7","83893","List1A","black","woman","","","","","{""Q0"":""kate is being kissed by mike""}","<img src=""stim_listA/kiss2.gif""style=""height:400px;""></stim_listA>","is being kissed by","","","","","",""
"null","<div style=""font-size:60px;"">+</div>","","html-keyboard-response","356","1006999","0.0-19.0-0.8","83893","List1A","black","woman","","","","null","","","","","","","","",""
"null","<img src=""stim_listA/oppose3.gif""style=""height:400px;""></stim_listA>","","html-keyboard-response","357","1009004","0.0-19.0-1.8","83893","List1A","black","woman","","","","null","","","","","","","","",""
"null","is opposing","","html-keyboard-response","358","1011006","0.0-19.0-2.8","83893","List1A","black","woman","","","","null","","","","","","","","",""
"4746.70000000298","","","survey-text","359","1015757","0.0-19.0-3.8","83893","List1A","black","woman","","","","","{""Q0"":""jane is opposing dave""}","<img src=""stim_listA/oppose3.gif""style=""height:400px;""></stim_listA>","is opposing","","","","","",""
"null","<div style=""font-size:60px;"">+</div>","","html-keyboard-response","360","1016260","0.0-19.0-0.9","83893","List1A","black","woman","","","","null","","","","","","","","",""
"null","<img src=""stim_listA/hug1.gif""style=""height:400px;""></stim_listA>","","html-keyboard-response","361","1018263","0.0-19.0-1.9","83893","List1A","black","woman","","","","null","","","","","","","","",""
"null","is hugging","","html-keyboard-response","362","1020265","0.0-19.0-2.9","83893","List1A","black","woman","","","","null","","","","","","","","",""
"3693.4000000059605","","","survey-text","363","1023962","0.0-19.0-3.9","83893","List1A","black","woman","","","","","{""Q0"":""beth is hugging fred""}","<img src=""stim_listA/hug1.gif""style=""height:400px;""></stim_listA>","is hugging","","","","","",""
"null","<div style=""font-size:60px;"">+</div>","","html-keyboard-response","364","1024465","0.0-19.0-0.10","83893","List1A","black","woman","","","","null","","","","","","","","",""
"null","<img src=""stim_listA/shout4.gif""style=""height:400px;""></stim_listA>","","html-keyboard-response","365","1026470","0.0-19.0-1.10","83893","List1A","black","woman","","","","null","","","","","","","","",""
"null","is being shouted at by","","html-keyboard-response","366","1028473","0.0-19.0-2.10","83893","List1A","black","woman","","","","null","","","","","","","","",""
"5325.199999988079","","","survey-text","367","1033802","0.0-19.0-3.10","83893","List1A","black","woman","","","","","{""Q0"":""dave is being shouted at by jane""}","<img src=""stim_listA/shout4.gif""style=""height:400px;""></stim_listA>","is being shouted at by","","","","","",""
"null","<div style=""font-size:60px;"">+</div>","","html-keyboard-response","368","1034304","0.0-19.0-0.11","83893","List1A","black","woman","","","","null","","","","","","","","",""
"null","<img src=""stim_listA/challenge8.gif""style=""height:400px;""></stim_listA>","","html-keyboard-response","369","1036310","0.0-19.0-1.11","83893","List1A","black","woman","","","","null","","","","","","","","",""
"null","is being challenged by","","html-keyboard-response","370","1038312","0.0-19.0-2.11","83893","List1A","black","woman","","","","null","","","","","","","","",""
"5926.699999988079","","","survey-text","371","1044242","0.0-19.0-3.11","83893","List1A","black","woman","","","","","{""Q0"":""beth is being challenged by jane""}","<img src=""stim_listA/challenge8.gif""style=""height:400px;""></stim_listA>","is being challenged by","","","","","",""
"null","<div style=""font-size:60px;"">+</div>","","html-keyboard-response","372","1044745","0.0-19.0-0.12","83893","List1A","black","woman","","","","null","","","","","","","","",""
"null","<img src=""stim_listA/kiss3.gif""style=""height:400px;""></stim_listA>","","html-keyboard-response","373","1046747","0.0-19.0-1.12","83893","List1A","black","woman","","","","null","","","","","","","","",""
"null","is kissing","","html-keyboard-response","374","1048750","0.0-19.0-2.12","83893","List1A","black","woman","","","","null","","","","","","","","",""
"3963.8999999910593","","","survey-text","375","1052717","0.0-19.0-3.12","83893","List1A","black","woman","","","","","{""Q0"":""ruth is kissing luke""}","<img src=""stim_listA/kiss3.gif""style=""height:400px;""></stim_listA>","is kissing","","","","","",""
"null","<div style=""font-size:60px;"">+</div>","","html-keyboard-response","376","1053220","0.0-19.0-0.13","83893","List1A","black","woman","","","","null","","","","","","","","",""
"null","<img src=""stim_listA/seduce3.gif""style=""height:400px;""></stim_listA>","","html-keyboard-response","377","1055223","0.0-19.0-1.13","83893","List1A","black","woman","","","","null","","","","","","","","",""
"null","is seducing","","html-keyboard-response","378","1057225","0.0-19.0-2.13","83893","List1A","black","woman","","","","null","","","","","","","","",""
"3848.2000000029802","","","survey-text","379","1061077","0.0-19.0-3.13","83893","List1A","black","woman","","","","","{""Q0"":""jane is seducing luke""}","<img src=""stim_listA/seduce3.gif""style=""height:400px;""></stim_listA>","is seducing","","","","","",""
"null","<div style=""font-size:60px;"">+</div>","","html-keyboard-response","380","1061579","0.0-19.0-0.14","83893","List1A","black","woman","","","","null","","","","","","","","",""
"null","<img src=""stim_listA/shout8.gif""style=""height:400px;""></stim_listA>","","html-keyboard-response","381","1063582","0.0-19.0-1.14","83893","List1A","black","woman","","","","null","","","","","","","","",""
"null","is being shouted at by","","html-keyboard-response","382","1065584","0.0-19.0-2.14","83893","List1A","black","woman","","","","null","","","","","","","","",""
"7069.70000000298","","","survey-text","383","1072658","0.0-19.0-3.14","83893","List1A","black","woman","","","","","{""Q0"":""kate is being shouted at by jane""}","<img src=""stim_listA/shout8.gif""style=""height:400px;""></stim_listA>","is being shouted at by","","","","","",""
"null","<div style=""font-size:60px;"">+</div>","","html-keyboard-response","384","1073160","0.0-19.0-0.15","83893","List1A","black","woman","","","","null","","","","","","","","",""
"null","<img src=""stim_listA/challenge3.gif""style=""height:400px;""></stim_listA>","","html-keyboard-response","385","1075163","0.0-19.0-1.15","83893","List1A","black","woman","","","","null","","","","","","","","",""
"null","is challenging","","html-keyboard-response","386","1077166","0.0-19.0-2.15","83893","List1A","black","woman","","","","null","","","","","","","","",""
"4111.899999991059","","","survey-text","387","1081281","0.0-19.0-3.15","83893","List1A","black","woman","","","","","{""Q0"":""ruth is challenging dave""}","<img src=""stim_listA/challenge3.gif""style=""height:400px;""></stim_listA>","is challenging","","","","","",""
"null","<div style=""font-size:60px;"">+</div>","","html-keyboard-response","388","1081783","0.0-19.0-0.16","83893","List1A","black","woman","","","","null","","","","","","","","",""
"null","<img src=""stim_listA/kiss8.gif""style=""height:400px;""></stim_listA>","","html-keyboard-response","389","1083789","0.0-19.0-1.16","83893","List1A","black","woman","","","","null","","","","","","","","",""
"null","is being kissed by","","html-keyboard-response","390","1085792","0.0-19.0-2.16","83893","List1A","black","woman","","","","null","","","","","","","","",""
"4929.100000008941","","","survey-text","391","1090726","0.0-19.0-3.16","83893","List1A","black","woman","","","","","{""Q0"":""kate is being kissed by jane""}","<img src=""stim_listA/kiss8.gif""style=""height:400px;""></stim_listA>","is being kissed by","","","","","",""
"null","<div style=""font-size:60px;"">+</div>","","html-keyboard-response","392","1091228","0.0-19.0-0.17","83893","List1A","black","woman","","","","null","","","","","","","","",""
"null","<img src=""stim_listA/greet5.gif""style=""height:400px;""></stim_listA>","","html-keyboard-response","393","1093233","0.0-19.0-1.17","83893","List1A","black","woman","","","","null","","","","","","","","",""
"null","is greeting","","html-keyboard-response","394","1095237","0.0-19.0-2.17","83893","List1A","black","woman","","","","null","","","","","","","","",""
"4684.399999991059","","","survey-text","395","1099924","0.0-19.0-3.17","83893","List1A","black","woman","","","","","{""Q0"":""luke is greeting mike""}","<img src=""stim_listA/greet5.gif""style=""height:400px;""></stim_listA>","is greeting","","","","","",""
"null","<div style=""font-size:60px;"">+</div>","","html-keyboard-response","396","1100426","0.0-19.0-0.18","83893","List1A","black","woman","","","","null","","","","","","","","",""
"null","<img src=""stim_listA/hug2.gif""style=""height:400px;""></stim_listA>","","html-keyboard-response","397","1102429","0.0-19.0-1.18","83893","List1A","black","woman","","","","null","","","","","","","","",""
"null","is being hugged by","","html-keyboard-response","398","1104432","0.0-19.0-2.18","83893","List1A","black","woman","","","","null","","","","","","","","",""
"6441.20000000298","","","survey-text","399","1110876","0.0-19.0-3.18","83893","List1A","black","woman","","","","","{""Q0"":""mike is being hugged by kate""}","<img src=""stim_listA/hug2.gif""style=""height:400px;""></stim_listA>","is being hugged by","","","","","",""
"null","<div style=""font-size:60px;"">+</div>","","html-keyboard-response","400","1111380","0.0-19.0-0.19","83893","List1A","black","woman","","","","null","","","","","","","","",""
"null","<img src=""stim_listA/greet4.gif""style=""height:400px;""></stim_listA>","","html-keyboard-response","401","1113383","0.0-19.0-1.19","83893","List1A","black","woman","","","","null","","","","","","","","",""
"null","is being greeted by","","html-keyboard-response","402","1115386","0.0-19.0-2.19","83893","List1A","black","woman","","","","null","","","","","","","","",""
"5604","","","survey-text","403","1120993","0.0-19.0-3.19","83893","List1A","black","woman","","","","","{""Q0"":""luke is being greeted by jane""}","<img src=""stim_listA/greet4.gif""style=""height:400px;""></stim_listA>","is being greeted by","","","","","",""
"2236.7000000029802","<p>Thank you for completing that task.</p><p>The final part of this session is a questionnaire that will take about 4 minutes.</p><p>Press Continue.</p>","0","html-button-response","404","1123231","0.0-20.0","83893","List1A","black","woman","","","","","","","","","","","","",""
"20123.20000000298","","","survey-text","405","1144361","0.0-21.0","83893","List1A","black","woman","","","","","{""Q0"":""28"",""Q1"":""English"",""Q2"":""English"",""Q3"":""United States"",""Q4"":""American"",""Q5"":""Black"",""Q6"":""Female""}","","","demographics","","","","",""
"1809.7999999970198","<p>Have you lived in the USA for the last 5 years or more?</p>","0","html-button-response","406","1146177","0.0-22.0","83893","List1A","black","woman","","","","","","","","fiveyears","","","","",""
"1832.7000000029802","<p>Move the slider to show the extent to which you agree with the following statements.</p>","0","html-button-response","407","1149014","0.0-23.0","83893","List1A","black","woman","","","","","","","","","","","","",""
"6170.100000008941","","","html-slider-response","408","1156191","0.0-24.0-0.0-0.0","83893","List1A","black","woman","","","","","","","","survey_gender","81","","","My friends understand me.","filler"
"2930.7999999970198","","","html-slider-response","409","1159125","0.0-24.0-0.0-0.1","83893","List1A","black","woman","","","","","","","","survey_gender","100","","","I consider myself a highly empathetic person.","filler"
"5334.20000000298","","","html-slider-response","410","1164461","0.0-24.0-0.0-0.2","83893","List1A","black","woman","","","","","","","","survey_gender","87","","","My friends have a lot in common with each other.","filler"
"2376.3999999910593","","","html-slider-response","411","1166840","0.0-24.0-0.0-0.3","83893","List1A","black","woman","","","","","","","","survey_gender","100","","","I am glad to be my gender.","glad"
"5538.5999999940395","","","html-slider-response","412","1172381","0.0-24.0-0.0-0.4","83893","List1A","black","woman","","","","","","","","survey_gender","45","","","People of my gender are very similar to each other.","verysimilar"
"2482.2000000029802","","","html-slider-response","413","1174865","0.0-24.0-0.0-0.5","83893","List1A","black","woman","","","","","","","","survey_gender","86","","","I feel a bond with my friends.","filler"
"2629.6000000089407","","","html-slider-response","414","1177498","0.0-24.0-0.0-0.6","83893","List1A","black","woman","","","","","","","","survey_gender","100","","","The fact that I am my gender is an important part of my identity.","identity"
"8609","","","html-slider-response","415","1186109","0.0-24.0-0.0-0.7","83893","List1A","black","woman","","","","","","","","survey_gender","54","","","People of my gender have a lot in common with each other.","common"
"2131.699999988079","","","html-slider-response","416","1188244","0.0-24.0-0.0-0.8","83893","List1A","black","woman","","","","","","","","survey_gender","100","","","It is pleasant to be my gender.","pleasant"
"3175.7000000029802","","","html-slider-response","417","1191421","0.0-24.0-0.0-0.9","83893","List1A","black","woman","","","","","","","","survey_gender","100","","","I often think about the fact that I am my gender.","often"
"6694.9000000059605","","","html-slider-response","418","1198117","0.0-24.0-0.0-0.10","83893","List1A","black","woman","","","","","","","","survey_gender","61","","","I am similar to the average person of my gender.","similar"
"3932.2999999970198","","","html-slider-response","419","1202052","0.0-24.0-0.0-0.11","83893","List1A","black","woman","","","","","","","","survey_gender","86","","","I feel solidarity with my friends.","filler"
"4209.5","","","html-slider-response","420","1206264","0.0-24.0-0.0-0.12","83893","List1A","black","woman","","","","","","","","survey_gender","45","","","I would say I am an animal person.","filler"
"2596.5999999940395","","","html-slider-response","421","1208863","0.0-24.0-0.0-0.13","83893","List1A","black","woman","","","","","","","","survey_gender","100","","","Being my gender gives me a good feeling.","feeling"
"3083.7000000029802","","","html-slider-response","422","1211950","0.0-24.0-0.0-0.14","83893","List1A","black","woman","","","","","","","","survey_gender","97","","","I think that my gender has a lot to be proud of.","proud"
"4796.100000008941","","","html-slider-response","423","1216748","0.0-24.0-0.0-0.15","83893","List1A","black","woman","","","","","","","","survey_gender","69","","","It is not always easy for people to know what I am thinking.","filler"
"2367.7000000029802","","","html-slider-response","424","1219118","0.0-24.0-0.0-0.16","83893","List1A","black","woman","","","","","","","","survey_gender","95","","","I feel solidarity with my gender.","solidarity"
"2946.2000000029802","","","html-slider-response","425","1222067","0.0-24.0-0.0-0.17","83893","List1A","black","woman","","","","","","","","survey_gender","94","","","I feel a bond with my gender.","bond"
"2743.8999999910593","","","html-slider-response","426","1224812","0.0-24.0-0.0-0.18","83893","List1A","black","woman","","","","","","","","survey_gender","83","","","I have a lot in common with my friends.","filler"
"2442.5","","","html-slider-response","427","1227257","0.0-24.0-0.0-0.19","83893","List1A","black","woman","","","","","","","","survey_gender","100","","","Being my gender is an important part of how I see myself.","important"
"3199","","","html-slider-response","428","1230458","0.0-24.0-0.0-0.20","83893","List1A","black","woman","","","","","","","","survey_gender","95","","","Being around my friends gives me a good feeling.","filler"
"2539.2000000029802","","","html-slider-response","429","1232999","0.0-24.0-0.0-0.21","83893","List1A","black","woman","","","","","","","","survey_gender","58","","","I have a lot in common with the average person of my gender.","average"
"3558.5","","","html-slider-response","430","1236560","0.0-24.0-0.0-0.22","83893","List1A","black","woman","","","","","","","","survey_gender","31","","","Routine is not important to me.","filler"
"2376.0999999940395","","","html-slider-response","431","1238938","0.0-24.0-0.0-0.23","83893","List1A","black","woman","","","","","","","","survey_gender","87","","","I feel committed to my gender.","committed"
"2367.9000000059605","","","html-slider-response","432","1241308","0.0-24.0-0.0-0.24","83893","List1A","black","woman","","","","","","","","survey_gender","93","","","I often think about my actions.","filler"
"2221.2999999970198","","","html-slider-response","433","1243532","0.0-24.0-0.0-0.25","83893","List1A","black","woman","","","","","","","","survey_gender","91","","","I am glad to have the friends that I have.","filler"
"3622.7000000029802","","","html-slider-response","434","1247157","0.0-24.0-0.0-0.26","83893","List1A","black","woman","","","","","","","","survey_gender","24","","","Family is not more important to me than friendship.","filler"
"2701.800000011921","","","html-slider-response","435","1249862","0.0-24.0-0.0-0.27","83893","List1A","black","woman","","","","","","","","survey_gender","74","","","Most of the friends in my life are very similar to me.","filler"
"2498.6000000089407","","","html-slider-response","436","1252362","0.0-24.0-1.0-0.0","83893","List1A","black","woman","","","","","","","","survey_race","95","","","Being my race gives me a good feeling.","feeling"
"2108","","","html-slider-response","437","1254472","0.0-24.0-1.0-0.1","83893","List1A","black","woman","","","","","","","","survey_race","100","","","I feel solidarity with my race.","solidarity"
"3883.2000000029802","","","html-slider-response","438","1258358","0.0-24.0-1.0-0.2","83893","List1A","black","woman","","","","","","","","survey_race","86","","","I often think about the fact that I am my age.","filler"
"2024.8999999910593","","","html-slider-response","439","1260384","0.0-24.0-1.0-0.3","83893","List1A","black","woman","","","","","","","","survey_race","100","","","I am glad to be my race.","glad"
"2892.6000000089407","","","html-slider-response","440","1263278","0.0-24.0-1.0-0.4","83893","List1A","black","woman","","","","","","","","survey_race","100","","","I feel committed to my race.","committed"
"2604.0999999940395","","","html-slider-response","441","1265885","0.0-24.0-1.0-0.5","83893","List1A","black","woman","","","","","","","","survey_race","91","","","I am glad to be the age I am.","filler"
"3159","","","html-slider-response","442","1269046","0.0-24.0-1.0-0.6","83893","List1A","black","woman","","","","","","","","survey_race","39","","","I am similar to the average person of my race.","similar"
"2188.4000000059605","","","html-slider-response","443","1271237","0.0-24.0-1.0-0.7","83893","List1A","black","woman","","","","","","","","survey_race","100","","","I think that my race has a lot to be proud of.","proud"
"33740.60000000894","","","html-slider-response","444","1304979","0.0-24.0-1.0-0.8","83893","List1A","black","woman","","","","","","","","survey_race","68","","","People my age have a lot in common with each other.","filler"
"2628.0999999940395","","","html-slider-response","445","1307610","0.0-24.0-1.0-0.9","83893","List1A","black","woman","","","","","","","","survey_race","88","","","I am glad to be my age.","filler"
"2857.5999999940395","","","html-slider-response","446","1310470","0.0-24.0-1.0-0.10","83893","List1A","black","woman","","","","","","","","survey_race","31","","","People of my race are very similar to each other.","verysimilar"
"2571.9000000059605","","","html-slider-response","447","1313044","0.0-24.0-1.0-0.11","83893","List1A","black","woman","","","","","","","","survey_race","70","","","People of my race have a lot in common with each other.","common"
"4991.0999999940395","","","html-slider-response","448","1318038","0.0-24.0-1.0-0.12","83893","List1A","black","woman","","","","","","","","survey_race","62","","","I have a lot in common with people of a similar age to me.","filler"
"2287","","","html-slider-response","449","1320327","0.0-24.0-1.0-0.13","83893","List1A","black","woman","","","","","","","","survey_race","72","","","The older I get, the wiser I feel.","filler"
"2482.7999999970198","","","html-slider-response","450","1322811","0.0-24.0-1.0-0.14","83893","List1A","black","woman","","","","","","","","survey_race","91","","","Being my race is an important part of how I see myself.","important"
"3166.6000000089407","","","html-slider-response","451","1325980","0.0-24.0-1.0-0.15","83893","List1A","black","woman","","","","","","","","survey_race","63","","","I feel solidarity with people the same age as me.","filler"
"4412.5999999940395","","","html-slider-response","452","1330395","0.0-24.0-1.0-0.16","83893","List1A","black","woman","","","","","","","","survey_race","30","","","It is pleasant to be my race.","pleasant"
"2474.2000000029802","","","html-slider-response","453","1332872","0.0-24.0-1.0-0.17","83893","List1A","black","woman","","","","","","","","survey_race","63","","","I feel a bond with people the same age as me.","filler"
"4143.699999988079","","","html-slider-response","454","1337018","0.0-24.0-1.0-0.18","83893","List1A","black","woman","","","","","","","","survey_race","11","","","I consider myself an extrovert.","filler"
"3100.1000000089407","","","html-slider-response","455","1340120","0.0-24.0-1.0-0.19","83893","List1A","black","woman","","","","","","","","survey_race","35","","","Getting older does not worry me.","filler"
"4447.300000011921","","","html-slider-response","456","1344569","0.0-24.0-1.0-0.20","83893","List1A","black","woman","","","","","","","","survey_race","28","","","My age is not an important part of who I am.","filler"
"3100.8999999910593","","","html-slider-response","457","1347672","0.0-24.0-1.0-0.21","83893","List1A","black","woman","","","","","","","","survey_race","87","","","I feel a bond with my race.","bond"
"2702.2000000029802","","","html-slider-response","458","1350377","0.0-24.0-1.0-0.22","83893","List1A","black","woman","","","","","","","","survey_race","89","","","I often think about the fact that I am my race.","often"
"2377.2999999970198","","","html-slider-response","459","1352756","0.0-24.0-1.0-0.23","83893","List1A","black","woman","","","","","","","","survey_race","22","","","I enjoy being in large groups.","filler"
"2376.5999999940395","","","html-slider-response","460","1355134","0.0-24.0-1.0-0.24","83893","List1A","black","woman","","","","","","","","survey_race","96","","","I consider myself an introvert.","filler"
"3923.9000000059605","","","html-slider-response","461","1359061","0.0-24.0-1.0-0.25","83893","List1A","black","woman","","","","","","","","survey_race","62","","","I have a lot in common with the average person of my race.","average"
"2268.3999999910593","","","html-slider-response","462","1361332","0.0-24.0-1.0-0.26","83893","List1A","black","woman","","","","","","","","survey_race","69","","","Being my age gives me a good feeling.","filler"
"2450.4000000059605","","","html-slider-response","463","1363784","0.0-24.0-1.0-0.27","83893","List1A","black","woman","","","","","","","","survey_race","91","","","The fact that I am my race is an important part of my identity.","identity"
"3207.4000000059605","","","survey-text","464","1366994","0.0-25.0","83893","List1A","black","woman","","","","","{""Q0"":""616426c9ef325b5dd26f7d8e""}","","","worker_id","","","","",""
"30693.90000000596","","","external-html","465","1397935","0.0-26.0","83893","List1A","black","woman","debrief.html","","","","","","","","","","","",""
