"rt","stimulus","button_pressed","trial_type","trial_index","time_elapsed","internal_node_id","subject","list","ppt_race","ppt_gender","url","first_guess","correct","key_press","responses","image_type","phrase_type","test_part","response","stimulus1","stimulus2","question_type","survey_item"
"126290.30000007153","Welcome to the experiment. Press Continue to begin.","0","html-button-response","0","126290","0.0-0.0","84235","List2A","black","man","","","","","","","","","","","","",""
"31495.200000047684","","","external-html","1","160355","0.0-1.0","84235","List2A","black","man","consent.html","","","","","","","","","","","",""
"15407.5","<p>On the next page, you will see portraits of 8 people and their names.</p><p>Your first task is to take a few minutes to memorise the names of these people.</p><p>You will have to recall their names during the rest of the experiment, so it is</p><p>essential that you try to memorise these people and their names as best as you can.</p><br><p><strong>You will then be tested on your memory of these names and portraits.</strong></p><br><p>The experiment will start after you have completed this memory test.</p><br><p>Ready?</p>","0","html-button-response","2","175768","0.0-2.0","84235","List2A","black","man","","","","","","","","","","","","",""
"60134.700000047684","<img src='img/portrait_matrix_list2.jpg' style='width:900px;height:500px;''></img><p>If you have memorised all the portraits and names and are ready to start, press Continue.</p><p><strong>Please note: Your memory of these faces will be tested 4 times during this experiment.</strong></p>","0","html-button-response","3","242824","0.0-3.0-0.0","84235","List2A","black","man","","","","","","","","","","","","",""
"10394.100000023842","<img src=""portrait/WW1.jpg""style=""height:400px;""></img>","1","html-button-response","4","254226","0.0-3.0-1.0","84235","List2A","black","man","","true","1","","","","","","","","","",""
"null","CORRECT","","html-keyboard-response","5","255750","0.0-3.0-2.0-0.0","84235","List2A","black","man","","","","null","","","","","","","","",""
"4889.399999976158","<img src=""portrait/WM2.jpg""style=""height:400px;""></img>","3","html-button-response","6","260642","0.0-3.0-4.0","84235","List2A","black","man","","true","7","","","","","","","","","",""
"7144.900000095367","<img src=""portrait/WM2.jpg""style=""height:400px;""></img>","7","html-button-response","7","268793","0.0-3.0-6.0-0.0","84235","List2A","black","man","","false","7","","","","","","","","","",""
"null","CORRECT","","html-keyboard-response","8","270319","0.0-3.0-6.0-1.0-0.0","84235","List2A","black","man","","","","null","","","","","","","","",""
"6218.599999904633","<img src=""portrait/BM2.jpg""style=""height:400px;""></img>","5","html-button-response","9","276539","0.0-3.0-7.0","84235","List2A","black","man","","true","5","","","","","","","","","",""
"null","CORRECT","","html-keyboard-response","10","278064","0.0-3.0-8.0-0.0","84235","List2A","black","man","","","","null","","","","","","","","",""
"5504","<img src=""portrait/WW2.jpg""style=""height:400px;""></img>","3","html-button-response","11","283570","0.0-3.0-10.0","84235","List2A","black","man","","true","3","","","","","","","","","",""
"null","CORRECT","","html-keyboard-response","12","285090","0.0-3.0-11.0-0.0","84235","List2A","black","man","","","","null","","","","","","","","",""
"4433.299999952316","<img src=""portrait/BW2.jpg""style=""height:400px;""></img>","2","html-button-response","13","289526","0.0-3.0-13.0","84235","List2A","black","man","","true","2","","","","","","","","","",""
"null","CORRECT","","html-keyboard-response","14","291049","0.0-3.0-14.0-0.0","84235","List2A","black","man","","","","null","","","","","","","","",""
"6212.200000047684","<img src=""portrait/BM1.jpg""style=""height:400px;""></img>","4","html-button-response","15","297262","0.0-3.0-16.0","84235","List2A","black","man","","true","4","","","","","","","","","",""
"null","CORRECT","","html-keyboard-response","16","298777","0.0-3.0-17.0-0.0","84235","List2A","black","man","","","","null","","","","","","","","",""
"9792.399999976158","<img src=""portrait/WM1.jpg""style=""height:400px;""></img>","5","html-button-response","17","308571","0.0-3.0-19.0","84235","List2A","black","man","","true","6","","","","","","","","","",""
"2706.899999976158","<img src=""portrait/WM1.jpg""style=""height:400px;""></img>","6","html-button-response","18","312287","0.0-3.0-21.0-0.0","84235","List2A","black","man","","false","6","","","","","","","","","",""
"null","CORRECT","","html-keyboard-response","19","313806","0.0-3.0-21.0-1.0-0.0","84235","List2A","black","man","","","","null","","","","","","","","",""
"5611.100000023842","<img src=""portrait/BW1.jpg""style=""height:400px;""></img>","0","html-button-response","20","319418","0.0-3.0-22.0","84235","List2A","black","man","","true","0","","","","","","","","","",""
"null","CORRECT","","html-keyboard-response","21","320922","0.0-3.0-23.0-0.0","84235","List2A","black","man","","","","null","","","","","","","","",""
"1920.8999999761581","<p>You got 6 out of 8 right first time. Press Continue.</p>","0","html-button-response","22","322845","0.0-3.0-25.0","84235","List2A","black","man","","","","","","","","","","","","",""
"3646.7000000476837","As you did not score 100%, the memory game will repeat. Press Continue.","0","html-button-response","23","327502","0.0-3.0-26.0-0.0","84235","List2A","black","man","","","","","","","","","","","","",""
"3423.399999976158","<img src='img/portrait_matrix_list2.jpg' style='width:900px;height:500px;''></img><p>If you have memorised all the portraits and names and are ready to start, press Continue.</p><p><strong>Please note: Your memory of these faces will be tested 4 times during this experiment.</strong></p>","0","html-button-response","24","331936","0.0-3.1-0.1","84235","List2A","black","man","","","","","","","","","","","","",""
"3998.399999976158","<img src=""portrait/WW1.jpg""style=""height:400px;""></img>","1","html-button-response","25","336948","0.0-3.1-1.1","84235","List2A","black","man","","true","1","","","","","","","","","",""
"null","CORRECT","","html-keyboard-response","26","338477","0.0-3.1-2.1-0.1","84235","List2A","black","man","","","","null","","","","","","","","",""
"3404.8000000715256","<img src=""portrait/WM2.jpg""style=""height:400px;""></img>","7","html-button-response","27","341883","0.0-3.1-4.1","84235","List2A","black","man","","true","7","","","","","","","","","",""
"null","CORRECT","","html-keyboard-response","28","343401","0.0-3.1-5.1-0.1","84235","List2A","black","man","","","","null","","","","","","","","",""
"4465","<img src=""portrait/BM2.jpg""style=""height:400px;""></img>","5","html-button-response","29","347867","0.0-3.1-7.1","84235","List2A","black","man","","true","5","","","","","","","","","",""
"null","CORRECT","","html-keyboard-response","30","349400","0.0-3.1-8.1-0.1","84235","List2A","black","man","","","","null","","","","","","","","",""
"2675.7999999523163","<img src=""portrait/WW2.jpg""style=""height:400px;""></img>","3","html-button-response","31","352078","0.0-3.1-10.1","84235","List2A","black","man","","true","3","","","","","","","","","",""
"null","CORRECT","","html-keyboard-response","32","353601","0.0-3.1-11.1-0.1","84235","List2A","black","man","","","","null","","","","","","","","",""
"2802.399999976158","<img src=""portrait/BW2.jpg""style=""height:400px;""></img>","2","html-button-response","33","356405","0.0-3.1-13.1","84235","List2A","black","man","","true","2","","","","","","","","","",""
"null","CORRECT","","html-keyboard-response","34","357920","0.0-3.1-14.1-0.1","84235","List2A","black","man","","","","null","","","","","","","","",""
"3669.0999999046326","<img src=""portrait/BM1.jpg""style=""height:400px;""></img>","4","html-button-response","35","361592","0.0-3.1-16.1","84235","List2A","black","man","","true","4","","","","","","","","","",""
"null","CORRECT","","html-keyboard-response","36","363110","0.0-3.1-17.1-0.1","84235","List2A","black","man","","","","null","","","","","","","","",""
"3363.600000023842","<img src=""portrait/WM1.jpg""style=""height:400px;""></img>","6","html-button-response","37","366475","0.0-3.1-19.1","84235","List2A","black","man","","true","6","","","","","","","","","",""
"null","CORRECT","","html-keyboard-response","38","367996","0.0-3.1-20.1-0.1","84235","List2A","black","man","","","","null","","","","","","","","",""
"5624.700000047684","<img src=""portrait/BW1.jpg""style=""height:400px;""></img>","0","html-button-response","39","373622","0.0-3.1-22.1","84235","List2A","black","man","","true","0","","","","","","","","","",""
"null","CORRECT","","html-keyboard-response","40","375141","0.0-3.1-23.1-0.1","84235","List2A","black","man","","","","null","","","","","","","","",""
"2274.7999999523163","<p>You got 8 out of 8 right first time. Press Continue.</p>","0","html-button-response","41","377417","0.0-3.1-25.1","84235","List2A","black","man","","","","","","","","","","","","",""
"87000.79999995232","<p>In this experiment, you will view photographs of the people from the memory game interacting.</p><p>By using the <strong>exact</strong> phrase given <i>after</i> the photograph appears and recalling the correct names of the people in the photographs, form a sentence describing the interaction. You do not need to capitalise names.</p><p>Type your answer in the space provided. Please complete every sentence before moving onto the next trial.</p><p>You will only have a few seconds to memorise each given photograph and phrase before you can respond, so try your best to focus.</p><p>An example is given below. Press 'Continue' when you are ready.</p><img src='img/speaking_example.jpg' style='width:800px;height:460px;''></img>","0","html-button-response","42","465423","0.0-4.0","84235","List2A","black","man","","","","","","","","","","","","",""
"7262.700000047684","<p>Before the experiment starts, you will watch two example trials. Press 'Continue'.</p>","0","html-button-response","43","473690","0.0-5.0","84235","List2A","black","man","","","","","","","","","","","","",""
"null","<img src='img/play_eg.gif' style='height:400px;''></img>","","html-keyboard-response","44","476702","0.0-6.0","84235","List2A","black","man","","","","null","","","","","","","","",""
"null","<p>is playing with</p>","","html-keyboard-response","45","478718","0.0-7.0","84235","List2A","black","man","","","","null","","","","","","","","",""
"4565.399999976158","<p><b>Answer:</b> jane is playing with ruth</p>","0","html-button-response","46","483285","0.0-8.0","84235","List2A","black","man","","","","","","","","","","","","",""
"null","<img src='img/dance_eg.gif' style='height:400px;''></img>","","html-keyboard-response","47","486307","0.0-9.0","84235","List2A","black","man","","","","null","","","","","","","","",""
"null","<p>is being entertained by</p>","","html-keyboard-response","48","488313","0.0-10.0","84235","List2A","black","man","","","","null","","","","","","","","",""
"2341.9000000953674","<p><b>Answer:</b> fred is being entertained by mike</p>","0","html-button-response","49","490656","0.0-11.0","84235","List2A","black","man","","","","","","","","","","","","",""
"11370.600000023842","<p>Ready to start the experiment?</p><br><p><strong>Remember to describe the picture using a full sentence,</strong></p><p><strong>that combines the names of the people with the <i>exact</i> phrase given.</strong></p><p><strong>To receive full payment you must do this correctly.</strong></p><p><strong> You do not need to capitalise names or use punctuation.</strong></p><br><p>Press 'Continue' to begin.</p>","0","html-button-response","50","503040","0.0-12.0","84235","List2A","black","man","","","","","","","","","","","","",""
"null","<div style=""font-size:60px;"">+</div>","","html-keyboard-response","51","504545","0.0-13.0-0.0","84235","List2A","black","man","","","","null","","","","","","","","",""
"null","<img src=""stim_listA/oppose4.gif""style=""height:400px;""></stim_listA>","","html-keyboard-response","52","506559","0.0-13.0-1.0","84235","List2A","black","man","","","","null","","","","","","","","",""
"null","is being opposed by","","html-keyboard-response","53","508563","0.0-13.0-2.0","84235","List2A","black","man","","","","null","","","","","","","","",""
"21750.300000071526","","","survey-text","54","530317","0.0-13.0-3.0","84235","List2A","black","man","","","","","{""Q0"":""beth is being opposed by kate""}","<img src=""stim_listA/oppose4.gif""style=""height:400px;""></stim_listA>","is being opposed by","","","","","",""
"null","<div style=""font-size:60px;"">+</div>","","html-keyboard-response","55","530834","0.0-13.0-0.1","84235","List2A","black","man","","","","null","","","","","","","","",""
"null","<img src=""stim_listA/seduce8.gif""style=""height:400px;""></stim_listA>","","html-keyboard-response","56","532848","0.0-13.0-1.1","84235","List2A","black","man","","","","null","","","","","","","","",""
"null","is being seduced by","","html-keyboard-response","57","534859","0.0-13.0-2.1","84235","List2A","black","man","","","","null","","","","","","","","",""
"24246.100000023842","","","survey-text","58","559108","0.0-13.0-3.1","84235","List2A","black","man","","","","","{""Q0"":""beth is seduced by ruth""}","<img src=""stim_listA/seduce8.gif""style=""height:400px;""></stim_listA>","is being seduced by","","","","","",""
"null","<div style=""font-size:60px;"">+</div>","","html-keyboard-response","59","559616","0.0-13.0-0.2","84235","List2A","black","man","","","","null","","","","","","","","",""
"null","<img src=""stim_listA/shout6.gif""style=""height:400px;""></stim_listA>","","html-keyboard-response","60","561632","0.0-13.0-1.2","84235","List2A","black","man","","","","null","","","","","","","","",""
"null","is being shouted at by","","html-keyboard-response","61","563636","0.0-13.0-2.2","84235","List2A","black","man","","","","null","","","","","","","","",""
"23030.599999904633","","","survey-text","62","586671","0.0-13.0-3.2","84235","List2A","black","man","","","","","{""Q0"":""mike is arguing with dave""}","<img src=""stim_listA/shout6.gif""style=""height:400px;""></stim_listA>","is being shouted at by","","","","","",""
"null","<div style=""font-size:60px;"">+</div>","","html-keyboard-response","63","587181","0.0-13.0-0.3","84235","List2A","black","man","","","","null","","","","","","","","",""
"null","<img src=""stim_listA/hug7.gif""style=""height:400px;""></stim_listA>","","html-keyboard-response","64","589191","0.0-13.0-1.3","84235","List2A","black","man","","","","null","","","","","","","","",""
"null","is hugging","","html-keyboard-response","65","591197","0.0-13.0-2.3","84235","List2A","black","man","","","","null","","","","","","","","",""
"14574.200000047684","","","survey-text","66","605775","0.0-13.0-3.3","84235","List2A","black","man","","","","","{""Q0"":""beth is hugging ruth""}","<img src=""stim_listA/hug7.gif""style=""height:400px;""></stim_listA>","is hugging","","","","","",""
"null","<div style=""font-size:60px;"">+</div>","","html-keyboard-response","67","606277","0.0-13.0-0.4","84235","List2A","black","man","","","","null","","","","","","","","",""
"null","<img src=""stim_listA/look6.gif""style=""height:400px;""></stim_listA>","","html-keyboard-response","68","608291","0.0-13.0-1.4","84235","List2A","black","man","","","","null","","","","","","","","",""
"null","is being looked at by","","html-keyboard-response","69","610303","0.0-13.0-2.4","84235","List2A","black","man","","","","null","","","","","","","","",""
"23965.100000023842","","","survey-text","70","634271","0.0-13.0-3.4","84235","List2A","black","man","","","","","{""Q0"":""mike is being looked at by dave""}","<img src=""stim_listA/look6.gif""style=""height:400px;""></stim_listA>","is being looked at by","","","","","",""
"null","<div style=""font-size:60px;"">+</div>","","html-keyboard-response","71","634783","0.0-13.0-0.5","84235","List2A","black","man","","","","null","","","","","","","","",""
"null","<img src=""stim_listA/oppose3.gif""style=""height:400px;""></stim_listA>","","html-keyboard-response","72","636793","0.0-13.0-1.5","84235","List2A","black","man","","","","null","","","","","","","","",""
"null","is opposing","","html-keyboard-response","73","638803","0.0-13.0-2.5","84235","List2A","black","man","","","","null","","","","","","","","",""
"16732.300000071526","","","survey-text","74","655539","0.0-13.0-3.5","84235","List2A","black","man","","","","","{""Q0"":""mike is opposing kate""}","<img src=""stim_listA/oppose3.gif""style=""height:400px;""></stim_listA>","is opposing","","","","","",""
"null","<div style=""font-size:60px;"">+</div>","","html-keyboard-response","75","656049","0.0-13.0-0.6","84235","List2A","black","man","","","","null","","","","","","","","",""
"null","<img src=""stim_listA/seduce2.gif""style=""height:400px;""></stim_listA>","","html-keyboard-response","76","658051","0.0-13.0-1.6","84235","List2A","black","man","","","","null","","","","","","","","",""
"null","is being seduced by","","html-keyboard-response","77","660058","0.0-13.0-2.6","84235","List2A","black","man","","","","null","","","","","","","","",""
"22359.600000023842","","","survey-text","78","682421","0.0-13.0-3.6","84235","List2A","black","man","","","","","{""Q0"":""ruth is being seduced by dave""}","<img src=""stim_listA/seduce2.gif""style=""height:400px;""></stim_listA>","is being seduced by","","","","","",""
"null","<div style=""font-size:60px;"">+</div>","","html-keyboard-response","79","682931","0.0-13.0-0.7","84235","List2A","black","man","","","","null","","","","","","","","",""
"null","<img src=""stim_listA/look8.gif""style=""height:400px;""></stim_listA>","","html-keyboard-response","80","684947","0.0-13.0-1.7","84235","List2A","black","man","","","","null","","","","","","","","",""
"null","is being looked at by","","html-keyboard-response","81","686962","0.0-13.0-2.7","84235","List2A","black","man","","","","null","","","","","","","","",""
"16329.099999904633","","","survey-text","82","703295","0.0-13.0-3.7","84235","List2A","black","man","","","","","{""Q0"":""jane is being looked at by kate""}","<img src=""stim_listA/look8.gif""style=""height:400px;""></stim_listA>","is being looked at by","","","","","",""
"null","<div style=""font-size:60px;"">+</div>","","html-keyboard-response","83","703809","0.0-13.0-0.8","84235","List2A","black","man","","","","null","","","","","","","","",""
"null","<img src=""stim_listA/copy8.gif""style=""height:400px;""></stim_listA>","","html-keyboard-response","84","705827","0.0-13.0-1.8","84235","List2A","black","man","","","","null","","","","","","","","",""
"null","is being copied by","","html-keyboard-response","85","707843","0.0-13.0-2.8","84235","List2A","black","man","","","","null","","","","","","","","",""
"17034.800000071526","","","survey-text","86","724880","0.0-13.0-3.8","84235","List2A","black","man","","","","","{""Q0"":""kate is being copied by ruth""}","<img src=""stim_listA/copy8.gif""style=""height:400px;""></stim_listA>","is being copied by","","","","","",""
"null","<div style=""font-size:60px;"">+</div>","","html-keyboard-response","87","725396","0.0-13.0-0.9","84235","List2A","black","man","","","","null","","","","","","","","",""
"null","<img src=""stim_listA/challenge3.gif""style=""height:400px;""></stim_listA>","","html-keyboard-response","88","727412","0.0-13.0-1.9","84235","List2A","black","man","","","","null","","","","","","","","",""
"null","is challenging","","html-keyboard-response","89","729423","0.0-13.0-2.9","84235","List2A","black","man","","","","null","","","","","","","","",""
"17801.200000047684","","","survey-text","90","747227","0.0-13.0-3.9","84235","List2A","black","man","","","","","{""Q0"":""beth is challenging fred""}","<img src=""stim_listA/challenge3.gif""style=""height:400px;""></stim_listA>","is challenging","","","","","",""
"null","<div style=""font-size:60px;"">+</div>","","html-keyboard-response","91","747739","0.0-13.0-0.10","84235","List2A","black","man","","","","null","","","","","","","","",""
"null","<img src=""stim_listA/shout2.gif""style=""height:400px;""></stim_listA>","","html-keyboard-response","92","749742","0.0-13.0-1.10","84235","List2A","black","man","","","","null","","","","","","","","",""
"null","is being shouted at by","","html-keyboard-response","93","751759","0.0-13.0-2.10","84235","List2A","black","man","","","","null","","","","","","","","",""
"31084.399999976158","","","survey-text","94","782848","0.0-13.0-3.10","84235","List2A","black","man","","","","","{""Q0"":""dave is being shouted at by beth""}","<img src=""stim_listA/shout2.gif""style=""height:400px;""></stim_listA>","is being shouted at by","","","","","",""
"null","<div style=""font-size:60px;"">+</div>","","html-keyboard-response","95","783353","0.0-13.0-0.11","84235","List2A","black","man","","","","null","","","","","","","","",""
"null","<img src=""stim_listA/shout3.gif""style=""height:400px;""></stim_listA>","","html-keyboard-response","96","785365","0.0-13.0-1.11","84235","List2A","black","man","","","","null","","","","","","","","",""
"null","is shouting at","","html-keyboard-response","97","787375","0.0-13.0-2.11","84235","List2A","black","man","","","","null","","","","","","","","",""
"16497.799999952316","","","survey-text","98","803876","0.0-13.0-3.11","84235","List2A","black","man","","","","","{""Q0"":""beth is shouting at fred""}","<img src=""stim_listA/shout3.gif""style=""height:400px;""></stim_listA>","is shouting at","","","","","",""
"null","<div style=""font-size:60px;"">+</div>","","html-keyboard-response","99","804386","0.0-13.0-0.12","84235","List2A","black","man","","","","null","","","","","","","","",""
"null","<img src=""stim_listA/greet4.gif""style=""height:400px;""></stim_listA>","","html-keyboard-response","100","806398","0.0-13.0-1.12","84235","List2A","black","man","","","","null","","","","","","","","",""
"null","is being greeted by","","html-keyboard-response","101","808406","0.0-13.0-2.12","84235","List2A","black","man","","","","null","","","","","","","","",""
"13486","","","survey-text","102","821896","0.0-13.0-3.12","84235","List2A","black","man","","","","","{""Q0"":""fred is being greeted by kate""}","<img src=""stim_listA/greet4.gif""style=""height:400px;""></stim_listA>","is being greeted by","","","","","",""
"null","<div style=""font-size:60px;"">+</div>","","html-keyboard-response","103","822397","0.0-13.0-0.13","84235","List2A","black","man","","","","null","","","","","","","","",""
"null","<img src=""stim_listA/look7.gif""style=""height:400px;""></stim_listA>","","html-keyboard-response","104","824409","0.0-13.0-1.13","84235","List2A","black","man","","","","null","","","","","","","","",""
"null","is looking at","","html-keyboard-response","105","826425","0.0-13.0-2.13","84235","List2A","black","man","","","","null","","","","","","","","",""
"16328.399999976158","","","survey-text","106","842755","0.0-13.0-3.13","84235","List2A","black","man","","","","","{""Q0"":""beth is looked at by ruth""}","<img src=""stim_listA/look7.gif""style=""height:400px;""></stim_listA>","is looking at","","","","","",""
"null","<div style=""font-size:60px;"">+</div>","","html-keyboard-response","107","843264","0.0-13.0-0.14","84235","List2A","black","man","","","","null","","","","","","","","",""
"null","<img src=""stim_listA/challenge6.gif""style=""height:400px;""></stim_listA>","","html-keyboard-response","108","845270","0.0-13.0-1.14","84235","List2A","black","man","","","","null","","","","","","","","",""
"null","is being challenged by","","html-keyboard-response","109","847273","0.0-13.0-2.14","84235","List2A","black","man","","","","null","","","","","","","","",""
"82650.70000004768","","","survey-text","110","929927","0.0-13.0-3.14","84235","List2A","black","man","","","","","{""Q0"":""mike is challenged by ruth""}","<img src=""stim_listA/challenge6.gif""style=""height:400px;""></stim_listA>","is being challenged by","","","","","",""
"null","<div style=""font-size:60px;"">+</div>","","html-keyboard-response","111","930437","0.0-13.0-0.15","84235","List2A","black","man","","","","null","","","","","","","","",""
"null","<img src=""stim_listA/seduce5.gif""style=""height:400px;""></stim_listA>","","html-keyboard-response","112","932443","0.0-13.0-1.15","84235","List2A","black","man","","","","null","","","","","","","","",""
"null","is seducing","","html-keyboard-response","113","934458","0.0-13.0-2.15","84235","List2A","black","man","","","","null","","","","","","","","",""
"29600.299999952316","","","survey-text","114","964061","0.0-13.0-3.15","84235","List2A","black","man","","","","","{""Q0"":""luke is staring at dave""}","<img src=""stim_listA/seduce5.gif""style=""height:400px;""></stim_listA>","is seducing","","","","","",""
"null","<div style=""font-size:60px;"">+</div>","","html-keyboard-response","115","964571","0.0-13.0-0.16","84235","List2A","black","man","","","","null","","","","","","","","",""
"null","<img src=""stim_listA/copy5.gif""style=""height:400px;""></stim_listA>","","html-keyboard-response","116","966587","0.0-13.0-1.16","84235","List2A","black","man","","","","null","","","","","","","","",""
"null","is copying","","html-keyboard-response","117","968596","0.0-13.0-2.16","84235","List2A","black","man","","","","null","","","","","","","","",""
"13361.700000047684","","","survey-text","118","981961","0.0-13.0-3.16","84235","List2A","black","man","","","","","{""Q0"":""dave is copying fred""}","<img src=""stim_listA/copy5.gif""style=""height:400px;""></stim_listA>","is copying","","","","","",""
"null","<div style=""font-size:60px;"">+</div>","","html-keyboard-response","119","982472","0.0-13.0-0.17","84235","List2A","black","man","","","","null","","","","","","","","",""
"null","<img src=""stim_listA/touch2.gif""style=""height:400px;""></stim_listA>","","html-keyboard-response","120","984489","0.0-13.0-1.17","84235","List2A","black","man","","","","null","","","","","","","","",""
"null","is being touched by","","html-keyboard-response","121","986505","0.0-13.0-2.17","84235","List2A","black","man","","","","null","","","","","","","","",""
"23404.300000071526","","","survey-text","122","1009913","0.0-13.0-3.17","84235","List2A","black","man","","","","","{""Q0"":""luke is touched by ruth""}","<img src=""stim_listA/touch2.gif""style=""height:400px;""></stim_listA>","is being touched by","","","","","",""
"null","<div style=""font-size:60px;"">+</div>","","html-keyboard-response","123","1010415","0.0-13.0-0.18","84235","List2A","black","man","","","","null","","","","","","","","",""
"null","<img src=""stim_listA/touch7.gif""style=""height:400px;""></stim_listA>","","html-keyboard-response","124","1012429","0.0-13.0-1.18","84235","List2A","black","man","","","","null","","","","","","","","",""
"null","is touching","","html-keyboard-response","125","1014443","0.0-13.0-2.18","84235","List2A","black","man","","","","null","","","","","","","","",""
"13597.399999976158","","","survey-text","126","1028044","0.0-13.0-3.18","84235","List2A","black","man","","","","","{""Q0"":""jane is touching jane""}","<img src=""stim_listA/touch7.gif""style=""height:400px;""></stim_listA>","is touching","","","","","",""
"null","<div style=""font-size:60px;"">+</div>","","html-keyboard-response","127","1028546","0.0-13.0-0.19","84235","List2A","black","man","","","","null","","","","","","","","",""
"null","<img src=""stim_listA/kiss4.gif""style=""height:400px;""></stim_listA>","","html-keyboard-response","128","1030554","0.0-13.0-1.19","84235","List2A","black","man","","","","null","","","","","","","","",""
"null","is being kissed by","","html-keyboard-response","129","1032557","0.0-13.0-2.19","84235","List2A","black","man","","","","null","","","","","","","","",""
"13572.699999928474","","","survey-text","130","1046131","0.0-13.0-3.19","84235","List2A","black","man","","","","","{""Q0"":""mike is being kissed by kate""}","<img src=""stim_listA/kiss4.gif""style=""height:400px;""></stim_listA>","is being kissed by","","","","","",""
"4347","<img src='img/portrait_matrix_list2.jpg' style='width:900px;height:500px;''></img><p>If you have memorised all the portraits and names and are ready to start, press Continue.</p><p><strong>Please note: Your memory of these faces will be tested 4 times during this experiment.</strong></p>","0","html-button-response","131","1050480","0.0-14.0-0.0","84235","List2A","black","man","","","","","","","","","","","","",""
"5118.399999976158","<img src=""portrait/BW2.jpg""style=""height:400px;""></img>","2","html-button-response","132","1056601","0.0-14.0-1.0","84235","List2A","black","man","","true","2","","","","","","","","","",""
"null","CORRECT","","html-keyboard-response","133","1058124","0.0-14.0-2.0-0.0","84235","List2A","black","man","","","","null","","","","","","","","",""
"5846.5","<img src=""portrait/WM2.jpg""style=""height:400px;""></img>","7","html-button-response","134","1063973","0.0-14.0-4.0","84235","List2A","black","man","","true","7","","","","","","","","","",""
"null","CORRECT","","html-keyboard-response","135","1065493","0.0-14.0-5.0-0.0","84235","List2A","black","man","","","","null","","","","","","","","",""
"2947.899999976158","<img src=""portrait/BM1.jpg""style=""height:400px;""></img>","4","html-button-response","136","1068443","0.0-14.0-7.0","84235","List2A","black","man","","true","4","","","","","","","","","",""
"null","CORRECT","","html-keyboard-response","137","1069955","0.0-14.0-8.0-0.0","84235","List2A","black","man","","","","null","","","","","","","","",""
"3736.1999999284744","<img src=""portrait/WM1.jpg""style=""height:400px;""></img>","6","html-button-response","138","1073694","0.0-14.0-10.0","84235","List2A","black","man","","true","6","","","","","","","","","",""
"null","CORRECT","","html-keyboard-response","139","1075211","0.0-14.0-11.0-0.0","84235","List2A","black","man","","","","null","","","","","","","","",""
"3865.7000000476837","<img src=""portrait/BW1.jpg""style=""height:400px;""></img>","0","html-button-response","140","1079080","0.0-14.0-13.0","84235","List2A","black","man","","true","0","","","","","","","","","",""
"null","CORRECT","","html-keyboard-response","141","1080593","0.0-14.0-14.0-0.0","84235","List2A","black","man","","","","null","","","","","","","","",""
"2795","<img src=""portrait/WW2.jpg""style=""height:400px;""></img>","3","html-button-response","142","1083391","0.0-14.0-16.0","84235","List2A","black","man","","true","3","","","","","","","","","",""
"null","CORRECT","","html-keyboard-response","143","1084917","0.0-14.0-17.0-0.0","84235","List2A","black","man","","","","null","","","","","","","","",""
"3897.7999999523163","<img src=""portrait/WW1.jpg""style=""height:400px;""></img>","1","html-button-response","144","1088817","0.0-14.0-19.0","84235","List2A","black","man","","true","1","","","","","","","","","",""
"null","CORRECT","","html-keyboard-response","145","1090331","0.0-14.0-20.0-0.0","84235","List2A","black","man","","","","null","","","","","","","","",""
"3628.399999976158","<img src=""portrait/BM2.jpg""style=""height:400px;""></img>","5","html-button-response","146","1093961","0.0-14.0-22.0","84235","List2A","black","man","","true","5","","","","","","","","","",""
"null","CORRECT","","html-keyboard-response","147","1095495","0.0-14.0-23.0-0.0","84235","List2A","black","man","","","","null","","","","","","","","",""
"2211.8000000715256","<p>You got 8 out of 8 right first time. Press Continue.</p>","0","html-button-response","148","1097709","0.0-14.0-25.0","84235","List2A","black","man","","","","","","","","","","","","",""
"null","<div style=""font-size:60px;"">+</div>","","html-keyboard-response","149","1099221","0.0-15.0-0.0","84235","List2A","black","man","","","","null","","","","","","","","",""
"null","<img src=""stim_listA/copy1.gif""style=""height:400px;""></stim_listA>","","html-keyboard-response","150","1101232","0.0-15.0-1.0","84235","List2A","black","man","","","","null","","","","","","","","",""
"null","is copying","","html-keyboard-response","151","1103233","0.0-15.0-2.0","84235","List2A","black","man","","","","null","","","","","","","","",""
"15478.200000047684","","","survey-text","152","1118715","0.0-15.0-3.0","84235","List2A","black","man","","","","","{""Q0"":""luke is copying ruth""}","<img src=""stim_listA/copy1.gif""style=""height:400px;""></stim_listA>","is copying","","","","","",""
"null","<div style=""font-size:60px;"">+</div>","","html-keyboard-response","153","1119221","0.0-15.0-0.1","84235","List2A","black","man","","","","null","","","","","","","","",""
"null","<img src=""stim_listA/greet2.gif""style=""height:400px;""></stim_listA>","","html-keyboard-response","154","1121238","0.0-15.0-1.1","84235","List2A","black","man","","","","null","","","","","","","","",""
"null","is being greeted by","","html-keyboard-response","155","1123244","0.0-15.0-2.1","84235","List2A","black","man","","","","null","","","","","","","","",""
"19666.800000071526","","","survey-text","156","1142913","0.0-15.0-3.1","84235","List2A","black","man","","","","","{""Q0"":""luke is being greeted by ruth""}","<img src=""stim_listA/greet2.gif""style=""height:400px;""></stim_listA>","is being greeted by","","","","","",""
"null","<div style=""font-size:60px;"">+</div>","","html-keyboard-response","157","1143430","0.0-15.0-0.2","84235","List2A","black","man","","","","null","","","","","","","","",""
"null","<img src=""stim_listA/kiss2.gif""style=""height:400px;""></stim_listA>","","html-keyboard-response","158","1145438","0.0-15.0-1.2","84235","List2A","black","man","","","","null","","","","","","","","",""
"null","is being kissed by","","html-keyboard-response","159","1147450","0.0-15.0-2.2","84235","List2A","black","man","","","","null","","","","","","","","",""
"10236","","","survey-text","160","1157688","0.0-15.0-3.2","84235","List2A","black","man","","","","","{""Q0"":""jane is kissing dave""}","<img src=""stim_listA/kiss2.gif""style=""height:400px;""></stim_listA>","is being kissed by","","","","","",""
"null","<div style=""font-size:60px;"">+</div>","","html-keyboard-response","161","1158192","0.0-15.0-0.3","84235","List2A","black","man","","","","null","","","","","","","","",""
"null","<img src=""stim_listA/hug3.gif""style=""height:400px;""></stim_listA>","","html-keyboard-response","162","1160195","0.0-15.0-1.3","84235","List2A","black","man","","","","null","","","","","","","","",""
"null","is hugging","","html-keyboard-response","163","1162769","0.0-15.0-2.3","84235","List2A","black","man","","","","null","","","","","","","","",""
"25417.200000047684","","","survey-text","164","1188190","0.0-15.0-3.3","84235","List2A","black","man","","","","","{""Q0"":""beth is hugging fred""}","<img src=""stim_listA/hug3.gif""style=""height:400px;""></stim_listA>","is hugging","","","","","",""
"null","<div style=""font-size:60px;"">+</div>","","html-keyboard-response","165","1188706","0.0-15.0-0.4","84235","List2A","black","man","","","","null","","","","","","","","",""
"null","<img src=""stim_listA/kiss5.gif""style=""height:400px;""></stim_listA>","","html-keyboard-response","166","1190709","0.0-15.0-1.4","84235","List2A","black","man","","","","null","","","","","","","","",""
"null","is kissing","","html-keyboard-response","167","1192715","0.0-15.0-2.4","84235","List2A","black","man","","","","null","","","","","","","","",""
"19284.800000071526","","","survey-text","168","1212004","0.0-15.0-3.4","84235","List2A","black","man","","","","","{""Q0"":""luke is kissing fred""}","<img src=""stim_listA/kiss5.gif""style=""height:400px;""></stim_listA>","is kissing","","","","","",""
"null","<div style=""font-size:60px;"">+</div>","","html-keyboard-response","169","1212510","0.0-15.0-0.5","84235","List2A","black","man","","","","null","","","","","","","","",""
"null","<img src=""stim_listA/shout8.gif""style=""height:400px;""></stim_listA>","","html-keyboard-response","170","1214516","0.0-15.0-1.5","84235","List2A","black","man","","","","null","","","","","","","","",""
"null","is being shouted at by","","html-keyboard-response","171","1216519","0.0-15.0-2.5","84235","List2A","black","man","","","","null","","","","","","","","",""
"14119.199999928474","","","survey-text","172","1230641","0.0-15.0-3.5","84235","List2A","black","man","","","","","{""Q0"":""kate is shouting at jane""}","<img src=""stim_listA/shout8.gif""style=""height:400px;""></stim_listA>","is being shouted at by","","","","","",""
"null","<div style=""font-size:60px;"">+</div>","","html-keyboard-response","173","1231149","0.0-15.0-0.6","84235","List2A","black","man","","","","null","","","","","","","","",""
"null","<img src=""stim_listA/challenge4.gif""style=""height:400px;""></stim_listA>","","html-keyboard-response","174","1233168","0.0-15.0-1.6","84235","List2A","black","man","","","","null","","","","","","","","",""
"null","is being challenged by","","html-keyboard-response","175","1235184","0.0-15.0-2.6","84235","List2A","black","man","","","","null","","","","","","","","",""
"21461.100000023842","","","survey-text","176","1256648","0.0-15.0-3.6","84235","List2A","black","man","","","","","{""Q0"":""fred is being challenged by fred ""}","<img src=""stim_listA/challenge4.gif""style=""height:400px;""></stim_listA>","is being challenged by","","","","","",""
"null","<div style=""font-size:60px;"">+</div>","","html-keyboard-response","177","1257150","0.0-15.0-0.7","84235","List2A","black","man","","","","null","","","","","","","","",""
"null","<img src=""stim_listA/look5.gif""style=""height:400px;""></stim_listA>","","html-keyboard-response","178","1259162","0.0-15.0-1.7","84235","List2A","black","man","","","","null","","","","","","","","",""
"null","is looking at","","html-keyboard-response","179","1261178","0.0-15.0-2.7","84235","List2A","black","man","","","","null","","","","","","","","",""
"11274.399999976158","","","survey-text","180","1272456","0.0-15.0-3.7","84235","List2A","black","man","","","","","{""Q0"":""luke is looking at fred""}","<img src=""stim_listA/look5.gif""style=""height:400px;""></stim_listA>","is looking at","","","","","",""
"null","<div style=""font-size:60px;"">+</div>","","html-keyboard-response","181","1272958","0.0-15.0-0.8","84235","List2A","black","man","","","","null","","","","","","","","",""
"null","<img src=""stim_listA/seduce3.gif""style=""height:400px;""></stim_listA>","","html-keyboard-response","182","1274972","0.0-15.0-1.8","84235","List2A","black","man","","","","null","","","","","","","","",""
"null","is seducing","","html-keyboard-response","183","1276987","0.0-15.0-2.8","84235","List2A","black","man","","","","null","","","","","","","","",""
"11547.700000047684","","","survey-text","184","1288538","0.0-15.0-3.8","84235","List2A","black","man","","","","","{""Q0"":""kate is seducing fred""}","<img src=""stim_listA/seduce3.gif""style=""height:400px;""></stim_listA>","is seducing","","","","","",""
"null","<div style=""font-size:60px;"">+</div>","","html-keyboard-response","185","1289042","0.0-15.0-0.9","84235","List2A","black","man","","","","null","","","","","","","","",""
"null","<img src=""stim_listA/look4.gif""style=""height:400px;""></stim_listA>","","html-keyboard-response","186","1291048","0.0-15.0-1.9","84235","List2A","black","man","","","","null","","","","","","","","",""
"null","is being looked at by","","html-keyboard-response","187","1293059","0.0-15.0-2.9","84235","List2A","black","man","","","","null","","","","","","","","",""
"17981.600000023842","","","survey-text","188","1311044","0.0-15.0-3.9","84235","List2A","black","man","","","","","{""Q0"":""mike is being looked at by beth""}","<img src=""stim_listA/look4.gif""style=""height:400px;""></stim_listA>","is being looked at by","","","","","",""
"null","<div style=""font-size:60px;"">+</div>","","html-keyboard-response","189","1311547","0.0-15.0-0.10","84235","List2A","black","man","","","","null","","","","","","","","",""
"null","<img src=""stim_listA/oppose7.gif""style=""height:400px;""></stim_listA>","","html-keyboard-response","190","1313550","0.0-15.0-1.10","84235","List2A","black","man","","","","null","","","","","","","","",""
"null","is opposing","","html-keyboard-response","191","1315563","0.0-15.0-2.10","84235","List2A","black","man","","","","null","","","","","","","","",""
"11106.600000023842","","","survey-text","192","1326673","0.0-15.0-3.10","84235","List2A","black","man","","","","","{""Q0"":""jane is opposing beth""}","<img src=""stim_listA/oppose7.gif""style=""height:400px;""></stim_listA>","is opposing","","","","","",""
"null","<div style=""font-size:60px;"">+</div>","","html-keyboard-response","193","1327180","0.0-15.0-0.11","84235","List2A","black","man","","","","null","","","","","","","","",""
"null","<img src=""stim_listA/touch1.gif""style=""height:400px;""></stim_listA>","","html-keyboard-response","194","1329193","0.0-15.0-1.11","84235","List2A","black","man","","","","null","","","","","","","","",""
"null","is touching","","html-keyboard-response","195","1331197","0.0-15.0-2.11","84235","List2A","black","man","","","","null","","","","","","","","",""
"17795.400000095367","","","survey-text","196","1348995","0.0-15.0-3.11","84235","List2A","black","man","","","","","{""Q0"":""jane is touching dave""}","<img src=""stim_listA/touch1.gif""style=""height:400px;""></stim_listA>","is touching","","","","","",""
"null","<div style=""font-size:60px;"">+</div>","","html-keyboard-response","197","1349501","0.0-15.0-0.12","84235","List2A","black","man","","","","null","","","","","","","","",""
"null","<img src=""stim_listA/seduce1.gif""style=""height:400px;""></stim_listA>","","html-keyboard-response","198","1351514","0.0-15.0-1.12","84235","List2A","black","man","","","","null","","","","","","","","",""
"null","is seducing","","html-keyboard-response","199","1353518","0.0-15.0-2.12","84235","List2A","black","man","","","","null","","","","","","","","",""
"27772.600000023842","","","survey-text","200","1381294","0.0-15.0-3.12","84235","List2A","black","man","","","","","{""Q0"":""luke is seducing ruth""}","<img src=""stim_listA/seduce1.gif""style=""height:400px;""></stim_listA>","is seducing","","","","","",""
"null","<div style=""font-size:60px;"">+</div>","","html-keyboard-response","201","1381796","0.0-15.0-0.13","84235","List2A","black","man","","","","null","","","","","","","","",""
"null","<img src=""stim_listA/greet8.gif""style=""height:400px;""></stim_listA>","","html-keyboard-response","202","1383810","0.0-15.0-1.13","84235","List2A","black","man","","","","null","","","","","","","","",""
"null","is being greeted by","","html-keyboard-response","203","1385825","0.0-15.0-2.13","84235","List2A","black","man","","","","null","","","","","","","","",""
"19020.299999952316","","","survey-text","204","1404851","0.0-15.0-3.13","84235","List2A","black","man","","","","","{""Q0"":""jane is greeted by ruth""}","<img src=""stim_listA/greet8.gif""style=""height:400px;""></stim_listA>","is being greeted by","","","","","",""
"null","<div style=""font-size:60px;"">+</div>","","html-keyboard-response","205","1405362","0.0-15.0-0.14","84235","List2A","black","man","","","","null","","","","","","","","",""
"null","<img src=""stim_listA/challenge5.gif""style=""height:400px;""></stim_listA>","","html-keyboard-response","206","1407380","0.0-15.0-1.14","84235","List2A","black","man","","","","null","","","","","","","","",""
"null","is challenging","","html-keyboard-response","207","1409391","0.0-15.0-2.14","84235","List2A","black","man","","","","null","","","","","","","","",""
"40347.89999997616","","","survey-text","208","1449743","0.0-15.0-3.14","84235","List2A","black","man","","","","","{""Q0"":""kate is being by jane""}","<img src=""stim_listA/challenge5.gif""style=""height:400px;""></stim_listA>","is challenging","","","","","",""
"null","<div style=""font-size:60px;"">+</div>","","html-keyboard-response","209","1450260","0.0-15.0-0.15","84235","List2A","black","man","","","","null","","","","","","","","",""
"null","<img src=""stim_listA/touch8.gif""style=""height:400px;""></stim_listA>","","html-keyboard-response","210","1452272","0.0-15.0-1.15","84235","List2A","black","man","","","","null","","","","","","","","",""
"null","is being touched by","","html-keyboard-response","211","1454278","0.0-15.0-2.15","84235","List2A","black","man","","","","null","","","","","","","","",""
"25231.5","","","survey-text","212","1479513","0.0-15.0-3.15","84235","List2A","black","man","","","","","{""Q0"":""ruth is being touched by beth""}","<img src=""stim_listA/touch8.gif""style=""height:400px;""></stim_listA>","is being touched by","","","","","",""
"null","<div style=""font-size:60px;"">+</div>","","html-keyboard-response","213","1480015","0.0-15.0-0.16","84235","List2A","black","man","","","","null","","","","","","","","",""
"null","<img src=""stim_listA/look2.gif""style=""height:400px;""></stim_listA>","","html-keyboard-response","214","1482033","0.0-15.0-1.16","84235","List2A","black","man","","","","null","","","","","","","","",""
"null","is being looked at by","","html-keyboard-response","215","1484037","0.0-15.0-2.16","84235","List2A","black","man","","","","null","","","","","","","","",""
"50952.800000071526","","","survey-text","216","1534993","0.0-15.0-3.16","84235","List2A","black","man","","","","","{""Q0"":""dave is being looked at by jane""}","<img src=""stim_listA/look2.gif""style=""height:400px;""></stim_listA>","is being looked at by","","","","","",""
"null","<div style=""font-size:60px;"">+</div>","","html-keyboard-response","217","1535512","0.0-15.0-0.17","84235","List2A","black","man","","","","null","","","","","","","","",""
"null","<img src=""stim_listA/copy7.gif""style=""height:400px;""></stim_listA>","","html-keyboard-response","218","1537527","0.0-15.0-1.17","84235","List2A","black","man","","","","null","","","","","","","","",""
"null","is copying","","html-keyboard-response","219","1539543","0.0-15.0-2.17","84235","List2A","black","man","","","","null","","","","","","","","",""
"50822.699999928474","","","survey-text","220","1590370","0.0-15.0-3.17","84235","List2A","black","man","","","","","{""Q0"":""jane is copying fred""}","<img src=""stim_listA/copy7.gif""style=""height:400px;""></stim_listA>","is copying","","","","","",""
"null","<div style=""font-size:60px;"">+</div>","","html-keyboard-response","221","1590880","0.0-15.0-0.18","84235","List2A","black","man","","","","null","","","","","","","","",""
"null","<img src=""stim_listA/challenge2.gif""style=""height:400px;""></stim_listA>","","html-keyboard-response","222","1592891","0.0-15.0-1.18","84235","List2A","black","man","","","","null","","","","","","","","",""
"null","is being challenged by","","html-keyboard-response","223","1594907","0.0-15.0-2.18","84235","List2A","black","man","","","","null","","","","","","","","",""
"19265.600000023842","","","survey-text","224","1614176","0.0-15.0-3.18","84235","List2A","black","man","","","","","{""Q0"":""jane is being copied by mike""}","<img src=""stim_listA/challenge2.gif""style=""height:400px;""></stim_listA>","is being challenged by","","","","","",""
"null","<div style=""font-size:60px;"">+</div>","","html-keyboard-response","225","1614688","0.0-15.0-0.19","84235","List2A","black","man","","","","null","","","","","","","","",""
"null","<img src=""stim_listA/look1.gif""style=""height:400px;""></stim_listA>","","html-keyboard-response","226","1616701","0.0-15.0-1.19","84235","List2A","black","man","","","","null","","","","","","","","",""
"null","is looking at","","html-keyboard-response","227","1618711","0.0-15.0-2.19","84235","List2A","black","man","","","","null","","","","","","","","",""
"19051.899999976158","","","survey-text","228","1637766","0.0-15.0-3.19","84235","List2A","black","man","","","","","{""Q0"":""ruth is looking at ruth""}","<img src=""stim_listA/look1.gif""style=""height:400px;""></stim_listA>","is looking at","","","","","",""
"7527.600000023842","<img src='img/portrait_matrix_list2.jpg' style='width:900px;height:500px;''></img><p>If you have memorised all the portraits and names and are ready to start, press Continue.</p><p><strong>Please note: Your memory of these faces will be tested 4 times during this experiment.</strong></p>","0","html-button-response","229","1645296","0.0-16.0-0.0","84235","List2A","black","man","","","","","","","","","","","","",""
"6573.399999976158","<img src=""portrait/BM1.jpg""style=""height:400px;""></img>","4","html-button-response","230","1652886","0.0-16.0-1.0","84235","List2A","black","man","","true","4","","","","","","","","","",""
"null","CORRECT","","html-keyboard-response","231","1654398","0.0-16.0-2.0-0.0","84235","List2A","black","man","","","","null","","","","","","","","",""
"5784.699999928474","<img src=""portrait/BW1.jpg""style=""height:400px;""></img>","0","html-button-response","232","1660184","0.0-16.0-4.0","84235","List2A","black","man","","true","0","","","","","","","","","",""
"null","CORRECT","","html-keyboard-response","233","1661703","0.0-16.0-5.0-0.0","84235","List2A","black","man","","","","null","","","","","","","","",""
"3628.5","<img src=""portrait/WM1.jpg""style=""height:400px;""></img>","6","html-button-response","234","1665334","0.0-16.0-7.0","84235","List2A","black","man","","true","6","","","","","","","","","",""
"null","CORRECT","","html-keyboard-response","235","1666848","0.0-16.0-8.0-0.0","84235","List2A","black","man","","","","null","","","","","","","","",""
"4509.799999952316","<img src=""portrait/BM2.jpg""style=""height:400px;""></img>","5","html-button-response","236","1671360","0.0-16.0-10.0","84235","List2A","black","man","","true","5","","","","","","","","","",""
"null","CORRECT","","html-keyboard-response","237","1672883","0.0-16.0-11.0-0.0","84235","List2A","black","man","","","","null","","","","","","","","",""
"18256.199999928474","<img src=""portrait/WM2.jpg""style=""height:400px;""></img>","7","html-button-response","238","1691142","0.0-16.0-13.0","84235","List2A","black","man","","true","7","","","","","","","","","",""
"null","CORRECT","","html-keyboard-response","239","1692658","0.0-16.0-14.0-0.0","84235","List2A","black","man","","","","null","","","","","","","","",""
"3190","<img src=""portrait/WW2.jpg""style=""height:400px;""></img>","3","html-button-response","240","1695850","0.0-16.0-16.0","84235","List2A","black","man","","true","3","","","","","","","","","",""
"null","CORRECT","","html-keyboard-response","241","1697365","0.0-16.0-17.0-0.0","84235","List2A","black","man","","","","null","","","","","","","","",""
"3690.2000000476837","<img src=""portrait/BW2.jpg""style=""height:400px;""></img>","2","html-button-response","242","1701057","0.0-16.0-19.0","84235","List2A","black","man","","true","2","","","","","","","","","",""
"null","CORRECT","","html-keyboard-response","243","1702564","0.0-16.0-20.0-0.0","84235","List2A","black","man","","","","null","","","","","","","","",""
"5017.799999952316","<img src=""portrait/WW1.jpg""style=""height:400px;""></img>","1","html-button-response","244","1707585","0.0-16.0-22.0","84235","List2A","black","man","","true","1","","","","","","","","","",""
"null","CORRECT","","html-keyboard-response","245","1709109","0.0-16.0-23.0-0.0","84235","List2A","black","man","","","","null","","","","","","","","",""
"3668.100000023842","<p>You got 8 out of 8 right first time. Press Continue.</p>","0","html-button-response","246","1712780","0.0-16.0-25.0","84235","List2A","black","man","","","","","","","","","","","","",""
"null","<div style=""font-size:60px;"">+</div>","","html-keyboard-response","247","1714293","0.0-17.0-0.0","84235","List2A","black","man","","","","null","","","","","","","","",""
"null","<img src=""stim_listA/challenge7.gif""style=""height:400px;""></stim_listA>","","html-keyboard-response","248","1716304","0.0-17.0-1.0","84235","List2A","black","man","","","","null","","","","","","","","",""
"null","is challenging","","html-keyboard-response","249","1718317","0.0-17.0-2.0","84235","List2A","black","man","","","","null","","","","","","","","",""
"25976.100000023842","","","survey-text","250","1744297","0.0-17.0-3.0","84235","List2A","black","man","","","","","{""Q0"":""beth is challenging kate""}","<img src=""stim_listA/challenge7.gif""style=""height:400px;""></stim_listA>","is challenging","","","","","",""
"null","<div style=""font-size:60px;"">+</div>","","html-keyboard-response","251","1744804","0.0-17.0-0.1","84235","List2A","black","man","","","","null","","","","","","","","",""
"null","<img src=""stim_listA/touch5.gif""style=""height:400px;""></stim_listA>","","html-keyboard-response","252","1746819","0.0-17.0-1.1","84235","List2A","black","man","","","","null","","","","","","","","",""
"null","is touching","","html-keyboard-response","253","1748825","0.0-17.0-2.1","84235","List2A","black","man","","","","null","","","","","","","","",""
"27229.299999952316","","","survey-text","254","1776056","0.0-17.0-3.1","84235","List2A","black","man","","","","","{""Q0"":""mike is touching dave""}","<img src=""stim_listA/touch5.gif""style=""height:400px;""></stim_listA>","is touching","","","","","",""
"null","<div style=""font-size:60px;"">+</div>","","html-keyboard-response","255","1776558","0.0-17.0-0.2","84235","List2A","black","man","","","","null","","","","","","","","",""
"null","<img src=""stim_listA/touch3.gif""style=""height:400px;""></stim_listA>","","html-keyboard-response","256","1778562","0.0-17.0-1.2","84235","List2A","black","man","","","","null","","","","","","","","",""
"null","is touching","","html-keyboard-response","257","1780571","0.0-17.0-2.2","84235","List2A","black","man","","","","null","","","","","","","","",""
"60744.700000047684","","","survey-text","258","1841318","0.0-17.0-3.2","84235","List2A","black","man","","","","","{""Q0"":""mike is touching luke""}","<img src=""stim_listA/touch3.gif""style=""height:400px;""></stim_listA>","is touching","","","","","",""
"null","<div style=""font-size:60px;"">+</div>","","html-keyboard-response","259","1841825","0.0-17.0-0.3","84235","List2A","black","man","","","","null","","","","","","","","",""
"null","<img src=""stim_listA/oppose1.gif""style=""height:400px;""></stim_listA>","","html-keyboard-response","260","1843840","0.0-17.0-1.3","84235","List2A","black","man","","","","null","","","","","","","","",""
"null","is opposing","","html-keyboard-response","261","1845853","0.0-17.0-2.3","84235","List2A","black","man","","","","null","","","","","","","","",""
"30244.399999976158","","","survey-text","262","1876101","0.0-17.0-3.3","84235","List2A","black","man","","","","","{""Q0"":""jane is opposing dave""}","<img src=""stim_listA/oppose1.gif""style=""height:400px;""></stim_listA>","is opposing","","","","","",""
"null","<div style=""font-size:60px;"">+</div>","","html-keyboard-response","263","1876607","0.0-17.0-0.4","84235","List2A","black","man","","","","null","","","","","","","","",""
"null","<img src=""stim_listA/kiss7.gif""style=""height:400px;""></stim_listA>","","html-keyboard-response","264","1878622","0.0-17.0-1.4","84235","List2A","black","man","","","","null","","","","","","","","",""
"null","is kissing","","html-keyboard-response","265","1880627","0.0-17.0-2.4","84235","List2A","black","man","","","","null","","","","","","","","",""
"18427.899999976158","","","survey-text","266","1899058","0.0-17.0-3.4","84235","List2A","black","man","","","","","{""Q0"":""beth is kissing ruth""}","<img src=""stim_listA/kiss7.gif""style=""height:400px;""></stim_listA>","is kissing","","","","","",""
"null","<div style=""font-size:60px;"">+</div>","","html-keyboard-response","267","1899569","0.0-17.0-0.5","84235","List2A","black","man","","","","null","","","","","","","","",""
"null","<img src=""stim_listA/greet1.gif""style=""height:400px;""></stim_listA>","","html-keyboard-response","268","1901583","0.0-17.0-1.5","84235","List2A","black","man","","","","null","","","","","","","","",""
"null","is greeting","","html-keyboard-response","269","1903593","0.0-17.0-2.5","84235","List2A","black","man","","","","null","","","","","","","","",""
"14330.5","","","survey-text","270","1917927","0.0-17.0-3.5","84235","List2A","black","man","","","","","{""Q0"":""ruth is greeting dave""}","<img src=""stim_listA/greet1.gif""style=""height:400px;""></stim_listA>","is greeting","","","","","",""
"null","<div style=""font-size:60px;"">+</div>","","html-keyboard-response","271","1918439","0.0-17.0-0.6","84235","List2A","black","man","","","","null","","","","","","","","",""
"null","<img src=""stim_listA/challenge8.gif""style=""height:400px;""></stim_listA>","","html-keyboard-response","272","1920448","0.0-17.0-1.6","84235","List2A","black","man","","","","null","","","","","","","","",""
"null","is being challenged by","","html-keyboard-response","273","1922452","0.0-17.0-2.6","84235","List2A","black","man","","","","null","","","","","","","","",""
"124123.20000004768","","","survey-text","274","2046579","0.0-17.0-3.6","84235","List2A","black","man","","","","","{""Q0"":""ruth is greeting kate""}","<img src=""stim_listA/challenge8.gif""style=""height:400px;""></stim_listA>","is being challenged by","","","","","",""
"null","<div style=""font-size:60px;"">+</div>","","html-keyboard-response","275","2047090","0.0-17.0-0.7","84235","List2A","black","man","","","","null","","","","","","","","",""
"null","<img src=""stim_listA/seduce4.gif""style=""height:400px;""></stim_listA>","","html-keyboard-response","276","2049100","0.0-17.0-1.7","84235","List2A","black","man","","","","null","","","","","","","","",""
"null","is being seduced by","","html-keyboard-response","277","2051112","0.0-17.0-2.7","84235","List2A","black","man","","","","null","","","","","","","","",""
"51647.800000071526","","","survey-text","278","2102766","0.0-17.0-3.7","84235","List2A","black","man","","","","","{""Q0"":""beth is being seduced ruth""}","<img src=""stim_listA/seduce4.gif""style=""height:400px;""></stim_listA>","is being seduced by","","","","","",""
"null","<div style=""font-size:60px;"">+</div>","","html-keyboard-response","279","2103275","0.0-17.0-0.8","84235","List2A","black","man","","","","null","","","","","","","","",""
"null","<img src=""stim_listA/copy6.gif""style=""height:400px;""></stim_listA>","","html-keyboard-response","280","2105280","0.0-17.0-1.8","84235","List2A","black","man","","","","null","","","","","","","","",""
"null","is being copied by","","html-keyboard-response","281","2107296","0.0-17.0-2.8","84235","List2A","black","man","","","","null","","","","","","","","",""
"126856","","","survey-text","282","2234155","0.0-17.0-3.8","84235","List2A","black","man","","","","","{""Q0"":""luke is being copied by mike""}","<img src=""stim_listA/copy6.gif""style=""height:400px;""></stim_listA>","is being copied by","","","","","",""
"null","<div style=""font-size:60px;"">+</div>","","html-keyboard-response","283","2234672","0.0-17.0-0.9","84235","List2A","black","man","","","","null","","","","","","","","",""
"null","<img src=""stim_listA/hug2.gif""style=""height:400px;""></stim_listA>","","html-keyboard-response","284","2236680","0.0-17.0-1.9","84235","List2A","black","man","","","","null","","","","","","","","",""
"null","is being hugged by","","html-keyboard-response","285","2238684","0.0-17.0-2.9","84235","List2A","black","man","","","","null","","","","","","","","",""
"20295.600000023842","","","survey-text","286","2258983","0.0-17.0-3.9","84235","List2A","black","man","","","","","{""Q0"":""jane is hugging dave""}","<img src=""stim_listA/hug2.gif""style=""height:400px;""></stim_listA>","is being hugged by","","","","","",""
"null","<div style=""font-size:60px;"">+</div>","","html-keyboard-response","287","2259487","0.0-17.0-0.10","84235","List2A","black","man","","","","null","","","","","","","","",""
"null","<img src=""stim_listA/copy3.gif""style=""height:400px;""></stim_listA>","","html-keyboard-response","288","2261499","0.0-17.0-1.10","84235","List2A","black","man","","","","null","","","","","","","","",""
"null","is copying","","html-keyboard-response","289","2263505","0.0-17.0-2.10","84235","List2A","black","man","","","","null","","","","","","","","",""
"14963.799999952316","","","survey-text","290","2278472","0.0-17.0-3.10","84235","List2A","black","man","","","","","{""Q0"":""mike is copying beth""}","<img src=""stim_listA/copy3.gif""style=""height:400px;""></stim_listA>","is copying","","","","","",""
"null","<div style=""font-size:60px;"">+</div>","","html-keyboard-response","291","2278974","0.0-17.0-0.11","84235","List2A","black","man","","","","null","","","","","","","","",""
"null","<img src=""stim_listA/hug5.gif""style=""height:400px;""></stim_listA>","","html-keyboard-response","292","2280983","0.0-17.0-1.11","84235","List2A","black","man","","","","null","","","","","","","","",""
"null","is hugging","","html-keyboard-response","293","2282999","0.0-17.0-2.11","84235","List2A","black","man","","","","null","","","","","","","","",""
"19318","","","survey-text","294","2302321","0.0-17.0-3.11","84235","List2A","black","man","","","","","{""Q0"":""fred is hugging luke""}","<img src=""stim_listA/hug5.gif""style=""height:400px;""></stim_listA>","is hugging","","","","","",""
"null","<div style=""font-size:60px;"">+</div>","","html-keyboard-response","295","2302824","0.0-17.0-0.12","84235","List2A","black","man","","","","null","","","","","","","","",""
"null","<img src=""stim_listA/hug8.gif""style=""height:400px;""></stim_listA>","","html-keyboard-response","296","2304839","0.0-17.0-1.12","84235","List2A","black","man","","","","null","","","","","","","","",""
"null","is being hugged by","","html-keyboard-response","297","2306848","0.0-17.0-2.12","84235","List2A","black","man","","","","null","","","","","","","","",""
"22943.100000023842","","","survey-text","298","2329793","0.0-17.0-3.12","84235","List2A","black","man","","","","","{""Q0"":""kate is being hugged by jane""}","<img src=""stim_listA/hug8.gif""style=""height:400px;""></stim_listA>","is being hugged by","","","","","",""
"null","<div style=""font-size:60px;"">+</div>","","html-keyboard-response","299","2330297","0.0-17.0-0.13","84235","List2A","black","man","","","","null","","","","","","","","",""
"null","<img src=""stim_listA/hug1.gif""style=""height:400px;""></stim_listA>","","html-keyboard-response","300","2332313","0.0-17.0-1.13","84235","List2A","black","man","","","","null","","","","","","","","",""
"null","is hugging","","html-keyboard-response","301","2334322","0.0-17.0-2.13","84235","List2A","black","man","","","","null","","","","","","","","",""
"77448.80000007153","","","survey-text","302","2411779","0.0-17.0-3.13","84235","List2A","black","man","","","","","{""Q0"":""ruth is hugging luke""}","<img src=""stim_listA/hug1.gif""style=""height:400px;""></stim_listA>","is hugging","","","","","",""
"null","<div style=""font-size:60px;"">+</div>","","html-keyboard-response","303","2412282","0.0-17.0-0.14","84235","List2A","black","man","","","","null","","","","","","","","",""
"null","<img src=""stim_listA/hug4.gif""style=""height:400px;""></stim_listA>","","html-keyboard-response","304","2414287","0.0-17.0-1.14","84235","List2A","black","man","","","","null","","","","","","","","",""
"null","is being hugged by","","html-keyboard-response","305","2416293","0.0-17.0-2.14","84235","List2A","black","man","","","","null","","","","","","","","",""
"26931","","","survey-text","306","2443227","0.0-17.0-3.14","84235","List2A","black","man","","","","","{""Q0"":""kate is being hugged by mike""}","<img src=""stim_listA/hug4.gif""style=""height:400px;""></stim_listA>","is being hugged by","","","","","",""
"null","<div style=""font-size:60px;"">+</div>","","html-keyboard-response","307","2443738","0.0-17.0-0.15","84235","List2A","black","man","","","","null","","","","","","","","",""
"null","<img src=""stim_listA/kiss8.gif""style=""height:400px;""></stim_listA>","","html-keyboard-response","308","2445751","0.0-17.0-1.15","84235","List2A","black","man","","","","null","","","","","","","","",""
"null","is being kissed by","","html-keyboard-response","309","2447755","0.0-17.0-2.15","84235","List2A","black","man","","","","null","","","","","","","","",""
"43211.89999997616","","","survey-text","310","2490973","0.0-17.0-3.15","84235","List2A","black","man","","","","","{""Q0"":""jane is being kissed by kate""}","<img src=""stim_listA/kiss8.gif""style=""height:400px;""></stim_listA>","is being kissed by","","","","","",""
"null","<div style=""font-size:60px;"">+</div>","","html-keyboard-response","311","2491476","0.0-17.0-0.16","84235","List2A","black","man","","","","null","","","","","","","","",""
"null","<img src=""stim_listA/touch6.gif""style=""height:400px;""></stim_listA>","","html-keyboard-response","312","2493478","0.0-17.0-1.16","84235","List2A","black","man","","","","null","","","","","","","","",""
"null","is being touched by","","html-keyboard-response","313","2495490","0.0-17.0-2.16","84235","List2A","black","man","","","","null","","","","","","","","",""
"48503.89999997616","","","survey-text","314","2543997","0.0-17.0-3.16","84235","List2A","black","man","","","","","{""Q0"":""luke is being touched by fred""}","<img src=""stim_listA/touch6.gif""style=""height:400px;""></stim_listA>","is being touched by","","","","","",""
"null","<div style=""font-size:60px;"">+</div>","","html-keyboard-response","315","2544508","0.0-17.0-0.17","84235","List2A","black","man","","","","null","","","","","","","","",""
"null","<img src=""stim_listA/look3.gif""style=""height:400px;""></stim_listA>","","html-keyboard-response","316","2546526","0.0-17.0-1.17","84235","List2A","black","man","","","","null","","","","","","","","",""
"null","is looking at","","html-keyboard-response","317","2548539","0.0-17.0-2.17","84235","List2A","black","man","","","","null","","","","","","","","",""
"30220.599999904633","","","survey-text","318","2578764","0.0-17.0-3.17","84235","List2A","black","man","","","","","{""Q0"":""beth is looking at fred""}","<img src=""stim_listA/look3.gif""style=""height:400px;""></stim_listA>","is looking at","","","","","",""
"null","<div style=""font-size:60px;"">+</div>","","html-keyboard-response","319","2579269","0.0-17.0-0.18","84235","List2A","black","man","","","","null","","","","","","","","",""
"null","<img src=""stim_listA/shout4.gif""style=""height:400px;""></stim_listA>","","html-keyboard-response","320","2581284","0.0-17.0-1.18","84235","List2A","black","man","","","","null","","","","","","","","",""
"null","is being shouted at by","","html-keyboard-response","321","2583288","0.0-17.0-2.18","84235","List2A","black","man","","","","null","","","","","","","","",""
"61352.799999952316","","","survey-text","322","2644643","0.0-17.0-3.18","84235","List2A","black","man","","","","","{""Q0"":""mike is being shouted out by""}","<img src=""stim_listA/shout4.gif""style=""height:400px;""></stim_listA>","is being shouted at by","","","","","",""
"null","<div style=""font-size:60px;"">+</div>","","html-keyboard-response","323","2645153","0.0-17.0-0.19","84235","List2A","black","man","","","","null","","","","","","","","",""
"null","<img src=""stim_listA/kiss3.gif""style=""height:400px;""></stim_listA>","","html-keyboard-response","324","2647163","0.0-17.0-1.19","84235","List2A","black","man","","","","null","","","","","","","","",""
"null","is kissing","","html-keyboard-response","325","2649167","0.0-17.0-2.19","84235","List2A","black","man","","","","null","","","","","","","","",""
"66636.70000004768","","","survey-text","326","2715807","0.0-17.0-3.19","84235","List2A","black","man","","","","","{""Q0"":""fred is kissing beth""}","<img src=""stim_listA/kiss3.gif""style=""height:400px;""></stim_listA>","is kissing","","","","","",""
"10057.699999928474","<img src='img/portrait_matrix_list2.jpg' style='width:900px;height:500px;''></img><p>If you have memorised all the portraits and names and are ready to start, press Continue.</p><p><strong>Please note: Your memory of these faces will be tested 4 times during this experiment.</strong></p>","0","html-button-response","327","2725867","0.0-18.0-0.0","84235","List2A","black","man","","","","","","","","","","","","",""
"3437.1999999284744","<img src=""portrait/BM2.jpg""style=""height:400px;""></img>","5","html-button-response","328","2730313","0.0-18.0-1.0","84235","List2A","black","man","","true","5","","","","","","","","","",""
"null","CORRECT","","html-keyboard-response","329","2731823","0.0-18.0-2.0-0.0","84235","List2A","black","man","","","","null","","","","","","","","",""
"2499.899999976158","<img src=""portrait/BM1.jpg""style=""height:400px;""></img>","4","html-button-response","330","2734325","0.0-18.0-4.0","84235","List2A","black","man","","true","4","","","","","","","","","",""
"null","CORRECT","","html-keyboard-response","331","2735850","0.0-18.0-5.0-0.0","84235","List2A","black","man","","","","null","","","","","","","","",""
"5914.400000095367","<img src=""portrait/BW1.jpg""style=""height:400px;""></img>","0","html-button-response","332","2741767","0.0-18.0-7.0","84235","List2A","black","man","","true","0","","","","","","","","","",""
"null","CORRECT","","html-keyboard-response","333","2743287","0.0-18.0-8.0-0.0","84235","List2A","black","man","","","","null","","","","","","","","",""
"6352.299999952316","<img src=""portrait/WW2.jpg""style=""height:400px;""></img>","3","html-button-response","334","2749641","0.0-18.0-10.0","84235","List2A","black","man","","true","3","","","","","","","","","",""
"null","CORRECT","","html-keyboard-response","335","2751165","0.0-18.0-11.0-0.0","84235","List2A","black","man","","","","null","","","","","","","","",""
"4229.5","<img src=""portrait/BW2.jpg""style=""height:400px;""></img>","2","html-button-response","336","2755397","0.0-18.0-13.0","84235","List2A","black","man","","true","2","","","","","","","","","",""
"null","CORRECT","","html-keyboard-response","337","2756917","0.0-18.0-14.0-0.0","84235","List2A","black","man","","","","null","","","","","","","","",""
"9520","<img src=""portrait/WM2.jpg""style=""height:400px;""></img>","7","html-button-response","338","2766439","0.0-18.0-16.0","84235","List2A","black","man","","true","7","","","","","","","","","",""
"null","CORRECT","","html-keyboard-response","339","2767945","0.0-18.0-17.0-0.0","84235","List2A","black","man","","","","null","","","","","","","","",""
"4159.800000071526","<img src=""portrait/WM1.jpg""style=""height:400px;""></img>","6","html-button-response","340","2772107","0.0-18.0-19.0","84235","List2A","black","man","","true","6","","","","","","","","","",""
"null","CORRECT","","html-keyboard-response","341","2773624","0.0-18.0-20.0-0.0","84235","List2A","black","man","","","","null","","","","","","","","",""
"4123.200000047684","<img src=""portrait/WW1.jpg""style=""height:400px;""></img>","1","html-button-response","342","2777749","0.0-18.0-22.0","84235","List2A","black","man","","true","1","","","","","","","","","",""
"null","CORRECT","","html-keyboard-response","343","2779274","0.0-18.0-23.0-0.0","84235","List2A","black","man","","","","null","","","","","","","","",""
"8965.300000071526","<p>You got 8 out of 8 right first time. Press Continue.</p>","0","html-button-response","344","2788242","0.0-18.0-25.0","84235","List2A","black","man","","","","","","","","","","","","",""
"null","<div style=""font-size:60px;"">+</div>","","html-keyboard-response","345","2789759","0.0-19.0-0.0","84235","List2A","black","man","","","","null","","","","","","","","",""
"null","<img src=""stim_listA/copy4.gif""style=""height:400px;""></stim_listA>","","html-keyboard-response","346","2791766","0.0-19.0-1.0","84235","List2A","black","man","","","","null","","","","","","","","",""
"null","is being copied by","","html-keyboard-response","347","2793777","0.0-19.0-2.0","84235","List2A","black","man","","","","null","","","","","","","","",""
"21229.100000023842","","","survey-text","348","2815010","0.0-19.0-3.0","84235","List2A","black","man","","","","","{""Q0"":""fred is being copied by kate""}","<img src=""stim_listA/copy4.gif""style=""height:400px;""></stim_listA>","is being copied by","","","","","",""
"null","<div style=""font-size:60px;"">+</div>","","html-keyboard-response","349","2815517","0.0-19.0-0.1","84235","List2A","black","man","","","","null","","","","","","","","",""
"null","<img src=""stim_listA/greet7.gif""style=""height:400px;""></stim_listA>","","html-keyboard-response","350","2817523","0.0-19.0-1.1","84235","List2A","black","man","","","","null","","","","","","","","",""
"null","is greeting","","html-keyboard-response","351","2819525","0.0-19.0-2.1","84235","List2A","black","man","","","","null","","","","","","","","",""
"24172.700000047684","","","survey-text","352","2843701","0.0-19.0-3.1","84235","List2A","black","man","","","","","{""Q0"":""beth is greeting kate""}","<img src=""stim_listA/greet7.gif""style=""height:400px;""></stim_listA>","is greeting","","","","","",""
"null","<div style=""font-size:60px;"">+</div>","","html-keyboard-response","353","2844215","0.0-19.0-0.2","84235","List2A","black","man","","","","null","","","","","","","","",""
"null","<img src=""stim_listA/kiss6.gif""style=""height:400px;""></stim_listA>","","html-keyboard-response","354","2846227","0.0-19.0-1.2","84235","List2A","black","man","","","","null","","","","","","","","",""
"null","is being kissed by","","html-keyboard-response","355","2848232","0.0-19.0-2.2","84235","List2A","black","man","","","","null","","","","","","","","",""
"26311.800000071526","","","survey-text","356","2874546","0.0-19.0-3.2","84235","List2A","black","man","","","","","{""Q0"":""mike is being kissed at by dave""}","<img src=""stim_listA/kiss6.gif""style=""height:400px;""></stim_listA>","is being kissed by","","","","","",""
"null","<div style=""font-size:60px;"">+</div>","","html-keyboard-response","357","2875063","0.0-19.0-0.3","84235","List2A","black","man","","","","null","","","","","","","","",""
"null","<img src=""stim_listA/challenge1.gif""style=""height:400px;""></stim_listA>","","html-keyboard-response","358","2877075","0.0-19.0-1.3","84235","List2A","black","man","","","","null","","","","","","","","",""
"null","is challenging","","html-keyboard-response","359","2879079","0.0-19.0-2.3","84235","List2A","black","man","","","","null","","","","","","","","",""
"19819.699999928474","","","survey-text","360","2898901","0.0-19.0-3.3","84235","List2A","black","man","","","","","{""Q0"":""ruth is greeting mike""}","<img src=""stim_listA/challenge1.gif""style=""height:400px;""></stim_listA>","is challenging","","","","","",""
"null","<div style=""font-size:60px;"">+</div>","","html-keyboard-response","361","2899409","0.0-19.0-0.4","84235","List2A","black","man","","","","null","","","","","","","","",""
"null","<img src=""stim_listA/touch4.gif""style=""height:400px;""></stim_listA>","","html-keyboard-response","362","2901424","0.0-19.0-1.4","84235","List2A","black","man","","","","null","","","","","","","","",""
"null","is being touched by","","html-keyboard-response","363","2903430","0.0-19.0-2.4","84235","List2A","black","man","","","","null","","","","","","","","",""
"16377.899999976158","","","survey-text","364","2919811","0.0-19.0-3.4","84235","List2A","black","man","","","","","{""Q0"":""beth is being touched at fred""}","<img src=""stim_listA/touch4.gif""style=""height:400px;""></stim_listA>","is being touched by","","","","","",""
"null","<div style=""font-size:60px;"">+</div>","","html-keyboard-response","365","2920319","0.0-19.0-0.5","84235","List2A","black","man","","","","null","","","","","","","","",""
"null","<img src=""stim_listA/copy2.gif""style=""height:400px;""></stim_listA>","","html-keyboard-response","366","2922338","0.0-19.0-1.5","84235","List2A","black","man","","","","null","","","","","","","","",""
"null","is being copied by","","html-keyboard-response","367","2924350","0.0-19.0-2.5","84235","List2A","black","man","","","","null","","","","","","","","",""
"25103.900000095367","","","survey-text","368","2949457","0.0-19.0-3.5","84235","List2A","black","man","","","","","{""Q0"":""luke is being touched at by ruth""}","<img src=""stim_listA/copy2.gif""style=""height:400px;""></stim_listA>","is being copied by","","","","","",""
"null","<div style=""font-size:60px;"">+</div>","","html-keyboard-response","369","2949963","0.0-19.0-0.6","84235","List2A","black","man","","","","null","","","","","","","","",""
"null","<img src=""stim_listA/oppose5.gif""style=""height:400px;""></stim_listA>","","html-keyboard-response","370","2951969","0.0-19.0-1.6","84235","List2A","black","man","","","","null","","","","","","","","",""
"null","is opposing","","html-keyboard-response","371","2953984","0.0-19.0-2.6","84235","List2A","black","man","","","","null","","","","","","","","",""
"35904.39999997616","","","survey-text","372","2989889","0.0-19.0-3.6","84235","List2A","black","man","","","","","{""Q0"":""luke is being opposed by dave""}","<img src=""stim_listA/oppose5.gif""style=""height:400px;""></stim_listA>","is opposing","","","","","",""
"null","<div style=""font-size:60px;"">+</div>","","html-keyboard-response","373","2990400","0.0-19.0-0.7","84235","List2A","black","man","","","","null","","","","","","","","",""
"null","<img src=""stim_listA/shout1.gif""style=""height:400px;""></stim_listA>","","html-keyboard-response","374","2992406","0.0-19.0-1.7","84235","List2A","black","man","","","","null","","","","","","","","",""
"null","is shouting at","","html-keyboard-response","375","2994422","0.0-19.0-2.7","84235","List2A","black","man","","","","null","","","","","","","","",""
"29528.5","","","survey-text","376","3023954","0.0-19.0-3.7","84235","List2A","black","man","","","","","{""Q0"":""ruth is being shouted out by luke""}","<img src=""stim_listA/shout1.gif""style=""height:400px;""></stim_listA>","is shouting at","","","","","",""
"null","<div style=""font-size:60px;"">+</div>","","html-keyboard-response","377","3024461","0.0-19.0-0.8","84235","List2A","black","man","","","","null","","","","","","","","",""
"null","<img src=""stim_listA/seduce6.gif""style=""height:400px;""></stim_listA>","","html-keyboard-response","378","3026478","0.0-19.0-1.8","84235","List2A","black","man","","","","null","","","","","","","","",""
"null","is being seduced by","","html-keyboard-response","379","3028480","0.0-19.0-2.8","84235","List2A","black","man","","","","null","","","","","","","","",""
"16891.600000023842","","","survey-text","380","3045375","0.0-19.0-3.8","84235","List2A","black","man","","","","","{""Q0"":""fred is being seduced at by dave""}","<img src=""stim_listA/seduce6.gif""style=""height:400px;""></stim_listA>","is being seduced by","","","","","",""
"null","<div style=""font-size:60px;"">+</div>","","html-keyboard-response","381","3045879","0.0-19.0-0.9","84235","List2A","black","man","","","","null","","","","","","","","",""
"null","<img src=""stim_listA/greet6.gif""style=""height:400px;""></stim_listA>","","html-keyboard-response","382","3047895","0.0-19.0-1.9","84235","List2A","black","man","","","","null","","","","","","","","",""
"null","is being greeted by","","html-keyboard-response","383","3049897","0.0-19.0-2.9","84235","List2A","black","man","","","","null","","","","","","","","",""
"17516.799999952316","","","survey-text","384","3067417","0.0-19.0-3.9","84235","List2A","black","man","","","","","{""Q0"":""luke is being greeted at by mike""}","<img src=""stim_listA/greet6.gif""style=""height:400px;""></stim_listA>","is being greeted by","","","","","",""
"null","<div style=""font-size:60px;"">+</div>","","html-keyboard-response","385","3067926","0.0-19.0-0.10","84235","List2A","black","man","","","","null","","","","","","","","",""
"null","<img src=""stim_listA/greet3.gif""style=""height:400px;""></stim_listA>","","html-keyboard-response","386","3069941","0.0-19.0-1.10","84235","List2A","black","man","","","","null","","","","","","","","",""
"null","is greeting","","html-keyboard-response","387","3071959","0.0-19.0-2.10","84235","List2A","black","man","","","","null","","","","","","","","",""
"28934.800000071526","","","survey-text","388","3100898","0.0-19.0-3.10","84235","List2A","black","man","","","","","{""Q0"":""mike is greeting beth""}","<img src=""stim_listA/greet3.gif""style=""height:400px;""></stim_listA>","is greeting","","","","","",""
"null","<div style=""font-size:60px;"">+</div>","","html-keyboard-response","389","3101404","0.0-19.0-0.11","84235","List2A","black","man","","","","null","","","","","","","","",""
"null","<img src=""stim_listA/oppose8.gif""style=""height:400px;""></stim_listA>","","html-keyboard-response","390","3103407","0.0-19.0-1.11","84235","List2A","black","man","","","","null","","","","","","","","",""
"null","is being opposed by","","html-keyboard-response","391","3105423","0.0-19.0-2.11","84235","List2A","black","man","","","","null","","","","","","","","",""
"138435.70000004768","","","survey-text","392","3243862","0.0-19.0-3.11","84235","List2A","black","man","","","","","{""Q0"":""beth is being opposed at by ruth""}","<img src=""stim_listA/oppose8.gif""style=""height:400px;""></stim_listA>","is being opposed by","","","","","",""
"null","<div style=""font-size:60px;"">+</div>","","html-keyboard-response","393","3244364","0.0-19.0-0.12","84235","List2A","black","man","","","","null","","","","","","","","",""
"null","<img src=""stim_listA/kiss1.gif""style=""height:400px;""></stim_listA>","","html-keyboard-response","394","3246381","0.0-19.0-1.12","84235","List2A","black","man","","","","null","","","","","","","","",""
"null","is kissing","","html-keyboard-response","395","3248397","0.0-19.0-2.12","84235","List2A","black","man","","","","null","","","","","","","","",""
"16070.899999976158","","","survey-text","396","3264470","0.0-19.0-3.12","84235","List2A","black","man","","","","","{""Q0"":""luke is kissing ruth""}","<img src=""stim_listA/kiss1.gif""style=""height:400px;""></stim_listA>","is kissing","","","","","",""
"null","<div style=""font-size:60px;"">+</div>","","html-keyboard-response","397","3264985","0.0-19.0-0.13","84235","List2A","black","man","","","","null","","","","","","","","",""
"null","<img src=""stim_listA/oppose6.gif""style=""height:400px;""></stim_listA>","","html-keyboard-response","398","3266990","0.0-19.0-1.13","84235","List2A","black","man","","","","null","","","","","","","","",""
"null","is being opposed by","","html-keyboard-response","399","3269002","0.0-19.0-2.13","84235","List2A","black","man","","","","null","","","","","","","","",""
"18302","","","survey-text","400","3287307","0.0-19.0-3.13","84235","List2A","black","man","","","","","{""Q0"":""luke is being opposed at by fred""}","<img src=""stim_listA/oppose6.gif""style=""height:400px;""></stim_listA>","is being opposed by","","","","","",""
"null","<div style=""font-size:60px;"">+</div>","","html-keyboard-response","401","3287824","0.0-19.0-0.14","84235","List2A","black","man","","","","null","","","","","","","","",""
"null","<img src=""stim_listA/shout7.gif""style=""height:400px;""></stim_listA>","","html-keyboard-response","402","3289827","0.0-19.0-1.14","84235","List2A","black","man","","","","null","","","","","","","","",""
"null","is shouting at","","html-keyboard-response","403","3291842","0.0-19.0-2.14","84235","List2A","black","man","","","","null","","","","","","","","",""
"27557.399999976158","","","survey-text","404","3319404","0.0-19.0-3.14","84235","List2A","black","man","","","","","{""Q0"":""ruth is being shouted at by jane""}","<img src=""stim_listA/shout7.gif""style=""height:400px;""></stim_listA>","is shouting at","","","","","",""
"null","<div style=""font-size:60px;"">+</div>","","html-keyboard-response","405","3319909","0.0-19.0-0.15","84235","List2A","black","man","","","","null","","","","","","","","",""
"null","<img src=""stim_listA/hug6.gif""style=""height:400px;""></stim_listA>","","html-keyboard-response","406","3321915","0.0-19.0-1.15","84235","List2A","black","man","","","","null","","","","","","","","",""
"null","is being hugged by","","html-keyboard-response","407","3323925","0.0-19.0-2.15","84235","List2A","black","man","","","","null","","","","","","","","",""
"31330.899999976158","","","survey-text","408","3355259","0.0-19.0-3.15","84235","List2A","black","man","","","","","{""Q0"":""mike is being hugged by ruth""}","<img src=""stim_listA/hug6.gif""style=""height:400px;""></stim_listA>","is being hugged by","","","","","",""
"null","<div style=""font-size:60px;"">+</div>","","html-keyboard-response","409","3355768","0.0-19.0-0.16","84235","List2A","black","man","","","","null","","","","","","","","",""
"null","<img src=""stim_listA/seduce7.gif""style=""height:400px;""></stim_listA>","","html-keyboard-response","410","3357785","0.0-19.0-1.16","84235","List2A","black","man","","","","null","","","","","","","","",""
"null","is seducing","","html-keyboard-response","411","3359801","0.0-19.0-2.16","84235","List2A","black","man","","","","null","","","","","","","","",""
"22084.799999952316","","","survey-text","412","3381888","0.0-19.0-3.16","84235","List2A","black","man","","","","","{""Q0"":""ruth is seducing kate""}","<img src=""stim_listA/seduce7.gif""style=""height:400px;""></stim_listA>","is seducing","","","","","",""
"null","<div style=""font-size:60px;"">+</div>","","html-keyboard-response","413","3382395","0.0-19.0-0.17","84235","List2A","black","man","","","","null","","","","","","","","",""
"null","<img src=""stim_listA/greet5.gif""style=""height:400px;""></stim_listA>","","html-keyboard-response","414","3384412","0.0-19.0-1.17","84235","List2A","black","man","","","","null","","","","","","","","",""
"null","is greeting","","html-keyboard-response","415","3386416","0.0-19.0-2.17","84235","List2A","black","man","","","","null","","","","","","","","",""
"10660","","","survey-text","416","3397079","0.0-19.0-3.17","84235","List2A","black","man","","","","","{""Q0"":""dave is greeting fred""}","<img src=""stim_listA/greet5.gif""style=""height:400px;""></stim_listA>","is greeting","","","","","",""
"null","<div style=""font-size:60px;"">+</div>","","html-keyboard-response","417","3397582","0.0-19.0-0.18","84235","List2A","black","man","","","","null","","","","","","","","",""
"null","<img src=""stim_listA/shout5.gif""style=""height:400px;""></stim_listA>","","html-keyboard-response","418","3399595","0.0-19.0-1.18","84235","List2A","black","man","","","","null","","","","","","","","",""
"null","is shouting at","","html-keyboard-response","419","3401605","0.0-19.0-2.18","84235","List2A","black","man","","","","null","","","","","","","","",""
"25047.800000071526","","","survey-text","420","3426656","0.0-19.0-3.18","84235","List2A","black","man","","","","","{""Q0"":""luke is shouted at by fred""}","<img src=""stim_listA/shout5.gif""style=""height:400px;""></stim_listA>","is shouting at","","","","","",""
"null","<div style=""font-size:60px;"">+</div>","","html-keyboard-response","421","3427158","0.0-19.0-0.19","84235","List2A","black","man","","","","null","","","","","","","","",""
"null","<img src=""stim_listA/oppose2.gif""style=""height:400px;""></stim_listA>","","html-keyboard-response","422","3429174","0.0-19.0-1.19","84235","List2A","black","man","","","","null","","","","","","","","",""
"null","is being opposed by","","html-keyboard-response","423","3431190","0.0-19.0-2.19","84235","List2A","black","man","","","","null","","","","","","","","",""
"14572.100000023842","","","survey-text","424","3445764","0.0-19.0-3.19","84235","List2A","black","man","","","","","{""Q0"":""ruth is opposed by luke""}","<img src=""stim_listA/oppose2.gif""style=""height:400px;""></stim_listA>","is being opposed by","","","","","",""
"4807.399999976158","<p>Thank you for completing that task.</p><p>The final part of this session is a questionnaire that will take about 4 minutes.</p><p>Press Continue.</p>","0","html-button-response","425","3450574","0.0-20.0","84235","List2A","black","man","","","","","","","","","","","","",""
"64327.10000002384","","","survey-text","426","3515917","0.0-21.0","84235","List2A","black","man","","","","","{""Q0"":""30"",""Q1"":""English"",""Q2"":""English"",""Q3"":""United States"",""Q4"":""American"",""Q5"":""Black "",""Q6"":""Male""}","","","demographics","","","","",""
"2193.7000000476837","<p>Have you lived in the USA for the last 5 years or more?</p>","0","html-button-response","427","3518115","0.0-22.0","84235","List2A","black","man","","","","","","","","fiveyears","","","","",""
"2319.5","<p>Move the slider to show the extent to which you agree with the following statements.</p>","0","html-button-response","428","3521439","0.0-23.0","84235","List2A","black","man","","","","","","","","","","","","",""
"5050.299999952316","","","html-slider-response","429","3527499","0.0-24.0-0.0-0.0","84235","List2A","black","man","","","","","","","","survey_race","77","","","Being my race is an important part of how I see myself.","important"
"6163.600000023842","","","html-slider-response","430","3533665","0.0-24.0-0.0-0.1","84235","List2A","black","man","","","","","","","","survey_race","65","","","Being my race gives me a good feeling.","feeling"
"5708.599999904633","","","html-slider-response","431","3539376","0.0-24.0-0.0-0.2","84235","List2A","black","man","","","","","","","","survey_race","77","","","I often think about the fact that I am my age.","filler"
"6522.199999928474","","","html-slider-response","432","3545900","0.0-24.0-0.0-0.3","84235","List2A","black","man","","","","","","","","survey_race","83","","","People of my race are very similar to each other.","verysimilar"
"4246.700000047684","","","html-slider-response","433","3550149","0.0-24.0-0.0-0.4","84235","List2A","black","man","","","","","","","","survey_race","87","","","It is pleasant to be my race.","pleasant"
"3683.399999976158","","","html-slider-response","434","3553834","0.0-24.0-0.0-0.5","84235","List2A","black","man","","","","","","","","survey_race","22","","","I consider myself an extrovert.","filler"
"5502.899999976158","","","html-slider-response","435","3559339","0.0-24.0-0.0-0.6","84235","List2A","black","man","","","","","","","","survey_race","64","","","I feel solidarity with my race.","solidarity"
"3666.100000023842","","","html-slider-response","436","3563007","0.0-24.0-0.0-0.7","84235","List2A","black","man","","","","","","","","survey_race","70","","","I am glad to be the age I am.","filler"
"5866","","","html-slider-response","437","3568875","0.0-24.0-0.0-0.8","84235","List2A","black","man","","","","","","","","survey_race","100","","","The older I get, the wiser I feel.","filler"
"7754.699999928474","","","html-slider-response","438","3576632","0.0-24.0-0.0-0.9","84235","List2A","black","man","","","","","","","","survey_race","71","","","People my age have a lot in common with each other.","filler"
"7168.399999976158","","","html-slider-response","439","3583804","0.0-24.0-0.0-0.10","84235","List2A","black","man","","","","","","","","survey_race","100","","","The fact that I am my race is an important part of my identity.","identity"
"3919.7000000476837","","","html-slider-response","440","3587725","0.0-24.0-0.0-0.11","84235","List2A","black","man","","","","","","","","survey_race","73","","","I feel solidarity with people the same age as me.","filler"
"10914.299999952316","","","html-slider-response","441","3598642","0.0-24.0-0.0-0.12","84235","List2A","black","man","","","","","","","","survey_race","91","","","I think that my race has a lot to be proud of.","proud"
"6311.399999976158","","","html-slider-response","442","3604956","0.0-24.0-0.0-0.13","84235","List2A","black","man","","","","","","","","survey_race","74","","","I feel a bond with people the same age as me.","filler"
"6833.200000047684","","","html-slider-response","443","3611792","0.0-24.0-0.0-0.14","84235","List2A","black","man","","","","","","","","survey_race","34","","","My age is not an important part of who I am.","filler"
"3698.3000000715256","","","html-slider-response","444","3615492","0.0-24.0-0.0-0.15","84235","List2A","black","man","","","","","","","","survey_race","84","","","I often think about the fact that I am my race.","often"
"3330.899999976158","","","html-slider-response","445","3618826","0.0-24.0-0.0-0.16","84235","List2A","black","man","","","","","","","","survey_race","90","","","I am glad to be my age.","filler"
"4292.200000047684","","","html-slider-response","446","3623120","0.0-24.0-0.0-0.17","84235","List2A","black","man","","","","","","","","survey_race","91","","","I consider myself an introvert.","filler"
"10279.900000095367","","","html-slider-response","447","3633405","0.0-24.0-0.0-0.18","84235","List2A","black","man","","","","","","","","survey_race","76","","","I am similar to the average person of my race.","similar"
"4751.799999952316","","","html-slider-response","448","3638159","0.0-24.0-0.0-0.19","84235","List2A","black","man","","","","","","","","survey_race","64","","","Getting older does not worry me.","filler"
"4568.5","","","html-slider-response","449","3642730","0.0-24.0-0.0-0.20","84235","List2A","black","man","","","","","","","","survey_race","72","","","I feel committed to my race.","committed"
"3520","","","html-slider-response","450","3646252","0.0-24.0-0.0-0.21","84235","List2A","black","man","","","","","","","","survey_race","81","","","I feel a bond with my race.","bond"
"6091.799999952316","","","html-slider-response","451","3652346","0.0-24.0-0.0-0.22","84235","List2A","black","man","","","","","","","","survey_race","100","","","People of my race have a lot in common with each other.","common"
"3322.2999999523163","","","html-slider-response","452","3655671","0.0-24.0-0.0-0.23","84235","List2A","black","man","","","","","","","","survey_race","82","","","I have a lot in common with people of a similar age to me.","filler"
"3483.2000000476837","","","html-slider-response","453","3659156","0.0-24.0-0.0-0.24","84235","List2A","black","man","","","","","","","","survey_race","82","","","Being my age gives me a good feeling.","filler"
"4282.700000047684","","","html-slider-response","454","3663441","0.0-24.0-0.0-0.25","84235","List2A","black","man","","","","","","","","survey_race","78","","","I enjoy being in large groups.","filler"
"3877.100000023842","","","html-slider-response","455","3667320","0.0-24.0-0.0-0.26","84235","List2A","black","man","","","","","","","","survey_race","81","","","I am glad to be my race.","glad"
"3366.2999999523163","","","html-slider-response","456","3670688","0.0-24.0-0.0-0.27","84235","List2A","black","man","","","","","","","","survey_race","88","","","I have a lot in common with the average person of my race.","average"
"3060.600000023842","","","html-slider-response","457","3673751","0.0-24.0-1.0-0.0","84235","List2A","black","man","","","","","","","","survey_gender","80","","","I often think about the fact that I am my gender.","often"
"5359.5","","","html-slider-response","458","3679113","0.0-24.0-1.0-0.1","84235","List2A","black","man","","","","","","","","survey_gender","100","","","I often think about my actions.","filler"
"5073.5","","","html-slider-response","459","3684188","0.0-24.0-1.0-0.2","84235","List2A","black","man","","","","","","","","survey_gender","76","","","Being around my friends gives me a good feeling.","filler"
"3397.600000023842","","","html-slider-response","460","3687588","0.0-24.0-1.0-0.3","84235","List2A","black","man","","","","","","","","survey_gender","39","","","I have a lot in common with my friends.","filler"
"6347.399999976158","","","html-slider-response","461","3693938","0.0-24.0-1.0-0.4","84235","List2A","black","man","","","","","","","","survey_gender","100","","","Being my gender is an important part of how I see myself.","important"
"7260.300000071526","","","html-slider-response","462","3701201","0.0-24.0-1.0-0.5","84235","List2A","black","man","","","","","","","","survey_gender","100","","","I feel solidarity with my gender.","solidarity"
"6281.299999952316","","","html-slider-response","463","3707485","0.0-24.0-1.0-0.6","84235","List2A","black","man","","","","","","","","survey_gender","51","","","I feel solidarity with my friends.","filler"
"6975.799999952316","","","html-slider-response","464","3714463","0.0-24.0-1.0-0.7","84235","List2A","black","man","","","","","","","","survey_gender","100","","","People of my gender have a lot in common with each other.","common"
"6404.799999952316","","","html-slider-response","465","3720870","0.0-24.0-1.0-0.8","84235","List2A","black","man","","","","","","","","survey_gender","100","","","It is not always easy for people to know what I am thinking.","filler"
"4776.299999952316","","","html-slider-response","466","3725649","0.0-24.0-1.0-0.9","84235","List2A","black","man","","","","","","","","survey_gender","76","","","I would say I am an animal person.","filler"
"3252.3000000715256","","","html-slider-response","467","3728904","0.0-24.0-1.0-0.10","84235","List2A","black","man","","","","","","","","survey_gender","100","","","I think that my gender has a lot to be proud of.","proud"
"7483.600000023842","","","html-slider-response","468","3736389","0.0-24.0-1.0-0.11","84235","List2A","black","man","","","","","","","","survey_gender","75","","","My friends have a lot in common with each other.","filler"
"3926","","","html-slider-response","469","3740318","0.0-24.0-1.0-0.12","84235","List2A","black","man","","","","","","","","survey_gender","98","","","I am glad to have the friends that I have.","filler"
"6063.5","","","html-slider-response","470","3746383","0.0-24.0-1.0-0.13","84235","List2A","black","man","","","","","","","","survey_gender","100","","","The fact that I am my gender is an important part of my identity.","identity"
"3426.2999999523163","","","html-slider-response","471","3749812","0.0-24.0-1.0-0.14","84235","List2A","black","man","","","","","","","","survey_gender","100","","","I feel a bond with my gender.","bond"
"3754.8000000715256","","","html-slider-response","472","3753567","0.0-24.0-1.0-0.15","84235","List2A","black","man","","","","","","","","survey_gender","63","","","My friends understand me.","filler"
"4485.200000047684","","","html-slider-response","473","3758054","0.0-24.0-1.0-0.16","84235","List2A","black","man","","","","","","","","survey_gender","61","","","I feel a bond with my friends.","filler"
"4342","","","html-slider-response","474","3762399","0.0-24.0-1.0-0.17","84235","List2A","black","man","","","","","","","","survey_gender","72","","","I have a lot in common with the average person of my gender.","average"
"8545.299999952316","","","html-slider-response","475","3770947","0.0-24.0-1.0-0.18","84235","List2A","black","man","","","","","","","","survey_gender","33","","","Family is not more important to me than friendship.","filler"
"7863.299999952316","","","html-slider-response","476","3778813","0.0-24.0-1.0-0.19","84235","List2A","black","man","","","","","","","","survey_gender","38","","","Most of the friends in my life are very similar to me.","filler"
"5165.100000023842","","","html-slider-response","477","3783980","0.0-24.0-1.0-0.20","84235","List2A","black","man","","","","","","","","survey_gender","73","","","People of my gender are very similar to each other.","verysimilar"
"3590.8000000715256","","","html-slider-response","478","3787573","0.0-24.0-1.0-0.21","84235","List2A","black","man","","","","","","","","survey_gender","68","","","I feel committed to my gender.","committed"
