rt,stimulus,button_pressed,trial_type,trial_index,time_elapsed,internal_node_id,subject,list,ppt_race,ppt_gender,url,first_guess,correct,key_press,responses,image_type,phrase_type,test_part,response,stimulus1,stimulus2,question_type,survey_item
7220.1,Welcome to the experiment. Press Continue to begin.,0,html-button-response,0,7225,0.0-0.0,8477,List2B,black,woman,,,,,,,,,,,,,
51516.5,,,external-html,1,59992,0.0-1.0,8477,List2B,black,woman,consent.html,,,,,,,,,,,,
20136.6,"<p>On the next page, you will see portraits of 8 people and their names.</p><p>Your first task is to take a few minutes to memorise the names of these people.</p><p>You will have to recall their names during the rest of the experiment, so it is</p><p>essential that you try to memorise these people and their names as best as you can.</p><br><p><strong>You will then be tested on your memory of these names and portraits.</strong></p><br><p>The experiment will start after you have completed this memory test.</p><br><p>Ready?</p>",0,html-button-response,2,80131,0.0-2.0,8477,List2B,black,woman,,,,,,,,,,,,,
163195.3,"<img src='img/portrait_matrix_list2.jpg' style='width:900px;height:500px;''></img><p>If you have memorised all the portraits and names and are ready to start, press Continue.</p><p><strong>Please note: Your memory of these faces will be tested 4 times during this experiment.</strong></p>",0,html-button-response,3,244330,0.0-3.0-0.0,8477,List2B,black,woman,,,,,,,,,,,,,
3361.4,"<img src=""portrait/WM2.jpg""style=""height:400px;""></img>",7,html-button-response,4,248700,0.0-3.0-1.0,8477,List2B,black,woman,,TRUE,7,,,,,,,,,,
null,CORRECT,,html-keyboard-response,5,250212,0.0-3.0-2.0-0.0,8477,List2B,black,woman,,,,null,,,,,,,,,
2091.6,"<img src=""portrait/BM2.jpg""style=""height:400px;""></img>",5,html-button-response,6,252307,0.0-3.0-4.0,8477,List2B,black,woman,,TRUE,5,,,,,,,,,,
null,CORRECT,,html-keyboard-response,7,253812,0.0-3.0-5.0-0.0,8477,List2B,black,woman,,,,null,,,,,,,,,
3304.4,"<img src=""portrait/BW1.jpg""style=""height:400px;""></img>",0,html-button-response,8,257119,0.0-3.0-7.0,8477,List2B,black,woman,,TRUE,0,,,,,,,,,,
null,CORRECT,,html-keyboard-response,9,258624,0.0-3.0-8.0-0.0,8477,List2B,black,woman,,,,null,,,,,,,,,
2783.7,"<img src=""portrait/WW1.jpg""style=""height:400px;""></img>",1,html-button-response,10,261410,0.0-3.0-10.0,8477,List2B,black,woman,,TRUE,1,,,,,,,,,,
null,CORRECT,,html-keyboard-response,11,262917,0.0-3.0-11.0-0.0,8477,List2B,black,woman,,,,null,,,,,,,,,
2365.3,"<img src=""portrait/WW2.jpg""style=""height:400px;""></img>",3,html-button-response,12,265285,0.0-3.0-13.0,8477,List2B,black,woman,,TRUE,3,,,,,,,,,,
null,CORRECT,,html-keyboard-response,13,266794,0.0-3.0-14.0-0.0,8477,List2B,black,woman,,,,null,,,,,,,,,
2870.8,"<img src=""portrait/WM1.jpg""style=""height:400px;""></img>",6,html-button-response,14,269667,0.0-3.0-16.0,8477,List2B,black,woman,,TRUE,6,,,,,,,,,,
null,CORRECT,,html-keyboard-response,15,271177,0.0-3.0-17.0-0.0,8477,List2B,black,woman,,,,null,,,,,,,,,
3398.8,"<img src=""portrait/BM1.jpg""style=""height:400px;""></img>",4,html-button-response,16,274578,0.0-3.0-19.0,8477,List2B,black,woman,,TRUE,4,,,,,,,,,,
null,CORRECT,,html-keyboard-response,17,276085,0.0-3.0-20.0-0.0,8477,List2B,black,woman,,,,null,,,,,,,,,
2554.3,"<img src=""portrait/BW2.jpg""style=""height:400px;""></img>",2,html-button-response,18,278642,0.0-3.0-22.0,8477,List2B,black,woman,,TRUE,2,,,,,,,,,,
null,CORRECT,,html-keyboard-response,19,280154,0.0-3.0-23.0-0.0,8477,List2B,black,woman,,,,null,,,,,,,,,
2122.3,<p>You got 8 out of 8 right first time. Press Continue.</p>,0,html-button-response,20,282279,0.0-3.0-25.0,8477,List2B,black,woman,,,,,,,,,,,,,
34037.7,"<p>In this experiment, you will view photographs of the people from the memory game interacting.</p><p>By using the <strong>exact</strong> phrase given <i>after</i> the photograph appears and recalling the correct names of the people in the photographs, form a sentence describing the interaction. You do not need to capitalise names.</p><p>Type your answer in the space provided. Please complete every sentence before moving onto the next trial.</p><p>You will only have a few seconds to memorise each given photograph and phrase before you can respond, so try your best to focus.</p><p>An example is given below. Press 'Continue' when you are ready.</p><img src='img/speaking_example.jpg' style='width:800px;height:460px;''></img>",0,html-button-response,21,317327,0.0-4.0,8477,List2B,black,woman,,,,,,,,,,,,,
1283.6,"<p>Before the experiment starts, you will watch two example trials. Press 'Continue'.</p>",0,html-button-response,22,319618,0.0-5.0,8477,List2B,black,woman,,,,,,,,,,,,,
null,<img src='img/play_eg.gif' style='height:400px;''></img>,,html-keyboard-response,23,322626,0.0-6.0,8477,List2B,black,woman,,,,null,,,,,,,,,
null,<p>is playing with</p>,,html-keyboard-response,24,324632,0.0-7.0,8477,List2B,black,woman,,,,null,,,,,,,,,
6063.5,<p><b>Answer:</b> jane is playing with ruth</p>,0,html-button-response,25,330697,0.0-8.0,8477,List2B,black,woman,,,,,,,,,,,,,
null,<img src='img/dance_eg.gif' style='height:400px;''></img>,,html-keyboard-response,26,333709,0.0-9.0,8477,List2B,black,woman,,,,null,,,,,,,,,
null,<p>is being entertained by</p>,,html-keyboard-response,27,335716,0.0-10.0,8477,List2B,black,woman,,,,null,,,,,,,,,
7406.2,<p><b>Answer:</b> fred is being entertained by mike</p>,0,html-button-response,28,343124,0.0-11.0,8477,List2B,black,woman,,,,,,,,,,,,,
25185,"<p>Ready to start the experiment?</p><br><p><strong>Remember to describe the picture using a full sentence,</strong></p><p><strong>that combines the names of the people with the <i>exact</i> phrase given.</strong></p><p><strong>To receive full payment you must do this correctly.</strong></p><p><strong> You do not need to capitalise names or use punctuation.</strong></p><br><p>Press 'Continue' to begin.</p>",0,html-button-response,29,369313,0.0-12.0,8477,List2B,black,woman,,,,,,,,,,,,,
null,"<div style=""font-size:60px;"">+</div>",,html-keyboard-response,30,370820,0.0-13.0-0.0,8477,List2B,black,woman,,,,null,,,,,,,,,
null,"<img src=""stim_listB/seduce6.gif""style=""height:400px;""></stim_listB>",,html-keyboard-response,31,372827,0.0-13.0-1.0,8477,List2B,black,woman,,,,null,,,,,,,,,
null,is being seduced by,,html-keyboard-response,32,374829,0.0-13.0-2.0,8477,List2B,black,woman,,,,null,,,,,,,,,
17361.2,,,survey-text,33,392196,0.0-13.0-3.0,8477,List2B,black,woman,,,,,"{""Q0"":""Dave and Fred are smiling at each other.""}","<img src=""stim_listB/seduce6.gif""style=""height:400px;""></stim_listB>",is being seduced by,,,,,,
null,"<div style=""font-size:60px;"">+</div>",,html-keyboard-response,34,392699,0.0-13.0-0.1,8477,List2B,black,woman,,,,null,,,,,,,,,
null,"<img src=""stim_listB/touch2.gif""style=""height:400px;""></stim_listB>",,html-keyboard-response,35,394701,0.0-13.0-1.1,8477,List2B,black,woman,,,,null,,,,,,,,,
null,is being touched by,,html-keyboard-response,36,396708,0.0-13.0-2.1,8477,List2B,black,woman,,,,null,,,,,,,,,
12765.4,,,survey-text,37,409477,0.0-13.0-3.1,8477,List2B,black,woman,,,,,"{""Q0"":""Ruth is being touched by Luke""}","<img src=""stim_listB/touch2.gif""style=""height:400px;""></stim_listB>",is being touched by,,,,,,
null,"<div style=""font-size:60px;"">+</div>",,html-keyboard-response,38,409980,0.0-13.0-0.2,8477,List2B,black,woman,,,,null,,,,,,,,,
null,"<img src=""stim_listB/challenge5.gif""style=""height:400px;""></stim_listB>",,html-keyboard-response,39,411987,0.0-13.0-1.2,8477,List2B,black,woman,,,,null,,,,,,,,,
null,is challenging,,html-keyboard-response,40,413992,0.0-13.0-2.2,8477,List2B,black,woman,,,,null,,,,,,,,,
17904.6,,,survey-text,41,431901,0.0-13.0-3.2,8477,List2B,black,woman,,,,,"{""Q0"":""Dave is challenging Fred""}","<img src=""stim_listB/challenge5.gif""style=""height:400px;""></stim_listB>",is challenging,,,,,,
null,"<div style=""font-size:60px;"">+</div>",,html-keyboard-response,42,432405,0.0-13.0-0.3,8477,List2B,black,woman,,,,null,,,,,,,,,
null,"<img src=""stim_listB/shout6.gif""style=""height:400px;""></stim_listB>",,html-keyboard-response,43,434412,0.0-13.0-1.3,8477,List2B,black,woman,,,,null,,,,,,,,,
null,is being shouted at by,,html-keyboard-response,44,436417,0.0-13.0-2.3,8477,List2B,black,woman,,,,null,,,,,,,,,
19251.3,,,survey-text,45,455672,0.0-13.0-3.3,8477,List2B,black,woman,,,,,"{""Q0"":""Mike is being shouted at by Dave""}","<img src=""stim_listB/shout6.gif""style=""height:400px;""></stim_listB>",is being shouted at by,,,,,,
null,"<div style=""font-size:60px;"">+</div>",,html-keyboard-response,46,456177,0.0-13.0-0.4,8477,List2B,black,woman,,,,null,,,,,,,,,
null,"<img src=""stim_listB/seduce8.gif""style=""height:400px;""></stim_listB>",,html-keyboard-response,47,458180,0.0-13.0-1.4,8477,List2B,black,woman,,,,null,,,,,,,,,
null,is being seduced by,,html-keyboard-response,48,460184,0.0-13.0-2.4,8477,List2B,black,woman,,,,null,,,,,,,,,
15351.8,,,survey-text,49,475541,0.0-13.0-3.4,8477,List2B,black,woman,,,,,"{""Q0"":""Beth is being seduced by jane ""}","<img src=""stim_listB/seduce8.gif""style=""height:400px;""></stim_listB>",is being seduced by,,,,,,
null,"<div style=""font-size:60px;"">+</div>",,html-keyboard-response,50,476045,0.0-13.0-0.5,8477,List2B,black,woman,,,,null,,,,,,,,,
null,"<img src=""stim_listB/kiss1.gif""style=""height:400px;""></stim_listB>",,html-keyboard-response,51,478052,0.0-13.0-1.5,8477,List2B,black,woman,,,,null,,,,,,,,,
null,is kissing,,html-keyboard-response,52,480054,0.0-13.0-2.5,8477,List2B,black,woman,,,,null,,,,,,,,,
10058.2,,,survey-text,53,490117,0.0-13.0-3.5,8477,List2B,black,woman,,,,,"{""Q0"":""Ruth is kissing Luke""}","<img src=""stim_listB/kiss1.gif""style=""height:400px;""></stim_listB>",is kissing,,,,,,
null,"<div style=""font-size:60px;"">+</div>",,html-keyboard-response,54,490619,0.0-13.0-0.6,8477,List2B,black,woman,,,,null,,,,,,,,,
null,"<img src=""stim_listB/touch8.gif""style=""height:400px;""></stim_listB>",,html-keyboard-response,55,492626,0.0-13.0-1.6,8477,List2B,black,woman,,,,null,,,,,,,,,
null,is being touched by,,html-keyboard-response,56,494631,0.0-13.0-2.6,8477,List2B,black,woman,,,,null,,,,,,,,,
7193,,,survey-text,57,501829,0.0-13.0-3.6,8477,List2B,black,woman,,,,,"{""Q0"":""Beth is being touched by ruth""}","<img src=""stim_listB/touch8.gif""style=""height:400px;""></stim_listB>",is being touched by,,,,,,
null,"<div style=""font-size:60px;"">+</div>",,html-keyboard-response,58,502331,0.0-13.0-0.7,8477,List2B,black,woman,,,,null,,,,,,,,,
null,"<img src=""stim_listB/challenge3.gif""style=""height:400px;""></stim_listB>",,html-keyboard-response,59,504336,0.0-13.0-1.7,8477,List2B,black,woman,,,,null,,,,,,,,,
null,is challenging,,html-keyboard-response,60,506342,0.0-13.0-2.7,8477,List2B,black,woman,,,,null,,,,,,,,,
14271.2,,,survey-text,61,520618,0.0-13.0-3.7,8477,List2B,black,woman,,,,,"{""Q0"":""Mike is challenging Beth""}","<img src=""stim_listB/challenge3.gif""style=""height:400px;""></stim_listB>",is challenging,,,,,,
null,"<div style=""font-size:60px;"">+</div>",,html-keyboard-response,62,521120,0.0-13.0-0.8,8477,List2B,black,woman,,,,null,,,,,,,,,
null,"<img src=""stim_listB/copy7.gif""style=""height:400px;""></stim_listB>",,html-keyboard-response,63,523126,0.0-13.0-1.8,8477,List2B,black,woman,,,,null,,,,,,,,,
null,is copying,,html-keyboard-response,64,525131,0.0-13.0-2.8,8477,List2B,black,woman,,,,null,,,,,,,,,
6085.4,,,survey-text,65,531220,0.0-13.0-3.8,8477,List2B,black,woman,,,,,"{""Q0"":""Jane is copying Beth""}","<img src=""stim_listB/copy7.gif""style=""height:400px;""></stim_listB>",is copying,,,,,,
null,"<div style=""font-size:60px;"">+</div>",,html-keyboard-response,66,531722,0.0-13.0-0.9,8477,List2B,black,woman,,,,null,,,,,,,,,
null,"<img src=""stim_listB/copy3.gif""style=""height:400px;""></stim_listB>",,html-keyboard-response,67,533727,0.0-13.0-1.9,8477,List2B,black,woman,,,,null,,,,,,,,,
null,is copying,,html-keyboard-response,68,535737,0.0-13.0-2.9,8477,List2B,black,woman,,,,null,,,,,,,,,
5392.8,,,survey-text,69,541133,0.0-13.0-3.9,8477,List2B,black,woman,,,,,"{""Q0"":""Mike is copying Beth""}","<img src=""stim_listB/copy3.gif""style=""height:400px;""></stim_listB>",is copying,,,,,,
null,"<div style=""font-size:60px;"">+</div>",,html-keyboard-response,70,541638,0.0-13.0-0.10,8477,List2B,black,woman,,,,null,,,,,,,,,
null,"<img src=""stim_listB/greet1.gif""style=""height:400px;""></stim_listB>",,html-keyboard-response,71,543641,0.0-13.0-1.10,8477,List2B,black,woman,,,,null,,,,,,,,,
null,is greeting,,html-keyboard-response,72,545648,0.0-13.0-2.10,8477,List2B,black,woman,,,,null,,,,,,,,,
5823.5,,,survey-text,73,551476,0.0-13.0-3.10,8477,List2B,black,woman,,,,,"{""Q0"":""Dave is greeting ruth""}","<img src=""stim_listB/greet1.gif""style=""height:400px;""></stim_listB>",is greeting,,,,,,
null,"<div style=""font-size:60px;"">+</div>",,html-keyboard-response,74,551979,0.0-13.0-0.11,8477,List2B,black,woman,,,,null,,,,,,,,,
null,"<img src=""stim_listB/look4.gif""style=""height:400px;""></stim_listB>",,html-keyboard-response,75,553983,0.0-13.0-1.11,8477,List2B,black,woman,,,,null,,,,,,,,,
null,is being looked at by,,html-keyboard-response,76,555987,0.0-13.0-2.11,8477,List2B,black,woman,,,,null,,,,,,,,,
8946.8,,,survey-text,77,564938,0.0-13.0-3.11,8477,List2B,black,woman,,,,,"{""Q0"":""Kate is being looked at by Mike""}","<img src=""stim_listB/look4.gif""style=""height:400px;""></stim_listB>",is being looked at by,,,,,,
null,"<div style=""font-size:60px;"">+</div>",,html-keyboard-response,78,565442,0.0-13.0-0.12,8477,List2B,black,woman,,,,null,,,,,,,,,
null,"<img src=""stim_listB/challenge8.gif""style=""height:400px;""></stim_listB>",,html-keyboard-response,79,567445,0.0-13.0-1.12,8477,List2B,black,woman,,,,null,,,,,,,,,
null,is being challenged by,,html-keyboard-response,80,569448,0.0-13.0-2.12,8477,List2B,black,woman,,,,null,,,,,,,,,
7814,,,survey-text,81,577265,0.0-13.0-3.12,8477,List2B,black,woman,,,,,"{""Q0"":""Kate is being challenged by Ruth""}","<img src=""stim_listB/challenge8.gif""style=""height:400px;""></stim_listB>",is being challenged by,,,,,,
null,"<div style=""font-size:60px;"">+</div>",,html-keyboard-response,82,577767,0.0-13.0-0.13,8477,List2B,black,woman,,,,null,,,,,,,,,
null,"<img src=""stim_listB/copy1.gif""style=""height:400px;""></stim_listB>",,html-keyboard-response,83,579773,0.0-13.0-1.13,8477,List2B,black,woman,,,,null,,,,,,,,,
null,is copying,,html-keyboard-response,84,581778,0.0-13.0-2.13,8477,List2B,black,woman,,,,null,,,,,,,,,
6447.6,,,survey-text,85,588229,0.0-13.0-3.13,8477,List2B,black,woman,,,,,"{""Q0"":""Dave is copying ruth""}","<img src=""stim_listB/copy1.gif""style=""height:400px;""></stim_listB>",is copying,,,,,,
null,"<div style=""font-size:60px;"">+</div>",,html-keyboard-response,86,588730,0.0-13.0-0.14,8477,List2B,black,woman,,,,null,,,,,,,,,
null,"<img src=""stim_listB/greet3.gif""style=""height:400px;""></stim_listB>",,html-keyboard-response,87,590736,0.0-13.0-1.14,8477,List2B,black,woman,,,,null,,,,,,,,,
null,is greeting,,html-keyboard-response,88,592743,0.0-13.0-2.14,8477,List2B,black,woman,,,,null,,,,,,,,,
6066.7,,,survey-text,89,598813,0.0-13.0-3.14,8477,List2B,black,woman,,,,,"{""Q0"":""Mike is greeting Beth""}","<img src=""stim_listB/greet3.gif""style=""height:400px;""></stim_listB>",is greeting,,,,,,
null,"<div style=""font-size:60px;"">+</div>",,html-keyboard-response,90,599317,0.0-13.0-0.15,8477,List2B,black,woman,,,,null,,,,,,,,,
null,"<img src=""stim_listB/challenge7.gif""style=""height:400px;""></stim_listB>",,html-keyboard-response,91,601323,0.0-13.0-1.15,8477,List2B,black,woman,,,,null,,,,,,,,,
null,is challenging,,html-keyboard-response,92,603326,0.0-13.0-2.15,8477,List2B,black,woman,,,,null,,,,,,,,,
4984.6,,,survey-text,93,608314,0.0-13.0-3.15,8477,List2B,black,woman,,,,,"{""Q0"":""Jane is challenging Beth""}","<img src=""stim_listB/challenge7.gif""style=""height:400px;""></stim_listB>",is challenging,,,,,,
null,"<div style=""font-size:60px;"">+</div>",,html-keyboard-response,94,608819,0.0-13.0-0.16,8477,List2B,black,woman,,,,null,,,,,,,,,
null,"<img src=""stim_listB/shout4.gif""style=""height:400px;""></stim_listB>",,html-keyboard-response,95,610826,0.0-13.0-1.16,8477,List2B,black,woman,,,,null,,,,,,,,,
null,is being shouted at by,,html-keyboard-response,96,612833,0.0-13.0-2.16,8477,List2B,black,woman,,,,null,,,,,,,,,
7969,,,survey-text,97,620806,0.0-13.0-3.16,8477,List2B,black,woman,,,,,"{""Q0"":""Kate is being shouted at by Mike""}","<img src=""stim_listB/shout4.gif""style=""height:400px;""></stim_listB>",is being shouted at by,,,,,,
null,"<div style=""font-size:60px;"">+</div>",,html-keyboard-response,98,621310,0.0-13.0-0.17,8477,List2B,black,woman,,,,null,,,,,,,,,
null,"<img src=""stim_listB/greet6.gif""style=""height:400px;""></stim_listB>",,html-keyboard-response,99,623317,0.0-13.0-1.17,8477,List2B,black,woman,,,,null,,,,,,,,,
null,is being greeted by,,html-keyboard-response,100,625322,0.0-13.0-2.17,8477,List2B,black,woman,,,,null,,,,,,,,,
7795.7,,,survey-text,101,633122,0.0-13.0-3.17,8477,List2B,black,woman,,,,,"{""Q0"":""Luke is being greeted by Mike""}","<img src=""stim_listB/greet6.gif""style=""height:400px;""></stim_listB>",is being greeted by,,,,,,
null,"<div style=""font-size:60px;"">+</div>",,html-keyboard-response,102,633624,0.0-13.0-0.18,8477,List2B,black,woman,,,,null,,,,,,,,,
null,"<img src=""stim_listB/oppose6.gif""style=""height:400px;""></stim_listB>",,html-keyboard-response,103,635629,0.0-13.0-1.18,8477,List2B,black,woman,,,,null,,,,,,,,,
null,is being opposed by,,html-keyboard-response,104,637631,0.0-13.0-2.18,8477,List2B,black,woman,,,,null,,,,,,,,,
6881,,,survey-text,105,644515,0.0-13.0-3.18,8477,List2B,black,woman,,,,,"{""Q0"":""Luke is being opposed by Fred""}","<img src=""stim_listB/oppose6.gif""style=""height:400px;""></stim_listB>",is being opposed by,,,,,,
null,"<div style=""font-size:60px;"">+</div>",,html-keyboard-response,106,645020,0.0-13.0-0.19,8477,List2B,black,woman,,,,null,,,,,,,,,
null,"<img src=""stim_listB/greet5.gif""style=""height:400px;""></stim_listB>",,html-keyboard-response,107,647028,0.0-13.0-1.19,8477,List2B,black,woman,,,,null,,,,,,,,,
null,is greeting,,html-keyboard-response,108,649030,0.0-13.0-2.19,8477,List2B,black,woman,,,,null,,,,,,,,,
4747,,,survey-text,109,653780,0.0-13.0-3.19,8477,List2B,black,woman,,,,,"{""Q0"":""Fred is greeting Dave""}","<img src=""stim_listB/greet5.gif""style=""height:400px;""></stim_listB>",is greeting,,,,,,
26508.5,"<img src='img/portrait_matrix_list2.jpg' style='width:900px;height:500px;''></img><p>If you have memorised all the portraits and names and are ready to start, press Continue.</p><p><strong>Please note: Your memory of these faces will be tested 4 times during this experiment.</strong></p>",0,html-button-response,110,680290,0.0-14.0-0.0,8477,List2B,black,woman,,,,,,,,,,,,,
2672.4,"<img src=""portrait/BW1.jpg""style=""height:400px;""></img>",0,html-button-response,111,683971,0.0-14.0-1.0,8477,List2B,black,woman,,TRUE,0,,,,,,,,,,
null,CORRECT,,html-keyboard-response,112,685476,0.0-14.0-2.0-0.0,8477,List2B,black,woman,,,,null,,,,,,,,,
4901.6,"<img src=""portrait/WW1.jpg""style=""height:400px;""></img>",1,html-button-response,113,690380,0.0-14.0-4.0,8477,List2B,black,woman,,TRUE,1,,,,,,,,,,
null,CORRECT,,html-keyboard-response,114,691886,0.0-14.0-5.0-0.0,8477,List2B,black,woman,,,,null,,,,,,,,,
1543.8,"<img src=""portrait/BM2.jpg""style=""height:400px;""></img>",5,html-button-response,115,693434,0.0-14.0-7.0,8477,List2B,black,woman,,TRUE,5,,,,,,,,,,
null,CORRECT,,html-keyboard-response,116,694939,0.0-14.0-8.0-0.0,8477,List2B,black,woman,,,,null,,,,,,,,,
1469.8,"<img src=""portrait/WW2.jpg""style=""height:400px;""></img>",3,html-button-response,117,696412,0.0-14.0-10.0,8477,List2B,black,woman,,TRUE,3,,,,,,,,,,
null,CORRECT,,html-keyboard-response,118,697918,0.0-14.0-11.0-0.0,8477,List2B,black,woman,,,,null,,,,,,,,,
2789.6,"<img src=""portrait/BM1.jpg""style=""height:400px;""></img>",4,html-button-response,119,700711,0.0-14.0-13.0,8477,List2B,black,woman,,TRUE,4,,,,,,,,,,
null,CORRECT,,html-keyboard-response,120,702217,0.0-14.0-14.0-0.0,8477,List2B,black,woman,,,,null,,,,,,,,,
1882.7,"<img src=""portrait/WM2.jpg""style=""height:400px;""></img>",7,html-button-response,121,704103,0.0-14.0-16.0,8477,List2B,black,woman,,TRUE,7,,,,,,,,,,
null,CORRECT,,html-keyboard-response,122,705610,0.0-14.0-17.0-0.0,8477,List2B,black,woman,,,,null,,,,,,,,,
1371.4,"<img src=""portrait/WM1.jpg""style=""height:400px;""></img>",6,html-button-response,123,706984,0.0-14.0-19.0,8477,List2B,black,woman,,TRUE,6,,,,,,,,,,
null,CORRECT,,html-keyboard-response,124,708491,0.0-14.0-20.0-0.0,8477,List2B,black,woman,,,,null,,,,,,,,,
2476.7,"<img src=""portrait/BW2.jpg""style=""height:400px;""></img>",2,html-button-response,125,710971,0.0-14.0-22.0,8477,List2B,black,woman,,TRUE,2,,,,,,,,,,
null,CORRECT,,html-keyboard-response,126,712483,0.0-14.0-23.0-0.0,8477,List2B,black,woman,,,,null,,,,,,,,,
4878,<p>You got 8 out of 8 right first time. Press Continue.</p>,0,html-button-response,127,717363,0.0-14.0-25.0,8477,List2B,black,woman,,,,,,,,,,,,,
null,"<div style=""font-size:60px;"">+</div>",,html-keyboard-response,128,718870,0.0-15.0-0.0,8477,List2B,black,woman,,,,null,,,,,,,,,
null,"<img src=""stim_listB/challenge2.gif""style=""height:400px;""></stim_listB>",,html-keyboard-response,129,720877,0.0-15.0-1.0,8477,List2B,black,woman,,,,null,,,,,,,,,
null,is being challenged by,,html-keyboard-response,130,722881,0.0-15.0-2.0,8477,List2B,black,woman,,,,null,,,,,,,,,
6451.5,,,survey-text,131,729337,0.0-15.0-3.0,8477,List2B,black,woman,,,,,"{""Q0"":""Jane is being challenged by luke ""}","<img src=""stim_listB/challenge2.gif""style=""height:400px;""></stim_listB>",is being challenged by,,,,,,
null,"<div style=""font-size:60px;"">+</div>",,html-keyboard-response,132,729841,0.0-15.0-0.1,8477,List2B,black,woman,,,,null,,,,,,,,,
null,"<img src=""stim_listB/touch6.gif""style=""height:400px;""></stim_listB>",,html-keyboard-response,133,731848,0.0-15.0-1.1,8477,List2B,black,woman,,,,null,,,,,,,,,
null,is being touched by,,html-keyboard-response,134,733850,0.0-15.0-2.1,8477,List2B,black,woman,,,,null,,,,,,,,,
5999.6,,,survey-text,135,739854,0.0-15.0-3.1,8477,List2B,black,woman,,,,,"{""Q0"":""Luke is being touched by Fred""}","<img src=""stim_listB/touch6.gif""style=""height:400px;""></stim_listB>",is being touched by,,,,,,
null,"<div style=""font-size:60px;"">+</div>",,html-keyboard-response,136,740356,0.0-15.0-0.2,8477,List2B,black,woman,,,,null,,,,,,,,,
null,"<img src=""stim_listB/challenge1.gif""style=""height:400px;""></stim_listB>",,html-keyboard-response,137,742364,0.0-15.0-1.2,8477,List2B,black,woman,,,,null,,,,,,,,,
null,is challenging,,html-keyboard-response,138,744369,0.0-15.0-2.2,8477,List2B,black,woman,,,,null,,,,,,,,,
7284.6,,,survey-text,139,751658,0.0-15.0-3.2,8477,List2B,black,woman,,,,,"{""Q0"":""Ruth is challenging Dave""}","<img src=""stim_listB/challenge1.gif""style=""height:400px;""></stim_listB>",is challenging,,,,,,
null,"<div style=""font-size:60px;"">+</div>",,html-keyboard-response,140,752162,0.0-15.0-0.3,8477,List2B,black,woman,,,,null,,,,,,,,,
null,"<img src=""stim_listB/kiss5.gif""style=""height:400px;""></stim_listB>",,html-keyboard-response,141,754165,0.0-15.0-1.3,8477,List2B,black,woman,,,,null,,,,,,,,,
null,is kissing,,html-keyboard-response,142,756169,0.0-15.0-2.3,8477,List2B,black,woman,,,,null,,,,,,,,,
4799.2,,,survey-text,143,760972,0.0-15.0-3.3,8477,List2B,black,woman,,,,,"{""Q0"":""Luke is kissing fred""}","<img src=""stim_listB/kiss5.gif""style=""height:400px;""></stim_listB>",is kissing,,,,,,
null,"<div style=""font-size:60px;"">+</div>",,html-keyboard-response,144,761475,0.0-15.0-0.4,8477,List2B,black,woman,,,,null,,,,,,,,,
null,"<img src=""stim_listB/look5.gif""style=""height:400px;""></stim_listB>",,html-keyboard-response,145,763482,0.0-15.0-1.4,8477,List2B,black,woman,,,,null,,,,,,,,,
null,is looking at,,html-keyboard-response,146,765485,0.0-15.0-2.4,8477,List2B,black,woman,,,,null,,,,,,,,,
5859.3,,,survey-text,147,771347,0.0-15.0-3.4,8477,List2B,black,woman,,,,,"{""Q0"":""Luke is looking at fred ""}","<img src=""stim_listB/look5.gif""style=""height:400px;""></stim_listB>",is looking at,,,,,,
null,"<div style=""font-size:60px;"">+</div>",,html-keyboard-response,148,771850,0.0-15.0-0.5,8477,List2B,black,woman,,,,null,,,,,,,,,
null,"<img src=""stim_listB/touch1.gif""style=""height:400px;""></stim_listB>",,html-keyboard-response,149,773855,0.0-15.0-1.5,8477,List2B,black,woman,,,,null,,,,,,,,,
null,is touching,,html-keyboard-response,150,775859,0.0-15.0-2.5,8477,List2B,black,woman,,,,null,,,,,,,,,
5342.4,,,survey-text,151,781205,0.0-15.0-3.5,8477,List2B,black,woman,,,,,"{""Q0"":""Jane is touching Dave""}","<img src=""stim_listB/touch1.gif""style=""height:400px;""></stim_listB>",is touching,,,,,,
null,"<div style=""font-size:60px;"">+</div>",,html-keyboard-response,152,781707,0.0-15.0-0.6,8477,List2B,black,woman,,,,null,,,,,,,,,
null,"<img src=""stim_listB/hug7.gif""style=""height:400px;""></stim_listB>",,html-keyboard-response,153,783715,0.0-15.0-1.6,8477,List2B,black,woman,,,,null,,,,,,,,,
null,is hugging,,html-keyboard-response,154,785721,0.0-15.0-2.6,8477,List2B,black,woman,,,,null,,,,,,,,,
7291.5,,,survey-text,155,793017,0.0-15.0-3.6,8477,List2B,black,woman,,,,,"{""Q0"":""Ruth is hugging beth""}","<img src=""stim_listB/hug7.gif""style=""height:400px;""></stim_listB>",is hugging,,,,,,
null,"<div style=""font-size:60px;"">+</div>",,html-keyboard-response,156,793521,0.0-15.0-0.7,8477,List2B,black,woman,,,,null,,,,,,,,,
null,"<img src=""stim_listB/seduce2.gif""style=""height:400px;""></stim_listB>",,html-keyboard-response,157,795528,0.0-15.0-1.7,8477,List2B,black,woman,,,,null,,,,,,,,,
null,is being seduced by,,html-keyboard-response,158,797532,0.0-15.0-2.7,8477,List2B,black,woman,,,,null,,,,,,,,,
6264.6,,,survey-text,159,803800,0.0-15.0-3.7,8477,List2B,black,woman,,,,,"{""Q0"":""Dave is being seduced by ruth""}","<img src=""stim_listB/seduce2.gif""style=""height:400px;""></stim_listB>",is being seduced by,,,,,,
null,"<div style=""font-size:60px;"">+</div>",,html-keyboard-response,160,804305,0.0-15.0-0.8,8477,List2B,black,woman,,,,null,,,,,,,,,
null,"<img src=""stim_listB/copy6.gif""style=""height:400px;""></stim_listB>",,html-keyboard-response,161,806308,0.0-15.0-1.8,8477,List2B,black,woman,,,,null,,,,,,,,,
null,is being copied by,,html-keyboard-response,162,808314,0.0-15.0-2.8,8477,List2B,black,woman,,,,null,,,,,,,,,
14217.4,,,survey-text,163,822536,0.0-15.0-3.8,8477,List2B,black,woman,,,,,"{""Q0"":""Mike is being copied by luke""}","<img src=""stim_listB/copy6.gif""style=""height:400px;""></stim_listB>",is being copied by,,,,,,
null,"<div style=""font-size:60px;"">+</div>",,html-keyboard-response,164,823040,0.0-15.0-0.9,8477,List2B,black,woman,,,,null,,,,,,,,,
null,"<img src=""stim_listB/oppose3.gif""style=""height:400px;""></stim_listB>",,html-keyboard-response,165,825047,0.0-15.0-1.9,8477,List2B,black,woman,,,,null,,,,,,,,,
null,is opposing,,html-keyboard-response,166,827052,0.0-15.0-2.9,8477,List2B,black,woman,,,,null,,,,,,,,,
4241.6,,,survey-text,167,831298,0.0-15.0-3.9,8477,List2B,black,woman,,,,,"{""Q0"":""Mike is opposing Kate""}","<img src=""stim_listB/oppose3.gif""style=""height:400px;""></stim_listB>",is opposing,,,,,,
null,"<div style=""font-size:60px;"">+</div>",,html-keyboard-response,168,831803,0.0-15.0-0.10,8477,List2B,black,woman,,,,null,,,,,,,,,
null,"<img src=""stim_listB/shout8.gif""style=""height:400px;""></stim_listB>",,html-keyboard-response,169,833806,0.0-15.0-1.10,8477,List2B,black,woman,,,,null,,,,,,,,,
null,is being shouted at by,,html-keyboard-response,170,835813,0.0-15.0-2.10,8477,List2B,black,woman,,,,null,,,,,,,,,
22377.7,,,survey-text,171,858194,0.0-15.0-3.10,8477,List2B,black,woman,,,,,"{""Q0"":""Kate is being shouted at by Jane""}","<img src=""stim_listB/shout8.gif""style=""height:400px;""></stim_listB>",is being shouted at by,,,,,,
null,"<div style=""font-size:60px;"">+</div>",,html-keyboard-response,172,858696,0.0-15.0-0.11,8477,List2B,black,woman,,,,null,,,,,,,,,
null,"<img src=""stim_listB/touch5.gif""style=""height:400px;""></stim_listB>",,html-keyboard-response,173,860699,0.0-15.0-1.11,8477,List2B,black,woman,,,,null,,,,,,,,,
null,is touching,,html-keyboard-response,174,862703,0.0-15.0-2.11,8477,List2B,black,woman,,,,null,,,,,,,,,
6440.2,,,survey-text,175,869146,0.0-15.0-3.11,8477,List2B,black,woman,,,,,"{""Q0"":""Dave is touching Mike""}","<img src=""stim_listB/touch5.gif""style=""height:400px;""></stim_listB>",is touching,,,,,,
null,"<div style=""font-size:60px;"">+</div>",,html-keyboard-response,176,869651,0.0-15.0-0.12,8477,List2B,black,woman,,,,null,,,,,,,,,
null,"<img src=""stim_listB/kiss4.gif""style=""height:400px;""></stim_listB>",,html-keyboard-response,177,871659,0.0-15.0-1.12,8477,List2B,black,woman,,,,null,,,,,,,,,
null,is being kissed by,,html-keyboard-response,178,873666,0.0-15.0-2.12,8477,List2B,black,woman,,,,null,,,,,,,,,
7804.9,,,survey-text,179,881475,0.0-15.0-3.12,8477,List2B,black,woman,,,,,"{""Q0"":""Mike is being kissed by Kate""}","<img src=""stim_listB/kiss4.gif""style=""height:400px;""></stim_listB>",is being kissed by,,,,,,
null,"<div style=""font-size:60px;"">+</div>",,html-keyboard-response,180,881977,0.0-15.0-0.13,8477,List2B,black,woman,,,,null,,,,,,,,,
null,"<img src=""stim_listB/challenge6.gif""style=""height:400px;""></stim_listB>",,html-keyboard-response,181,883980,0.0-15.0-1.13,8477,List2B,black,woman,,,,null,,,,,,,,,
null,is being challenged by,,html-keyboard-response,182,885984,0.0-15.0-2.13,8477,List2B,black,woman,,,,null,,,,,,,,,
10079.9,,,survey-text,183,896068,0.0-15.0-3.13,8477,List2B,black,woman,,,,,"{""Q0"":""Luke is being challenged by Mike""}","<img src=""stim_listB/challenge6.gif""style=""height:400px;""></stim_listB>",is being challenged by,,,,,,
null,"<div style=""font-size:60px;"">+</div>",,html-keyboard-response,184,896573,0.0-15.0-0.14,8477,List2B,black,woman,,,,null,,,,,,,,,
null,"<img src=""stim_listB/copy4.gif""style=""height:400px;""></stim_listB>",,html-keyboard-response,185,898576,0.0-15.0-1.14,8477,List2B,black,woman,,,,null,,,,,,,,,
null,is being copied by,,html-keyboard-response,186,900580,0.0-15.0-2.14,8477,List2B,black,woman,,,,null,,,,,,,,,
9106.8,,,survey-text,187,909690,0.0-15.0-3.14,8477,List2B,black,woman,,,,,"{""Q0"":""Fred is being copied by Kate""}","<img src=""stim_listB/copy4.gif""style=""height:400px;""></stim_listB>",is being copied by,,,,,,
null,"<div style=""font-size:60px;"">+</div>",,html-keyboard-response,188,910195,0.0-15.0-0.15,8477,List2B,black,woman,,,,null,,,,,,,,,
null,"<img src=""stim_listB/greet7.gif""style=""height:400px;""></stim_listB>",,html-keyboard-response,189,912202,0.0-15.0-1.15,8477,List2B,black,woman,,,,null,,,,,,,,,
null,is greeting,,html-keyboard-response,190,914205,0.0-15.0-2.15,8477,List2B,black,woman,,,,null,,,,,,,,,
5056.7,,,survey-text,191,919266,0.0-15.0-3.15,8477,List2B,black,woman,,,,,"{""Q0"":""Beth is greeting Jane""}","<img src=""stim_listB/greet7.gif""style=""height:400px;""></stim_listB>",is greeting,,,,,,
null,"<div style=""font-size:60px;"">+</div>",,html-keyboard-response,192,919770,0.0-15.0-0.16,8477,List2B,black,woman,,,,null,,,,,,,,,
null,"<img src=""stim_listB/oppose4.gif""style=""height:400px;""></stim_listB>",,html-keyboard-response,193,921777,0.0-15.0-1.16,8477,List2B,black,woman,,,,null,,,,,,,,,
null,is being opposed by,,html-keyboard-response,194,923784,0.0-15.0-2.16,8477,List2B,black,woman,,,,null,,,,,,,,,
11424.5,,,survey-text,195,935212,0.0-15.0-3.16,8477,List2B,black,woman,,,,,"{""Q0"":""Beth is being opposed by Fred""}","<img src=""stim_listB/oppose4.gif""style=""height:400px;""></stim_listB>",is being opposed by,,,,,,
null,"<div style=""font-size:60px;"">+</div>",,html-keyboard-response,196,935713,0.0-15.0-0.17,8477,List2B,black,woman,,,,null,,,,,,,,,
null,"<img src=""stim_listB/look1.gif""style=""height:400px;""></stim_listB>",,html-keyboard-response,197,937719,0.0-15.0-1.17,8477,List2B,black,woman,,,,null,,,,,,,,,
null,is looking at,,html-keyboard-response,198,939724,0.0-15.0-2.17,8477,List2B,black,woman,,,,null,,,,,,,,,
9304.7,,,survey-text,199,949032,0.0-15.0-3.17,8477,List2B,black,woman,,,,,"{""Q0"":""Luke is looking at Jane""}","<img src=""stim_listB/look1.gif""style=""height:400px;""></stim_listB>",is looking at,,,,,,
null,"<div style=""font-size:60px;"">+</div>",,html-keyboard-response,200,949534,0.0-15.0-0.18,8477,List2B,black,woman,,,,null,,,,,,,,,
null,"<img src=""stim_listB/kiss8.gif""style=""height:400px;""></stim_listB>",,html-keyboard-response,201,951540,0.0-15.0-1.18,8477,List2B,black,woman,,,,null,,,,,,,,,
null,is being kissed by,,html-keyboard-response,202,953545,0.0-15.0-2.18,8477,List2B,black,woman,,,,null,,,,,,,,,
8177.1,,,survey-text,203,961726,0.0-15.0-3.18,8477,List2B,black,woman,,,,,"{""Q0"":""Jane is being kissed by Kate""}","<img src=""stim_listB/kiss8.gif""style=""height:400px;""></stim_listB>",is being kissed by,,,,,,
null,"<div style=""font-size:60px;"">+</div>",,html-keyboard-response,204,962230,0.0-15.0-0.19,8477,List2B,black,woman,,,,null,,,,,,,,,
null,"<img src=""stim_listB/shout5.gif""style=""height:400px;""></stim_listB>",,html-keyboard-response,205,964238,0.0-15.0-1.19,8477,List2B,black,woman,,,,null,,,,,,,,,
null,is shouting at,,html-keyboard-response,206,966243,0.0-15.0-2.19,8477,List2B,black,woman,,,,null,,,,,,,,,
13112.6,,,survey-text,207,979360,0.0-15.0-3.19,8477,List2B,black,woman,,,,,"{""Q0"":""Fred is shouting at Luke""}","<img src=""stim_listB/shout5.gif""style=""height:400px;""></stim_listB>",is shouting at,,,,,,
38326.3,"<img src='img/portrait_matrix_list2.jpg' style='width:900px;height:500px;''></img><p>If you have memorised all the portraits and names and are ready to start, press Continue.</p><p><strong>Please note: Your memory of these faces will be tested 4 times during this experiment.</strong></p>",0,html-button-response,208,1017689,0.0-16.0-0.0,8477,List2B,black,woman,,,,,,,,,,,,,
3052.5,"<img src=""portrait/WW1.jpg""style=""height:400px;""></img>",1,html-button-response,209,1021745,0.0-16.0-1.0,8477,List2B,black,woman,,TRUE,1,,,,,,,,,,
null,CORRECT,,html-keyboard-response,210,1023251,0.0-16.0-2.0-0.0,8477,List2B,black,woman,,,,null,,,,,,,,,
2208.9,"<img src=""portrait/BM2.jpg""style=""height:400px;""></img>",5,html-button-response,211,1025462,0.0-16.0-4.0,8477,List2B,black,woman,,TRUE,5,,,,,,,,,,
null,CORRECT,,html-keyboard-response,212,1026968,0.0-16.0-5.0-0.0,8477,List2B,black,woman,,,,null,,,,,,,,,
2678.8,"<img src=""portrait/WM2.jpg""style=""height:400px;""></img>",7,html-button-response,213,1029649,0.0-16.0-7.0,8477,List2B,black,woman,,TRUE,7,,,,,,,,,,
null,CORRECT,,html-keyboard-response,214,1031157,0.0-16.0-8.0-0.0,8477,List2B,black,woman,,,,null,,,,,,,,,
3018.6,"<img src=""portrait/WW2.jpg""style=""height:400px;""></img>",3,html-button-response,215,1034178,0.0-16.0-10.0,8477,List2B,black,woman,,TRUE,3,,,,,,,,,,
null,CORRECT,,html-keyboard-response,216,1035685,0.0-16.0-11.0-0.0,8477,List2B,black,woman,,,,null,,,,,,,,,
1886.2,"<img src=""portrait/BW2.jpg""style=""height:400px;""></img>",2,html-button-response,217,1037573,0.0-16.0-13.0,8477,List2B,black,woman,,TRUE,2,,,,,,,,,,
null,CORRECT,,html-keyboard-response,218,1039081,0.0-16.0-14.0-0.0,8477,List2B,black,woman,,,,null,,,,,,,,,
2260.5,"<img src=""portrait/WM1.jpg""style=""height:400px;""></img>",6,html-button-response,219,1041344,0.0-16.0-16.0,8477,List2B,black,woman,,TRUE,6,,,,,,,,,,
null,CORRECT,,html-keyboard-response,220,1042850,0.0-16.0-17.0-0.0,8477,List2B,black,woman,,,,null,,,,,,,,,
2263.2,"<img src=""portrait/BM1.jpg""style=""height:400px;""></img>",4,html-button-response,221,1045115,0.0-16.0-19.0,8477,List2B,black,woman,,TRUE,4,,,,,,,,,,
null,CORRECT,,html-keyboard-response,222,1046627,0.0-16.0-20.0-0.0,8477,List2B,black,woman,,,,null,,,,,,,,,
2155.8,"<img src=""portrait/BW1.jpg""style=""height:400px;""></img>",0,html-button-response,223,1048784,0.0-16.0-22.0,8477,List2B,black,woman,,TRUE,0,,,,,,,,,,
null,CORRECT,,html-keyboard-response,224,1050291,0.0-16.0-23.0-0.0,8477,List2B,black,woman,,,,null,,,,,,,,,
1821.7,<p>You got 8 out of 8 right first time. Press Continue.</p>,0,html-button-response,225,1052115,0.0-16.0-25.0,8477,List2B,black,woman,,,,,,,,,,,,,
null,"<div style=""font-size:60px;"">+</div>",,html-keyboard-response,226,1053627,0.0-17.0-0.0,8477,List2B,black,woman,,,,null,,,,,,,,,
null,"<img src=""stim_listB/kiss7.gif""style=""height:400px;""></stim_listB>",,html-keyboard-response,227,1055635,0.0-17.0-1.0,8477,List2B,black,woman,,,,null,,,,,,,,,
null,is kissing,,html-keyboard-response,228,1057639,0.0-17.0-2.0,8477,List2B,black,woman,,,,null,,,,,,,,,
9809.2,,,survey-text,229,1067452,0.0-17.0-3.0,8477,List2B,black,woman,,,,,"{""Q0"":""Beth is kissing Ruth""}","<img src=""stim_listB/kiss7.gif""style=""height:400px;""></stim_listB>",is kissing,,,,,,
null,"<div style=""font-size:60px;"">+</div>",,html-keyboard-response,230,1067954,0.0-17.0-0.1,8477,List2B,black,woman,,,,null,,,,,,,,,
null,"<img src=""stim_listB/look8.gif""style=""height:400px;""></stim_listB>",,html-keyboard-response,231,1069957,0.0-17.0-1.1,8477,List2B,black,woman,,,,null,,,,,,,,,
null,is being looked at by,,html-keyboard-response,232,1071962,0.0-17.0-2.1,8477,List2B,black,woman,,,,null,,,,,,,,,
7880.8,,,survey-text,233,1079847,0.0-17.0-3.1,8477,List2B,black,woman,,,,,"{""Q0"":""Jane is being looked at by Kate""}","<img src=""stim_listB/look8.gif""style=""height:400px;""></stim_listB>",is being looked at by,,,,,,
null,"<div style=""font-size:60px;"">+</div>",,html-keyboard-response,234,1080349,0.0-17.0-0.2,8477,List2B,black,woman,,,,null,,,,,,,,,
null,"<img src=""stim_listB/shout1.gif""style=""height:400px;""></stim_listB>",,html-keyboard-response,235,1082354,0.0-17.0-1.2,8477,List2B,black,woman,,,,null,,,,,,,,,
null,is shouting at,,html-keyboard-response,236,1084359,0.0-17.0-2.2,8477,List2B,black,woman,,,,null,,,,,,,,,
5158.5,,,survey-text,237,1089521,0.0-17.0-3.2,8477,List2B,black,woman,,,,,"{""Q0"":""Ruth is shouting at Luke""}","<img src=""stim_listB/shout1.gif""style=""height:400px;""></stim_listB>",is shouting at,,,,,,
null,"<div style=""font-size:60px;"">+</div>",,html-keyboard-response,238,1090023,0.0-17.0-0.3,8477,List2B,black,woman,,,,null,,,,,,,,,
null,"<img src=""stim_listB/challenge4.gif""style=""height:400px;""></stim_listB>",,html-keyboard-response,239,1092031,0.0-17.0-1.3,8477,List2B,black,woman,,,,null,,,,,,,,,
null,is being challenged by,,html-keyboard-response,240,1094038,0.0-17.0-2.3,8477,List2B,black,woman,,,,null,,,,,,,,,
7518.7,,,survey-text,241,1101561,0.0-17.0-3.3,8477,List2B,black,woman,,,,,"{""Q0"":""Fred is being challenged by kate""}","<img src=""stim_listB/challenge4.gif""style=""height:400px;""></stim_listB>",is being challenged by,,,,,,
null,"<div style=""font-size:60px;"">+</div>",,html-keyboard-response,242,1102062,0.0-17.0-0.4,8477,List2B,black,woman,,,,null,,,,,,,,,
null,"<img src=""stim_listB/greet4.gif""style=""height:400px;""></stim_listB>",,html-keyboard-response,243,1104067,0.0-17.0-1.4,8477,List2B,black,woman,,,,null,,,,,,,,,
null,is being greeted by,,html-keyboard-response,244,1106073,0.0-17.0-2.4,8477,List2B,black,woman,,,,null,,,,,,,,,
9616.8,,,survey-text,245,1115693,0.0-17.0-3.4,8477,List2B,black,woman,,,,,"{""Q0"":""Fred is being greeted by Kate""}","<img src=""stim_listB/greet4.gif""style=""height:400px;""></stim_listB>",is being greeted by,,,,,,
null,"<div style=""font-size:60px;"">+</div>",,html-keyboard-response,246,1116198,0.0-17.0-0.5,8477,List2B,black,woman,,,,null,,,,,,,,,
null,"<img src=""stim_listB/hug1.gif""style=""height:400px;""></stim_listB>",,html-keyboard-response,247,1118204,0.0-17.0-1.5,8477,List2B,black,woman,,,,null,,,,,,,,,
null,is hugging,,html-keyboard-response,248,1120208,0.0-17.0-2.5,8477,List2B,black,woman,,,,null,,,,,,,,,
10463.3,,,survey-text,249,1130675,0.0-17.0-3.5,8477,List2B,black,woman,,,,,"{""Q0"":""Ruth is hugging Luke""}","<img src=""stim_listB/hug1.gif""style=""height:400px;""></stim_listB>",is hugging,,,,,,
null,"<div style=""font-size:60px;"">+</div>",,html-keyboard-response,250,1131177,0.0-17.0-0.6,8477,List2B,black,woman,,,,null,,,,,,,,,
null,"<img src=""stim_listB/look3.gif""style=""height:400px;""></stim_listB>",,html-keyboard-response,251,1133180,0.0-17.0-1.6,8477,List2B,black,woman,,,,null,,,,,,,,,
null,is looking at,,html-keyboard-response,252,1135186,0.0-17.0-2.6,8477,List2B,black,woman,,,,null,,,,,,,,,
5341,,,survey-text,253,1140530,0.0-17.0-3.6,8477,List2B,black,woman,,,,,"{""Q0"":""Beth is looking at Fred""}","<img src=""stim_listB/look3.gif""style=""height:400px;""></stim_listB>",is looking at,,,,,,
null,"<div style=""font-size:60px;"">+</div>",,html-keyboard-response,254,1141035,0.0-17.0-0.7,8477,List2B,black,woman,,,,null,,,,,,,,,
null,"<img src=""stim_listB/touch7.gif""style=""height:400px;""></stim_listB>",,html-keyboard-response,255,1143038,0.0-17.0-1.7,8477,List2B,black,woman,,,,null,,,,,,,,,
null,is touching,,html-keyboard-response,256,1145044,0.0-17.0-2.7,8477,List2B,black,woman,,,,null,,,,,,,,,
5188.5,,,survey-text,257,1150236,0.0-17.0-3.7,8477,List2B,black,woman,,,,,"{""Q0"":""Jane is touching Kate""}","<img src=""stim_listB/touch7.gif""style=""height:400px;""></stim_listB>",is touching,,,,,,
null,"<div style=""font-size:60px;"">+</div>",,html-keyboard-response,258,1150741,0.0-17.0-0.8,8477,List2B,black,woman,,,,null,,,,,,,,,
null,"<img src=""stim_listB/kiss6.gif""style=""height:400px;""></stim_listB>",,html-keyboard-response,259,1152747,0.0-17.0-1.8,8477,List2B,black,woman,,,,null,,,,,,,,,
null,is being kissed by,,html-keyboard-response,260,1154750,0.0-17.0-2.8,8477,List2B,black,woman,,,,null,,,,,,,,,
8486.4,,,survey-text,261,1163241,0.0-17.0-3.8,8477,List2B,black,woman,,,,,"{""Q0"":""Mike is being kissed by Dave""}","<img src=""stim_listB/kiss6.gif""style=""height:400px;""></stim_listB>",is being kissed by,,,,,,
null,"<div style=""font-size:60px;"">+</div>",,html-keyboard-response,262,1163743,0.0-17.0-0.9,8477,List2B,black,woman,,,,null,,,,,,,,,
null,"<img src=""stim_listB/hug4.gif""style=""height:400px;""></stim_listB>",,html-keyboard-response,263,1165747,0.0-17.0-1.9,8477,List2B,black,woman,,,,null,,,,,,,,,
null,is being hugged by,,html-keyboard-response,264,1167750,0.0-17.0-2.9,8477,List2B,black,woman,,,,null,,,,,,,,,
6705.4,,,survey-text,265,1174460,0.0-17.0-3.9,8477,List2B,black,woman,,,,,"{""Q0"":""Mike is being hugged by Kate""}","<img src=""stim_listB/hug4.gif""style=""height:400px;""></stim_listB>",is being hugged by,,,,,,
null,"<div style=""font-size:60px;"">+</div>",,html-keyboard-response,266,1174964,0.0-17.0-0.10,8477,List2B,black,woman,,,,null,,,,,,,,,
null,"<img src=""stim_listB/look6.gif""style=""height:400px;""></stim_listB>",,html-keyboard-response,267,1176973,0.0-17.0-1.10,8477,List2B,black,woman,,,,null,,,,,,,,,
null,is being looked at by,,html-keyboard-response,268,1178975,0.0-17.0-2.10,8477,List2B,black,woman,,,,null,,,,,,,,,
8922.5,,,survey-text,269,1187901,0.0-17.0-3.10,8477,List2B,black,woman,,,,,"{""Q0"":""Dave is being looked at by Mike""}","<img src=""stim_listB/look6.gif""style=""height:400px;""></stim_listB>",is being looked at by,,,,,,
null,"<div style=""font-size:60px;"">+</div>",,html-keyboard-response,270,1188404,0.0-17.0-0.11,8477,List2B,black,woman,,,,null,,,,,,,,,
null,"<img src=""stim_listB/kiss3.gif""style=""height:400px;""></stim_listB>",,html-keyboard-response,271,1190411,0.0-17.0-1.11,8477,List2B,black,woman,,,,null,,,,,,,,,
null,is kissing,,html-keyboard-response,272,1192416,0.0-17.0-2.11,8477,List2B,black,woman,,,,null,,,,,,,,,
7196.1,,,survey-text,273,1199616,0.0-17.0-3.11,8477,List2B,black,woman,,,,,"{""Q0"":""Fred is kissing Beth""}","<img src=""stim_listB/kiss3.gif""style=""height:400px;""></stim_listB>",is kissing,,,,,,
null,"<div style=""font-size:60px;"">+</div>",,html-keyboard-response,274,1200120,0.0-17.0-0.12,8477,List2B,black,woman,,,,null,,,,,,,,,
null,"<img src=""stim_listB/shout7.gif""style=""height:400px;""></stim_listB>",,html-keyboard-response,275,1202128,0.0-17.0-1.12,8477,List2B,black,woman,,,,null,,,,,,,,,
null,is shouting at,,html-keyboard-response,276,1204134,0.0-17.0-2.12,8477,List2B,black,woman,,,,null,,,,,,,,,
9924.2,,,survey-text,277,1214062,0.0-17.0-3.12,8477,List2B,black,woman,,,,,"{""Q0"":""Ruth is shouting at Beth""}","<img src=""stim_listB/shout7.gif""style=""height:400px;""></stim_listB>",is shouting at,,,,,,
null,"<div style=""font-size:60px;"">+</div>",,html-keyboard-response,278,1214564,0.0-17.0-0.13,8477,List2B,black,woman,,,,null,,,,,,,,,
null,"<img src=""stim_listB/look2.gif""style=""height:400px;""></stim_listB>",,html-keyboard-response,279,1216570,0.0-17.0-1.13,8477,List2B,black,woman,,,,null,,,,,,,,,
null,is being looked at by,,html-keyboard-response,280,1218571,0.0-17.0-2.13,8477,List2B,black,woman,,,,null,,,,,,,,,
15304,,,survey-text,281,1233879,0.0-17.0-3.13,8477,List2B,black,woman,,,,,"{""Q0"":""Jane is being looked at by Dave""}","<img src=""stim_listB/look2.gif""style=""height:400px;""></stim_listB>",is being looked at by,,,,,,
null,"<div style=""font-size:60px;"">+</div>",,html-keyboard-response,282,1234383,0.0-17.0-0.14,8477,List2B,black,woman,,,,null,,,,,,,,,
null,"<img src=""stim_listB/hug8.gif""style=""height:400px;""></stim_listB>",,html-keyboard-response,283,1236312,0.0-17.0-1.14,8477,List2B,black,woman,,,,null,,,,,,,,,
null,is being hugged by,,html-keyboard-response,284,1238317,0.0-17.0-2.14,8477,List2B,black,woman,,,,null,,,,,,,,,
5560.2,,,survey-text,285,1243881,0.0-17.0-3.14,8477,List2B,black,woman,,,,,"{""Q0"":""Jane is being hugged by kate""}","<img src=""stim_listB/hug8.gif""style=""height:400px;""></stim_listB>",is being hugged by,,,,,,
null,"<div style=""font-size:60px;"">+</div>",,html-keyboard-response,286,1244385,0.0-17.0-0.15,8477,List2B,black,woman,,,,null,,,,,,,,,
null,"<img src=""stim_listB/hug2.gif""style=""height:400px;""></stim_listB>",,html-keyboard-response,287,1246388,0.0-17.0-1.15,8477,List2B,black,woman,,,,null,,,,,,,,,
null,is being hugged by,,html-keyboard-response,288,1248395,0.0-17.0-2.15,8477,List2B,black,woman,,,,null,,,,,,,,,
6930.9,,,survey-text,289,1255330,0.0-17.0-3.15,8477,List2B,black,woman,,,,,"{""Q0"":""Dave is being hugged by Jane""}","<img src=""stim_listB/hug2.gif""style=""height:400px;""></stim_listB>",is being hugged by,,,,,,
null,"<div style=""font-size:60px;"">+</div>",,html-keyboard-response,290,1255834,0.0-17.0-0.16,8477,List2B,black,woman,,,,null,,,,,,,,,
null,"<img src=""stim_listB/copy5.gif""style=""height:400px;""></stim_listB>",,html-keyboard-response,291,1257837,0.0-17.0-1.16,8477,List2B,black,woman,,,,null,,,,,,,,,
null,is copying,,html-keyboard-response,292,1259842,0.0-17.0-2.16,8477,List2B,black,woman,,,,null,,,,,,,,,
17522.2,,,survey-text,293,1277368,0.0-17.0-3.16,8477,List2B,black,woman,,,,,"{""Q0"":""Dave is copying Fred""}","<img src=""stim_listB/copy5.gif""style=""height:400px;""></stim_listB>",is copying,,,,,,
null,"<div style=""font-size:60px;"">+</div>",,html-keyboard-response,294,1277870,0.0-17.0-0.17,8477,List2B,black,woman,,,,null,,,,,,,,,
null,"<img src=""stim_listB/shout3.gif""style=""height:400px;""></stim_listB>",,html-keyboard-response,295,1279877,0.0-17.0-1.17,8477,List2B,black,woman,,,,null,,,,,,,,,
null,is shouting at,,html-keyboard-response,296,1281882,0.0-17.0-2.17,8477,List2B,black,woman,,,,null,,,,,,,,,
11124.3,,,survey-text,297,1293010,0.0-17.0-3.17,8477,List2B,black,woman,,,,,"{""Q0"":""Beth is Shouting at Fred""}","<img src=""stim_listB/shout3.gif""style=""height:400px;""></stim_listB>",is shouting at,,,,,,
null,"<div style=""font-size:60px;"">+</div>",,html-keyboard-response,298,1293514,0.0-17.0-0.18,8477,List2B,black,woman,,,,null,,,,,,,,,
null,"<img src=""stim_listB/look7.gif""style=""height:400px;""></stim_listB>",,html-keyboard-response,299,1295521,0.0-17.0-1.18,8477,List2B,black,woman,,,,null,,,,,,,,,
null,is looking at,,html-keyboard-response,300,1297527,0.0-17.0-2.18,8477,List2B,black,woman,,,,null,,,,,,,,,
17148.1,,,survey-text,301,1314679,0.0-17.0-3.18,8477,List2B,black,woman,,,,,"{""Q0"":""Beth is looking at Ruth""}","<img src=""stim_listB/look7.gif""style=""height:400px;""></stim_listB>",is looking at,,,,,,
null,"<div style=""font-size:60px;"">+</div>",,html-keyboard-response,302,1315183,0.0-17.0-0.19,8477,List2B,black,woman,,,,null,,,,,,,,,
null,"<img src=""stim_listB/seduce1.gif""style=""height:400px;""></stim_listB>",,html-keyboard-response,303,1317186,0.0-17.0-1.19,8477,List2B,black,woman,,,,null,,,,,,,,,
null,is seducing,,html-keyboard-response,304,1319191,0.0-17.0-2.19,8477,List2B,black,woman,,,,null,,,,,,,,,
7483.4,,,survey-text,305,1326678,0.0-17.0-3.19,8477,List2B,black,woman,,,,,"{""Q0"":""Jane is Seducing Luke""}","<img src=""stim_listB/seduce1.gif""style=""height:400px;""></stim_listB>",is seducing,,,,,,
17774.2,"<img src='img/portrait_matrix_list2.jpg' style='width:900px;height:500px;''></img><p>If you have memorised all the portraits and names and are ready to start, press Continue.</p><p><strong>Please note: Your memory of these faces will be tested 4 times during this experiment.</strong></p>",0,html-button-response,306,1344455,0.0-18.0-0.0,8477,List2B,black,woman,,,,,,,,,,,,,
2244.2,"<img src=""portrait/BW1.jpg""style=""height:400px;""></img>",0,html-button-response,307,1347706,0.0-18.0-1.0,8477,List2B,black,woman,,TRUE,0,,,,,,,,,,
null,CORRECT,,html-keyboard-response,308,1349218,0.0-18.0-2.0-0.0,8477,List2B,black,woman,,,,null,,,,,,,,,
2561.1,"<img src=""portrait/BM1.jpg""style=""height:400px;""></img>",4,html-button-response,309,1351782,0.0-18.0-4.0,8477,List2B,black,woman,,TRUE,4,,,,,,,,,,
null,CORRECT,,html-keyboard-response,310,1353291,0.0-18.0-5.0-0.0,8477,List2B,black,woman,,,,null,,,,,,,,,
1861.8,"<img src=""portrait/WM1.jpg""style=""height:400px;""></img>",6,html-button-response,311,1355156,0.0-18.0-7.0,8477,List2B,black,woman,,TRUE,6,,,,,,,,,,
null,CORRECT,,html-keyboard-response,312,1356662,0.0-18.0-8.0-0.0,8477,List2B,black,woman,,,,null,,,,,,,,,
2364.5,"<img src=""portrait/BW2.jpg""style=""height:400px;""></img>",2,html-button-response,313,1359030,0.0-18.0-10.0,8477,List2B,black,woman,,TRUE,2,,,,,,,,,,
null,CORRECT,,html-keyboard-response,314,1360542,0.0-18.0-11.0-0.0,8477,List2B,black,woman,,,,null,,,,,,,,,
1800.5,"<img src=""portrait/BM2.jpg""style=""height:400px;""></img>",5,html-button-response,315,1362345,0.0-18.0-13.0,8477,List2B,black,woman,,TRUE,5,,,,,,,,,,
null,CORRECT,,html-keyboard-response,316,1363851,0.0-18.0-14.0-0.0,8477,List2B,black,woman,,,,null,,,,,,,,,
1532.2,"<img src=""portrait/WW2.jpg""style=""height:400px;""></img>",3,html-button-response,317,1365385,0.0-18.0-16.0,8477,List2B,black,woman,,TRUE,3,,,,,,,,,,
null,CORRECT,,html-keyboard-response,318,1366891,0.0-18.0-17.0-0.0,8477,List2B,black,woman,,,,null,,,,,,,,,
2235.3,"<img src=""portrait/WW1.jpg""style=""height:400px;""></img>",1,html-button-response,319,1369129,0.0-18.0-19.0,8477,List2B,black,woman,,TRUE,1,,,,,,,,,,
null,CORRECT,,html-keyboard-response,320,1370641,0.0-18.0-20.0-0.0,8477,List2B,black,woman,,,,null,,,,,,,,,
1889.1,"<img src=""portrait/WM2.jpg""style=""height:400px;""></img>",7,html-button-response,321,1372533,0.0-18.0-22.0,8477,List2B,black,woman,,TRUE,7,,,,,,,,,,
null,CORRECT,,html-keyboard-response,322,1374043,0.0-18.0-23.0-0.0,8477,List2B,black,woman,,,,null,,,,,,,,,
1837.4,<p>You got 8 out of 8 right first time. Press Continue.</p>,0,html-button-response,323,1375884,0.0-18.0-25.0,8477,List2B,black,woman,,,,,,,,,,,,,
null,"<div style=""font-size:60px;"">+</div>",,html-keyboard-response,324,1377395,0.0-19.0-0.0,8477,List2B,black,woman,,,,null,,,,,,,,,
null,"<img src=""stim_listB/seduce7.gif""style=""height:400px;""></stim_listB>",,html-keyboard-response,325,1379401,0.0-19.0-1.0,8477,List2B,black,woman,,,,null,,,,,,,,,
null,is seducing,,html-keyboard-response,326,1381408,0.0-19.0-2.0,8477,List2B,black,woman,,,,null,,,,,,,,,
6619.7,,,survey-text,327,1388031,0.0-19.0-3.0,8477,List2B,black,woman,,,,,"{""Q0"":""Kate is seducing Ruth""}","<img src=""stim_listB/seduce7.gif""style=""height:400px;""></stim_listB>",is seducing,,,,,,
null,"<div style=""font-size:60px;"">+</div>",,html-keyboard-response,328,1388533,0.0-19.0-0.1,8477,List2B,black,woman,,,,null,,,,,,,,,
null,"<img src=""stim_listB/shout2.gif""style=""height:400px;""></stim_listB>",,html-keyboard-response,329,1390540,0.0-19.0-1.1,8477,List2B,black,woman,,,,null,,,,,,,,,
null,is being shouted at by,,html-keyboard-response,330,1392541,0.0-19.0-2.1,8477,List2B,black,woman,,,,null,,,,,,,,,
6997,,,survey-text,331,1399542,0.0-19.0-3.1,8477,List2B,black,woman,,,,,"{""Q0"":""Jane is being shouted at by Dave""}","<img src=""stim_listB/shout2.gif""style=""height:400px;""></stim_listB>",is being shouted at by,,,,,,
null,"<div style=""font-size:60px;"">+</div>",,html-keyboard-response,332,1400046,0.0-19.0-0.2,8477,List2B,black,woman,,,,null,,,,,,,,,
null,"<img src=""stim_listB/oppose1.gif""style=""height:400px;""></stim_listB>",,html-keyboard-response,333,1402049,0.0-19.0-1.2,8477,List2B,black,woman,,,,null,,,,,,,,,
null,is opposing,,html-keyboard-response,334,1404056,0.0-19.0-2.2,8477,List2B,black,woman,,,,null,,,,,,,,,
6787.1,,,survey-text,335,1410846,0.0-19.0-3.2,8477,List2B,black,woman,,,,,"{""Q0"":""Jane is opposing Dave""}","<img src=""stim_listB/oppose1.gif""style=""height:400px;""></stim_listB>",is opposing,,,,,,
null,"<div style=""font-size:60px;"">+</div>",,html-keyboard-response,336,1411348,0.0-19.0-0.3,8477,List2B,black,woman,,,,null,,,,,,,,,
null,"<img src=""stim_listB/seduce4.gif""style=""height:400px;""></stim_listB>",,html-keyboard-response,337,1413355,0.0-19.0-1.3,8477,List2B,black,woman,,,,null,,,,,,,,,
null,is being seduced by,,html-keyboard-response,338,1415358,0.0-19.0-2.3,8477,List2B,black,woman,,,,null,,,,,,,,,
9186,,,survey-text,339,1424548,0.0-19.0-3.3,8477,List2B,black,woman,,,,,"{""Q0"":""Beth is being seduced by Mike""}","<img src=""stim_listB/seduce4.gif""style=""height:400px;""></stim_listB>",is being seduced by,,,,,,
null,"<div style=""font-size:60px;"">+</div>",,html-keyboard-response,340,1425052,0.0-19.0-0.4,8477,List2B,black,woman,,,,null,,,,,,,,,
null,"<img src=""stim_listB/kiss2.gif""style=""height:400px;""></stim_listB>",,html-keyboard-response,341,1427059,0.0-19.0-1.4,8477,List2B,black,woman,,,,null,,,,,,,,,
null,is being kissed by,,html-keyboard-response,342,1429065,0.0-19.0-2.4,8477,List2B,black,woman,,,,null,,,,,,,,,
6908.1,,,survey-text,343,1435977,0.0-19.0-3.4,8477,List2B,black,woman,,,,,"{""Q0"":""Jane is being kissed by Dave""}","<img src=""stim_listB/kiss2.gif""style=""height:400px;""></stim_listB>",is being kissed by,,,,,,
null,"<div style=""font-size:60px;"">+</div>",,html-keyboard-response,344,1436479,0.0-19.0-0.5,8477,List2B,black,woman,,,,null,,,,,,,,,
null,"<img src=""stim_listB/greet2.gif""style=""height:400px;""></stim_listB>",,html-keyboard-response,345,1438486,0.0-19.0-1.5,8477,List2B,black,woman,,,,null,,,,,,,,,
null,is being greeted by,,html-keyboard-response,346,1440488,0.0-19.0-2.5,8477,List2B,black,woman,,,,null,,,,,,,,,
5719.8,,,survey-text,347,1446212,0.0-19.0-3.5,8477,List2B,black,woman,,,,,"{""Q0"":""Luke is being greeted by Jane""}","<img src=""stim_listB/greet2.gif""style=""height:400px;""></stim_listB>",is being greeted by,,,,,,
null,"<div style=""font-size:60px;"">+</div>",,html-keyboard-response,348,1446713,0.0-19.0-0.6,8477,List2B,black,woman,,,,null,,,,,,,,,
null,"<img src=""stim_listB/oppose7.gif""style=""height:400px;""></stim_listB>",,html-keyboard-response,349,1448721,0.0-19.0-1.6,8477,List2B,black,woman,,,,null,,,,,,,,,
null,is opposing,,html-keyboard-response,350,1450728,0.0-19.0-2.6,8477,List2B,black,woman,,,,null,,,,,,,,,
5094.8,,,survey-text,351,1455826,0.0-19.0-3.6,8477,List2B,black,woman,,,,,"{""Q0"":""Jane is opposing Kate""}","<img src=""stim_listB/oppose7.gif""style=""height:400px;""></stim_listB>",is opposing,,,,,,
null,"<div style=""font-size:60px;"">+</div>",,html-keyboard-response,352,1456329,0.0-19.0-0.7,8477,List2B,black,woman,,,,null,,,,,,,,,
null,"<img src=""stim_listB/hug5.gif""style=""height:400px;""></stim_listB>",,html-keyboard-response,353,1458337,0.0-19.0-1.7,8477,List2B,black,woman,,,,null,,,,,,,,,
null,is hugging,,html-keyboard-response,354,1460343,0.0-19.0-2.7,8477,List2B,black,woman,,,,null,,,,,,,,,
5991.9,,,survey-text,355,1466339,0.0-19.0-3.7,8477,List2B,black,woman,,,,,"{""Q0"":""Luke is hugging Fred""}","<img src=""stim_listB/hug5.gif""style=""height:400px;""></stim_listB>",is hugging,,,,,,
null,"<div style=""font-size:60px;"">+</div>",,html-keyboard-response,356,1466844,0.0-19.0-0.8,8477,List2B,black,woman,,,,null,,,,,,,,,
null,"<img src=""stim_listB/seduce5.gif""style=""height:400px;""></stim_listB>",,html-keyboard-response,357,1468852,0.0-19.0-1.8,8477,List2B,black,woman,,,,null,,,,,,,,,
null,is seducing,,html-keyboard-response,358,1470858,0.0-19.0-2.8,8477,List2B,black,woman,,,,null,,,,,,,,,
4277.9,,,survey-text,359,1475140,0.0-19.0-3.8,8477,List2B,black,woman,,,,,"{""Q0"":""Luke is seducing Mike""}","<img src=""stim_listB/seduce5.gif""style=""height:400px;""></stim_listB>",is seducing,,,,,,
null,"<div style=""font-size:60px;"">+</div>",,html-keyboard-response,360,1475643,0.0-19.0-0.9,8477,List2B,black,woman,,,,null,,,,,,,,,
null,"<img src=""stim_listB/seduce3.gif""style=""height:400px;""></stim_listB>",,html-keyboard-response,361,1477651,0.0-19.0-1.9,8477,List2B,black,woman,,,,null,,,,,,,,,
null,is seducing,,html-keyboard-response,362,1479657,0.0-19.0-2.9,8477,List2B,black,woman,,,,null,,,,,,,,,
6068.3,,,survey-text,363,1485729,0.0-19.0-3.9,8477,List2B,black,woman,,,,,"{""Q0"":""Kate is seducing Fred""}","<img src=""stim_listB/seduce3.gif""style=""height:400px;""></stim_listB>",is seducing,,,,,,
null,"<div style=""font-size:60px;"">+</div>",,html-keyboard-response,364,1486231,0.0-19.0-0.10,8477,List2B,black,woman,,,,null,,,,,,,,,
null,"<img src=""stim_listB/oppose2.gif""style=""height:400px;""></stim_listB>",,html-keyboard-response,365,1488239,0.0-19.0-1.10,8477,List2B,black,woman,,,,null,,,,,,,,,
null,is being opposed by,,html-keyboard-response,366,1490246,0.0-19.0-2.10,8477,List2B,black,woman,,,,null,,,,,,,,,
9028.2,,,survey-text,367,1499278,0.0-19.0-3.10,8477,List2B,black,woman,,,,,"{""Q0"":""Luke is being opposed by Ruth""}","<img src=""stim_listB/oppose2.gif""style=""height:400px;""></stim_listB>",is being opposed by,,,,,,
null,"<div style=""font-size:60px;"">+</div>",,html-keyboard-response,368,1499782,0.0-19.0-0.11,8477,List2B,black,woman,,,,null,,,,,,,,,
null,"<img src=""stim_listB/touch3.gif""style=""height:400px;""></stim_listB>",,html-keyboard-response,369,1501785,0.0-19.0-1.11,8477,List2B,black,woman,,,,null,,,,,,,,,
null,is touching,,html-keyboard-response,370,1503790,0.0-19.0-2.11,8477,List2B,black,woman,,,,null,,,,,,,,,
5544.3,,,survey-text,371,1509338,0.0-19.0-3.11,8477,List2B,black,woman,,,,,"{""Q0"":""Kate is touching Mike""}","<img src=""stim_listB/touch3.gif""style=""height:400px;""></stim_listB>",is touching,,,,,,
null,"<div style=""font-size:60px;"">+</div>",,html-keyboard-response,372,1509842,0.0-19.0-0.12,8477,List2B,black,woman,,,,null,,,,,,,,,
null,"<img src=""stim_listB/hug3.gif""style=""height:400px;""></stim_listB>",,html-keyboard-response,373,1511845,0.0-19.0-1.12,8477,List2B,black,woman,,,,null,,,,,,,,,
null,is hugging,,html-keyboard-response,374,1513852,0.0-19.0-2.12,8477,List2B,black,woman,,,,null,,,,,,,,,
11030.9,,,survey-text,375,1524887,0.0-19.0-3.12,8477,List2B,black,woman,,,,,"{""Q0"":""Fred is hugging Beth""}","<img src=""stim_listB/hug3.gif""style=""height:400px;""></stim_listB>",is hugging,,,,,,
null,"<div style=""font-size:60px;"">+</div>",,html-keyboard-response,376,1525391,0.0-19.0-0.13,8477,List2B,black,woman,,,,null,,,,,,,,,
null,"<img src=""stim_listB/touch4.gif""style=""height:400px;""></stim_listB>",,html-keyboard-response,377,1527398,0.0-19.0-1.13,8477,List2B,black,woman,,,,null,,,,,,,,,
null,is being touched by,,html-keyboard-response,378,1529402,0.0-19.0-2.13,8477,List2B,black,woman,,,,null,,,,,,,,,
4631.3,,,survey-text,379,1534037,0.0-19.0-3.13,8477,List2B,black,woman,,,,,"{""Q0"":""Beth is being touched by Fred""}","<img src=""stim_listB/touch4.gif""style=""height:400px;""></stim_listB>",is being touched by,,,,,,
null,"<div style=""font-size:60px;"">+</div>",,html-keyboard-response,380,1534542,0.0-19.0-0.14,8477,List2B,black,woman,,,,null,,,,,,,,,
null,"<img src=""stim_listB/oppose5.gif""style=""height:400px;""></stim_listB>",,html-keyboard-response,381,1536550,0.0-19.0-1.14,8477,List2B,black,woman,,,,null,,,,,,,,,
null,is opposing,,html-keyboard-response,382,1538557,0.0-19.0-2.14,8477,List2B,black,woman,,,,null,,,,,,,,,
6343.6,,,survey-text,383,1544905,0.0-19.0-3.14,8477,List2B,black,woman,,,,,"{""Q0"":""Dave is opposing Mike.""}","<img src=""stim_listB/oppose5.gif""style=""height:400px;""></stim_listB>",is opposing,,,,,,
null,"<div style=""font-size:60px;"">+</div>",,html-keyboard-response,384,1545407,0.0-19.0-0.15,8477,List2B,black,woman,,,,null,,,,,,,,,
null,"<img src=""stim_listB/copy8.gif""style=""height:400px;""></stim_listB>",,html-keyboard-response,385,1547415,0.0-19.0-1.15,8477,List2B,black,woman,,,,null,,,,,,,,,
null,is being copied by,,html-keyboard-response,386,1549420,0.0-19.0-2.15,8477,List2B,black,woman,,,,null,,,,,,,,,
12498.7,,,survey-text,387,1561923,0.0-19.0-3.15,8477,List2B,black,woman,,,,,"{""Q0"":""Kate is being copied by Ruth""}","<img src=""stim_listB/copy8.gif""style=""height:400px;""></stim_listB>",is being copied by,,,,,,
null,"<div style=""font-size:60px;"">+</div>",,html-keyboard-response,388,1562424,0.0-19.0-0.16,8477,List2B,black,woman,,,,null,,,,,,,,,
null,"<img src=""stim_listB/hug6.gif""style=""height:400px;""></stim_listB>",,html-keyboard-response,389,1564431,0.0-19.0-1.16,8477,List2B,black,woman,,,,null,,,,,,,,,
null,is being hugged by,,html-keyboard-response,390,1566437,0.0-19.0-2.16,8477,List2B,black,woman,,,,null,,,,,,,,,
18625.1,,,survey-text,391,1585067,0.0-19.0-3.16,8477,List2B,black,woman,,,,,"{""Q0"":""Mike is being hugged by Dave""}","<img src=""stim_listB/hug6.gif""style=""height:400px;""></stim_listB>",is being hugged by,,,,,,
null,"<div style=""font-size:60px;"">+</div>",,html-keyboard-response,392,1585572,0.0-19.0-0.17,8477,List2B,black,woman,,,,null,,,,,,,,,
null,"<img src=""stim_listB/greet8.gif""style=""height:400px;""></stim_listB>",,html-keyboard-response,393,1587579,0.0-19.0-1.17,8477,List2B,black,woman,,,,null,,,,,,,,,
null,is being greeted by,,html-keyboard-response,394,1589585,0.0-19.0-2.17,8477,List2B,black,woman,,,,null,,,,,,,,,
11459.9,,,survey-text,395,1601049,0.0-19.0-3.17,8477,List2B,black,woman,,,,,"{""Q0"":""Ruth is being greeted by Kate""}","<img src=""stim_listB/greet8.gif""style=""height:400px;""></stim_listB>",is being greeted by,,,,,,
null,"<div style=""font-size:60px;"">+</div>",,html-keyboard-response,396,1601553,0.0-19.0-0.18,8477,List2B,black,woman,,,,null,,,,,,,,,
null,"<img src=""stim_listB/oppose8.gif""style=""height:400px;""></stim_listB>",,html-keyboard-response,397,1603561,0.0-19.0-1.18,8477,List2B,black,woman,,,,null,,,,,,,,,
null,is being opposed by,,html-keyboard-response,398,1605564,0.0-19.0-2.18,8477,List2B,black,woman,,,,null,,,,,,,,,
5843.7,,,survey-text,399,1611412,0.0-19.0-3.18,8477,List2B,black,woman,,,,,"{""Q0"":""Beth is being opposed by ruth""}","<img src=""stim_listB/oppose8.gif""style=""height:400px;""></stim_listB>",is being opposed by,,,,,,
null,"<div style=""font-size:60px;"">+</div>",,html-keyboard-response,400,1611917,0.0-19.0-0.19,8477,List2B,black,woman,,,,null,,,,,,,,,
null,"<img src=""stim_listB/copy2.gif""style=""height:400px;""></stim_listB>",,html-keyboard-response,401,1613920,0.0-19.0-1.19,8477,List2B,black,woman,,,,null,,,,,,,,,
null,is being copied by,,html-keyboard-response,402,1615927,0.0-19.0-2.19,8477,List2B,black,woman,,,,null,,,,,,,,,
13049.2,,,survey-text,403,1628982,0.0-19.0-3.19,8477,List2B,black,woman,,,,,"{""Q0"":""Jane is being opposed by luke""}","<img src=""stim_listB/copy2.gif""style=""height:400px;""></stim_listB>",is being copied by,,,,,,
5166.1,<p>Thank you for completing that task.</p><p>The final part of this session is a questionnaire that will take about 4 minutes.</p><p>Press Continue.</p>,0,html-button-response,404,1634149,0.0-20.0,8477,List2B,black,woman,,,,,,,,,,,,,
36755.6,,,survey-text,405,1671914,0.0-21.0,8477,List2B,black,woman,,,,,"{""Q0"":""27"",""Q1"":""english"",""Q2"":""english"",""Q3"":""United States"",""Q4"":""American"",""Q5"":""Black"",""Q6"":""Female""}",,,demographics,,,,,
5213.5,<p>Have you lived in the USA for the last 5 years or more?</p>,0,html-button-response,406,1677131,0.0-22.0,8477,List2B,black,woman,,,,,,,,fiveyears,,,,,
5342.3,<p>Move the slider to show the extent to which you agree with the following statements.</p>,0,html-button-response,407,1683478,0.0-23.0,8477,List2B,black,woman,,,,,,,,,,,,,
4876.6,,,html-slider-response,408,1689363,0.0-24.0-0.0-0.0,8477,List2B,black,woman,,,,,,,,survey_race,100,,,I am glad to be my race.,glad
8933.5,,,html-slider-response,409,1698300,0.0-24.0-0.0-0.1,8477,List2B,black,woman,,,,,,,,survey_race,87,,,I often think about the fact that I am my race.,often
12673.4,,,html-slider-response,410,1710976,0.0-24.0-0.0-0.2,8477,List2B,black,woman,,,,,,,,survey_race,26,,,My age is not an important part of who I am.,filler
10602.5,,,html-slider-response,411,1721582,0.0-24.0-0.0-0.3,8477,List2B,black,woman,,,,,,,,survey_race,67,,,I often think about the fact that I am my age.,filler
4869.6,,,html-slider-response,412,1726455,0.0-24.0-0.0-0.4,8477,List2B,black,woman,,,,,,,,survey_race,65,,,I feel solidarity with people the same age as me.,filler
8704.9,,,html-slider-response,413,1735163,0.0-24.0-0.0-0.5,8477,List2B,black,woman,,,,,,,,survey_race,96,,,I am glad to be the age I am.,filler
6829.6,,,html-slider-response,414,1741996,0.0-24.0-0.0-0.6,8477,List2B,black,woman,,,,,,,,survey_race,28,,,I have a lot in common with the average person of my race.,average
4605.5,,,html-slider-response,415,1746604,0.0-24.0-0.0-0.7,8477,List2B,black,woman,,,,,,,,survey_race,100,,,Being my age gives me a good feeling.,filler
5750.8,,,html-slider-response,416,1752358,0.0-24.0-0.0-0.8,8477,List2B,black,woman,,,,,,,,survey_race,63,,,I consider myself an extrovert.,filler
8211,,,html-slider-response,417,1760572,0.0-24.0-0.0-0.9,8477,List2B,black,woman,,,,,,,,survey_race,62,,,People of my race have a lot in common with each other.,common
4799.7,,,html-slider-response,418,1765375,0.0-24.0-0.0-0.10,8477,List2B,black,woman,,,,,,,,survey_race,100,,,I think that my race has a lot to be proud of.,proud
3514.6,,,html-slider-response,419,1768892,0.0-24.0-0.0-0.11,8477,List2B,black,woman,,,,,,,,survey_race,100,,,I feel committed to my race.,committed
7612.3,,,html-slider-response,420,1776507,0.0-24.0-0.0-0.12,8477,List2B,black,woman,,,,,,,,survey_race,61,,,People of my race are very similar to each other.,verysimilar
9248.1,,,html-slider-response,421,1785759,0.0-24.0-0.0-0.13,8477,List2B,black,woman,,,,,,,,survey_race,50,,,I feel a bond with people the same age as me.,filler
6241.2,,,html-slider-response,422,1792003,0.0-24.0-0.0-0.14,8477,List2B,black,woman,,,,,,,,survey_race,35,,,Getting older does not worry me.,filler
9759.9,,,html-slider-response,423,1801766,0.0-24.0-0.0-0.15,8477,List2B,black,woman,,,,,,,,survey_race,36,,,I have a lot in common with people of a similar age to me.,filler
2925.9,,,html-slider-response,424,1804695,0.0-24.0-0.0-0.16,8477,List2B,black,woman,,,,,,,,survey_race,100,,,I am glad to be my age.,filler
4906.3,,,html-slider-response,425,1809604,0.0-24.0-0.0-0.17,8477,List2B,black,woman,,,,,,,,survey_race,55,,,I consider myself an introvert.,filler
5027.2,,,html-slider-response,426,1814634,0.0-24.0-0.0-0.18,8477,List2B,black,woman,,,,,,,,survey_race,100,,,Being my race gives me a good feeling.,feeling
4775,,,html-slider-response,427,1819413,0.0-24.0-0.0-0.19,8477,List2B,black,woman,,,,,,,,survey_race,59,,,People my age have a lot in common with each other.,filler
3371.4,,,html-slider-response,428,1822787,0.0-24.0-0.0-0.20,8477,List2B,black,woman,,,,,,,,survey_race,100,,,I feel a bond with my race.,bond
4472.1,,,html-slider-response,429,1827262,0.0-24.0-0.0-0.21,8477,List2B,black,woman,,,,,,,,survey_race,100,,,Being my race is an important part of how I see myself.,important
8265.3,,,html-slider-response,430,1835530,0.0-24.0-0.0-0.22,8477,List2B,black,woman,,,,,,,,survey_race,51,,,It is pleasant to be my race.,pleasant
6936.3,,,html-slider-response,431,1842470,0.0-24.0-0.0-0.23,8477,List2B,black,woman,,,,,,,,survey_race,13,,,I enjoy being in large groups.,filler
6665.6,,,html-slider-response,432,1849139,0.0-24.0-0.0-0.24,8477,List2B,black,woman,,,,,,,,survey_race,100,,,The fact that I am my race is an important part of my identity.,identity
3214.4,,,html-slider-response,433,1852356,0.0-24.0-0.0-0.25,8477,List2B,black,woman,,,,,,,,survey_race,100,,,"The older I get, the wiser I feel.",filler
9477.8,,,html-slider-response,434,1861838,0.0-24.0-0.0-0.26,8477,List2B,black,woman,,,,,,,,survey_race,38,,,I am similar to the average person of my race.,similar
3232.7,,,html-slider-response,435,1865074,0.0-24.0-0.0-0.27,8477,List2B,black,woman,,,,,,,,survey_race,100,,,I feel solidarity with my race.,solidarity
3484.1,,,html-slider-response,436,1868561,0.0-24.0-1.0-0.0,8477,List2B,black,woman,,,,,,,,survey_gender,100,,,My friends understand me.,filler
4799.8,,,html-slider-response,437,1873364,0.0-24.0-1.0-0.1,8477,List2B,black,woman,,,,,,,,survey_gender,74,,,Most of the friends in my life are very similar to me.,filler
4413.8,,,html-slider-response,438,1877780,0.0-24.0-1.0-0.2,8477,List2B,black,woman,,,,,,,,survey_gender,77,,,I consider myself a highly empathetic person.,filler
8464.2,,,html-slider-response,439,1886247,0.0-24.0-1.0-0.3,8477,List2B,black,woman,,,,,,,,survey_gender,24,,,I often think about the fact that I am my gender.,often
11337,,,html-slider-response,440,1897586,0.0-24.0-1.0-0.4,8477,List2B,black,woman,,,,,,,,survey_gender,100,,,The fact that I am my gender is an important part of my identity.,identity
4025.9,,,html-slider-response,441,1901615,0.0-24.0-1.0-0.5,8477,List2B,black,woman,,,,,,,,survey_gender,34,,,I feel solidarity with my gender.,solidarity
3298.9,,,html-slider-response,442,1904917,0.0-24.0-1.0-0.6,8477,List2B,black,woman,,,,,,,,survey_gender,100,,,I think that my gender has a lot to be proud of.,proud
2848.4,,,html-slider-response,443,1907768,0.0-24.0-1.0-0.7,8477,List2B,black,woman,,,,,,,,survey_gender,100,,,I am glad to be my gender.,glad
6657.5,,,html-slider-response,444,1914428,0.0-24.0-1.0-0.8,8477,List2B,black,woman,,,,,,,,survey_gender,86,,,Being my gender is an important part of how I see myself.,important
5422,,,html-slider-response,445,1919853,0.0-24.0-1.0-0.9,8477,List2B,black,woman,,,,,,,,survey_gender,100,,,My friends have a lot in common with each other.,filler
6068.4,,,html-slider-response,446,1925925,0.0-24.0-1.0-0.10,8477,List2B,black,woman,,,,,,,,survey_gender,45,,,I often think about my actions.,filler
4981.9,,,html-slider-response,447,1930910,0.0-24.0-1.0-0.11,8477,List2B,black,woman,,,,,,,,survey_gender,32,,,I have a lot in common with my friends.,filler
6359.9,,,html-slider-response,448,1937273,0.0-24.0-1.0-0.12,8477,List2B,black,woman,,,,,,,,survey_gender,51,,,I feel committed to my gender.,committed
5036.7,,,html-slider-response,449,1942312,0.0-24.0-1.0-0.13,8477,List2B,black,woman,,,,,,,,survey_gender,85,,,I am similar to the average person of my gender.,similar
3178.5,,,html-slider-response,450,1945494,0.0-24.0-1.0-0.14,8477,List2B,black,woman,,,,,,,,survey_gender,38,,,I feel a bond with my gender.,bond
3212.2,,,html-slider-response,451,1948708,0.0-24.0-1.0-0.15,8477,List2B,black,woman,,,,,,,,survey_gender,100,,,I feel a bond with my friends.,filler
6690.1,,,html-slider-response,452,1955402,0.0-24.0-1.0-0.16,8477,List2B,black,woman,,,,,,,,survey_gender,68,,,I have a lot in common with the average person of my gender.,average
3863.1,,,html-slider-response,453,1959268,0.0-24.0-1.0-0.17,8477,List2B,black,woman,,,,,,,,survey_gender,100,,,I feel solidarity with my friends.,filler
6887.9,,,html-slider-response,454,1966159,0.0-24.0-1.0-0.18,8477,List2B,black,woman,,,,,,,,survey_gender,83,,,It is not always easy for people to know what I am thinking.,filler
4170.7,,,html-slider-response,455,1970333,0.0-24.0-1.0-0.19,8477,List2B,black,woman,,,,,,,,survey_gender,39,,,People of my gender are very similar to each other.,verysimilar
8472.2,,,html-slider-response,456,1978808,0.0-24.0-1.0-0.20,8477,List2B,black,woman,,,,,,,,survey_gender,40,,,Family is not more important to me than friendship.,filler
4508.3,,,html-slider-response,457,1983320,0.0-24.0-1.0-0.21,8477,List2B,black,woman,,,,,,,,survey_gender,100,,,Being around my friends gives me a good feeling.,filler
3217.8,,,html-slider-response,458,1986541,0.0-24.0-1.0-0.22,8477,List2B,black,woman,,,,,,,,survey_gender,100,,,Being my gender gives me a good feeling.,feeling
3959.2,,,html-slider-response,459,1990502,0.0-24.0-1.0-0.23,8477,List2B,black,woman,,,,,,,,survey_gender,100,,,I would say I am an animal person.,filler
4323.1,,,html-slider-response,460,1994829,0.0-24.0-1.0-0.24,8477,List2B,black,woman,,,,,,,,survey_gender,16,,,Routine is not important to me.,filler
3738.4,,,html-slider-response,461,1998571,0.0-24.0-1.0-0.25,8477,List2B,black,woman,,,,,,,,survey_gender,31,,,People of my gender have a lot in common with each other.,common
5576.9,,,html-slider-response,462,2004150,0.0-24.0-1.0-0.26,8477,List2B,black,woman,,,,,,,,survey_gender,63,,,It is pleasant to be my gender.,pleasant
3678,,,html-slider-response,463,2007831,0.0-24.0-1.0-0.27,8477,List2B,black,woman,,,,,,,,survey_gender,100,,,I am glad to have the friends that I have.,filler
4255.6,,,survey-text,464,2012091,0.0-25.0,8477,List2B,black,woman,,,,,"{""Q0"":""ccc""}",,,worker_id,,,,,
4113,,,external-html,465,2016459,0.0-26.0,8477,List2B,black,woman,debrief.html,,,,,,,,,,,,
