"rt","stimulus","button_pressed","trial_type","trial_index","time_elapsed","internal_node_id","subject","list","ppt_race","ppt_gender","url","first_guess","correct","key_press","responses","image_type","phrase_type","test_part","response","stimulus1","stimulus2","question_type","survey_item"
"1428","Welcome to the experiment. Press Continue to begin.","0","html-button-response","0","1433","0.0-0.0","84826","List2B","black","man","","","","","","","","","","","","",""
"28630.599999904633","","","external-html","1","31209","0.0-1.0","84826","List2B","black","man","consent.html","","","","","","","","","","","",""
"9247.900000095367","<p>On the next page, you will see portraits of 8 people and their names.</p><p>Your first task is to take a few minutes to memorise the names of these people.</p><p>You will have to recall their names during the rest of the experiment, so it is</p><p>essential that you try to memorise these people and their names as best as you can.</p><br><p><strong>You will then be tested on your memory of these names and portraits.</strong></p><br><p>The experiment will start after you have completed this memory test.</p><br><p>Ready?</p>","0","html-button-response","2","40462","0.0-2.0","84826","List2B","black","man","","","","","","","","","","","","",""
"20246.5","<img src='img/portrait_matrix_list2.jpg' style='width:900px;height:500px;''></img><p>If you have memorised all the portraits and names and are ready to start, press Continue.</p><p><strong>Please note: Your memory of these faces will be tested 4 times during this experiment.</strong></p>","0","html-button-response","3","61719","0.0-3.0-0.0","84826","List2B","black","man","","","","","","","","","","","","",""
"6444.799999713898","<img src=""portrait/WW2.jpg""style=""height:400px;""></img>","3","html-button-response","4","69178","0.0-3.0-1.0","84826","List2B","black","man","","true","3","","","","","","","","","",""
"null","CORRECT","","html-keyboard-response","5","70709","0.0-3.0-2.0-0.0","84826","List2B","black","man","","","","null","","","","","","","","",""
"7993.699999809265","<img src=""portrait/WM1.jpg""style=""height:400px;""></img>","6","html-button-response","6","78707","0.0-3.0-4.0","84826","List2B","black","man","","true","6","","","","","","","","","",""
"null","CORRECT","","html-keyboard-response","7","80223","0.0-3.0-5.0-0.0","84826","List2B","black","man","","","","null","","","","","","","","",""
"8576","<img src=""portrait/WM2.jpg""style=""height:400px;""></img>","7","html-button-response","8","88805","0.0-3.0-7.0","84826","List2B","black","man","","true","7","","","","","","","","","",""
"null","CORRECT","","html-keyboard-response","9","90311","0.0-3.0-8.0-0.0","84826","List2B","black","man","","","","null","","","","","","","","",""
"8578.699999809265","<img src=""portrait/BW1.jpg""style=""height:400px;""></img>","0","html-button-response","10","98893","0.0-3.0-10.0","84826","List2B","black","man","","true","0","","","","","","","","","",""
"null","CORRECT","","html-keyboard-response","11","100404","0.0-3.0-11.0-0.0","84826","List2B","black","man","","","","null","","","","","","","","",""
"6554.199999809265","<img src=""portrait/BM1.jpg""style=""height:400px;""></img>","4","html-button-response","12","106962","0.0-3.0-13.0","84826","List2B","black","man","","true","4","","","","","","","","","",""
"null","CORRECT","","html-keyboard-response","13","108479","0.0-3.0-14.0-0.0","84826","List2B","black","man","","","","null","","","","","","","","",""
"3876.699999809265","<img src=""portrait/BM2.jpg""style=""height:400px;""></img>","5","html-button-response","14","112359","0.0-3.0-16.0","84826","List2B","black","man","","true","5","","","","","","","","","",""
"null","CORRECT","","html-keyboard-response","15","113886","0.0-3.0-17.0-0.0","84826","List2B","black","man","","","","null","","","","","","","","",""
"5662.599999904633","<img src=""portrait/WW1.jpg""style=""height:400px;""></img>","1","html-button-response","16","119553","0.0-3.0-19.0","84826","List2B","black","man","","true","1","","","","","","","","","",""
"null","CORRECT","","html-keyboard-response","17","121072","0.0-3.0-20.0-0.0","84826","List2B","black","man","","","","null","","","","","","","","",""
"2862.7999997138977","<img src=""portrait/BW2.jpg""style=""height:400px;""></img>","2","html-button-response","18","123938","0.0-3.0-22.0","84826","List2B","black","man","","true","2","","","","","","","","","",""
"null","CORRECT","","html-keyboard-response","19","125463","0.0-3.0-23.0-0.0","84826","List2B","black","man","","","","null","","","","","","","","",""
"2276.0999999046326","<p>You got 8 out of 8 right first time. Press Continue.</p>","0","html-button-response","20","127743","0.0-3.0-25.0","84826","List2B","black","man","","","","","","","","","","","","",""
"22594","<p>In this experiment, you will view photographs of the people from the memory game interacting.</p><p>By using the <strong>exact</strong> phrase given <i>after</i> the photograph appears and recalling the correct names of the people in the photographs, form a sentence describing the interaction. You do not need to capitalise names.</p><p>Type your answer in the space provided. Please complete every sentence before moving onto the next trial.</p><p>You will only have a few seconds to memorise each given photograph and phrase before you can respond, so try your best to focus.</p><p>An example is given below. Press 'Continue' when you are ready.</p><img src='img/speaking_example.jpg' style='width:800px;height:460px;''></img>","0","html-button-response","21","151352","0.0-4.0","84826","List2B","black","man","","","","","","","","","","","","",""
"2350.7999997138977","<p>Before the experiment starts, you will watch two example trials. Press 'Continue'.</p>","0","html-button-response","22","154708","0.0-5.0","84826","List2B","black","man","","","","","","","","","","","","",""
"null","<img src='img/play_eg.gif' style='height:400px;''></img>","","html-keyboard-response","23","157723","0.0-6.0","84826","List2B","black","man","","","","null","","","","","","","","",""
"null","<p>is playing with</p>","","html-keyboard-response","24","159735","0.0-7.0","84826","List2B","black","man","","","","null","","","","","","","","",""
"8285.5","<p><b>Answer:</b> jane is playing with ruth</p>","0","html-button-response","25","168023","0.0-8.0","84826","List2B","black","man","","","","","","","","","","","","",""
"null","<img src='img/dance_eg.gif' style='height:400px;''></img>","","html-keyboard-response","26","171059","0.0-9.0","84826","List2B","black","man","","","","null","","","","","","","","",""
"null","<p>is being entertained by</p>","","html-keyboard-response","27","173058","0.0-10.0","84826","List2B","black","man","","","","null","","","","","","","","",""
"5407.199999809265","<p><b>Answer:</b> fred is being entertained by mike</p>","0","html-button-response","28","178468","0.0-11.0","84826","List2B","black","man","","","","","","","","","","","","",""
"7696.799999713898","<p>Ready to start the experiment?</p><br><p><strong>Remember to describe the picture using a full sentence,</strong></p><p><strong>that combines the names of the people with the <i>exact</i> phrase given.</strong></p><p><strong>To receive full payment you must do this correctly.</strong></p><p><strong> You do not need to capitalise names or use punctuation.</strong></p><br><p>Press 'Continue' to begin.</p>","0","html-button-response","29","187181","0.0-12.0","84826","List2B","black","man","","","","","","","","","","","","",""
"null","<div style=""font-size:60px;"">+</div>","","html-keyboard-response","30","188704","0.0-13.0-0.0","84826","List2B","black","man","","","","null","","","","","","","","",""
"null","<img src=""stim_listB/look7.gif""style=""height:400px;""></stim_listB>","","html-keyboard-response","31","190713","0.0-13.0-1.0","84826","List2B","black","man","","","","null","","","","","","","","",""
"null","is looking at","","html-keyboard-response","32","192718","0.0-13.0-2.0","84826","List2B","black","man","","","","null","","","","","","","","",""
"23113.099999904633","","","survey-text","33","215848","0.0-13.0-3.0","84826","List2B","black","man","","","","","{""Q0"":""beth is looking at ruth""}","<img src=""stim_listB/look7.gif""style=""height:400px;""></stim_listB>","is looking at","","","","","",""
"null","<div style=""font-size:60px;"">+</div>","","html-keyboard-response","34","216368","0.0-13.0-0.1","84826","List2B","black","man","","","","null","","","","","","","","",""
"null","<img src=""stim_listB/look5.gif""style=""height:400px;""></stim_listB>","","html-keyboard-response","35","218382","0.0-13.0-1.1","84826","List2B","black","man","","","","null","","","","","","","","",""
"null","is looking at","","html-keyboard-response","36","220397","0.0-13.0-2.1","84826","List2B","black","man","","","","null","","","","","","","","",""
"25503.599999904633","","","survey-text","37","245919","0.0-13.0-3.1","84826","List2B","black","man","","","","","{""Q0"":""fred is looking at luke""}","<img src=""stim_listB/look5.gif""style=""height:400px;""></stim_listB>","is looking at","","","","","",""
"null","<div style=""font-size:60px;"">+</div>","","html-keyboard-response","38","246433","0.0-13.0-0.2","84826","List2B","black","man","","","","null","","","","","","","","",""
"null","<img src=""stim_listB/challenge2.gif""style=""height:400px;""></stim_listB>","","html-keyboard-response","39","248441","0.0-13.0-1.2","84826","List2B","black","man","","","","null","","","","","","","","",""
"null","is being challenged by","","html-keyboard-response","40","250447","0.0-13.0-2.2","84826","List2B","black","man","","","","null","","","","","","","","",""
"31693.199999809265","","","survey-text","41","282150","0.0-13.0-3.2","84826","List2B","black","man","","","","","{""Q0"":""Luke is being challenged by Jane""}","<img src=""stim_listB/challenge2.gif""style=""height:400px;""></stim_listB>","is being challenged by","","","","","",""
"null","<div style=""font-size:60px;"">+</div>","","html-keyboard-response","42","282661","0.0-13.0-0.3","84826","List2B","black","man","","","","null","","","","","","","","",""
"null","<img src=""stim_listB/hug8.gif""style=""height:400px;""></stim_listB>","","html-keyboard-response","43","284666","0.0-13.0-1.3","84826","List2B","black","man","","","","null","","","","","","","","",""
"null","is being hugged by","","html-keyboard-response","44","286681","0.0-13.0-2.3","84826","List2B","black","man","","","","null","","","","","","","","",""
"13306","","","survey-text","45","299996","0.0-13.0-3.3","84826","List2B","black","man","","","","","{""Q0"":""Jane is being hugged by Kate""}","<img src=""stim_listB/hug8.gif""style=""height:400px;""></stim_listB>","is being hugged by","","","","","",""
"null","<div style=""font-size:60px;"">+</div>","","html-keyboard-response","46","300503","0.0-13.0-0.4","84826","List2B","black","man","","","","null","","","","","","","","",""
"null","<img src=""stim_listB/challenge8.gif""style=""height:400px;""></stim_listB>","","html-keyboard-response","47","302509","0.0-13.0-1.4","84826","List2B","black","man","","","","null","","","","","","","","",""
"null","is being challenged by","","html-keyboard-response","48","304516","0.0-13.0-2.4","84826","List2B","black","man","","","","null","","","","","","","","",""
"23265.900000095367","","","survey-text","49","327795","0.0-13.0-3.4","84826","List2B","black","man","","","","","{""Q0"":""ruth is being challenged by kate""}","<img src=""stim_listB/challenge8.gif""style=""height:400px;""></stim_listB>","is being challenged by","","","","","",""
"null","<div style=""font-size:60px;"">+</div>","","html-keyboard-response","50","328302","0.0-13.0-0.5","84826","List2B","black","man","","","","null","","","","","","","","",""
"null","<img src=""stim_listB/kiss3.gif""style=""height:400px;""></stim_listB>","","html-keyboard-response","51","330307","0.0-13.0-1.5","84826","List2B","black","man","","","","null","","","","","","","","",""
"null","is kissing","","html-keyboard-response","52","332310","0.0-13.0-2.5","84826","List2B","black","man","","","","null","","","","","","","","",""
"13517.199999809265","","","survey-text","53","345838","0.0-13.0-3.5","84826","List2B","black","man","","","","","{""Q0"":""beth is kissing fred""}","<img src=""stim_listB/kiss3.gif""style=""height:400px;""></stim_listB>","is kissing","","","","","",""
"null","<div style=""font-size:60px;"">+</div>","","html-keyboard-response","54","346349","0.0-13.0-0.6","84826","List2B","black","man","","","","null","","","","","","","","",""
"null","<img src=""stim_listB/touch2.gif""style=""height:400px;""></stim_listB>","","html-keyboard-response","55","348369","0.0-13.0-1.6","84826","List2B","black","man","","","","null","","","","","","","","",""
"null","is being touched by","","html-keyboard-response","56","350378","0.0-13.0-2.6","84826","List2B","black","man","","","","null","","","","","","","","",""
"8613.5","","","survey-text","57","359001","0.0-13.0-3.6","84826","List2B","black","man","","","","","{""Q0"":""ruth is being touched by luke""}","<img src=""stim_listB/touch2.gif""style=""height:400px;""></stim_listB>","is being touched by","","","","","",""
"null","<div style=""font-size:60px;"">+</div>","","html-keyboard-response","58","359519","0.0-13.0-0.7","84826","List2B","black","man","","","","null","","","","","","","","",""
"null","<img src=""stim_listB/hug1.gif""style=""height:400px;""></stim_listB>","","html-keyboard-response","59","361530","0.0-13.0-1.7","84826","List2B","black","man","","","","null","","","","","","","","",""
"null","is hugging","","html-keyboard-response","60","363532","0.0-13.0-2.7","84826","List2B","black","man","","","","null","","","","","","","","",""
"8777","","","survey-text","61","372321","0.0-13.0-3.7","84826","List2B","black","man","","","","","{""Q0"":""luke is hugging ruth""}","<img src=""stim_listB/hug1.gif""style=""height:400px;""></stim_listB>","is hugging","","","","","",""
"null","<div style=""font-size:60px;"">+</div>","","html-keyboard-response","62","372829","0.0-13.0-0.8","84826","List2B","black","man","","","","null","","","","","","","","",""
"null","<img src=""stim_listB/challenge4.gif""style=""height:400px;""></stim_listB>","","html-keyboard-response","63","374847","0.0-13.0-1.8","84826","List2B","black","man","","","","null","","","","","","","","",""
"null","is being challenged by","","html-keyboard-response","64","376861","0.0-13.0-2.8","84826","List2B","black","man","","","","null","","","","","","","","",""
"22256.199999809265","","","survey-text","65","399128","0.0-13.0-3.8","84826","List2B","black","man","","","","","{""Q0"":""kate is being challenged by fred""}","<img src=""stim_listB/challenge4.gif""style=""height:400px;""></stim_listB>","is being challenged by","","","","","",""
"null","<div style=""font-size:60px;"">+</div>","","html-keyboard-response","66","399637","0.0-13.0-0.9","84826","List2B","black","man","","","","null","","","","","","","","",""
"null","<img src=""stim_listB/greet7.gif""style=""height:400px;""></stim_listB>","","html-keyboard-response","67","401655","0.0-13.0-1.9","84826","List2B","black","man","","","","null","","","","","","","","",""
"null","is greeting","","html-keyboard-response","68","403679","0.0-13.0-2.9","84826","List2B","black","man","","","","null","","","","","","","","",""
"12297.900000095367","","","survey-text","69","415989","0.0-13.0-3.9","84826","List2B","black","man","","","","","{""Q0"":""beth is greeting jane""}","<img src=""stim_listB/greet7.gif""style=""height:400px;""></stim_listB>","is greeting","","","","","",""
"null","<div style=""font-size:60px;"">+</div>","","html-keyboard-response","70","416502","0.0-13.0-0.10","84826","List2B","black","man","","","","null","","","","","","","","",""
"null","<img src=""stim_listB/challenge3.gif""style=""height:400px;""></stim_listB>","","html-keyboard-response","71","418513","0.0-13.0-1.10","84826","List2B","black","man","","","","null","","","","","","","","",""
"null","is challenging","","html-keyboard-response","72","420520","0.0-13.0-2.10","84826","List2B","black","man","","","","null","","","","","","","","",""
"29817","","","survey-text","73","450347","0.0-13.0-3.10","84826","List2B","black","man","","","","","{""Q0"":""mike is challenging beth""}","<img src=""stim_listB/challenge3.gif""style=""height:400px;""></stim_listB>","is challenging","","","","","",""
"null","<div style=""font-size:60px;"">+</div>","","html-keyboard-response","74","450864","0.0-13.0-0.11","84826","List2B","black","man","","","","null","","","","","","","","",""
"null","<img src=""stim_listB/touch7.gif""style=""height:400px;""></stim_listB>","","html-keyboard-response","75","452870","0.0-13.0-1.11","84826","List2B","black","man","","","","null","","","","","","","","",""
"null","is touching","","html-keyboard-response","76","454873","0.0-13.0-2.11","84826","List2B","black","man","","","","null","","","","","","","","",""
"25371","","","survey-text","77","480253","0.0-13.0-3.11","84826","List2B","black","man","","","","","{""Q0"":""kate is touching jane""}","<img src=""stim_listB/touch7.gif""style=""height:400px;""></stim_listB>","is touching","","","","","",""
"null","<div style=""font-size:60px;"">+</div>","","html-keyboard-response","78","480770","0.0-13.0-0.12","84826","List2B","black","man","","","","null","","","","","","","","",""
"null","<img src=""stim_listB/copy7.gif""style=""height:400px;""></stim_listB>","","html-keyboard-response","79","482774","0.0-13.0-1.12","84826","List2B","black","man","","","","null","","","","","","","","",""
"null","is copying","","html-keyboard-response","80","484785","0.0-13.0-2.12","84826","List2B","black","man","","","","null","","","","","","","","",""
"26258.599999904633","","","survey-text","81","511052","0.0-13.0-3.12","84826","List2B","black","man","","","","","{""Q0"":""beth is copying jane""}","<img src=""stim_listB/copy7.gif""style=""height:400px;""></stim_listB>","is copying","","","","","",""
"null","<div style=""font-size:60px;"">+</div>","","html-keyboard-response","82","511571","0.0-13.0-0.13","84826","List2B","black","man","","","","null","","","","","","","","",""
"null","<img src=""stim_listB/kiss1.gif""style=""height:400px;""></stim_listB>","","html-keyboard-response","83","513575","0.0-13.0-1.13","84826","List2B","black","man","","","","null","","","","","","","","",""
"null","is kissing","","html-keyboard-response","84","515587","0.0-13.0-2.13","84826","List2B","black","man","","","","null","","","","","","","","",""
"13750.39999961853","","","survey-text","85","529347","0.0-13.0-3.13","84826","List2B","black","man","","","","","{""Q0"":""luke is kissing ruth""}","<img src=""stim_listB/kiss1.gif""style=""height:400px;""></stim_listB>","is kissing","","","","","",""
"null","<div style=""font-size:60px;"">+</div>","","html-keyboard-response","86","529852","0.0-13.0-0.14","84826","List2B","black","man","","","","null","","","","","","","","",""
"null","<img src=""stim_listB/hug5.gif""style=""height:400px;""></stim_listB>","","html-keyboard-response","87","531864","0.0-13.0-1.14","84826","List2B","black","man","","","","null","","","","","","","","",""
"null","is hugging","","html-keyboard-response","88","533876","0.0-13.0-2.14","84826","List2B","black","man","","","","null","","","","","","","","",""
"23682.699999809265","","","survey-text","89","557568","0.0-13.0-3.14","84826","List2B","black","man","","","","","{""Q0"":""luke is hugging fred""}","<img src=""stim_listB/hug5.gif""style=""height:400px;""></stim_listB>","is hugging","","","","","",""
"null","<div style=""font-size:60px;"">+</div>","","html-keyboard-response","90","558077","0.0-13.0-0.15","84826","List2B","black","man","","","","null","","","","","","","","",""
"null","<img src=""stim_listB/copy6.gif""style=""height:400px;""></stim_listB>","","html-keyboard-response","91","560089","0.0-13.0-1.15","84826","List2B","black","man","","","","null","","","","","","","","",""
"null","is being copied by","","html-keyboard-response","92","562095","0.0-13.0-2.15","84826","List2B","black","man","","","","null","","","","","","","","",""
"17587","","","survey-text","93","579693","0.0-13.0-3.15","84826","List2B","black","man","","","","","{""Q0"":""mike is being copied by luke""}","<img src=""stim_listB/copy6.gif""style=""height:400px;""></stim_listB>","is being copied by","","","","","",""
"null","<div style=""font-size:60px;"">+</div>","","html-keyboard-response","94","580201","0.0-13.0-0.16","84826","List2B","black","man","","","","null","","","","","","","","",""
"null","<img src=""stim_listB/hug3.gif""style=""height:400px;""></stim_listB>","","html-keyboard-response","95","582219","0.0-13.0-1.16","84826","List2B","black","man","","","","null","","","","","","","","",""
"null","is hugging","","html-keyboard-response","96","584234","0.0-13.0-2.16","84826","List2B","black","man","","","","null","","","","","","","","",""
"19440.299999713898","","","survey-text","97","603685","0.0-13.0-3.16","84826","List2B","black","man","","","","","{""Q0"":""fred is hugging beth""}","<img src=""stim_listB/hug3.gif""style=""height:400px;""></stim_listB>","is hugging","","","","","",""
"null","<div style=""font-size:60px;"">+</div>","","html-keyboard-response","98","604192","0.0-13.0-0.17","84826","List2B","black","man","","","","null","","","","","","","","",""
"null","<img src=""stim_listB/look1.gif""style=""height:400px;""></stim_listB>","","html-keyboard-response","99","606202","0.0-13.0-1.17","84826","List2B","black","man","","","","null","","","","","","","","",""
"null","is looking at","","html-keyboard-response","100","608208","0.0-13.0-2.17","84826","List2B","black","man","","","","null","","","","","","","","",""
"18013.5","","","survey-text","101","626226","0.0-13.0-3.17","84826","List2B","black","man","","","","","{""Q0"":""luke is looking at ruth""}","<img src=""stim_listB/look1.gif""style=""height:400px;""></stim_listB>","is looking at","","","","","",""
"null","<div style=""font-size:60px;"">+</div>","","html-keyboard-response","102","626744","0.0-13.0-0.18","84826","List2B","black","man","","","","null","","","","","","","","",""
"null","<img src=""stim_listB/greet8.gif""style=""height:400px;""></stim_listB>","","html-keyboard-response","103","628751","0.0-13.0-1.18","84826","List2B","black","man","","","","null","","","","","","","","",""
"null","is being greeted by","","html-keyboard-response","104","630758","0.0-13.0-2.18","84826","List2B","black","man","","","","null","","","","","","","","",""
"21632.599999904633","","","survey-text","105","652400","0.0-13.0-3.18","84826","List2B","black","man","","","","","{""Q0"":""ruth is being greeted by kate""}","<img src=""stim_listB/greet8.gif""style=""height:400px;""></stim_listB>","is being greeted by","","","","","",""
"null","<div style=""font-size:60px;"">+</div>","","html-keyboard-response","106","652910","0.0-13.0-0.19","84826","List2B","black","man","","","","null","","","","","","","","",""
"null","<img src=""stim_listB/challenge5.gif""style=""height:400px;""></stim_listB>","","html-keyboard-response","107","654923","0.0-13.0-1.19","84826","List2B","black","man","","","","null","","","","","","","","",""
"null","is challenging","","html-keyboard-response","108","656927","0.0-13.0-2.19","84826","List2B","black","man","","","","null","","","","","","","","",""
"17003.199999809265","","","survey-text","109","673940","0.0-13.0-3.19","84826","List2B","black","man","","","","","{""Q0"":""fred is challenging dave""}","<img src=""stim_listB/challenge5.gif""style=""height:400px;""></stim_listB>","is challenging","","","","","",""
"23347.900000095367","<img src='img/portrait_matrix_list2.jpg' style='width:900px;height:500px;''></img><p>If you have memorised all the portraits and names and are ready to start, press Continue.</p><p><strong>Please note: Your memory of these faces will be tested 4 times during this experiment.</strong></p>","0","html-button-response","110","697294","0.0-14.0-0.0","84826","List2B","black","man","","","","","","","","","","","","",""
"3668","<img src=""portrait/BM2.jpg""style=""height:400px;""></img>","5","html-button-response","111","701971","0.0-14.0-1.0","84826","List2B","black","man","","true","5","","","","","","","","","",""
"null","CORRECT","","html-keyboard-response","112","703500","0.0-14.0-2.0-0.0","84826","List2B","black","man","","","","null","","","","","","","","",""
"17035","<img src=""portrait/WW2.jpg""style=""height:400px;""></img>","3","html-button-response","113","720542","0.0-14.0-4.0","84826","List2B","black","man","","true","3","","","","","","","","","",""
"null","CORRECT","","html-keyboard-response","114","722057","0.0-14.0-5.0-0.0","84826","List2B","black","man","","","","null","","","","","","","","",""
"2193.9000000953674","<img src=""portrait/WW1.jpg""style=""height:400px;""></img>","1","html-button-response","115","724255","0.0-14.0-7.0","84826","List2B","black","man","","true","1","","","","","","","","","",""
"null","CORRECT","","html-keyboard-response","116","725777","0.0-14.0-8.0-0.0","84826","List2B","black","man","","","","null","","","","","","","","",""
"2540","<img src=""portrait/BM1.jpg""style=""height:400px;""></img>","4","html-button-response","117","728320","0.0-14.0-10.0","84826","List2B","black","man","","true","4","","","","","","","","","",""
"null","CORRECT","","html-keyboard-response","118","729847","0.0-14.0-11.0-0.0","84826","List2B","black","man","","","","null","","","","","","","","",""
"3259","<img src=""portrait/BW1.jpg""style=""height:400px;""></img>","0","html-button-response","119","733109","0.0-14.0-13.0","84826","List2B","black","man","","true","0","","","","","","","","","",""
"null","CORRECT","","html-keyboard-response","120","734628","0.0-14.0-14.0-0.0","84826","List2B","black","man","","","","null","","","","","","","","",""
"2482.300000190735","<img src=""portrait/WM2.jpg""style=""height:400px;""></img>","7","html-button-response","121","737114","0.0-14.0-16.0","84826","List2B","black","man","","true","7","","","","","","","","","",""
"null","CORRECT","","html-keyboard-response","122","738638","0.0-14.0-17.0-0.0","84826","List2B","black","man","","","","null","","","","","","","","",""
"8917.299999713898","<img src=""portrait/BW2.jpg""style=""height:400px;""></img>","2","html-button-response","123","747560","0.0-14.0-19.0","84826","List2B","black","man","","true","2","","","","","","","","","",""
"null","CORRECT","","html-keyboard-response","124","749078","0.0-14.0-20.0-0.0","84826","List2B","black","man","","","","null","","","","","","","","",""
"2731.2000002861023","<img src=""portrait/WM1.jpg""style=""height:400px;""></img>","6","html-button-response","125","751813","0.0-14.0-22.0","84826","List2B","black","man","","true","6","","","","","","","","","",""
"null","CORRECT","","html-keyboard-response","126","753330","0.0-14.0-23.0-0.0","84826","List2B","black","man","","","","null","","","","","","","","",""
"9649.89999961853","<p>You got 8 out of 8 right first time. Press Continue.</p>","0","html-button-response","127","762983","0.0-14.0-25.0","84826","List2B","black","man","","","","","","","","","","","","",""
"null","<div style=""font-size:60px;"">+</div>","","html-keyboard-response","128","764509","0.0-15.0-0.0","84826","List2B","black","man","","","","null","","","","","","","","",""
"null","<img src=""stim_listB/look3.gif""style=""height:400px;""></stim_listB>","","html-keyboard-response","129","766518","0.0-15.0-1.0","84826","List2B","black","man","","","","null","","","","","","","","",""
"null","is looking at","","html-keyboard-response","130","768522","0.0-15.0-2.0","84826","List2B","black","man","","","","null","","","","","","","","",""
"12804.400000095367","","","survey-text","131","781334","0.0-15.0-3.0","84826","List2B","black","man","","","","","{""Q0"":""fred is looking at beth""}","<img src=""stim_listB/look3.gif""style=""height:400px;""></stim_listB>","is looking at","","","","","",""
"null","<div style=""font-size:60px;"">+</div>","","html-keyboard-response","132","781853","0.0-15.0-0.1","84826","List2B","black","man","","","","null","","","","","","","","",""
"null","<img src=""stim_listB/look6.gif""style=""height:400px;""></stim_listB>","","html-keyboard-response","133","783867","0.0-15.0-1.1","84826","List2B","black","man","","","","null","","","","","","","","",""
"null","is being looked at by","","html-keyboard-response","134","785871","0.0-15.0-2.1","84826","List2B","black","man","","","","null","","","","","","","","",""
"7553","","","survey-text","135","793435","0.0-15.0-3.1","84826","List2B","black","man","","","","","{""Q0"":""dave is being looked at by mike""}","<img src=""stim_listB/look6.gif""style=""height:400px;""></stim_listB>","is being looked at by","","","","","",""
"null","<div style=""font-size:60px;"">+</div>","","html-keyboard-response","136","793952","0.0-15.0-0.2","84826","List2B","black","man","","","","null","","","","","","","","",""
"null","<img src=""stim_listB/seduce6.gif""style=""height:400px;""></stim_listB>","","html-keyboard-response","137","795964","0.0-15.0-1.2","84826","List2B","black","man","","","","null","","","","","","","","",""
"null","is being seduced by","","html-keyboard-response","138","797973","0.0-15.0-2.2","84826","List2B","black","man","","","","null","","","","","","","","",""
"34096.09999990463","","","survey-text","139","832078","0.0-15.0-3.2","84826","List2B","black","man","","","","","{""Q0"":""dave is being seduced by fred""}","<img src=""stim_listB/seduce6.gif""style=""height:400px;""></stim_listB>","is being seduced by","","","","","",""
"null","<div style=""font-size:60px;"">+</div>","","html-keyboard-response","140","832586","0.0-15.0-0.3","84826","List2B","black","man","","","","null","","","","","","","","",""
"null","<img src=""stim_listB/kiss8.gif""style=""height:400px;""></stim_listB>","","html-keyboard-response","141","834595","0.0-15.0-1.3","84826","List2B","black","man","","","","null","","","","","","","","",""
"null","is being kissed by","","html-keyboard-response","142","836599","0.0-15.0-2.3","84826","List2B","black","man","","","","null","","","","","","","","",""
"28718.599999904633","","","survey-text","143","865326","0.0-15.0-3.3","84826","List2B","black","man","","","","","{""Q0"":""kate is being kissed by jane""}","<img src=""stim_listB/kiss8.gif""style=""height:400px;""></stim_listB>","is being kissed by","","","","","",""
"null","<div style=""font-size:60px;"">+</div>","","html-keyboard-response","144","865830","0.0-15.0-0.4","84826","List2B","black","man","","","","null","","","","","","","","",""
"null","<img src=""stim_listB/greet6.gif""style=""height:400px;""></stim_listB>","","html-keyboard-response","145","867842","0.0-15.0-1.4","84826","List2B","black","man","","","","null","","","","","","","","",""
"null","is being greeted by","","html-keyboard-response","146","869847","0.0-15.0-2.4","84826","List2B","black","man","","","","null","","","","","","","","",""
"18280.5","","","survey-text","147","888138","0.0-15.0-3.4","84826","List2B","black","man","","","","","{""Q0"":""luke is being greeted by mike""}","<img src=""stim_listB/greet6.gif""style=""height:400px;""></stim_listB>","is being greeted by","","","","","",""
"null","<div style=""font-size:60px;"">+</div>","","html-keyboard-response","148","888649","0.0-15.0-0.5","84826","List2B","black","man","","","","null","","","","","","","","",""
"null","<img src=""stim_listB/kiss5.gif""style=""height:400px;""></stim_listB>","","html-keyboard-response","149","890659","0.0-15.0-1.5","84826","List2B","black","man","","","","null","","","","","","","","",""
"null","is kissing","","html-keyboard-response","150","892673","0.0-15.0-2.5","84826","List2B","black","man","","","","null","","","","","","","","",""
"9135.099999904633","","","survey-text","151","901822","0.0-15.0-3.5","84826","List2B","black","man","","","","","{""Q0"":""luke is kissing fred""}","<img src=""stim_listB/kiss5.gif""style=""height:400px;""></stim_listB>","is kissing","","","","","",""
"null","<div style=""font-size:60px;"">+</div>","","html-keyboard-response","152","902341","0.0-15.0-0.6","84826","List2B","black","man","","","","null","","","","","","","","",""
"null","<img src=""stim_listB/seduce5.gif""style=""height:400px;""></stim_listB>","","html-keyboard-response","153","904346","0.0-15.0-1.6","84826","List2B","black","man","","","","null","","","","","","","","",""
"null","is seducing","","html-keyboard-response","154","906352","0.0-15.0-2.6","84826","List2B","black","man","","","","null","","","","","","","","",""
"16933.099999904633","","","survey-text","155","923295","0.0-15.0-3.6","84826","List2B","black","man","","","","","{""Q0"":""mike is seducing luke""}","<img src=""stim_listB/seduce5.gif""style=""height:400px;""></stim_listB>","is seducing","","","","","",""
"null","<div style=""font-size:60px;"">+</div>","","html-keyboard-response","156","923807","0.0-15.0-0.7","84826","List2B","black","man","","","","null","","","","","","","","",""
"null","<img src=""stim_listB/copy5.gif""style=""height:400px;""></stim_listB>","","html-keyboard-response","157","925820","0.0-15.0-1.7","84826","List2B","black","man","","","","null","","","","","","","","",""
"null","is copying","","html-keyboard-response","158","927822","0.0-15.0-2.7","84826","List2B","black","man","","","","null","","","","","","","","",""
"9132.400000095367","","","survey-text","159","936966","0.0-15.0-3.7","84826","List2B","black","man","","","","","{""Q0"":""dave is copying fred""}","<img src=""stim_listB/copy5.gif""style=""height:400px;""></stim_listB>","is copying","","","","","",""
"null","<div style=""font-size:60px;"">+</div>","","html-keyboard-response","160","937476","0.0-15.0-0.8","84826","List2B","black","man","","","","null","","","","","","","","",""
"null","<img src=""stim_listB/greet2.gif""style=""height:400px;""></stim_listB>","","html-keyboard-response","161","939481","0.0-15.0-1.8","84826","List2B","black","man","","","","null","","","","","","","","",""
"null","is being greeted by","","html-keyboard-response","162","941486","0.0-15.0-2.8","84826","List2B","black","man","","","","null","","","","","","","","",""
"28930.200000286102","","","survey-text","163","970429","0.0-15.0-3.8","84826","List2B","black","man","","","","","{""Q0"":""luke is being greeted by jane""}","<img src=""stim_listB/greet2.gif""style=""height:400px;""></stim_listB>","is being greeted by","","","","","",""
"null","<div style=""font-size:60px;"">+</div>","","html-keyboard-response","164","970935","0.0-15.0-0.9","84826","List2B","black","man","","","","null","","","","","","","","",""
"null","<img src=""stim_listB/seduce7.gif""style=""height:400px;""></stim_listB>","","html-keyboard-response","165","972950","0.0-15.0-1.9","84826","List2B","black","man","","","","null","","","","","","","","",""
"null","is seducing","","html-keyboard-response","166","974956","0.0-15.0-2.9","84826","List2B","black","man","","","","null","","","","","","","","",""
"15818.400000095367","","","survey-text","167","990786","0.0-15.0-3.9","84826","List2B","black","man","","","","","{""Q0"":""ruth is seducing kate""}","<img src=""stim_listB/seduce7.gif""style=""height:400px;""></stim_listB>","is seducing","","","","","",""
"null","<div style=""font-size:60px;"">+</div>","","html-keyboard-response","168","991302","0.0-15.0-0.10","84826","List2B","black","man","","","","null","","","","","","","","",""
"null","<img src=""stim_listB/shout7.gif""style=""height:400px;""></stim_listB>","","html-keyboard-response","169","993313","0.0-15.0-1.10","84826","List2B","black","man","","","","null","","","","","","","","",""
"null","is shouting at","","html-keyboard-response","170","995330","0.0-15.0-2.10","84826","List2B","black","man","","","","null","","","","","","","","",""
"9939.400000095367","","","survey-text","171","1005279","0.0-15.0-3.10","84826","List2B","black","man","","","","","{""Q0"":""ruth is shouting at beth""}","<img src=""stim_listB/shout7.gif""style=""height:400px;""></stim_listB>","is shouting at","","","","","",""
"null","<div style=""font-size:60px;"">+</div>","","html-keyboard-response","172","1005789","0.0-15.0-0.11","84826","List2B","black","man","","","","null","","","","","","","","",""
"null","<img src=""stim_listB/shout4.gif""style=""height:400px;""></stim_listB>","","html-keyboard-response","173","1007803","0.0-15.0-1.11","84826","List2B","black","man","","","","null","","","","","","","","",""
"null","is being shouted at by","","html-keyboard-response","174","1009810","0.0-15.0-2.11","84826","List2B","black","man","","","","null","","","","","","","","",""
"18786.300000190735","","","survey-text","175","1028611","0.0-15.0-3.11","84826","List2B","black","man","","","","","{""Q0"":""mike is being shouted at by kate""}","<img src=""stim_listB/shout4.gif""style=""height:400px;""></stim_listB>","is being shouted at by","","","","","",""
"null","<div style=""font-size:60px;"">+</div>","","html-keyboard-response","176","1029123","0.0-15.0-0.12","84826","List2B","black","man","","","","null","","","","","","","","",""
"null","<img src=""stim_listB/touch8.gif""style=""height:400px;""></stim_listB>","","html-keyboard-response","177","1031130","0.0-15.0-1.12","84826","List2B","black","man","","","","null","","","","","","","","",""
"null","is being touched by","","html-keyboard-response","178","1033142","0.0-15.0-2.12","84826","List2B","black","man","","","","null","","","","","","","","",""
"15569.60000038147","","","survey-text","179","1048722","0.0-15.0-3.12","84826","List2B","black","man","","","","","{""Q0"":""ruth is being touched by beth""}","<img src=""stim_listB/touch8.gif""style=""height:400px;""></stim_listB>","is being touched by","","","","","",""
"null","<div style=""font-size:60px;"">+</div>","","html-keyboard-response","180","1049236","0.0-15.0-0.13","84826","List2B","black","man","","","","null","","","","","","","","",""
"null","<img src=""stim_listB/hug4.gif""style=""height:400px;""></stim_listB>","","html-keyboard-response","181","1051245","0.0-15.0-1.13","84826","List2B","black","man","","","","null","","","","","","","","",""
"null","is being hugged by","","html-keyboard-response","182","1053255","0.0-15.0-2.13","84826","List2B","black","man","","","","null","","","","","","","","",""
"7513.5","","","survey-text","183","1060778","0.0-15.0-3.13","84826","List2B","black","man","","","","","{""Q0"":""mike is being hugged by kate""}","<img src=""stim_listB/hug4.gif""style=""height:400px;""></stim_listB>","is being hugged by","","","","","",""
"null","<div style=""font-size:60px;"">+</div>","","html-keyboard-response","184","1061292","0.0-15.0-0.14","84826","List2B","black","man","","","","null","","","","","","","","",""
"null","<img src=""stim_listB/challenge1.gif""style=""height:400px;""></stim_listB>","","html-keyboard-response","185","1063306","0.0-15.0-1.14","84826","List2B","black","man","","","","null","","","","","","","","",""
"null","is challenging","","html-keyboard-response","186","1065316","0.0-15.0-2.14","84826","List2B","black","man","","","","null","","","","","","","","",""
"18582.5","","","survey-text","187","1083908","0.0-15.0-3.14","84826","List2B","black","man","","","","","{""Q0"":""ruth is challenging dave""}","<img src=""stim_listB/challenge1.gif""style=""height:400px;""></stim_listB>","is challenging","","","","","",""
"null","<div style=""font-size:60px;"">+</div>","","html-keyboard-response","188","1084413","0.0-15.0-0.15","84826","List2B","black","man","","","","null","","","","","","","","",""
"null","<img src=""stim_listB/shout6.gif""style=""height:400px;""></stim_listB>","","html-keyboard-response","189","1086422","0.0-15.0-1.15","84826","List2B","black","man","","","","null","","","","","","","","",""
"null","is being shouted at by","","html-keyboard-response","190","1088432","0.0-15.0-2.15","84826","List2B","black","man","","","","null","","","","","","","","",""
"15426.799999713898","","","survey-text","191","1103869","0.0-15.0-3.15","84826","List2B","black","man","","","","","{""Q0"":""mike is being shouted at by dave""}","<img src=""stim_listB/shout6.gif""style=""height:400px;""></stim_listB>","is being shouted at by","","","","","",""
"null","<div style=""font-size:60px;"">+</div>","","html-keyboard-response","192","1104379","0.0-15.0-0.16","84826","List2B","black","man","","","","null","","","","","","","","",""
"null","<img src=""stim_listB/oppose5.gif""style=""height:400px;""></stim_listB>","","html-keyboard-response","193","1106385","0.0-15.0-1.16","84826","List2B","black","man","","","","null","","","","","","","","",""
"null","is opposing","","html-keyboard-response","194","1108391","0.0-15.0-2.16","84826","List2B","black","man","","","","null","","","","","","","","",""
"13606.900000095367","","","survey-text","195","1122007","0.0-15.0-3.16","84826","List2B","black","man","","","","","{""Q0"":""mike is opposing dave""}","<img src=""stim_listB/oppose5.gif""style=""height:400px;""></stim_listB>","is opposing","","","","","",""
"null","<div style=""font-size:60px;"">+</div>","","html-keyboard-response","196","1122519","0.0-15.0-0.17","84826","List2B","black","man","","","","null","","","","","","","","",""
"null","<img src=""stim_listB/challenge7.gif""style=""height:400px;""></stim_listB>","","html-keyboard-response","197","1124535","0.0-15.0-1.17","84826","List2B","black","man","","","","null","","","","","","","","",""
"null","is challenging","","html-keyboard-response","198","1126540","0.0-15.0-2.17","84826","List2B","black","man","","","","null","","","","","","","","",""
"25889.699999809265","","","survey-text","199","1152439","0.0-15.0-3.17","84826","List2B","black","man","","","","","{""Q0"":""jane is challenging beth""}","<img src=""stim_listB/challenge7.gif""style=""height:400px;""></stim_listB>","is challenging","","","","","",""
"null","<div style=""font-size:60px;"">+</div>","","html-keyboard-response","200","1152951","0.0-15.0-0.18","84826","List2B","black","man","","","","null","","","","","","","","",""
"null","<img src=""stim_listB/copy3.gif""style=""height:400px;""></stim_listB>","","html-keyboard-response","201","1154963","0.0-15.0-1.18","84826","List2B","black","man","","","","null","","","","","","","","",""
"null","is copying","","html-keyboard-response","202","1156979","0.0-15.0-2.18","84826","List2B","black","man","","","","null","","","","","","","","",""
"5321.299999713898","","","survey-text","203","1162309","0.0-15.0-3.18","84826","List2B","black","man","","","","","{""Q0"":""mike is copying beth""}","<img src=""stim_listB/copy3.gif""style=""height:400px;""></stim_listB>","is copying","","","","","",""
"null","<div style=""font-size:60px;"">+</div>","","html-keyboard-response","204","1162822","0.0-15.0-0.19","84826","List2B","black","man","","","","null","","","","","","","","",""
"null","<img src=""stim_listB/touch5.gif""style=""height:400px;""></stim_listB>","","html-keyboard-response","205","1164826","0.0-15.0-1.19","84826","List2B","black","man","","","","null","","","","","","","","",""
"null","is touching","","html-keyboard-response","206","1166836","0.0-15.0-2.19","84826","List2B","black","man","","","","null","","","","","","","","",""
"3460.9000000953674","","","survey-text","207","1170307","0.0-15.0-3.19","84826","List2B","black","man","","","","","{""Q0"":""mike is touching dave""}","<img src=""stim_listB/touch5.gif""style=""height:400px;""></stim_listB>","is touching","","","","","",""
"7376","<img src='img/portrait_matrix_list2.jpg' style='width:900px;height:500px;''></img><p>If you have memorised all the portraits and names and are ready to start, press Continue.</p><p><strong>Please note: Your memory of these faces will be tested 4 times during this experiment.</strong></p>","0","html-button-response","208","1177687","0.0-16.0-0.0","84826","List2B","black","man","","","","","","","","","","","","",""
"5481.800000190735","<img src=""portrait/BM2.jpg""style=""height:400px;""></img>","5","html-button-response","209","1184178","0.0-16.0-1.0","84826","List2B","black","man","","true","5","","","","","","","","","",""
"null","CORRECT","","html-keyboard-response","210","1185707","0.0-16.0-2.0-0.0","84826","List2B","black","man","","","","null","","","","","","","","",""
"2843.5","<img src=""portrait/WM1.jpg""style=""height:400px;""></img>","6","html-button-response","211","1188555","0.0-16.0-4.0","84826","List2B","black","man","","true","6","","","","","","","","","",""
"null","CORRECT","","html-keyboard-response","212","1190081","0.0-16.0-5.0-0.0","84826","List2B","black","man","","","","null","","","","","","","","",""
"1890.2999997138977","<img src=""portrait/BW1.jpg""style=""height:400px;""></img>","0","html-button-response","213","1191976","0.0-16.0-7.0","84826","List2B","black","man","","true","0","","","","","","","","","",""
"null","CORRECT","","html-keyboard-response","214","1193496","0.0-16.0-8.0-0.0","84826","List2B","black","man","","","","null","","","","","","","","",""
"2199.300000190735","<img src=""portrait/WW2.jpg""style=""height:400px;""></img>","3","html-button-response","215","1195699","0.0-16.0-10.0","84826","List2B","black","man","","true","3","","","","","","","","","",""
"null","CORRECT","","html-keyboard-response","216","1197222","0.0-16.0-11.0-0.0","84826","List2B","black","man","","","","null","","","","","","","","",""
"2565.699999809265","<img src=""portrait/BM1.jpg""style=""height:400px;""></img>","4","html-button-response","217","1199792","0.0-16.0-13.0","84826","List2B","black","man","","true","4","","","","","","","","","",""
"null","CORRECT","","html-keyboard-response","218","1201318","0.0-16.0-14.0-0.0","84826","List2B","black","man","","","","null","","","","","","","","",""
"3483.2000002861023","<img src=""portrait/BW2.jpg""style=""height:400px;""></img>","2","html-button-response","219","1204806","0.0-16.0-16.0","84826","List2B","black","man","","true","2","","","","","","","","","",""
"null","CORRECT","","html-keyboard-response","220","1206330","0.0-16.0-17.0-0.0","84826","List2B","black","man","","","","null","","","","","","","","",""
"2022.6999998092651","<img src=""portrait/WW1.jpg""style=""height:400px;""></img>","1","html-button-response","221","1208357","0.0-16.0-19.0","84826","List2B","black","man","","true","1","","","","","","","","","",""
"null","CORRECT","","html-keyboard-response","222","1209863","0.0-16.0-20.0-0.0","84826","List2B","black","man","","","","null","","","","","","","","",""
"4463.700000286102","<img src=""portrait/WM2.jpg""style=""height:400px;""></img>","7","html-button-response","223","1214331","0.0-16.0-22.0","84826","List2B","black","man","","true","7","","","","","","","","","",""
"null","CORRECT","","html-keyboard-response","224","1215856","0.0-16.0-23.0-0.0","84826","List2B","black","man","","","","null","","","","","","","","",""
"2500.1000003814697","<p>You got 8 out of 8 right first time. Press Continue.</p>","0","html-button-response","225","1218360","0.0-16.0-25.0","84826","List2B","black","man","","","","","","","","","","","","",""
"null","<div style=""font-size:60px;"">+</div>","","html-keyboard-response","226","1219888","0.0-17.0-0.0","84826","List2B","black","man","","","","null","","","","","","","","",""
"null","<img src=""stim_listB/oppose8.gif""style=""height:400px;""></stim_listB>","","html-keyboard-response","227","1221903","0.0-17.0-1.0","84826","List2B","black","man","","","","null","","","","","","","","",""
"null","is being opposed by","","html-keyboard-response","228","1223908","0.0-17.0-2.0","84826","List2B","black","man","","","","null","","","","","","","","",""
"4651.200000286102","","","survey-text","229","1228570","0.0-17.0-3.0","84826","List2B","black","man","","","","","{""Q0"":""ruth is being opposed by beth""}","<img src=""stim_listB/oppose8.gif""style=""height:400px;""></stim_listB>","is being opposed by","","","","","",""
"null","<div style=""font-size:60px;"">+</div>","","html-keyboard-response","230","1229085","0.0-17.0-0.1","84826","List2B","black","man","","","","null","","","","","","","","",""
"null","<img src=""stim_listB/greet5.gif""style=""height:400px;""></stim_listB>","","html-keyboard-response","231","1231105","0.0-17.0-1.1","84826","List2B","black","man","","","","null","","","","","","","","",""
"null","is greeting","","html-keyboard-response","232","1233109","0.0-17.0-2.1","84826","List2B","black","man","","","","null","","","","","","","","",""
"5808.200000286102","","","survey-text","233","1238929","0.0-17.0-3.1","84826","List2B","black","man","","","","","{""Q0"":""fred is greeting dave""}","<img src=""stim_listB/greet5.gif""style=""height:400px;""></stim_listB>","is greeting","","","","","",""
"null","<div style=""font-size:60px;"">+</div>","","html-keyboard-response","234","1239436","0.0-17.0-0.2","84826","List2B","black","man","","","","null","","","","","","","","",""
"null","<img src=""stim_listB/shout2.gif""style=""height:400px;""></stim_listB>","","html-keyboard-response","235","1241448","0.0-17.0-1.2","84826","List2B","black","man","","","","null","","","","","","","","",""
"null","is being shouted at by","","html-keyboard-response","236","1243454","0.0-17.0-2.2","84826","List2B","black","man","","","","null","","","","","","","","",""
"4195.599999904633","","","survey-text","237","1247658","0.0-17.0-3.2","84826","List2B","black","man","","","","","{""Q0"":""dave is being shouted at by jane""}","<img src=""stim_listB/shout2.gif""style=""height:400px;""></stim_listB>","is being shouted at by","","","","","",""
"null","<div style=""font-size:60px;"">+</div>","","html-keyboard-response","238","1248172","0.0-17.0-0.3","84826","List2B","black","man","","","","null","","","","","","","","",""
"null","<img src=""stim_listB/oppose6.gif""style=""height:400px;""></stim_listB>","","html-keyboard-response","239","1250187","0.0-17.0-1.3","84826","List2B","black","man","","","","null","","","","","","","","",""
"null","is being opposed by","","html-keyboard-response","240","1252197","0.0-17.0-2.3","84826","List2B","black","man","","","","null","","","","","","","","",""
"4175","","","survey-text","241","1256383","0.0-17.0-3.3","84826","List2B","black","man","","","","","{""Q0"":""luke is being opposed by fred""}","<img src=""stim_listB/oppose6.gif""style=""height:400px;""></stim_listB>","is being opposed by","","","","","",""
"null","<div style=""font-size:60px;"">+</div>","","html-keyboard-response","242","1256896","0.0-17.0-0.4","84826","List2B","black","man","","","","null","","","","","","","","",""
"null","<img src=""stim_listB/kiss4.gif""style=""height:400px;""></stim_listB>","","html-keyboard-response","243","1258912","0.0-17.0-1.4","84826","List2B","black","man","","","","null","","","","","","","","",""
"null","is being kissed by","","html-keyboard-response","244","1260924","0.0-17.0-2.4","84826","List2B","black","man","","","","null","","","","","","","","",""
"4168.099999904633","","","survey-text","245","1265099","0.0-17.0-3.4","84826","List2B","black","man","","","","","{""Q0"":""mike is being kissed by kate""}","<img src=""stim_listB/kiss4.gif""style=""height:400px;""></stim_listB>","is being kissed by","","","","","",""
"null","<div style=""font-size:60px;"">+</div>","","html-keyboard-response","246","1265616","0.0-17.0-0.5","84826","List2B","black","man","","","","null","","","","","","","","",""
"null","<img src=""stim_listB/seduce1.gif""style=""height:400px;""></stim_listB>","","html-keyboard-response","247","1267623","0.0-17.0-1.5","84826","List2B","black","man","","","","null","","","","","","","","",""
"null","is seducing","","html-keyboard-response","248","1269628","0.0-17.0-2.5","84826","List2B","black","man","","","","null","","","","","","","","",""
"18876.099999904633","","","survey-text","249","1288509","0.0-17.0-3.5","84826","List2B","black","man","","","","","{""Q0"":""luke is seducing jane""}","<img src=""stim_listB/seduce1.gif""style=""height:400px;""></stim_listB>","is seducing","","","","","",""
"null","<div style=""font-size:60px;"">+</div>","","html-keyboard-response","250","1289027","0.0-17.0-0.6","84826","List2B","black","man","","","","null","","","","","","","","",""
"null","<img src=""stim_listB/greet4.gif""style=""height:400px;""></stim_listB>","","html-keyboard-response","251","1291043","0.0-17.0-1.6","84826","List2B","black","man","","","","null","","","","","","","","",""
"null","is being greeted by","","html-keyboard-response","252","1293053","0.0-17.0-2.6","84826","List2B","black","man","","","","null","","","","","","","","",""
"3972.0999999046326","","","survey-text","253","1297035","0.0-17.0-3.6","84826","List2B","black","man","","","","","{""Q0"":""fred is being greeted by kate""}","<img src=""stim_listB/greet4.gif""style=""height:400px;""></stim_listB>","is being greeted by","","","","","",""
"null","<div style=""font-size:60px;"">+</div>","","html-keyboard-response","254","1297543","0.0-17.0-0.7","84826","List2B","black","man","","","","null","","","","","","","","",""
"null","<img src=""stim_listB/seduce3.gif""style=""height:400px;""></stim_listB>","","html-keyboard-response","255","1299563","0.0-17.0-1.7","84826","List2B","black","man","","","","null","","","","","","","","",""
"null","is seducing","","html-keyboard-response","256","1301574","0.0-17.0-2.7","84826","List2B","black","man","","","","null","","","","","","","","",""
"6466.599999904633","","","survey-text","257","1308048","0.0-17.0-3.7","84826","List2B","black","man","","","","","{""Q0"":""kate is seducing fred""}","<img src=""stim_listB/seduce3.gif""style=""height:400px;""></stim_listB>","is seducing","","","","","",""
"null","<div style=""font-size:60px;"">+</div>","","html-keyboard-response","258","1308558","0.0-17.0-0.8","84826","List2B","black","man","","","","null","","","","","","","","",""
"null","<img src=""stim_listB/oppose1.gif""style=""height:400px;""></stim_listB>","","html-keyboard-response","259","1310575","0.0-17.0-1.8","84826","List2B","black","man","","","","null","","","","","","","","",""
"null","is opposing","","html-keyboard-response","260","1312584","0.0-17.0-2.8","84826","List2B","black","man","","","","null","","","","","","","","",""
"5524.699999809265","","","survey-text","261","1318121","0.0-17.0-3.8","84826","List2B","black","man","","","","","{""Q0"":""jane is opposing dave""}","<img src=""stim_listB/oppose1.gif""style=""height:400px;""></stim_listB>","is opposing","","","","","",""
"null","<div style=""font-size:60px;"">+</div>","","html-keyboard-response","262","1318633","0.0-17.0-0.9","84826","List2B","black","man","","","","null","","","","","","","","",""
"null","<img src=""stim_listB/look2.gif""style=""height:400px;""></stim_listB>","","html-keyboard-response","263","1320647","0.0-17.0-1.9","84826","List2B","black","man","","","","null","","","","","","","","",""
"null","is being looked at by","","html-keyboard-response","264","1322651","0.0-17.0-2.9","84826","List2B","black","man","","","","null","","","","","","","","",""
"3771.7000002861023","","","survey-text","265","1326436","0.0-17.0-3.9","84826","List2B","black","man","","","","","{""Q0"":""jane is being looked at by dave""}","<img src=""stim_listB/look2.gif""style=""height:400px;""></stim_listB>","is being looked at by","","","","","",""
"null","<div style=""font-size:60px;"">+</div>","","html-keyboard-response","266","1326942","0.0-17.0-0.10","84826","List2B","black","man","","","","null","","","","","","","","",""
"null","<img src=""stim_listB/touch3.gif""style=""height:400px;""></stim_listB>","","html-keyboard-response","267","1328961","0.0-17.0-1.10","84826","List2B","black","man","","","","null","","","","","","","","",""
"null","is touching","","html-keyboard-response","268","1330973","0.0-17.0-2.10","84826","List2B","black","man","","","","null","","","","","","","","",""
"2380.7999997138977","","","survey-text","269","1333365","0.0-17.0-3.10","84826","List2B","black","man","","","","","{""Q0"":""kate is touching mike""}","<img src=""stim_listB/touch3.gif""style=""height:400px;""></stim_listB>","is touching","","","","","",""
"null","<div style=""font-size:60px;"">+</div>","","html-keyboard-response","270","1333876","0.0-17.0-0.11","84826","List2B","black","man","","","","null","","","","","","","","",""
"null","<img src=""stim_listB/kiss7.gif""style=""height:400px;""></stim_listB>","","html-keyboard-response","271","1335883","0.0-17.0-1.11","84826","List2B","black","man","","","","null","","","","","","","","",""
"null","is kissing","","html-keyboard-response","272","1337891","0.0-17.0-2.11","84826","List2B","black","man","","","","null","","","","","","","","",""
"2600.1000003814697","","","survey-text","273","1340502","0.0-17.0-3.11","84826","List2B","black","man","","","","","{""Q0"":""beth is kissing ruth""}","<img src=""stim_listB/kiss7.gif""style=""height:400px;""></stim_listB>","is kissing","","","","","",""
"null","<div style=""font-size:60px;"">+</div>","","html-keyboard-response","274","1341021","0.0-17.0-0.12","84826","List2B","black","man","","","","null","","","","","","","","",""
"null","<img src=""stim_listB/greet1.gif""style=""height:400px;""></stim_listB>","","html-keyboard-response","275","1343026","0.0-17.0-1.12","84826","List2B","black","man","","","","null","","","","","","","","",""
"null","is greeting","","html-keyboard-response","276","1345033","0.0-17.0-2.12","84826","List2B","black","man","","","","null","","","","","","","","",""
"3586.300000190735","","","survey-text","277","1348630","0.0-17.0-3.12","84826","List2B","black","man","","","","","{""Q0"":""ruth is greeting dave""}","<img src=""stim_listB/greet1.gif""style=""height:400px;""></stim_listB>","is greeting","","","","","",""
"null","<div style=""font-size:60px;"">+</div>","","html-keyboard-response","278","1349146","0.0-17.0-0.13","84826","List2B","black","man","","","","null","","","","","","","","",""
"null","<img src=""stim_listB/oppose7.gif""style=""height:400px;""></stim_listB>","","html-keyboard-response","279","1351151","0.0-17.0-1.13","84826","List2B","black","man","","","","null","","","","","","","","",""
"null","is opposing","","html-keyboard-response","280","1353163","0.0-17.0-2.13","84826","List2B","black","man","","","","null","","","","","","","","",""
"4948.300000190735","","","survey-text","281","1358120","0.0-17.0-3.13","84826","List2B","black","man","","","","","{""Q0"":""jane is opposing kate""}","<img src=""stim_listB/oppose7.gif""style=""height:400px;""></stim_listB>","is opposing","","","","","",""
"null","<div style=""font-size:60px;"">+</div>","","html-keyboard-response","282","1358633","0.0-17.0-0.14","84826","List2B","black","man","","","","null","","","","","","","","",""
"null","<img src=""stim_listB/touch1.gif""style=""height:400px;""></stim_listB>","","html-keyboard-response","283","1360644","0.0-17.0-1.14","84826","List2B","black","man","","","","null","","","","","","","","",""
"null","is touching","","html-keyboard-response","284","1362647","0.0-17.0-2.14","84826","List2B","black","man","","","","null","","","","","","","","",""
"2571.9000000953674","","","survey-text","285","1365228","0.0-17.0-3.14","84826","List2B","black","man","","","","","{""Q0"":""jane is touching dave""}","<img src=""stim_listB/touch1.gif""style=""height:400px;""></stim_listB>","is touching","","","","","",""
"null","<div style=""font-size:60px;"">+</div>","","html-keyboard-response","286","1365742","0.0-17.0-0.15","84826","List2B","black","man","","","","null","","","","","","","","",""
"null","<img src=""stim_listB/seduce4.gif""style=""height:400px;""></stim_listB>","","html-keyboard-response","287","1367749","0.0-17.0-1.15","84826","List2B","black","man","","","","null","","","","","","","","",""
"null","is being seduced by","","html-keyboard-response","288","1369755","0.0-17.0-2.15","84826","List2B","black","man","","","","null","","","","","","","","",""
"7061.5","","","survey-text","289","1376827","0.0-17.0-3.15","84826","List2B","black","man","","","","","{""Q0"":""mike is being seduced by beth""}","<img src=""stim_listB/seduce4.gif""style=""height:400px;""></stim_listB>","is being seduced by","","","","","",""
"null","<div style=""font-size:60px;"">+</div>","","html-keyboard-response","290","1377336","0.0-17.0-0.16","84826","List2B","black","man","","","","null","","","","","","","","",""
"null","<img src=""stim_listB/look8.gif""style=""height:400px;""></stim_listB>","","html-keyboard-response","291","1379346","0.0-17.0-1.16","84826","List2B","black","man","","","","null","","","","","","","","",""
"null","is being looked at by","","html-keyboard-response","292","1381360","0.0-17.0-2.16","84826","List2B","black","man","","","","null","","","","","","","","",""
"4809","","","survey-text","293","1386173","0.0-17.0-3.16","84826","List2B","black","man","","","","","{""Q0"":""jane is being looked at by kate""}","<img src=""stim_listB/look8.gif""style=""height:400px;""></stim_listB>","is being looked at by","","","","","",""
"null","<div style=""font-size:60px;"">+</div>","","html-keyboard-response","294","1386690","0.0-17.0-0.17","84826","List2B","black","man","","","","null","","","","","","","","",""
"null","<img src=""stim_listB/hug2.gif""style=""height:400px;""></stim_listB>","","html-keyboard-response","295","1388698","0.0-17.0-1.17","84826","List2B","black","man","","","","null","","","","","","","","",""
"null","is being hugged by","","html-keyboard-response","296","1390703","0.0-17.0-2.17","84826","List2B","black","man","","","","null","","","","","","","","",""
"4089","","","survey-text","297","1394802","0.0-17.0-3.17","84826","List2B","black","man","","","","","{""Q0"":""jane is being hugged by dave""}","<img src=""stim_listB/hug2.gif""style=""height:400px;""></stim_listB>","is being hugged by","","","","","",""
"null","<div style=""font-size:60px;"">+</div>","","html-keyboard-response","298","1395316","0.0-17.0-0.18","84826","List2B","black","man","","","","null","","","","","","","","",""
"null","<img src=""stim_listB/touch4.gif""style=""height:400px;""></stim_listB>","","html-keyboard-response","299","1397323","0.0-17.0-1.18","84826","List2B","black","man","","","","null","","","","","","","","",""
"null","is being touched by","","html-keyboard-response","300","1399329","0.0-17.0-2.18","84826","List2B","black","man","","","","null","","","","","","","","",""
"7260.299999713898","","","survey-text","301","1406602","0.0-17.0-3.18","84826","List2B","black","man","","","","","{""Q0"":""fred is being touched by beth""}","<img src=""stim_listB/touch4.gif""style=""height:400px;""></stim_listB>","is being touched by","","","","","",""
"null","<div style=""font-size:60px;"">+</div>","","html-keyboard-response","302","1407121","0.0-17.0-0.19","84826","List2B","black","man","","","","null","","","","","","","","",""
"null","<img src=""stim_listB/kiss2.gif""style=""height:400px;""></stim_listB>","","html-keyboard-response","303","1409125","0.0-17.0-1.19","84826","List2B","black","man","","","","null","","","","","","","","",""
"null","is being kissed by","","html-keyboard-response","304","1411143","0.0-17.0-2.19","84826","List2B","black","man","","","","null","","","","","","","","",""
"4129.799999713898","","","survey-text","305","1415285","0.0-17.0-3.19","84826","List2B","black","man","","","","","{""Q0"":""jane is being kissed by dave""}","<img src=""stim_listB/kiss2.gif""style=""height:400px;""></stim_listB>","is being kissed by","","","","","",""
"4867.60000038147","<img src='img/portrait_matrix_list2.jpg' style='width:900px;height:500px;''></img><p>If you have memorised all the portraits and names and are ready to start, press Continue.</p><p><strong>Please note: Your memory of these faces will be tested 4 times during this experiment.</strong></p>","0","html-button-response","306","1420158","0.0-18.0-0.0","84826","List2B","black","man","","","","","","","","","","","","",""
"3219.1000003814697","<img src=""portrait/BW2.jpg""style=""height:400px;""></img>","2","html-button-response","307","1424390","0.0-18.0-1.0","84826","List2B","black","man","","true","2","","","","","","","","","",""
"null","CORRECT","","html-keyboard-response","308","1425910","0.0-18.0-2.0-0.0","84826","List2B","black","man","","","","null","","","","","","","","",""
"2339.5999999046326","<img src=""portrait/WM2.jpg""style=""height:400px;""></img>","7","html-button-response","309","1428255","0.0-18.0-4.0","84826","List2B","black","man","","true","7","","","","","","","","","",""
"null","CORRECT","","html-keyboard-response","310","1429765","0.0-18.0-5.0-0.0","84826","List2B","black","man","","","","null","","","","","","","","",""
"2383.7000002861023","<img src=""portrait/WM1.jpg""style=""height:400px;""></img>","6","html-button-response","311","1432153","0.0-18.0-7.0","84826","List2B","black","man","","true","6","","","","","","","","","",""
"null","CORRECT","","html-keyboard-response","312","1433673","0.0-18.0-8.0-0.0","84826","List2B","black","man","","","","null","","","","","","","","",""
"2146","<img src=""portrait/BM2.jpg""style=""height:400px;""></img>","5","html-button-response","313","1435822","0.0-18.0-10.0","84826","List2B","black","man","","true","5","","","","","","","","","",""
"null","CORRECT","","html-keyboard-response","314","1437341","0.0-18.0-11.0-0.0","84826","List2B","black","man","","","","null","","","","","","","","",""
"1926.8000001907349","<img src=""portrait/WW1.jpg""style=""height:400px;""></img>","1","html-button-response","315","1439272","0.0-18.0-13.0","84826","List2B","black","man","","true","1","","","","","","","","","",""
"null","CORRECT","","html-keyboard-response","316","1440794","0.0-18.0-14.0-0.0","84826","List2B","black","man","","","","null","","","","","","","","",""
"2550.199999809265","<img src=""portrait/WW2.jpg""style=""height:400px;""></img>","3","html-button-response","317","1443348","0.0-18.0-16.0","84826","List2B","black","man","","true","3","","","","","","","","","",""
"null","CORRECT","","html-keyboard-response","318","1444871","0.0-18.0-17.0-0.0","84826","List2B","black","man","","","","null","","","","","","","","",""
"2268.4000000953674","<img src=""portrait/BM1.jpg""style=""height:400px;""></img>","4","html-button-response","319","1447143","0.0-18.0-19.0","84826","List2B","black","man","","true","4","","","","","","","","","",""
"null","CORRECT","","html-keyboard-response","320","1448655","0.0-18.0-20.0-0.0","84826","List2B","black","man","","","","null","","","","","","","","",""
"2460.7000002861023","<img src=""portrait/BW1.jpg""style=""height:400px;""></img>","0","html-button-response","321","1451120","0.0-18.0-22.0","84826","List2B","black","man","","true","0","","","","","","","","","",""
"null","CORRECT","","html-keyboard-response","322","1452628","0.0-18.0-23.0-0.0","84826","List2B","black","man","","","","null","","","","","","","","",""
"1787.3999996185303","<p>You got 8 out of 8 right first time. Press Continue.</p>","0","html-button-response","323","1454420","0.0-18.0-25.0","84826","List2B","black","man","","","","","","","","","","","","",""
"null","<div style=""font-size:60px;"">+</div>","","html-keyboard-response","324","1455940","0.0-19.0-0.0","84826","List2B","black","man","","","","null","","","","","","","","",""
"null","<img src=""stim_listB/seduce2.gif""style=""height:400px;""></stim_listB>","","html-keyboard-response","325","1457944","0.0-19.0-1.0","84826","List2B","black","man","","","","null","","","","","","","","",""
"null","is being seduced by","","html-keyboard-response","326","1459955","0.0-19.0-2.0","84826","List2B","black","man","","","","null","","","","","","","","",""
"3585","","","survey-text","327","1463550","0.0-19.0-3.0","84826","List2B","black","man","","","","","{""Q0"":""dave is being seduced by ruth""}","<img src=""stim_listB/seduce2.gif""style=""height:400px;""></stim_listB>","is being seduced by","","","","","",""
"null","<div style=""font-size:60px;"">+</div>","","html-keyboard-response","328","1464056","0.0-19.0-0.1","84826","List2B","black","man","","","","null","","","","","","","","",""
"null","<img src=""stim_listB/hug6.gif""style=""height:400px;""></stim_listB>","","html-keyboard-response","329","1466067","0.0-19.0-1.1","84826","List2B","black","man","","","","null","","","","","","","","",""
"null","is being hugged by","","html-keyboard-response","330","1468070","0.0-19.0-2.1","84826","List2B","black","man","","","","null","","","","","","","","",""
"3319","","","survey-text","331","1471400","0.0-19.0-3.1","84826","List2B","black","man","","","","","{""Q0"":""dave is being hugged by mike""}","<img src=""stim_listB/hug6.gif""style=""height:400px;""></stim_listB>","is being hugged by","","","","","",""
"null","<div style=""font-size:60px;"">+</div>","","html-keyboard-response","332","1471916","0.0-19.0-0.2","84826","List2B","black","man","","","","null","","","","","","","","",""
"null","<img src=""stim_listB/oppose3.gif""style=""height:400px;""></stim_listB>","","html-keyboard-response","333","1473933","0.0-19.0-1.2","84826","List2B","black","man","","","","null","","","","","","","","",""
"null","is opposing","","html-keyboard-response","334","1475939","0.0-19.0-2.2","84826","List2B","black","man","","","","null","","","","","","","","",""
"3961.300000190735","","","survey-text","335","1479911","0.0-19.0-3.2","84826","List2B","black","man","","","","","{""Q0"":""mike is opposing kate""}","<img src=""stim_listB/oppose3.gif""style=""height:400px;""></stim_listB>","is opposing","","","","","",""
"null","<div style=""font-size:60px;"">+</div>","","html-keyboard-response","336","1480422","0.0-19.0-0.3","84826","List2B","black","man","","","","null","","","","","","","","",""
"null","<img src=""stim_listB/copy2.gif""style=""height:400px;""></stim_listB>","","html-keyboard-response","337","1482436","0.0-19.0-1.3","84826","List2B","black","man","","","","null","","","","","","","","",""
"null","is being copied by","","html-keyboard-response","338","1484452","0.0-19.0-2.3","84826","List2B","black","man","","","","null","","","","","","","","",""
"4202.699999809265","","","survey-text","339","1488665","0.0-19.0-3.3","84826","List2B","black","man","","","","","{""Q0"":""luke is being copied by jane""}","<img src=""stim_listB/copy2.gif""style=""height:400px;""></stim_listB>","is being copied by","","","","","",""
"null","<div style=""font-size:60px;"">+</div>","","html-keyboard-response","340","1489177","0.0-19.0-0.4","84826","List2B","black","man","","","","null","","","","","","","","",""
"null","<img src=""stim_listB/shout3.gif""style=""height:400px;""></stim_listB>","","html-keyboard-response","341","1491189","0.0-19.0-1.4","84826","List2B","black","man","","","","null","","","","","","","","",""
"null","is shouting at","","html-keyboard-response","342","1493202","0.0-19.0-2.4","84826","List2B","black","man","","","","null","","","","","","","","",""
"3854.5","","","survey-text","343","1497066","0.0-19.0-3.4","84826","List2B","black","man","","","","","{""Q0"":""fred is shouting at beth""}","<img src=""stim_listB/shout3.gif""style=""height:400px;""></stim_listB>","is shouting at","","","","","",""
"null","<div style=""font-size:60px;"">+</div>","","html-keyboard-response","344","1497576","0.0-19.0-0.5","84826","List2B","black","man","","","","null","","","","","","","","",""
"null","<img src=""stim_listB/copy1.gif""style=""height:400px;""></stim_listB>","","html-keyboard-response","345","1499583","0.0-19.0-1.5","84826","List2B","black","man","","","","null","","","","","","","","",""
"null","is copying","","html-keyboard-response","346","1501598","0.0-19.0-2.5","84826","List2B","black","man","","","","null","","","","","","","","",""
"2321.199999809265","","","survey-text","347","1503930","0.0-19.0-3.5","84826","List2B","black","man","","","","","{""Q0"":""ruth is copying dave""}","<img src=""stim_listB/copy1.gif""style=""height:400px;""></stim_listB>","is copying","","","","","",""
"null","<div style=""font-size:60px;"">+</div>","","html-keyboard-response","348","1504440","0.0-19.0-0.6","84826","List2B","black","man","","","","null","","","","","","","","",""
"null","<img src=""stim_listB/kiss6.gif""style=""height:400px;""></stim_listB>","","html-keyboard-response","349","1506449","0.0-19.0-1.6","84826","List2B","black","man","","","","null","","","","","","","","",""
"null","is being kissed by","","html-keyboard-response","350","1508458","0.0-19.0-2.6","84826","List2B","black","man","","","","null","","","","","","","","",""
"6393.800000190735","","","survey-text","351","1514861","0.0-19.0-3.6","84826","List2B","black","man","","","","","{""Q0"":""dave is being kissed by mike""}","<img src=""stim_listB/kiss6.gif""style=""height:400px;""></stim_listB>","is being kissed by","","","","","",""
"null","<div style=""font-size:60px;"">+</div>","","html-keyboard-response","352","1515373","0.0-19.0-0.7","84826","List2B","black","man","","","","null","","","","","","","","",""
"null","<img src=""stim_listB/shout5.gif""style=""height:400px;""></stim_listB>","","html-keyboard-response","353","1517379","0.0-19.0-1.7","84826","List2B","black","man","","","","null","","","","","","","","",""
"null","is shouting at","","html-keyboard-response","354","1519385","0.0-19.0-2.7","84826","List2B","black","man","","","","null","","","","","","","","",""
"3712.2999997138977","","","survey-text","355","1523108","0.0-19.0-3.7","84826","List2B","black","man","","","","","{""Q0"":""fred is shouting at luke""}","<img src=""stim_listB/shout5.gif""style=""height:400px;""></stim_listB>","is shouting at","","","","","",""
"null","<div style=""font-size:60px;"">+</div>","","html-keyboard-response","356","1523612","0.0-19.0-0.8","84826","List2B","black","man","","","","null","","","","","","","","",""
"null","<img src=""stim_listB/greet3.gif""style=""height:400px;""></stim_listB>","","html-keyboard-response","357","1525626","0.0-19.0-1.8","84826","List2B","black","man","","","","null","","","","","","","","",""
"null","is greeting","","html-keyboard-response","358","1527635","0.0-19.0-2.8","84826","List2B","black","man","","","","null","","","","","","","","",""
"3400.3999996185303","","","survey-text","359","1531046","0.0-19.0-3.8","84826","List2B","black","man","","","","","{""Q0"":""beth is greeting mike""}","<img src=""stim_listB/greet3.gif""style=""height:400px;""></stim_listB>","is greeting","","","","","",""
"null","<div style=""font-size:60px;"">+</div>","","html-keyboard-response","360","1531561","0.0-19.0-0.9","84826","List2B","black","man","","","","null","","","","","","","","",""
"null","<img src=""stim_listB/oppose4.gif""style=""height:400px;""></stim_listB>","","html-keyboard-response","361","1533566","0.0-19.0-1.9","84826","List2B","black","man","","","","null","","","","","","","","",""
"null","is being opposed by","","html-keyboard-response","362","1535569","0.0-19.0-2.9","84826","List2B","black","man","","","","null","","","","","","","","",""
"3643.300000190735","","","survey-text","363","1539223","0.0-19.0-3.9","84826","List2B","black","man","","","","","{""Q0"":""fred is being opposed by beth""}","<img src=""stim_listB/oppose4.gif""style=""height:400px;""></stim_listB>","is being opposed by","","","","","",""
"null","<div style=""font-size:60px;"">+</div>","","html-keyboard-response","364","1539728","0.0-19.0-0.10","84826","List2B","black","man","","","","null","","","","","","","","",""
"null","<img src=""stim_listB/challenge6.gif""style=""height:400px;""></stim_listB>","","html-keyboard-response","365","1541735","0.0-19.0-1.10","84826","List2B","black","man","","","","null","","","","","","","","",""
"null","is being challenged by","","html-keyboard-response","366","1543750","0.0-19.0-2.10","84826","List2B","black","man","","","","null","","","","","","","","",""
"3946.9000000953674","","","survey-text","367","1547709","0.0-19.0-3.10","84826","List2B","black","man","","","","","{""Q0"":""mike is being challenged by luke""}","<img src=""stim_listB/challenge6.gif""style=""height:400px;""></stim_listB>","is being challenged by","","","","","",""
"null","<div style=""font-size:60px;"">+</div>","","html-keyboard-response","368","1548227","0.0-19.0-0.11","84826","List2B","black","man","","","","null","","","","","","","","",""
"null","<img src=""stim_listB/seduce8.gif""style=""height:400px;""></stim_listB>","","html-keyboard-response","369","1550240","0.0-19.0-1.11","84826","List2B","black","man","","","","null","","","","","","","","",""
"null","is being seduced by","","html-keyboard-response","370","1552247","0.0-19.0-2.11","84826","List2B","black","man","","","","null","","","","","","","","",""
"12780.5","","","survey-text","371","1565038","0.0-19.0-3.11","84826","List2B","black","man","","","","","{""Q0"":""beth is being seduced by jane""}","<img src=""stim_listB/seduce8.gif""style=""height:400px;""></stim_listB>","is being seduced by","","","","","",""
"null","<div style=""font-size:60px;"">+</div>","","html-keyboard-response","372","1565548","0.0-19.0-0.12","84826","List2B","black","man","","","","null","","","","","","","","",""
"null","<img src=""stim_listB/shout8.gif""style=""height:400px;""></stim_listB>","","html-keyboard-response","373","1567557","0.0-19.0-1.12","84826","List2B","black","man","","","","null","","","","","","","","",""
"null","is being shouted at by","","html-keyboard-response","374","1569568","0.0-19.0-2.12","84826","List2B","black","man","","","","null","","","","","","","","",""
"4442.900000095367","","","survey-text","375","1574022","0.0-19.0-3.12","84826","List2B","black","man","","","","","{""Q0"":""jane is being shouted at by kate""}","<img src=""stim_listB/shout8.gif""style=""height:400px;""></stim_listB>","is being shouted at by","","","","","",""
"null","<div style=""font-size:60px;"">+</div>","","html-keyboard-response","376","1574534","0.0-19.0-0.13","84826","List2B","black","man","","","","null","","","","","","","","",""
"null","<img src=""stim_listB/copy8.gif""style=""height:400px;""></stim_listB>","","html-keyboard-response","377","1576540","0.0-19.0-1.13","84826","List2B","black","man","","","","null","","","","","","","","",""
"null","is being copied by","","html-keyboard-response","378","1578554","0.0-19.0-2.13","84826","List2B","black","man","","","","null","","","","","","","","",""
"4077.4000000953674","","","survey-text","379","1582642","0.0-19.0-3.13","84826","List2B","black","man","","","","","{""Q0"":""ruth is being copied by kate""}","<img src=""stim_listB/copy8.gif""style=""height:400px;""></stim_listB>","is being copied by","","","","","",""
"null","<div style=""font-size:60px;"">+</div>","","html-keyboard-response","380","1583160","0.0-19.0-0.14","84826","List2B","black","man","","","","null","","","","","","","","",""
"null","<img src=""stim_listB/look4.gif""style=""height:400px;""></stim_listB>","","html-keyboard-response","381","1585173","0.0-19.0-1.14","84826","List2B","black","man","","","","null","","","","","","","","",""
"null","is being looked at by","","html-keyboard-response","382","1587188","0.0-19.0-2.14","84826","List2B","black","man","","","","null","","","","","","","","",""
"4496.60000038147","","","survey-text","383","1591695","0.0-19.0-3.14","84826","List2B","black","man","","","","","{""Q0"":""mike is being looked at by kate""}","<img src=""stim_listB/look4.gif""style=""height:400px;""></stim_listB>","is being looked at by","","","","","",""
"null","<div style=""font-size:60px;"">+</div>","","html-keyboard-response","384","1592204","0.0-19.0-0.15","84826","List2B","black","man","","","","null","","","","","","","","",""
"null","<img src=""stim_listB/copy4.gif""style=""height:400px;""></stim_listB>","","html-keyboard-response","385","1594214","0.0-19.0-1.15","84826","List2B","black","man","","","","null","","","","","","","","",""
"null","is being copied by","","html-keyboard-response","386","1596225","0.0-19.0-2.15","84826","List2B","black","man","","","","null","","","","","","","","",""
"3313","","","survey-text","387","1599549","0.0-19.0-3.15","84826","List2B","black","man","","","","","{""Q0"":""fred is being copied by kate""}","<img src=""stim_listB/copy4.gif""style=""height:400px;""></stim_listB>","is being copied by","","","","","",""
"null","<div style=""font-size:60px;"">+</div>","","html-keyboard-response","388","1600057","0.0-19.0-0.16","84826","List2B","black","man","","","","null","","","","","","","","",""
"null","<img src=""stim_listB/hug7.gif""style=""height:400px;""></stim_listB>","","html-keyboard-response","389","1602075","0.0-19.0-1.16","84826","List2B","black","man","","","","null","","","","","","","","",""
"null","is hugging","","html-keyboard-response","390","1604088","0.0-19.0-2.16","84826","List2B","black","man","","","","null","","","","","","","","",""
"4414.299999713898","","","survey-text","391","1608537","0.0-19.0-3.16","84826","List2B","black","man","","","","","{""Q0"":""beth is hugging ruth""}","<img src=""stim_listB/hug7.gif""style=""height:400px;""></stim_listB>","is hugging","","","","","",""
"null","<div style=""font-size:60px;"">+</div>","","html-keyboard-response","392","1609057","0.0-19.0-0.17","84826","List2B","black","man","","","","null","","","","","","","","",""
"null","<img src=""stim_listB/shout1.gif""style=""height:400px;""></stim_listB>","","html-keyboard-response","393","1611066","0.0-19.0-1.17","84826","List2B","black","man","","","","null","","","","","","","","",""
"null","is shouting at","","html-keyboard-response","394","1613081","0.0-19.0-2.17","84826","List2B","black","man","","","","null","","","","","","","","",""
"3178.699999809265","","","survey-text","395","1616271","0.0-19.0-3.17","84826","List2B","black","man","","","","","{""Q0"":""luke is shouting at ruth""}","<img src=""stim_listB/shout1.gif""style=""height:400px;""></stim_listB>","is shouting at","","","","","",""
"null","<div style=""font-size:60px;"">+</div>","","html-keyboard-response","396","1616781","0.0-19.0-0.18","84826","List2B","black","man","","","","null","","","","","","","","",""
"null","<img src=""stim_listB/touch6.gif""style=""height:400px;""></stim_listB>","","html-keyboard-response","397","1618789","0.0-19.0-1.18","84826","List2B","black","man","","","","null","","","","","","","","",""
"null","is being touched by","","html-keyboard-response","398","1620802","0.0-19.0-2.18","84826","List2B","black","man","","","","null","","","","","","","","",""
"6595","","","survey-text","399","1627410","0.0-19.0-3.18","84826","List2B","black","man","","","","","{""Q0"":""luke is being touched by fred""}","<img src=""stim_listB/touch6.gif""style=""height:400px;""></stim_listB>","is being touched by","","","","","",""
"null","<div style=""font-size:60px;"">+</div>","","html-keyboard-response","400","1627925","0.0-19.0-0.19","84826","List2B","black","man","","","","null","","","","","","","","",""
"null","<img src=""stim_listB/oppose2.gif""style=""height:400px;""></stim_listB>","","html-keyboard-response","401","1629929","0.0-19.0-1.19","84826","List2B","black","man","","","","null","","","","","","","","",""
"null","is being opposed by","","html-keyboard-response","402","1631945","0.0-19.0-2.19","84826","List2B","black","man","","","","null","","","","","","","","",""
"4309.200000286102","","","survey-text","403","1636265","0.0-19.0-3.19","84826","List2B","black","man","","","","","{""Q0"":""luke is being opposed by ruth""}","<img src=""stim_listB/oppose2.gif""style=""height:400px;""></stim_listB>","is being opposed by","","","","","",""
"2712.9000000953674","<p>Thank you for completing that task.</p><p>The final part of this session is a questionnaire that will take about 4 minutes.</p><p>Press Continue.</p>","0","html-button-response","404","1638983","0.0-20.0","84826","List2B","black","man","","","","","","","","","","","","",""
"27118.800000190735","","","survey-text","405","1667142","0.0-21.0","84826","List2B","black","man","","","","","{""Q0"":""21"",""Q1"":""English"",""Q2"":""English"",""Q3"":""United States of America"",""Q4"":""American"",""Q5"":""African American"",""Q6"":""Male""}","","","demographics","","","","",""
"4464.200000286102","<p>Have you lived in the USA for the last 5 years or more?</p>","0","html-button-response","406","1671614","0.0-22.0","84826","List2B","black","man","","","","","","","","fiveyears","","","","",""
"2073.5999999046326","<p>Move the slider to show the extent to which you agree with the following statements.</p>","0","html-button-response","407","1674708","0.0-23.0","84826","List2B","black","man","","","","","","","","","","","","",""
"13237.60000038147","","","html-slider-response","408","1688963","0.0-24.0-0.0-0.0","84826","List2B","black","man","","","","","","","","survey_gender","68","","","I consider myself a highly empathetic person.","filler"
"7558.5","","","html-slider-response","409","1696529","0.0-24.0-0.0-0.1","84826","List2B","black","man","","","","","","","","survey_gender","73","","","People of my gender are very similar to each other.","verysimilar"
"5911.300000190735","","","html-slider-response","410","1702447","0.0-24.0-0.0-0.2","84826","List2B","black","man","","","","","","","","survey_gender","71","","","I feel committed to my gender.","committed"
"4599.5","","","html-slider-response","411","1707053","0.0-24.0-0.0-0.3","84826","List2B","black","man","","","","","","","","survey_gender","9","","","Routine is not important to me.","filler"
"4291.700000286102","","","html-slider-response","412","1711351","0.0-24.0-0.0-0.4","84826","List2B","black","man","","","","","","","","survey_gender","84","","","I have a lot in common with the average person of my gender.","average"
"5732","","","html-slider-response","413","1717088","0.0-24.0-0.0-0.5","84826","List2B","black","man","","","","","","","","survey_gender","0","","","Family is not more important to me than friendship.","filler"
"14417.099999904633","","","html-slider-response","414","1731513","0.0-24.0-0.0-0.6","84826","List2B","black","man","","","","","","","","survey_gender","49","","","People of my gender have a lot in common with each other.","common"
"4062.1000003814697","","","html-slider-response","415","1735581","0.0-24.0-0.0-0.7","84826","List2B","black","man","","","","","","","","survey_gender","80","","","I am glad to have the friends that I have.","filler"
"5010.10000038147","","","html-slider-response","416","1740597","0.0-24.0-0.0-0.8","84826","List2B","black","man","","","","","","","","survey_gender","59","","","It is pleasant to be my gender.","pleasant"
"6020.900000095367","","","html-slider-response","417","1746625","0.0-24.0-0.0-0.9","84826","List2B","black","man","","","","","","","","survey_gender","4","","","Being my gender is an important part of how I see myself.","important"
"2589.300000190735","","","html-slider-response","418","1749220","0.0-24.0-0.0-0.10","84826","List2B","black","man","","","","","","","","survey_gender","72","","","I feel a bond with my friends.","filler"
"3061.300000190735","","","html-slider-response","419","1752287","0.0-24.0-0.0-0.11","84826","List2B","black","man","","","","","","","","survey_gender","68","","","Most of the friends in my life are very similar to me.","filler"
"2730.699999809265","","","html-slider-response","420","1755025","0.0-24.0-0.0-0.12","84826","List2B","black","man","","","","","","","","survey_gender","60","","","My friends understand me.","filler"
"2976.6000003814697","","","html-slider-response","421","1758005","0.0-24.0-0.0-0.13","84826","List2B","black","man","","","","","","","","survey_gender","63","","","I would say I am an animal person.","filler"
"5659.200000286102","","","html-slider-response","422","1763671","0.0-24.0-0.0-0.14","84826","List2B","black","man","","","","","","","","survey_gender","25","","","The fact that I am my gender is an important part of my identity.","identity"
"2926","","","html-slider-response","423","1766604","0.0-24.0-0.0-0.15","84826","List2B","black","man","","","","","","","","survey_gender","71","","","I am similar to the average person of my gender.","similar"
"3873.4000000953674","","","html-slider-response","424","1770483","0.0-24.0-0.0-0.16","84826","List2B","black","man","","","","","","","","survey_gender","72","","","I often think about my actions.","filler"
"5765.799999713898","","","html-slider-response","425","1776254","0.0-24.0-0.0-0.17","84826","List2B","black","man","","","","","","","","survey_gender","52","","","I think that my gender has a lot to be proud of.","proud"
"3606","","","html-slider-response","426","1779868","0.0-24.0-0.0-0.18","84826","List2B","black","man","","","","","","","","survey_gender","53","","","I am glad to be my gender.","glad"
"3774.300000190735","","","html-slider-response","427","1783649","0.0-24.0-0.0-0.19","84826","List2B","black","man","","","","","","","","survey_gender","52","","","I feel a bond with my gender.","bond"
"4631.599999904633","","","html-slider-response","428","1788285","0.0-24.0-0.0-0.20","84826","List2B","black","man","","","","","","","","survey_gender","44","","","Being my gender gives me a good feeling.","feeling"
"4879.199999809265","","","html-slider-response","429","1793173","0.0-24.0-0.0-0.21","84826","List2B","black","man","","","","","","","","survey_gender","74","","","I have a lot in common with my friends.","filler"
"3111.7000002861023","","","html-slider-response","430","1796290","0.0-24.0-0.0-0.22","84826","List2B","black","man","","","","","","","","survey_gender","74","","","I feel solidarity with my gender.","solidarity"
"3501.7999997138977","","","html-slider-response","431","1799798","0.0-24.0-0.0-0.23","84826","List2B","black","man","","","","","","","","survey_gender","75","","","My friends have a lot in common with each other.","filler"
"2346.2000002861023","","","html-slider-response","432","1802150","0.0-24.0-0.0-0.24","84826","List2B","black","man","","","","","","","","survey_gender","74","","","I feel solidarity with my friends.","filler"
"3921","","","html-slider-response","433","1806072","0.0-24.0-0.0-0.25","84826","List2B","black","man","","","","","","","","survey_gender","72","","","Being around my friends gives me a good feeling.","filler"
"2982.5999999046326","","","html-slider-response","434","1809060","0.0-24.0-0.0-0.26","84826","List2B","black","man","","","","","","","","survey_gender","26","","","I often think about the fact that I am my gender.","often"
"4532.900000095367","","","html-slider-response","435","1813597","0.0-24.0-0.0-0.27","84826","List2B","black","man","","","","","","","","survey_gender","100","","","It is not always easy for people to know what I am thinking.","filler"
"2735","","","html-slider-response","436","1816339","0.0-24.0-1.0-0.0","84826","List2B","black","man","","","","","","","","survey_race","74","","","People of my race have a lot in common with each other.","common"
"4476.099999904633","","","html-slider-response","437","1820821","0.0-24.0-1.0-0.1","84826","List2B","black","man","","","","","","","","survey_race","83","","","I consider myself an introvert.","filler"
"3882","","","html-slider-response","438","1824710","0.0-24.0-1.0-0.2","84826","List2B","black","man","","","","","","","","survey_race","79","","","I feel solidarity with people the same age as me.","filler"
"2276.9000000953674","","","html-slider-response","439","1826993","0.0-24.0-1.0-0.3","84826","List2B","black","man","","","","","","","","survey_race","27","","","I consider myself an extrovert.","filler"
"4602","","","html-slider-response","440","1831602","0.0-24.0-1.0-0.4","84826","List2B","black","man","","","","","","","","survey_race","0","","","Getting older does not worry me.","filler"
"2966.199999809265","","","html-slider-response","441","1834574","0.0-24.0-1.0-0.5","84826","List2B","black","man","","","","","","","","survey_race","75","","","I feel committed to my race.","committed"
"2305.6000003814697","","","html-slider-response","442","1836885","0.0-24.0-1.0-0.6","84826","List2B","black","man","","","","","","","","survey_race","76","","","Being my race gives me a good feeling.","feeling"
"8169.599999904633","","","html-slider-response","443","1845059","0.0-24.0-1.0-0.7","84826","List2B","black","man","","","","","","","","survey_race","63","","","I have a lot in common with the average person of my race.","average"
"4508.099999904633","","","html-slider-response","444","1849573","0.0-24.0-1.0-0.8","84826","List2B","black","man","","","","","","","","survey_race","100","","","I often think about the fact that I am my race.","often"
"2672.5999999046326","","","html-slider-response","445","1852251","0.0-24.0-1.0-0.9","84826","List2B","black","man","","","","","","","","survey_race","70","","","I am similar to the average person of my race.","similar"
"2270.5","","","html-slider-response","446","1854526","0.0-24.0-1.0-0.10","84826","List2B","black","man","","","","","","","","survey_race","73","","","I am glad to be my race.","glad"
"3813.5999999046326","","","html-slider-response","447","1858345","0.0-24.0-1.0-0.11","84826","List2B","black","man","","","","","","","","survey_race","76","","","Being my race is an important part of how I see myself.","important"
"3464.8999996185303","","","html-slider-response","448","1861824","0.0-24.0-1.0-0.12","84826","List2B","black","man","","","","","","","","survey_race","75","","","I feel a bond with people the same age as me.","filler"
"3027.9000000953674","","","html-slider-response","449","1864858","0.0-24.0-1.0-0.13","84826","List2B","black","man","","","","","","","","survey_race","26","","","I enjoy being in large groups.","filler"
"3977.6000003814697","","","html-slider-response","450","1868840","0.0-24.0-1.0-0.14","84826","List2B","black","man","","","","","","","","survey_race","25","","","My age is not an important part of who I am.","filler"
"4329.900000095367","","","html-slider-response","451","1873176","0.0-24.0-1.0-0.15","84826","List2B","black","man","","","","","","","","survey_race","56","","","People of my race are very similar to each other.","verysimilar"
"2697.2999997138977","","","html-slider-response","452","1875879","0.0-24.0-1.0-0.16","84826","List2B","black","man","","","","","","","","survey_race","78","","","I feel solidarity with my race.","solidarity"
"3651.7999997138977","","","html-slider-response","453","1879538","0.0-24.0-1.0-0.17","84826","List2B","black","man","","","","","","","","survey_race","57","","","I am glad to be the age I am.","filler"
"3560","","","html-slider-response","454","1883103","0.0-24.0-1.0-0.18","84826","List2B","black","man","","","","","","","","survey_race","77","","","The fact that I am my race is an important part of my identity.","identity"
"3370.2999997138977","","","html-slider-response","455","1886478","0.0-24.0-1.0-0.19","84826","List2B","black","man","","","","","","","","survey_race","0","","","Being my age gives me a good feeling.","filler"
"4111","","","html-slider-response","456","1890597","0.0-24.0-1.0-0.20","84826","List2B","black","man","","","","","","","","survey_race","73","","","I have a lot in common with people of a similar age to me.","filler"
"3555.5","","","html-slider-response","457","1894158","0.0-24.0-1.0-0.21","84826","List2B","black","man","","","","","","","","survey_race","100","","","I think that my race has a lot to be proud of.","proud"
"5318.299999713898","","","html-slider-response","458","1899482","0.0-24.0-1.0-0.22","84826","List2B","black","man","","","","","","","","survey_race","54","","","People my age have a lot in common with each other.","filler"
"4011.800000190735","","","html-slider-response","459","1903499","0.0-24.0-1.0-0.23","84826","List2B","black","man","","","","","","","","survey_race","59","","","I often think about the fact that I am my age.","filler"
"4119.700000286102","","","html-slider-response","460","1907624","0.0-24.0-1.0-0.24","84826","List2B","black","man","","","","","","","","survey_race","0","","","The older I get, the wiser I feel.","filler"
"3525.7999997138977","","","html-slider-response","461","1911155","0.0-24.0-1.0-0.25","84826","List2B","black","man","","","","","","","","survey_race","20","","","I am glad to be my age.","filler"
"3713.7999997138977","","","html-slider-response","462","1914875","0.0-24.0-1.0-0.26","84826","List2B","black","man","","","","","","","","survey_race","39","","","It is pleasant to be my race.","pleasant"
"2332.5999999046326","","","html-slider-response","463","1917215","0.0-24.0-1.0-0.27","84826","List2B","black","man","","","","","","","","survey_race","80","","","I feel a bond with my race.","bond"
"11900.299999713898","","","survey-text","464","1929137","0.0-25.0","84826","List2B","black","man","","","","","{""Q0"":""615ca3343bbb716273363037""}","","","worker_id","","","","",""
"40541.7000002861","","","external-html","465","1970008","0.0-26.0","84826","List2B","black","man","debrief.html","","","","","","","","","","","",""
