rt,stimulus,button_pressed,trial_type,trial_index,time_elapsed,internal_node_id,subject,list,ppt_race,ppt_gender,url,first_guess,correct,key_press,responses,image_type,phrase_type,test_part,response,stimulus1,stimulus2,question_type,survey_item
30996.6,Welcome to the experiment. Press Continue to begin.,0,html-button-response,0,31000,0.0-0.0,84916,List1B,black,man,,,,,,,,,,,,,
10562.5,,,external-html,1,43789,0.0-1.0,84916,List1B,black,man,consent.html,,,,,,,,,,,,
50492,"<p>On the next page, you will see portraits of 8 people and their names.</p><p>Your first task is to take a few minutes to memorise the names of these people.</p><p>You will have to recall their names during the rest of the experiment, so it is</p><p>essential that you try to memorise these people and their names as best as you can.</p><br><p><strong>You will then be tested on your memory of these names and portraits.</strong></p><br><p>The experiment will start after you have completed this memory test.</p><br><p>Ready?</p>",0,html-button-response,2,94282,0.0-2.0,84916,List1B,black,man,,,,,,,,,,,,,
78859.6,"<img src='img/portrait_matrix_list1.jpg' style='width:900px;height:500px;''></img><p>If you have memorised all the portraits and names and are ready to start, press Continue.</p><p><strong>Please note: Your memory of these faces will be tested 4 times during this experiment.</strong></p>",0,html-button-response,3,174155,0.0-3.0-0.0,84916,List1B,black,man,,,,,,,,,,,,,
34317.7,"<img src=""portrait/BM2.jpg""style=""height:400px;""></img>",5,html-button-response,4,209488,0.0-3.0-1.0,84916,List1B,black,man,,TRUE,5,,,,,,,,,,
null,CORRECT,,html-keyboard-response,5,211006,0.0-3.0-2.0-0.0,84916,List1B,black,man,,,,null,,,,,,,,,
12424.7,"<img src=""portrait/WW1.jpg""style=""height:400px;""></img>",1,html-button-response,6,223432,0.0-3.0-4.0,84916,List1B,black,man,,TRUE,1,,,,,,,,,,
null,CORRECT,,html-keyboard-response,7,224948,0.0-3.0-5.0-0.0,84916,List1B,black,man,,,,null,,,,,,,,,
5795.7,"<img src=""portrait/BW1.jpg""style=""height:400px;""></img>",0,html-button-response,8,230745,0.0-3.0-7.0,84916,List1B,black,man,,TRUE,0,,,,,,,,,,
null,CORRECT,,html-keyboard-response,9,232256,0.0-3.0-8.0-0.0,84916,List1B,black,man,,,,null,,,,,,,,,
7342,"<img src=""portrait/BW2.jpg""style=""height:400px;""></img>",2,html-button-response,10,239600,0.0-3.0-10.0,84916,List1B,black,man,,TRUE,2,,,,,,,,,,
null,CORRECT,,html-keyboard-response,11,241117,0.0-3.0-11.0-0.0,84916,List1B,black,man,,,,null,,,,,,,,,
5003,"<img src=""portrait/WM1.jpg""style=""height:400px;""></img>",6,html-button-response,12,246122,0.0-3.0-13.0,84916,List1B,black,man,,TRUE,6,,,,,,,,,,
null,CORRECT,,html-keyboard-response,13,247652,0.0-3.0-14.0-0.0,84916,List1B,black,man,,,,null,,,,,,,,,
7083.4,"<img src=""portrait/BM1.jpg""style=""height:400px;""></img>",4,html-button-response,14,254737,0.0-3.0-16.0,84916,List1B,black,man,,TRUE,4,,,,,,,,,,
null,CORRECT,,html-keyboard-response,15,256251,0.0-3.0-17.0-0.0,84916,List1B,black,man,,,,null,,,,,,,,,
9172.7,"<img src=""portrait/WM2.jpg""style=""height:400px;""></img>",7,html-button-response,16,265426,0.0-3.0-19.0,84916,List1B,black,man,,TRUE,7,,,,,,,,,,
null,CORRECT,,html-keyboard-response,17,266945,0.0-3.0-20.0-0.0,84916,List1B,black,man,,,,null,,,,,,,,,
16145.6,"<img src=""portrait/WW2.jpg""style=""height:400px;""></img>",3,html-button-response,18,283092,0.0-3.0-22.0,84916,List1B,black,man,,TRUE,3,,,,,,,,,,
null,CORRECT,,html-keyboard-response,19,284594,0.0-3.0-23.0-0.0,84916,List1B,black,man,,,,null,,,,,,,,,
1726.6,<p>You got 8 out of 8 right first time. Press Continue.</p>,0,html-button-response,20,286321,0.0-3.0-25.0,84916,List1B,black,man,,,,,,,,,,,,,
25921.4,"<p>In this experiment, you will view photographs of the people from the memory game interacting.</p><p>By using the <strong>exact</strong> phrase given <i>after</i> the photograph appears and recalling the correct names of the people in the photographs, form a sentence describing the interaction. You do not need to capitalise names.</p><p>Type your answer in the space provided. Please complete every sentence before moving onto the next trial.</p><p>You will only have a few seconds to memorise each given photograph and phrase before you can respond, so try your best to focus.</p><p>An example is given below. Press 'Continue' when you are ready.</p><img src='img/speaking_example.jpg' style='width:800px;height:460px;''></img>",0,html-button-response,21,313253,0.0-4.0,84916,List1B,black,man,,,,,,,,,,,,,
3203.7,"<p>Before the experiment starts, you will watch two example trials. Press 'Continue'.</p>",0,html-button-response,22,317470,0.0-5.0,84916,List1B,black,man,,,,,,,,,,,,,
null,<img src='img/play_eg.gif' style='height:400px;''></img>,,html-keyboard-response,23,320484,0.0-6.0,84916,List1B,black,man,,,,null,,,,,,,,,
null,<p>is playing with</p>,,html-keyboard-response,24,322499,0.0-7.0,84916,List1B,black,man,,,,null,,,,,,,,,
6899.2,<p><b>Answer:</b> kate is playing with beth</p>,0,html-button-response,25,329400,0.0-8.0,84916,List1B,black,man,,,,,,,,,,,,,
null,<img src='img/dance_eg.gif' style='height:400px;''></img>,,html-keyboard-response,26,332406,0.0-9.0,84916,List1B,black,man,,,,null,,,,,,,,,
null,<p>is being entertained by</p>,,html-keyboard-response,27,334422,0.0-10.0,84916,List1B,black,man,,,,null,,,,,,,,,
4620.3,<p><b>Answer:</b> luke is being entertained by dave</p>,0,html-button-response,28,339044,0.0-11.0,84916,List1B,black,man,,,,,,,,,,,,,
12757.5,"<p>Ready to start the experiment?</p><br><p><strong>Remember to describe the picture using a full sentence,</strong></p><p><strong>that combines the names of the people with the <i>exact</i> phrase given.</strong></p><p><strong>To receive full payment you must do this correctly.</strong></p><p><strong> You do not need to capitalise names or use punctuation.</strong></p><br><p>Press 'Continue' to begin.</p>",0,html-button-response,29,352804,0.0-12.0,84916,List1B,black,man,,,,,,,,,,,,,
null,"<div style=""font-size:60px;"">+</div>",,html-keyboard-response,30,354315,0.0-13.0-0.0,84916,List1B,black,man,,,,null,,,,,,,,,
null,"<img src=""stim_listB/kiss6.gif""style=""height:400px;""></stim_listB>",,html-keyboard-response,31,356320,0.0-13.0-1.0,84916,List1B,black,man,,,,null,,,,,,,,,
null,is being kissed by,,html-keyboard-response,32,358323,0.0-13.0-2.0,84916,List1B,black,man,,,,null,,,,,,,,,
43802.2,,,survey-text,33,402129,0.0-13.0-3.0,84916,List1B,black,man,,,,,"{""Q0"":""dave is being kissed by luke""}","<img src=""stim_listB/kiss6.gif""style=""height:400px;""></stim_listB>",is being kissed by,,,,,,
null,"<div style=""font-size:60px;"">+</div>",,html-keyboard-response,34,402640,0.0-13.0-0.1,84916,List1B,black,man,,,,null,,,,,,,,,
null,"<img src=""stim_listB/oppose3.gif""style=""height:400px;""></stim_listB>",,html-keyboard-response,35,404655,0.0-13.0-1.1,84916,List1B,black,man,,,,null,,,,,,,,,
null,is opposing,,html-keyboard-response,36,406670,0.0-13.0-2.1,84916,List1B,black,man,,,,null,,,,,,,,,
31593.8,,,survey-text,37,438266,0.0-13.0-3.1,84916,List1B,black,man,,,,,"{""Q0"":""dave is opposing jane""}","<img src=""stim_listB/oppose3.gif""style=""height:400px;""></stim_listB>",is opposing,,,,,,
null,"<div style=""font-size:60px;"">+</div>",,html-keyboard-response,38,438777,0.0-13.0-0.2,84916,List1B,black,man,,,,null,,,,,,,,,
null,"<img src=""stim_listB/greet1.gif""style=""height:400px;""></stim_listB>",,html-keyboard-response,39,440792,0.0-13.0-1.2,84916,List1B,black,man,,,,null,,,,,,,,,
null,is greeting,,html-keyboard-response,40,442807,0.0-13.0-2.2,84916,List1B,black,man,,,,null,,,,,,,,,
46112.7,,,survey-text,41,488922,0.0-13.0-3.2,84916,List1B,black,man,,,,,"{""Q0"":""mike is waving beth""}","<img src=""stim_listB/greet1.gif""style=""height:400px;""></stim_listB>",is greeting,,,,,,
null,"<div style=""font-size:60px;"">+</div>",,html-keyboard-response,42,489426,0.0-13.0-0.3,84916,List1B,black,man,,,,null,,,,,,,,,
null,"<img src=""stim_listB/copy5.gif""style=""height:400px;""></stim_listB>",,html-keyboard-response,43,491439,0.0-13.0-1.3,84916,List1B,black,man,,,,null,,,,,,,,,
null,is copying,,html-keyboard-response,44,493449,0.0-13.0-2.3,84916,List1B,black,man,,,,null,,,,,,,,,
25908,,,survey-text,45,519359,0.0-13.0-3.3,84916,List1B,black,man,,,,,"{""Q0"":""mike is copying luke""}","<img src=""stim_listB/copy5.gif""style=""height:400px;""></stim_listB>",is copying,,,,,,
null,"<div style=""font-size:60px;"">+</div>",,html-keyboard-response,46,519872,0.0-13.0-0.4,84916,List1B,black,man,,,,null,,,,,,,,,
null,"<img src=""stim_listB/kiss3.gif""style=""height:400px;""></stim_listB>",,html-keyboard-response,47,521891,0.0-13.0-1.4,84916,List1B,black,man,,,,null,,,,,,,,,
null,is kissing,,html-keyboard-response,48,523895,0.0-13.0-2.4,84916,List1B,black,man,,,,null,,,,,,,,,
19115.5,,,survey-text,49,543013,0.0-13.0-3.4,84916,List1B,black,man,,,,,"{""Q0"":""luke is kissing ruth""}","<img src=""stim_listB/kiss3.gif""style=""height:400px;""></stim_listB>",is kissing,,,,,,
null,"<div style=""font-size:60px;"">+</div>",,html-keyboard-response,50,543518,0.0-13.0-0.5,84916,List1B,black,man,,,,null,,,,,,,,,
null,"<img src=""stim_listB/kiss4.gif""style=""height:400px;""></stim_listB>",,html-keyboard-response,51,545523,0.0-13.0-1.5,84916,List1B,black,man,,,,null,,,,,,,,,
null,is being kissed by,,html-keyboard-response,52,547533,0.0-13.0-2.5,84916,List1B,black,man,,,,null,,,,,,,,,
88063.4,,,survey-text,53,635598,0.0-13.0-3.5,84916,List1B,black,man,,,,,"{""Q0"":""jane is being kissed by dave""}","<img src=""stim_listB/kiss4.gif""style=""height:400px;""></stim_listB>",is being kissed by,,,,,,
null,"<div style=""font-size:60px;"">+</div>",,html-keyboard-response,54,636108,0.0-13.0-0.6,84916,List1B,black,man,,,,null,,,,,,,,,
null,"<img src=""stim_listB/greet8.gif""style=""height:400px;""></stim_listB>",,html-keyboard-response,55,638116,0.0-13.0-1.6,84916,List1B,black,man,,,,null,,,,,,,,,
null,is being greeted by,,html-keyboard-response,56,640122,0.0-13.0-2.6,84916,List1B,black,man,,,,null,,,,,,,,,
21915.6,,,survey-text,57,662040,0.0-13.0-3.6,84916,List1B,black,man,,,,,"{""Q0"":""jane is being greeted by beth""}","<img src=""stim_listB/greet8.gif""style=""height:400px;""></stim_listB>",is being greeted by,,,,,,
null,"<div style=""font-size:60px;"">+</div>",,html-keyboard-response,58,662557,0.0-13.0-0.7,84916,List1B,black,man,,,,null,,,,,,,,,
null,"<img src=""stim_listB/greet7.gif""style=""height:400px;""></stim_listB>",,html-keyboard-response,59,664568,0.0-13.0-1.7,84916,List1B,black,man,,,,null,,,,,,,,,
null,is greeting,,html-keyboard-response,60,666577,0.0-13.0-2.7,84916,List1B,black,man,,,,null,,,,,,,,,
27774.8,,,survey-text,61,694355,0.0-13.0-3.7,84916,List1B,black,man,,,,,"{""Q0"":""jane is greeting ruth""}","<img src=""stim_listB/greet7.gif""style=""height:400px;""></stim_listB>",is greeting,,,,,,
null,"<div style=""font-size:60px;"">+</div>",,html-keyboard-response,62,694858,0.0-13.0-0.8,84916,List1B,black,man,,,,null,,,,,,,,,
null,"<img src=""stim_listB/oppose5.gif""style=""height:400px;""></stim_listB>",,html-keyboard-response,63,696872,0.0-13.0-1.8,84916,List1B,black,man,,,,null,,,,,,,,,
null,is opposing,,html-keyboard-response,64,698881,0.0-13.0-2.8,84916,List1B,black,man,,,,null,,,,,,,,,
23077.6,,,survey-text,65,721961,0.0-13.0-3.8,84916,List1B,black,man,,,,,"{""Q0"":""dave is opposing mike""}","<img src=""stim_listB/oppose5.gif""style=""height:400px;""></stim_listB>",is opposing,,,,,,
null,"<div style=""font-size:60px;"">+</div>",,html-keyboard-response,66,722477,0.0-13.0-0.9,84916,List1B,black,man,,,,null,,,,,,,,,
null,"<img src=""stim_listB/shout8.gif""style=""height:400px;""></stim_listB>",,html-keyboard-response,67,724484,0.0-13.0-1.9,84916,List1B,black,man,,,,null,,,,,,,,,
null,is being shouted at by,,html-keyboard-response,68,726493,0.0-13.0-2.9,84916,List1B,black,man,,,,null,,,,,,,,,
36569.4,,,survey-text,69,763065,0.0-13.0-3.9,84916,List1B,black,man,,,,,"{""Q0"":""ruth is being shouted at by jane""}","<img src=""stim_listB/shout8.gif""style=""height:400px;""></stim_listB>",is being shouted at by,,,,,,
null,"<div style=""font-size:60px;"">+</div>",,html-keyboard-response,70,763566,0.0-13.0-0.10,84916,List1B,black,man,,,,null,,,,,,,,,
null,"<img src=""stim_listB/touch4.gif""style=""height:400px;""></stim_listB>",,html-keyboard-response,71,765580,0.0-13.0-1.10,84916,List1B,black,man,,,,null,,,,,,,,,
null,is being touched by,,html-keyboard-response,72,767591,0.0-13.0-2.10,84916,List1B,black,man,,,,null,,,,,,,,,
26781.7,,,survey-text,73,794374,0.0-13.0-3.10,84916,List1B,black,man,,,,,"{""Q0"":""luke is being touched by ruth""}","<img src=""stim_listB/touch4.gif""style=""height:400px;""></stim_listB>",is being touched by,,,,,,
null,"<div style=""font-size:60px;"">+</div>",,html-keyboard-response,74,794877,0.0-13.0-0.11,84916,List1B,black,man,,,,null,,,,,,,,,
null,"<img src=""stim_listB/look5.gif""style=""height:400px;""></stim_listB>",,html-keyboard-response,75,796890,0.0-13.0-1.11,84916,List1B,black,man,,,,null,,,,,,,,,
null,is looking at,,html-keyboard-response,76,798905,0.0-13.0-2.11,84916,List1B,black,man,,,,null,,,,,,,,,
114100.8,,,survey-text,77,913009,0.0-13.0-3.11,84916,List1B,black,man,,,,,"{""Q0"":""luke is looking at beth""}","<img src=""stim_listB/look5.gif""style=""height:400px;""></stim_listB>",is looking at,,,,,,
null,"<div style=""font-size:60px;"">+</div>",,html-keyboard-response,78,913519,0.0-13.0-0.12,84916,List1B,black,man,,,,null,,,,,,,,,
null,"<img src=""stim_listB/greet5.gif""style=""height:400px;""></stim_listB>",,html-keyboard-response,79,915529,0.0-13.0-1.12,84916,List1B,black,man,,,,null,,,,,,,,,
null,is greeting,,html-keyboard-response,80,917541,0.0-13.0-2.12,84916,List1B,black,man,,,,null,,,,,,,,,
28425.3,,,survey-text,81,945969,0.0-13.0-3.12,84916,List1B,black,man,,,,,"{""Q0"":""mike is greeting luke""}","<img src=""stim_listB/greet5.gif""style=""height:400px;""></stim_listB>",is greeting,,,,,,
null,"<div style=""font-size:60px;"">+</div>",,html-keyboard-response,82,946478,0.0-13.0-0.13,84916,List1B,black,man,,,,null,,,,,,,,,
null,"<img src=""stim_listB/shout3.gif""style=""height:400px;""></stim_listB>",,html-keyboard-response,83,948479,0.0-13.0-1.13,84916,List1B,black,man,,,,null,,,,,,,,,
null,is shouting at,,html-keyboard-response,84,950491,0.0-13.0-2.13,84916,List1B,black,man,,,,null,,,,,,,,,
13866.3,,,survey-text,85,964359,0.0-13.0-3.13,84916,List1B,black,man,,,,,"{""Q0"":""ruth is shouting at luke""}","<img src=""stim_listB/shout3.gif""style=""height:400px;""></stim_listB>",is shouting at,,,,,,
null,"<div style=""font-size:60px;"">+</div>",,html-keyboard-response,86,964861,0.0-13.0-0.14,84916,List1B,black,man,,,,null,,,,,,,,,
null,"<img src=""stim_listB/kiss1.gif""style=""height:400px;""></stim_listB>",,html-keyboard-response,87,966871,0.0-13.0-1.14,84916,List1B,black,man,,,,null,,,,,,,,,
null,is kissing,,html-keyboard-response,88,968875,0.0-13.0-2.14,84916,List1B,black,man,,,,null,,,,,,,,,
101831.1,,,survey-text,89,1070709,0.0-13.0-3.14,84916,List1B,black,man,,,,,"{""Q0"":""beth is kissing fred""}","<img src=""stim_listB/kiss1.gif""style=""height:400px;""></stim_listB>",is kissing,,,,,,
null,"<div style=""font-size:60px;"">+</div>",,html-keyboard-response,90,1071224,0.0-13.0-0.15,84916,List1B,black,man,,,,null,,,,,,,,,
null,"<img src=""stim_listB/touch8.gif""style=""height:400px;""></stim_listB>",,html-keyboard-response,91,1073235,0.0-13.0-1.15,84916,List1B,black,man,,,,null,,,,,,,,,
null,is being touched by,,html-keyboard-response,92,1075241,0.0-13.0-2.15,84916,List1B,black,man,,,,null,,,,,,,,,
33986.5,,,survey-text,93,1109230,0.0-13.0-3.15,84916,List1B,black,man,,,,,"{""Q0"":""ruth is being touched by beth""}","<img src=""stim_listB/touch8.gif""style=""height:400px;""></stim_listB>",is being touched by,,,,,,
null,"<div style=""font-size:60px;"">+</div>",,html-keyboard-response,94,1109752,0.0-13.0-0.16,84916,List1B,black,man,,,,null,,,,,,,,,
null,"<img src=""stim_listB/shout6.gif""style=""height:400px;""></stim_listB>",,html-keyboard-response,95,1111757,0.0-13.0-1.16,84916,List1B,black,man,,,,null,,,,,,,,,
null,is being shouted at by,,html-keyboard-response,96,1113765,0.0-13.0-2.16,84916,List1B,black,man,,,,null,,,,,,,,,
16237.4,,,survey-text,97,1130005,0.0-13.0-3.16,84916,List1B,black,man,,,,,"{""Q0"":""dave is being shouted by mike""}","<img src=""stim_listB/shout6.gif""style=""height:400px;""></stim_listB>",is being shouted at by,,,,,,
null,"<div style=""font-size:60px;"">+</div>",,html-keyboard-response,98,1130509,0.0-13.0-0.17,84916,List1B,black,man,,,,null,,,,,,,,,
null,"<img src=""stim_listB/seduce6.gif""style=""height:400px;""></stim_listB>",,html-keyboard-response,99,1132523,0.0-13.0-1.17,84916,List1B,black,man,,,,null,,,,,,,,,
null,is being seduced by,,html-keyboard-response,100,1134536,0.0-13.0-2.17,84916,List1B,black,man,,,,null,,,,,,,,,
28908.7,,,survey-text,101,1163447,0.0-13.0-3.17,84916,List1B,black,man,,,,,"{""Q0"":""luke is being seduced by mike""}","<img src=""stim_listB/seduce6.gif""style=""height:400px;""></stim_listB>",is being seduced by,,,,,,
null,"<div style=""font-size:60px;"">+</div>",,html-keyboard-response,102,1163960,0.0-13.0-0.18,84916,List1B,black,man,,,,null,,,,,,,,,
null,"<img src=""stim_listB/look1.gif""style=""height:400px;""></stim_listB>",,html-keyboard-response,103,1165964,0.0-13.0-1.18,84916,List1B,black,man,,,,null,,,,,,,,,
null,is looking at,,html-keyboard-response,104,1167972,0.0-13.0-2.18,84916,List1B,black,man,,,,null,,,,,,,,,
12874.3,,,survey-text,105,1180848,0.0-13.0-3.18,84916,List1B,black,man,,,,,"{""Q0"":""fred is looking at beth""}","<img src=""stim_listB/look1.gif""style=""height:400px;""></stim_listB>",is looking at,,,,,,
null,"<div style=""font-size:60px;"">+</div>",,html-keyboard-response,106,1181356,0.0-13.0-0.19,84916,List1B,black,man,,,,null,,,,,,,,,
null,"<img src=""stim_listB/kiss8.gif""style=""height:400px;""></stim_listB>",,html-keyboard-response,107,1183364,0.0-13.0-1.19,84916,List1B,black,man,,,,null,,,,,,,,,
null,is being kissed by,,html-keyboard-response,108,1185371,0.0-13.0-2.19,84916,List1B,black,man,,,,null,,,,,,,,,
28041.4,,,survey-text,109,1213415,0.0-13.0-3.19,84916,List1B,black,man,,,,,"{""Q0"":""ruth is being kissed by jane""}","<img src=""stim_listB/kiss8.gif""style=""height:400px;""></stim_listB>",is being kissed by,,,,,,
8606,"<img src='img/portrait_matrix_list1.jpg' style='width:900px;height:500px;''></img><p>If you have memorised all the portraits and names and are ready to start, press Continue.</p><p><strong>Please note: Your memory of these faces will be tested 4 times during this experiment.</strong></p>",0,html-button-response,110,1222022,0.0-14.0-0.0,84916,List1B,black,man,,,,,,,,,,,,,
6418.8,"<img src=""portrait/BW1.jpg""style=""height:400px;""></img>",0,html-button-response,111,1229464,0.0-14.0-1.0,84916,List1B,black,man,,TRUE,0,,,,,,,,,,
null,CORRECT,,html-keyboard-response,112,1230987,0.0-14.0-2.0-0.0,84916,List1B,black,man,,,,null,,,,,,,,,
3105.6,"<img src=""portrait/WM1.jpg""style=""height:400px;""></img>",6,html-button-response,113,1234094,0.0-14.0-4.0,84916,List1B,black,man,,TRUE,6,,,,,,,,,,
null,CORRECT,,html-keyboard-response,114,1235619,0.0-14.0-5.0-0.0,84916,List1B,black,man,,,,null,,,,,,,,,
4539.2,"<img src=""portrait/WW2.jpg""style=""height:400px;""></img>",2,html-button-response,115,1240160,0.0-14.0-7.0,84916,List1B,black,man,,TRUE,3,,,,,,,,,,
9651.5,"<img src=""portrait/WW2.jpg""style=""height:400px;""></img>",3,html-button-response,116,1250824,0.0-14.0-9.0-0.0,84916,List1B,black,man,,FALSE,3,,,,,,,,,,
null,CORRECT,,html-keyboard-response,117,1252332,0.0-14.0-9.0-1.0-0.0,84916,List1B,black,man,,,,null,,,,,,,,,
20708.3,"<img src=""portrait/BM1.jpg""style=""height:400px;""></img>",4,html-button-response,118,1273042,0.0-14.0-10.0,84916,List1B,black,man,,TRUE,4,,,,,,,,,,
null,CORRECT,,html-keyboard-response,119,1274551,0.0-14.0-11.0-0.0,84916,List1B,black,man,,,,null,,,,,,,,,
4272.4,"<img src=""portrait/WW1.jpg""style=""height:400px;""></img>",1,html-button-response,120,1278825,0.0-14.0-13.0,84916,List1B,black,man,,TRUE,1,,,,,,,,,,
null,CORRECT,,html-keyboard-response,121,1280338,0.0-14.0-14.0-0.0,84916,List1B,black,man,,,,null,,,,,,,,,
6269.3,"<img src=""portrait/BW2.jpg""style=""height:400px;""></img>",2,html-button-response,122,1286609,0.0-14.0-16.0,84916,List1B,black,man,,TRUE,2,,,,,,,,,,
null,CORRECT,,html-keyboard-response,123,1288135,0.0-14.0-17.0-0.0,84916,List1B,black,man,,,,null,,,,,,,,,
4131,"<img src=""portrait/BM2.jpg""style=""height:400px;""></img>",5,html-button-response,124,1292268,0.0-14.0-19.0,84916,List1B,black,man,,TRUE,5,,,,,,,,,,
null,CORRECT,,html-keyboard-response,125,1293772,0.0-14.0-20.0-0.0,84916,List1B,black,man,,,,null,,,,,,,,,
5104.7,"<img src=""portrait/WM2.jpg""style=""height:400px;""></img>",7,html-button-response,126,1298878,0.0-14.0-22.0,84916,List1B,black,man,,TRUE,7,,,,,,,,,,
null,CORRECT,,html-keyboard-response,127,1300390,0.0-14.0-23.0-0.0,84916,List1B,black,man,,,,null,,,,,,,,,
2866.9,<p>You got 7 out of 8 right first time. Press Continue.</p>,0,html-button-response,128,1303258,0.0-14.0-25.0,84916,List1B,black,man,,,,,,,,,,,,,
2216.9,"As you did not score 100%, the memory game will repeat. Press Continue.",0,html-button-response,129,1306490,0.0-14.0-26.0-0.0,84916,List1B,black,man,,,,,,,,,,,,,
1991.7,"<img src='img/portrait_matrix_list1.jpg' style='width:900px;height:500px;''></img><p>If you have memorised all the portraits and names and are ready to start, press Continue.</p><p><strong>Please note: Your memory of these faces will be tested 4 times during this experiment.</strong></p>",0,html-button-response,130,1309498,0.0-14.1-0.1,84916,List1B,black,man,,,,,,,,,,,,,
8371.2,"<img src=""portrait/BW1.jpg""style=""height:400px;""></img>",0,html-button-response,131,1318884,0.0-14.1-1.1,84916,List1B,black,man,,TRUE,0,,,,,,,,,,
null,CORRECT,,html-keyboard-response,132,1320401,0.0-14.1-2.1-0.1,84916,List1B,black,man,,,,null,,,,,,,,,
3021.6,"<img src=""portrait/WM1.jpg""style=""height:400px;""></img>",6,html-button-response,133,1323424,0.0-14.1-4.1,84916,List1B,black,man,,TRUE,6,,,,,,,,,,
null,CORRECT,,html-keyboard-response,134,1324926,0.0-14.1-5.1-0.1,84916,List1B,black,man,,,,null,,,,,,,,,
4124.8,"<img src=""portrait/WW2.jpg""style=""height:400px;""></img>",3,html-button-response,135,1329052,0.0-14.1-7.1,84916,List1B,black,man,,TRUE,3,,,,,,,,,,
null,CORRECT,,html-keyboard-response,136,1330582,0.0-14.1-8.1-0.1,84916,List1B,black,man,,,,null,,,,,,,,,
4745.4,"<img src=""portrait/BM1.jpg""style=""height:400px;""></img>",4,html-button-response,137,1335329,0.0-14.1-10.1,84916,List1B,black,man,,TRUE,4,,,,,,,,,,
null,CORRECT,,html-keyboard-response,138,1336850,0.0-14.1-11.1-0.1,84916,List1B,black,man,,,,null,,,,,,,,,
5108.6,"<img src=""portrait/WW1.jpg""style=""height:400px;""></img>",1,html-button-response,139,1341960,0.0-14.1-13.1,84916,List1B,black,man,,TRUE,1,,,,,,,,,,
null,CORRECT,,html-keyboard-response,140,1343475,0.0-14.1-14.1-0.1,84916,List1B,black,man,,,,null,,,,,,,,,
4564,"<img src=""portrait/BW2.jpg""style=""height:400px;""></img>",2,html-button-response,141,1348041,0.0-14.1-16.1,84916,List1B,black,man,,TRUE,2,,,,,,,,,,
null,CORRECT,,html-keyboard-response,142,1349568,0.0-14.1-17.1-0.1,84916,List1B,black,man,,,,null,,,,,,,,,
2185.6,"<img src=""portrait/BM2.jpg""style=""height:400px;""></img>",5,html-button-response,143,1351755,0.0-14.1-19.1,84916,List1B,black,man,,TRUE,5,,,,,,,,,,
null,CORRECT,,html-keyboard-response,144,1353272,0.0-14.1-20.1-0.1,84916,List1B,black,man,,,,null,,,,,,,,,
5609.1,"<img src=""portrait/WM2.jpg""style=""height:400px;""></img>",7,html-button-response,145,1358883,0.0-14.1-22.1,84916,List1B,black,man,,TRUE,7,,,,,,,,,,
null,CORRECT,,html-keyboard-response,146,1360397,0.0-14.1-23.1-0.1,84916,List1B,black,man,,,,null,,,,,,,,,
1704.2,<p>You got 8 out of 8 right first time. Press Continue.</p>,0,html-button-response,147,1362103,0.0-14.1-25.1,84916,List1B,black,man,,,,,,,,,,,,,
null,"<div style=""font-size:60px;"">+</div>",,html-keyboard-response,148,1363615,0.0-15.0-0.0,84916,List1B,black,man,,,,null,,,,,,,,,
null,"<img src=""stim_listB/shout4.gif""style=""height:400px;""></stim_listB>",,html-keyboard-response,149,1365628,0.0-15.0-1.0,84916,List1B,black,man,,,,null,,,,,,,,,
null,is being shouted at by,,html-keyboard-response,150,1367633,0.0-15.0-2.0,84916,List1B,black,man,,,,null,,,,,,,,,
28101.6,,,survey-text,151,1395737,0.0-15.0-3.0,84916,List1B,black,man,,,,,"{""Q0"":""dave is being shouted at by jane""}","<img src=""stim_listB/shout4.gif""style=""height:400px;""></stim_listB>",is being shouted at by,,,,,,
null,"<div style=""font-size:60px;"">+</div>",,html-keyboard-response,152,1396250,0.0-15.0-0.1,84916,List1B,black,man,,,,null,,,,,,,,,
null,"<img src=""stim_listB/touch2.gif""style=""height:400px;""></stim_listB>",,html-keyboard-response,153,1398260,0.0-15.0-1.1,84916,List1B,black,man,,,,null,,,,,,,,,
null,is being touched by,,html-keyboard-response,154,1400275,0.0-15.0-2.1,84916,List1B,black,man,,,,null,,,,,,,,,
40150.1,,,survey-text,155,1440426,0.0-15.0-3.1,84916,List1B,black,man,,,,,"{""Q0"":""fred is being touched by beth""}","<img src=""stim_listB/touch2.gif""style=""height:400px;""></stim_listB>",is being touched by,,,,,,
null,"<div style=""font-size:60px;"">+</div>",,html-keyboard-response,156,1440930,0.0-15.0-0.2,84916,List1B,black,man,,,,null,,,,,,,,,
null,"<img src=""stim_listB/seduce5.gif""style=""height:400px;""></stim_listB>",,html-keyboard-response,157,1442944,0.0-15.0-1.2,84916,List1B,black,man,,,,null,,,,,,,,,
null,is seducing,,html-keyboard-response,158,1444956,0.0-15.0-2.2,84916,List1B,black,man,,,,null,,,,,,,,,
13186.6,,,survey-text,159,1458145,0.0-15.0-3.2,84916,List1B,black,man,,,,,"{""Q0"":""dave is seducing fred""}","<img src=""stim_listB/seduce5.gif""style=""height:400px;""></stim_listB>",is seducing,,,,,,
null,"<div style=""font-size:60px;"">+</div>",,html-keyboard-response,160,1458651,0.0-15.0-0.3,84916,List1B,black,man,,,,null,,,,,,,,,
null,"<img src=""stim_listB/look8.gif""style=""height:400px;""></stim_listB>",,html-keyboard-response,161,1460656,0.0-15.0-1.3,84916,List1B,black,man,,,,null,,,,,,,,,
null,is being looked at by,,html-keyboard-response,162,1462670,0.0-15.0-2.3,84916,List1B,black,man,,,,null,,,,,,,,,
29319.5,,,survey-text,163,1491992,0.0-15.0-3.3,84916,List1B,black,man,,,,,"{""Q0"":""jane is being looked at by kate""}","<img src=""stim_listB/look8.gif""style=""height:400px;""></stim_listB>",is being looked at by,,,,,,
null,"<div style=""font-size:60px;"">+</div>",,html-keyboard-response,164,1492508,0.0-15.0-0.4,84916,List1B,black,man,,,,null,,,,,,,,,
null,"<img src=""stim_listB/copy8.gif""style=""height:400px;""></stim_listB>",,html-keyboard-response,165,1494522,0.0-15.0-1.4,84916,List1B,black,man,,,,null,,,,,,,,,
null,is being copied by,,html-keyboard-response,166,1496546,0.0-15.0-2.4,84916,List1B,black,man,,,,null,,,,,,,,,
13272,,,survey-text,167,1509820,0.0-15.0-3.4,84916,List1B,black,man,,,,,"{""Q0"":""jane is being copied by beth""}","<img src=""stim_listB/copy8.gif""style=""height:400px;""></stim_listB>",is being copied by,,,,,,
null,"<div style=""font-size:60px;"">+</div>",,html-keyboard-response,168,1510322,0.0-15.0-0.5,84916,List1B,black,man,,,,null,,,,,,,,,
null,"<img src=""stim_listB/greet3.gif""style=""height:400px;""></stim_listB>",,html-keyboard-response,169,1512324,0.0-15.0-1.5,84916,List1B,black,man,,,,null,,,,,,,,,
null,is greeting,,html-keyboard-response,170,1514335,0.0-15.0-2.5,84916,List1B,black,man,,,,null,,,,,,,,,
22069,,,survey-text,171,1536407,0.0-15.0-3.5,84916,List1B,black,man,,,,,"{""Q0"":""ruth is copying dave""}","<img src=""stim_listB/greet3.gif""style=""height:400px;""></stim_listB>",is greeting,,,,,,
null,"<div style=""font-size:60px;"">+</div>",,html-keyboard-response,172,1536916,0.0-15.0-0.6,84916,List1B,black,man,,,,null,,,,,,,,,
null,"<img src=""stim_listB/challenge2.gif""style=""height:400px;""></stim_listB>",,html-keyboard-response,173,1538931,0.0-15.0-1.6,84916,List1B,black,man,,,,null,,,,,,,,,
null,is being challenged by,,html-keyboard-response,174,1540940,0.0-15.0-2.6,84916,List1B,black,man,,,,null,,,,,,,,,
14864.1,,,survey-text,175,1555806,0.0-15.0-3.6,84916,List1B,black,man,,,,,"{""Q0"":""fred is being challenged by kate""}","<img src=""stim_listB/challenge2.gif""style=""height:400px;""></stim_listB>",is being challenged by,,,,,,
null,"<div style=""font-size:60px;"">+</div>",,html-keyboard-response,176,1556317,0.0-15.0-0.7,84916,List1B,black,man,,,,null,,,,,,,,,
null,"<img src=""stim_listB/copy2.gif""style=""height:400px;""></stim_listB>",,html-keyboard-response,177,1558332,0.0-15.0-1.7,84916,List1B,black,man,,,,null,,,,,,,,,
null,is being copied by,,html-keyboard-response,178,1560345,0.0-15.0-2.7,84916,List1B,black,man,,,,null,,,,,,,,,
21394.7,,,survey-text,179,1581742,0.0-15.0-3.7,84916,List1B,black,man,,,,,"{""Q0"":""kate is being copied by fred""}","<img src=""stim_listB/copy2.gif""style=""height:400px;""></stim_listB>",is being copied by,,,,,,
null,"<div style=""font-size:60px;"">+</div>",,html-keyboard-response,180,1582243,0.0-15.0-0.8,84916,List1B,black,man,,,,null,,,,,,,,,
null,"<img src=""stim_listB/oppose6.gif""style=""height:400px;""></stim_listB>",,html-keyboard-response,181,1584246,0.0-15.0-1.8,84916,List1B,black,man,,,,null,,,,,,,,,
null,is being opposed by,,html-keyboard-response,182,1586254,0.0-15.0-2.8,84916,List1B,black,man,,,,null,,,,,,,,,
22187,,,survey-text,183,1608444,0.0-15.0-3.8,84916,List1B,black,man,,,,,"{""Q0"":""luke is being opposed by fred""}","<img src=""stim_listB/oppose6.gif""style=""height:400px;""></stim_listB>",is being opposed by,,,,,,
null,"<div style=""font-size:60px;"">+</div>",,html-keyboard-response,184,1608950,0.0-15.0-0.9,84916,List1B,black,man,,,,null,,,,,,,,,
null,"<img src=""stim_listB/shout7.gif""style=""height:400px;""></stim_listB>",,html-keyboard-response,185,1610959,0.0-15.0-1.9,84916,List1B,black,man,,,,null,,,,,,,,,
null,is shouting at,,html-keyboard-response,186,1612960,0.0-15.0-2.9,84916,List1B,black,man,,,,null,,,,,,,,,
29178.6,,,survey-text,187,1642141,0.0-15.0-3.9,84916,List1B,black,man,,,,,"{""Q0"":""ruth is shouting at beth""}","<img src=""stim_listB/shout7.gif""style=""height:400px;""></stim_listB>",is shouting at,,,,,,
null,"<div style=""font-size:60px;"">+</div>",,html-keyboard-response,188,1642645,0.0-15.0-0.10,84916,List1B,black,man,,,,null,,,,,,,,,
null,"<img src=""stim_listB/greet6.gif""style=""height:400px;""></stim_listB>",,html-keyboard-response,189,1644654,0.0-15.0-1.10,84916,List1B,black,man,,,,null,,,,,,,,,
null,is being greeted by,,html-keyboard-response,190,1646670,0.0-15.0-2.10,84916,List1B,black,man,,,,null,,,,,,,,,
15584.5,,,survey-text,191,1662257,0.0-15.0-3.10,84916,List1B,black,man,,,,,"{""Q0"":""dave is being greeted by fred""}","<img src=""stim_listB/greet6.gif""style=""height:400px;""></stim_listB>",is being greeted by,,,,,,
null,"<div style=""font-size:60px;"">+</div>",,html-keyboard-response,192,1662773,0.0-15.0-0.11,84916,List1B,black,man,,,,null,,,,,,,,,
null,"<img src=""stim_listB/oppose7.gif""style=""height:400px;""></stim_listB>",,html-keyboard-response,193,1664775,0.0-15.0-1.11,84916,List1B,black,man,,,,null,,,,,,,,,
null,is opposing,,html-keyboard-response,194,1666776,0.0-15.0-2.11,84916,List1B,black,man,,,,null,,,,,,,,,
20646.4,,,survey-text,195,1687424,0.0-15.0-3.11,84916,List1B,black,man,,,,,"{""Q0"":""jane is opposing kate""}","<img src=""stim_listB/oppose7.gif""style=""height:400px;""></stim_listB>",is opposing,,,,,,
null,"<div style=""font-size:60px;"">+</div>",,html-keyboard-response,196,1687934,0.0-15.0-0.12,84916,List1B,black,man,,,,null,,,,,,,,,
null,"<img src=""stim_listB/greet2.gif""style=""height:400px;""></stim_listB>",,html-keyboard-response,197,1689943,0.0-15.0-1.12,84916,List1B,black,man,,,,null,,,,,,,,,
null,is being greeted by,,html-keyboard-response,198,1691945,0.0-15.0-2.12,84916,List1B,black,man,,,,null,,,,,,,,,
14172.5,,,survey-text,199,1706120,0.0-15.0-3.12,84916,List1B,black,man,,,,,"{""Q0"":""fred is being greeted by kate""}","<img src=""stim_listB/greet2.gif""style=""height:400px;""></stim_listB>",is being greeted by,,,,,,
null,"<div style=""font-size:60px;"">+</div>",,html-keyboard-response,200,1706636,0.0-15.0-0.13,84916,List1B,black,man,,,,null,,,,,,,,,
null,"<img src=""stim_listB/seduce3.gif""style=""height:400px;""></stim_listB>",,html-keyboard-response,201,1708645,0.0-15.0-1.13,84916,List1B,black,man,,,,null,,,,,,,,,
null,is seducing,,html-keyboard-response,202,1710647,0.0-15.0-2.13,84916,List1B,black,man,,,,null,,,,,,,,,
32427,,,survey-text,203,1743077,0.0-15.0-3.13,84916,List1B,black,man,,,,,"{""Q0"":""jane is seducing luke""}","<img src=""stim_listB/seduce3.gif""style=""height:400px;""></stim_listB>",is seducing,,,,,,
null,"<div style=""font-size:60px;"">+</div>",,html-keyboard-response,204,1743587,0.0-15.0-0.14,84916,List1B,black,man,,,,null,,,,,,,,,
null,"<img src=""stim_listB/touch1.gif""style=""height:400px;""></stim_listB>",,html-keyboard-response,205,1745604,0.0-15.0-1.14,84916,List1B,black,man,,,,null,,,,,,,,,
null,is touching,,html-keyboard-response,206,1747607,0.0-15.0-2.14,84916,List1B,black,man,,,,null,,,,,,,,,
13927.6,,,survey-text,207,1761537,0.0-15.0-3.14,84916,List1B,black,man,,,,,"{""Q0"":""dave is touching kate""}","<img src=""stim_listB/touch1.gif""style=""height:400px;""></stim_listB>",is touching,,,,,,
null,"<div style=""font-size:60px;"">+</div>",,html-keyboard-response,208,1762054,0.0-15.0-0.15,84916,List1B,black,man,,,,null,,,,,,,,,
null,"<img src=""stim_listB/shout5.gif""style=""height:400px;""></stim_listB>",,html-keyboard-response,209,1764061,0.0-15.0-1.15,84916,List1B,black,man,,,,null,,,,,,,,,
null,is shouting at,,html-keyboard-response,210,1766068,0.0-15.0-2.15,84916,List1B,black,man,,,,null,,,,,,,,,
16136.1,,,survey-text,211,1782206,0.0-15.0-3.15,84916,List1B,black,man,,,,,"{""Q0"":""luke is shouting at fred""}","<img src=""stim_listB/shout5.gif""style=""height:400px;""></stim_listB>",is shouting at,,,,,,
null,"<div style=""font-size:60px;"">+</div>",,html-keyboard-response,212,1782720,0.0-15.0-0.16,84916,List1B,black,man,,,,null,,,,,,,,,
null,"<img src=""stim_listB/kiss7.gif""style=""height:400px;""></stim_listB>",,html-keyboard-response,213,1784727,0.0-15.0-1.16,84916,List1B,black,man,,,,null,,,,,,,,,
null,is kissing,,html-keyboard-response,214,1786731,0.0-15.0-2.16,84916,List1B,black,man,,,,null,,,,,,,,,
13787.9,,,survey-text,215,1800521,0.0-15.0-3.16,84916,List1B,black,man,,,,,"{""Q0"":""beth is kissing ruth""}","<img src=""stim_listB/kiss7.gif""style=""height:400px;""></stim_listB>",is kissing,,,,,,
null,"<div style=""font-size:60px;"">+</div>",,html-keyboard-response,216,1801025,0.0-15.0-0.17,84916,List1B,black,man,,,,null,,,,,,,,,
null,"<img src=""stim_listB/seduce2.gif""style=""height:400px;""></stim_listB>",,html-keyboard-response,217,1803028,0.0-15.0-1.17,84916,List1B,black,man,,,,null,,,,,,,,,
null,is being seduced by,,html-keyboard-response,218,1805031,0.0-15.0-2.17,84916,List1B,black,man,,,,null,,,,,,,,,
18939,,,survey-text,219,1823972,0.0-15.0-3.17,84916,List1B,black,man,,,,,"{""Q0"":""beth is being seduced by mike""}","<img src=""stim_listB/seduce2.gif""style=""height:400px;""></stim_listB>",is being seduced by,,,,,,
null,"<div style=""font-size:60px;"">+</div>",,html-keyboard-response,220,1824483,0.0-15.0-0.18,84916,List1B,black,man,,,,null,,,,,,,,,
null,"<img src=""stim_listB/shout1.gif""style=""height:400px;""></stim_listB>",,html-keyboard-response,221,1826502,0.0-15.0-1.18,84916,List1B,black,man,,,,null,,,,,,,,,
null,is shouting at,,html-keyboard-response,222,1828509,0.0-15.0-2.18,84916,List1B,black,man,,,,null,,,,,,,,,
23470.3,,,survey-text,223,1851982,0.0-15.0-3.18,84916,List1B,black,man,,,,,"{""Q0"":""fred is shouting at beth""}","<img src=""stim_listB/shout1.gif""style=""height:400px;""></stim_listB>",is shouting at,,,,,,
null,"<div style=""font-size:60px;"">+</div>",,html-keyboard-response,224,1852498,0.0-15.0-0.19,84916,List1B,black,man,,,,null,,,,,,,,,
null,"<img src=""stim_listB/hug6.gif""style=""height:400px;""></stim_listB>",,html-keyboard-response,225,1854511,0.0-15.0-1.19,84916,List1B,black,man,,,,null,,,,,,,,,
null,is being hugged by,,html-keyboard-response,226,1856520,0.0-15.0-2.19,84916,List1B,black,man,,,,null,,,,,,,,,
18157.3,,,survey-text,227,1874680,0.0-15.0-3.19,84916,List1B,black,man,,,,,"{""Q0"":""dave is being hugged by mike""}","<img src=""stim_listB/hug6.gif""style=""height:400px;""></stim_listB>",is being hugged by,,,,,,
3509.1,"<img src='img/portrait_matrix_list1.jpg' style='width:900px;height:500px;''></img><p>If you have memorised all the portraits and names and are ready to start, press Continue.</p><p><strong>Please note: Your memory of these faces will be tested 4 times during this experiment.</strong></p>",0,html-button-response,228,1878192,0.0-16.0-0.0,84916,List1B,black,man,,,,,,,,,,,,,
6357.3,"<img src=""portrait/BW2.jpg""style=""height:400px;""></img>",2,html-button-response,229,1885551,0.0-16.0-1.0,84916,List1B,black,man,,TRUE,2,,,,,,,,,,
null,CORRECT,,html-keyboard-response,230,1887054,0.0-16.0-2.0-0.0,84916,List1B,black,man,,,,null,,,,,,,,,
1956.4,"<img src=""portrait/WW2.jpg""style=""height:400px;""></img>",3,html-button-response,231,1889012,0.0-16.0-4.0,84916,List1B,black,man,,TRUE,3,,,,,,,,,,
null,CORRECT,,html-keyboard-response,232,1890519,0.0-16.0-5.0-0.0,84916,List1B,black,man,,,,null,,,,,,,,,
2219.4,"<img src=""portrait/WW1.jpg""style=""height:400px;""></img>",1,html-button-response,233,1892739,0.0-16.0-7.0,84916,List1B,black,man,,TRUE,1,,,,,,,,,,
null,CORRECT,,html-keyboard-response,234,1894261,0.0-16.0-8.0-0.0,84916,List1B,black,man,,,,null,,,,,,,,,
5899.6,"<img src=""portrait/BM1.jpg""style=""height:400px;""></img>",4,html-button-response,235,1900162,0.0-16.0-10.0,84916,List1B,black,man,,TRUE,4,,,,,,,,,,
null,CORRECT,,html-keyboard-response,236,1901685,0.0-16.0-11.0-0.0,84916,List1B,black,man,,,,null,,,,,,,,,
2781.9,"<img src=""portrait/BM2.jpg""style=""height:400px;""></img>",5,html-button-response,237,1904469,0.0-16.0-13.0,84916,List1B,black,man,,TRUE,5,,,,,,,,,,
null,CORRECT,,html-keyboard-response,238,1905994,0.0-16.0-14.0-0.0,84916,List1B,black,man,,,,null,,,,,,,,,
6299.1,"<img src=""portrait/WM2.jpg""style=""height:400px;""></img>",7,html-button-response,239,1912294,0.0-16.0-16.0,84916,List1B,black,man,,TRUE,7,,,,,,,,,,
null,CORRECT,,html-keyboard-response,240,1913808,0.0-16.0-17.0-0.0,84916,List1B,black,man,,,,null,,,,,,,,,
3694.6,"<img src=""portrait/WM1.jpg""style=""height:400px;""></img>",6,html-button-response,241,1917504,0.0-16.0-19.0,84916,List1B,black,man,,TRUE,6,,,,,,,,,,
null,CORRECT,,html-keyboard-response,242,1919013,0.0-16.0-20.0-0.0,84916,List1B,black,man,,,,null,,,,,,,,,
9849.2,"<img src=""portrait/BW1.jpg""style=""height:400px;""></img>",0,html-button-response,243,1928864,0.0-16.0-22.0,84916,List1B,black,man,,TRUE,0,,,,,,,,,,
null,CORRECT,,html-keyboard-response,244,1930397,0.0-16.0-23.0-0.0,84916,List1B,black,man,,,,null,,,,,,,,,
1780.5,<p>You got 8 out of 8 right first time. Press Continue.</p>,0,html-button-response,245,1932178,0.0-16.0-25.0,84916,List1B,black,man,,,,,,,,,,,,,
null,"<div style=""font-size:60px;"">+</div>",,html-keyboard-response,246,1933711,0.0-17.0-0.0,84916,List1B,black,man,,,,null,,,,,,,,,
null,"<img src=""stim_listB/copy4.gif""style=""height:400px;""></stim_listB>",,html-keyboard-response,247,1935726,0.0-17.0-1.0,84916,List1B,black,man,,,,null,,,,,,,,,
null,is being copied by,,html-keyboard-response,248,1937740,0.0-17.0-2.0,84916,List1B,black,man,,,,null,,,,,,,,,
27241.5,,,survey-text,249,1964984,0.0-17.0-3.0,84916,List1B,black,man,,,,,"{""Q0"":""luke is being copied by jane""}","<img src=""stim_listB/copy4.gif""style=""height:400px;""></stim_listB>",is being copied by,,,,,,
null,"<div style=""font-size:60px;"">+</div>",,html-keyboard-response,250,1965506,0.0-17.0-0.1,84916,List1B,black,man,,,,null,,,,,,,,,
null,"<img src=""stim_listB/touch3.gif""style=""height:400px;""></stim_listB>",,html-keyboard-response,251,1967521,0.0-17.0-1.1,84916,List1B,black,man,,,,null,,,,,,,,,
null,is touching,,html-keyboard-response,252,1969525,0.0-17.0-2.1,84916,List1B,black,man,,,,null,,,,,,,,,
8739.3,,,survey-text,253,1978266,0.0-17.0-3.1,84916,List1B,black,man,,,,,"{""Q0"":""jane is touching dave""}","<img src=""stim_listB/touch3.gif""style=""height:400px;""></stim_listB>",is touching,,,,,,
null,"<div style=""font-size:60px;"">+</div>",,html-keyboard-response,254,1978777,0.0-17.0-0.2,84916,List1B,black,man,,,,null,,,,,,,,,
null,"<img src=""stim_listB/hug8.gif""style=""height:400px;""></stim_listB>",,html-keyboard-response,255,1980779,0.0-17.0-1.2,84916,List1B,black,man,,,,null,,,,,,,,,
null,is being hugged by,,html-keyboard-response,256,1982795,0.0-17.0-2.2,84916,List1B,black,man,,,,null,,,,,,,,,
9549.5,,,survey-text,257,1992347,0.0-17.0-3.2,84916,List1B,black,man,,,,,"{""Q0"":""jane is being hugged by kate""}","<img src=""stim_listB/hug8.gif""style=""height:400px;""></stim_listB>",is being hugged by,,,,,,
null,"<div style=""font-size:60px;"">+</div>",,html-keyboard-response,258,1992867,0.0-17.0-0.3,84916,List1B,black,man,,,,null,,,,,,,,,
null,"<img src=""stim_listB/hug4.gif""style=""height:400px;""></stim_listB>",,html-keyboard-response,259,1994869,0.0-17.0-1.3,84916,List1B,black,man,,,,null,,,,,,,,,
null,is being hugged by,,html-keyboard-response,260,1996882,0.0-17.0-2.3,84916,List1B,black,man,,,,null,,,,,,,,,
18113.5,,,survey-text,261,2014998,0.0-17.0-3.3,84916,List1B,black,man,,,,,"{""Q0"":""dave is being hugged by jane""}","<img src=""stim_listB/hug4.gif""style=""height:400px;""></stim_listB>",is being hugged by,,,,,,
null,"<div style=""font-size:60px;"">+</div>",,html-keyboard-response,262,2015511,0.0-17.0-0.4,84916,List1B,black,man,,,,null,,,,,,,,,
null,"<img src=""stim_listB/oppose4.gif""style=""height:400px;""></stim_listB>",,html-keyboard-response,263,2017520,0.0-17.0-1.4,84916,List1B,black,man,,,,null,,,,,,,,,
null,is being opposed by,,html-keyboard-response,264,2019527,0.0-17.0-2.4,84916,List1B,black,man,,,,null,,,,,,,,,
24808.6,,,survey-text,265,2044339,0.0-17.0-3.4,84916,List1B,black,man,,,,,"{""Q0"":""ruth is being opposed by luke""}","<img src=""stim_listB/oppose4.gif""style=""height:400px;""></stim_listB>",is being opposed by,,,,,,
null,"<div style=""font-size:60px;"">+</div>",,html-keyboard-response,266,2044851,0.0-17.0-0.5,84916,List1B,black,man,,,,null,,,,,,,,,
null,"<img src=""stim_listB/seduce4.gif""style=""height:400px;""></stim_listB>",,html-keyboard-response,267,2046860,0.0-17.0-1.5,84916,List1B,black,man,,,,null,,,,,,,,,
null,is being seduced by,,html-keyboard-response,268,2048874,0.0-17.0-2.5,84916,List1B,black,man,,,,null,,,,,,,,,
18098.1,,,survey-text,269,2066975,0.0-17.0-3.5,84916,List1B,black,man,,,,,"{""Q0"":""ruth is being seduced by dave""}","<img src=""stim_listB/seduce4.gif""style=""height:400px;""></stim_listB>",is being seduced by,,,,,,
null,"<div style=""font-size:60px;"">+</div>",,html-keyboard-response,270,2067487,0.0-17.0-0.6,84916,List1B,black,man,,,,null,,,,,,,,,
null,"<img src=""stim_listB/challenge8.gif""style=""height:400px;""></stim_listB>",,html-keyboard-response,271,2069501,0.0-17.0-1.6,84916,List1B,black,man,,,,null,,,,,,,,,
null,is being challenged by,,html-keyboard-response,272,2071514,0.0-17.0-2.6,84916,List1B,black,man,,,,null,,,,,,,,,
20011.4,,,survey-text,273,2091528,0.0-17.0-3.6,84916,List1B,black,man,,,,,"{""Q0"":""beth is being challenged by ruth""}","<img src=""stim_listB/challenge8.gif""style=""height:400px;""></stim_listB>",is being challenged by,,,,,,
null,"<div style=""font-size:60px;"">+</div>",,html-keyboard-response,274,2092041,0.0-17.0-0.7,84916,List1B,black,man,,,,null,,,,,,,,,
null,"<img src=""stim_listB/oppose2.gif""style=""height:400px;""></stim_listB>",,html-keyboard-response,275,2094054,0.0-17.0-1.7,84916,List1B,black,man,,,,null,,,,,,,,,
null,is being opposed by,,html-keyboard-response,276,2096061,0.0-17.0-2.7,84916,List1B,black,man,,,,null,,,,,,,,,
20179.5,,,survey-text,277,2116243,0.0-17.0-3.7,84916,List1B,black,man,,,,,"{""Q0"":""fred is being opposed by beth""}","<img src=""stim_listB/oppose2.gif""style=""height:400px;""></stim_listB>",is being opposed by,,,,,,
null,"<div style=""font-size:60px;"">+</div>",,html-keyboard-response,278,2116748,0.0-17.0-0.8,84916,List1B,black,man,,,,null,,,,,,,,,
null,"<img src=""stim_listB/kiss5.gif""style=""height:400px;""></stim_listB>",,html-keyboard-response,279,2118761,0.0-17.0-1.8,84916,List1B,black,man,,,,null,,,,,,,,,
null,is kissing,,html-keyboard-response,280,2120770,0.0-17.0-2.8,84916,List1B,black,man,,,,null,,,,,,,,,
11038.8,,,survey-text,281,2131813,0.0-17.0-3.8,84916,List1B,black,man,,,,,"{""Q0"":""luke is kissing fred""}","<img src=""stim_listB/kiss5.gif""style=""height:400px;""></stim_listB>",is kissing,,,,,,
null,"<div style=""font-size:60px;"">+</div>",,html-keyboard-response,282,2132329,0.0-17.0-0.9,84916,List1B,black,man,,,,null,,,,,,,,,
null,"<img src=""stim_listB/hug1.gif""style=""height:400px;""></stim_listB>",,html-keyboard-response,283,2134333,0.0-17.0-1.9,84916,List1B,black,man,,,,null,,,,,,,,,
null,is hugging,,html-keyboard-response,284,2136342,0.0-17.0-2.9,84916,List1B,black,man,,,,null,,,,,,,,,
10317.9,,,survey-text,285,2146662,0.0-17.0-3.9,84916,List1B,black,man,,,,,"{""Q0"":""beth is hugging fred""}","<img src=""stim_listB/hug1.gif""style=""height:400px;""></stim_listB>",is hugging,,,,,,
null,"<div style=""font-size:60px;"">+</div>",,html-keyboard-response,286,2147163,0.0-17.0-0.10,84916,List1B,black,man,,,,null,,,,,,,,,
null,"<img src=""stim_listB/seduce8.gif""style=""height:400px;""></stim_listB>",,html-keyboard-response,287,2149170,0.0-17.0-1.10,84916,List1B,black,man,,,,null,,,,,,,,,
null,is being seduced by,,html-keyboard-response,288,2151181,0.0-17.0-2.10,84916,List1B,black,man,,,,null,,,,,,,,,
19292.3,,,survey-text,289,2170476,0.0-17.0-3.10,84916,List1B,black,man,,,,,"{""Q0"":""kate is seducing ruth""}","<img src=""stim_listB/seduce8.gif""style=""height:400px;""></stim_listB>",is being seduced by,,,,,,
null,"<div style=""font-size:60px;"">+</div>",,html-keyboard-response,290,2170985,0.0-17.0-0.11,84916,List1B,black,man,,,,null,,,,,,,,,
null,"<img src=""stim_listB/seduce1.gif""style=""height:400px;""></stim_listB>",,html-keyboard-response,291,2172995,0.0-17.0-1.11,84916,List1B,black,man,,,,null,,,,,,,,,
null,is seducing,,html-keyboard-response,292,2175003,0.0-17.0-2.11,84916,List1B,black,man,,,,null,,,,,,,,,
13949.2,,,survey-text,293,2188954,0.0-17.0-3.11,84916,List1B,black,man,,,,,"{""Q0"":""kate seducing fred""}","<img src=""stim_listB/seduce1.gif""style=""height:400px;""></stim_listB>",is seducing,,,,,,
null,"<div style=""font-size:60px;"">+</div>",,html-keyboard-response,294,2189459,0.0-17.0-0.12,84916,List1B,black,man,,,,null,,,,,,,,,
null,"<img src=""stim_listB/look4.gif""style=""height:400px;""></stim_listB>",,html-keyboard-response,295,2191474,0.0-17.0-1.12,84916,List1B,black,man,,,,null,,,,,,,,,
null,is being looked at by,,html-keyboard-response,296,2193482,0.0-17.0-2.12,84916,List1B,black,man,,,,null,,,,,,,,,
64319.7,,,survey-text,297,2257804,0.0-17.0-3.12,84916,List1B,black,man,,,,,"{""Q0"":""jane is being looked at by dave""}","<img src=""stim_listB/look4.gif""style=""height:400px;""></stim_listB>",is being looked at by,,,,,,
null,"<div style=""font-size:60px;"">+</div>",,html-keyboard-response,298,2258321,0.0-17.0-0.13,84916,List1B,black,man,,,,null,,,,,,,,,
null,"<img src=""stim_listB/challenge6.gif""style=""height:400px;""></stim_listB>",,html-keyboard-response,299,2260340,0.0-17.0-1.13,84916,List1B,black,man,,,,null,,,,,,,,,
null,is being challenged by,,html-keyboard-response,300,2262343,0.0-17.0-2.13,84916,List1B,black,man,,,,null,,,,,,,,,
13021.6,,,survey-text,301,2275369,0.0-17.0-3.13,84916,List1B,black,man,,,,,"{""Q0"":""fred is being challenged by dave""}","<img src=""stim_listB/challenge6.gif""style=""height:400px;""></stim_listB>",is being challenged by,,,,,,
null,"<div style=""font-size:60px;"">+</div>",,html-keyboard-response,302,2275871,0.0-17.0-0.14,84916,List1B,black,man,,,,null,,,,,,,,,
null,"<img src=""stim_listB/challenge3.gif""style=""height:400px;""></stim_listB>",,html-keyboard-response,303,2277886,0.0-17.0-1.14,84916,List1B,black,man,,,,null,,,,,,,,,
null,is challenging,,html-keyboard-response,304,2279900,0.0-17.0-2.14,84916,List1B,black,man,,,,null,,,,,,,,,
28625.9,,,survey-text,305,2308528,0.0-17.0-3.14,84916,List1B,black,man,,,,,"{""Q0"":""dave is challenging ruth""}","<img src=""stim_listB/challenge3.gif""style=""height:400px;""></stim_listB>",is challenging,,,,,,
null,"<div style=""font-size:60px;"">+</div>",,html-keyboard-response,306,2309037,0.0-17.0-0.15,84916,List1B,black,man,,,,null,,,,,,,,,
null,"<img src=""stim_listB/touch7.gif""style=""height:400px;""></stim_listB>",,html-keyboard-response,307,2311042,0.0-17.0-1.15,84916,List1B,black,man,,,,null,,,,,,,,,
null,is touching,,html-keyboard-response,308,2313054,0.0-17.0-2.15,84916,List1B,black,man,,,,null,,,,,,,,,
10922,,,survey-text,309,2323994,0.0-17.0-3.15,84916,List1B,black,man,,,,,"{""Q0"":""jane is touchimg kate""}","<img src=""stim_listB/touch7.gif""style=""height:400px;""></stim_listB>",is touching,,,,,,
null,"<div style=""font-size:60px;"">+</div>",,html-keyboard-response,310,2324502,0.0-17.0-0.16,84916,List1B,black,man,,,,null,,,,,,,,,
null,"<img src=""stim_listB/challenge7.gif""style=""height:400px;""></stim_listB>",,html-keyboard-response,311,2326514,0.0-17.0-1.16,84916,List1B,black,man,,,,null,,,,,,,,,
null,is challenging,,html-keyboard-response,312,2328518,0.0-17.0-2.16,84916,List1B,black,man,,,,null,,,,,,,,,
13382,,,survey-text,313,2341902,0.0-17.0-3.16,84916,List1B,black,man,,,,,"{""Q0"":""kate is challenging ruth""}","<img src=""stim_listB/challenge7.gif""style=""height:400px;""></stim_listB>",is challenging,,,,,,
null,"<div style=""font-size:60px;"">+</div>",,html-keyboard-response,314,2342410,0.0-17.0-0.17,84916,List1B,black,man,,,,null,,,,,,,,,
null,"<img src=""stim_listB/look6.gif""style=""height:400px;""></stim_listB>",,html-keyboard-response,315,2344426,0.0-17.0-1.17,84916,List1B,black,man,,,,null,,,,,,,,,
null,is being looked at by,,html-keyboard-response,316,2346430,0.0-17.0-2.17,84916,List1B,black,man,,,,null,,,,,,,,,
17087.8,,,survey-text,317,2363520,0.0-17.0-3.17,84916,List1B,black,man,,,,,"{""Q0"":""luke is  being looked at by dave""}","<img src=""stim_listB/look6.gif""style=""height:400px;""></stim_listB>",is being looked at by,,,,,,
null,"<div style=""font-size:60px;"">+</div>",,html-keyboard-response,318,2364022,0.0-17.0-0.18,84916,List1B,black,man,,,,null,,,,,,,,,
null,"<img src=""stim_listB/shout2.gif""style=""height:400px;""></stim_listB>",,html-keyboard-response,319,2366030,0.0-17.0-1.18,84916,List1B,black,man,,,,null,,,,,,,,,
null,is being shouted at by,,html-keyboard-response,320,2368040,0.0-17.0-2.18,84916,List1B,black,man,,,,null,,,,,,,,,
15732.1,,,survey-text,321,2383789,0.0-17.0-3.18,84916,List1B,black,man,,,,,"{""Q0"":""kate is being shouted by luke""}","<img src=""stim_listB/shout2.gif""style=""height:400px;""></stim_listB>",is being shouted at by,,,,,,
null,"<div style=""font-size:60px;"">+</div>",,html-keyboard-response,322,2384293,0.0-17.0-0.19,84916,List1B,black,man,,,,null,,,,,,,,,
null,"<img src=""stim_listB/touch6.gif""style=""height:400px;""></stim_listB>",,html-keyboard-response,323,2386308,0.0-17.0-1.19,84916,List1B,black,man,,,,null,,,,,,,,,
null,is being touched by,,html-keyboard-response,324,2388321,0.0-17.0-2.19,84916,List1B,black,man,,,,null,,,,,,,,,
20752.1,,,survey-text,325,2409076,0.0-17.0-3.19,84916,List1B,black,man,,,,,"{""Q0"":""fred is being touched by luke""}","<img src=""stim_listB/touch6.gif""style=""height:400px;""></stim_listB>",is being touched by,,,,,,
2950.2,"<img src='img/portrait_matrix_list1.jpg' style='width:900px;height:500px;''></img><p>If you have memorised all the portraits and names and are ready to start, press Continue.</p><p><strong>Please note: Your memory of these faces will be tested 4 times during this experiment.</strong></p>",0,html-button-response,326,2412027,0.0-18.0-0.0,84916,List1B,black,man,,,,,,,,,,,,,
1771.3,"<img src=""portrait/BM1.jpg""style=""height:400px;""></img>",4,html-button-response,327,2414809,0.0-18.0-1.0,84916,List1B,black,man,,TRUE,4,,,,,,,,,,
null,CORRECT,,html-keyboard-response,328,2416326,0.0-18.0-2.0-0.0,84916,List1B,black,man,,,,null,,,,,,,,,
2415.4,"<img src=""portrait/BM2.jpg""style=""height:400px;""></img>",5,html-button-response,329,2418743,0.0-18.0-4.0,84916,List1B,black,man,,TRUE,5,,,,,,,,,,
null,CORRECT,,html-keyboard-response,330,2420265,0.0-18.0-5.0-0.0,84916,List1B,black,man,,,,null,,,,,,,,,
2190.9,"<img src=""portrait/WM2.jpg""style=""height:400px;""></img>",7,html-button-response,331,2422458,0.0-18.0-7.0,84916,List1B,black,man,,TRUE,7,,,,,,,,,,
null,CORRECT,,html-keyboard-response,332,2423967,0.0-18.0-8.0-0.0,84916,List1B,black,man,,,,null,,,,,,,,,
2918.8,"<img src=""portrait/WW2.jpg""style=""height:400px;""></img>",3,html-button-response,333,2426887,0.0-18.0-10.0,84916,List1B,black,man,,TRUE,3,,,,,,,,,,
null,CORRECT,,html-keyboard-response,334,2428406,0.0-18.0-11.0-0.0,84916,List1B,black,man,,,,null,,,,,,,,,
2190.5,"<img src=""portrait/WM1.jpg""style=""height:400px;""></img>",6,html-button-response,335,2430599,0.0-18.0-13.0,84916,List1B,black,man,,TRUE,6,,,,,,,,,,
null,CORRECT,,html-keyboard-response,336,2432112,0.0-18.0-14.0-0.0,84916,List1B,black,man,,,,null,,,,,,,,,
5680.5,"<img src=""portrait/BW1.jpg""style=""height:400px;""></img>",0,html-button-response,337,2437794,0.0-18.0-16.0,84916,List1B,black,man,,TRUE,0,,,,,,,,,,
null,CORRECT,,html-keyboard-response,338,2439311,0.0-18.0-17.0-0.0,84916,List1B,black,man,,,,null,,,,,,,,,
1475.6,"<img src=""portrait/WW1.jpg""style=""height:400px;""></img>",1,html-button-response,339,2440788,0.0-18.0-19.0,84916,List1B,black,man,,TRUE,1,,,,,,,,,,
null,CORRECT,,html-keyboard-response,340,2442303,0.0-18.0-20.0-0.0,84916,List1B,black,man,,,,null,,,,,,,,,
1160.7,"<img src=""portrait/BW2.jpg""style=""height:400px;""></img>",2,html-button-response,341,2443465,0.0-18.0-22.0,84916,List1B,black,man,,TRUE,2,,,,,,,,,,
null,CORRECT,,html-keyboard-response,342,2444997,0.0-18.0-23.0-0.0,84916,List1B,black,man,,,,null,,,,,,,,,
1503.5,<p>You got 8 out of 8 right first time. Press Continue.</p>,0,html-button-response,343,2446502,0.0-18.0-25.0,84916,List1B,black,man,,,,,,,,,,,,,
null,"<div style=""font-size:60px;"">+</div>",,html-keyboard-response,344,2448014,0.0-19.0-0.0,84916,List1B,black,man,,,,null,,,,,,,,,
null,"<img src=""stim_listB/hug3.gif""style=""height:400px;""></stim_listB>",,html-keyboard-response,345,2450024,0.0-19.0-1.0,84916,List1B,black,man,,,,null,,,,,,,,,
null,is hugging,,html-keyboard-response,346,2452025,0.0-19.0-2.0,84916,List1B,black,man,,,,null,,,,,,,,,
20161.1,,,survey-text,347,2472188,0.0-19.0-3.0,84916,List1B,black,man,,,,,"{""Q0"":""ruth is hugging luke""}","<img src=""stim_listB/hug3.gif""style=""height:400px;""></stim_listB>",is hugging,,,,,,
null,"<div style=""font-size:60px;"">+</div>",,html-keyboard-response,348,2472710,0.0-19.0-0.1,84916,List1B,black,man,,,,null,,,,,,,,,
null,"<img src=""stim_listB/copy7.gif""style=""height:400px;""></stim_listB>",,html-keyboard-response,349,2474725,0.0-19.0-1.1,84916,List1B,black,man,,,,null,,,,,,,,,
null,is copying,,html-keyboard-response,350,2476734,0.0-19.0-2.1,84916,List1B,black,man,,,,null,,,,,,,,,
13828.6,,,survey-text,351,2490565,0.0-19.0-3.1,84916,List1B,black,man,,,,,"{""Q0"":""kate is copying ruth""}","<img src=""stim_listB/copy7.gif""style=""height:400px;""></stim_listB>",is copying,,,,,,
null,"<div style=""font-size:60px;"">+</div>",,html-keyboard-response,352,2491093,0.0-19.0-0.2,84916,List1B,black,man,,,,null,,,,,,,,,
null,"<img src=""stim_listB/greet4.gif""style=""height:400px;""></stim_listB>",,html-keyboard-response,353,2493105,0.0-19.0-1.2,84916,List1B,black,man,,,,null,,,,,,,,,
null,is being greeted by,,html-keyboard-response,354,2495108,0.0-19.0-2.2,84916,List1B,black,man,,,,null,,,,,,,,,
18422.1,,,survey-text,355,2513547,0.0-19.0-3.2,84916,List1B,black,man,,,,,"{""Q0"":""jane is being greeted by luke""}","<img src=""stim_listB/greet4.gif""style=""height:400px;""></stim_listB>",is being greeted by,,,,,,
null,"<div style=""font-size:60px;"">+</div>",,html-keyboard-response,356,2514050,0.0-19.0-0.3,84916,List1B,black,man,,,,null,,,,,,,,,
null,"<img src=""stim_listB/copy1.gif""style=""height:400px;""></stim_listB>",,html-keyboard-response,357,2516053,0.0-19.0-1.3,84916,List1B,black,man,,,,null,,,,,,,,,
null,is copying,,html-keyboard-response,358,2518059,0.0-19.0-2.3,84916,List1B,black,man,,,,null,,,,,,,,,
9558.6,,,survey-text,359,2527620,0.0-19.0-3.3,84916,List1B,black,man,,,,,"{""Q0"":""beth is copying mike""}","<img src=""stim_listB/copy1.gif""style=""height:400px;""></stim_listB>",is copying,,,,,,
null,"<div style=""font-size:60px;"">+</div>",,html-keyboard-response,360,2528125,0.0-19.0-0.4,84916,List1B,black,man,,,,null,,,,,,,,,
null,"<img src=""stim_listB/copy3.gif""style=""height:400px;""></stim_listB>",,html-keyboard-response,361,2530129,0.0-19.0-1.4,84916,List1B,black,man,,,,null,,,,,,,,,
null,is copying,,html-keyboard-response,362,2532141,0.0-19.0-2.4,84916,List1B,black,man,,,,null,,,,,,,,,
8871.4,,,survey-text,363,2541015,0.0-19.0-3.4,84916,List1B,black,man,,,,,"{""Q0"":""ruth is copying dave""}","<img src=""stim_listB/copy3.gif""style=""height:400px;""></stim_listB>",is copying,,,,,,
null,"<div style=""font-size:60px;"">+</div>",,html-keyboard-response,364,2541530,0.0-19.0-0.5,84916,List1B,black,man,,,,null,,,,,,,,,
null,"<img src=""stim_listB/hug2.gif""style=""height:400px;""></stim_listB>",,html-keyboard-response,365,2543534,0.0-19.0-1.5,84916,List1B,black,man,,,,null,,,,,,,,,
null,is being hugged by,,html-keyboard-response,366,2545545,0.0-19.0-2.5,84916,List1B,black,man,,,,null,,,,,,,,,
14450.4,,,survey-text,367,2559997,0.0-19.0-3.5,84916,List1B,black,man,,,,,"{""Q0"":""beth is being hugged by mike""}","<img src=""stim_listB/hug2.gif""style=""height:400px;""></stim_listB>",is being hugged by,,,,,,
null,"<div style=""font-size:60px;"">+</div>",,html-keyboard-response,368,2560511,0.0-19.0-0.6,84916,List1B,black,man,,,,null,,,,,,,,,
null,"<img src=""stim_listB/look3.gif""style=""height:400px;""></stim_listB>",,html-keyboard-response,369,2562524,0.0-19.0-1.6,84916,List1B,black,man,,,,null,,,,,,,,,
null,is looking at,,html-keyboard-response,370,2564529,0.0-19.0-2.6,84916,List1B,black,man,,,,null,,,,,,,,,
14479.1,,,survey-text,371,2579025,0.0-19.0-3.6,84916,List1B,black,man,,,,,"{""Q0"":""luke is looking at ruth""}","<img src=""stim_listB/look3.gif""style=""height:400px;""></stim_listB>",is looking at,,,,,,
null,"<div style=""font-size:60px;"">+</div>",,html-keyboard-response,372,2579531,0.0-19.0-0.7,84916,List1B,black,man,,,,null,,,,,,,,,
null,"<img src=""stim_listB/copy6.gif""style=""height:400px;""></stim_listB>",,html-keyboard-response,373,2581537,0.0-19.0-1.7,84916,List1B,black,man,,,,null,,,,,,,,,
null,is being copied by,,html-keyboard-response,374,2583550,0.0-19.0-2.7,84916,List1B,black,man,,,,null,,,,,,,,,
13800.5,,,survey-text,375,2597353,0.0-19.0-3.7,84916,List1B,black,man,,,,,"{""Q0"":""fred is being copied by dave""}","<img src=""stim_listB/copy6.gif""style=""height:400px;""></stim_listB>",is being copied by,,,,,,
null,"<div style=""font-size:60px;"">+</div>",,html-keyboard-response,376,2597861,0.0-19.0-0.8,84916,List1B,black,man,,,,null,,,,,,,,,
null,"<img src=""stim_listB/challenge1.gif""style=""height:400px;""></stim_listB>",,html-keyboard-response,377,2599872,0.0-19.0-1.8,84916,List1B,black,man,,,,null,,,,,,,,,
null,is challenging,,html-keyboard-response,378,2601880,0.0-19.0-2.8,84916,List1B,black,man,,,,null,,,,,,,,,
11475.6,,,survey-text,379,2613358,0.0-19.0-3.8,84916,List1B,black,man,,,,,"{""Q0"":""mike is challenging beth""}","<img src=""stim_listB/challenge1.gif""style=""height:400px;""></stim_listB>",is challenging,,,,,,
null,"<div style=""font-size:60px;"">+</div>",,html-keyboard-response,380,2613860,0.0-19.0-0.9,84916,List1B,black,man,,,,null,,,,,,,,,
null,"<img src=""stim_listB/oppose8.gif""style=""height:400px;""></stim_listB>",,html-keyboard-response,381,2615871,0.0-19.0-1.9,84916,List1B,black,man,,,,null,,,,,,,,,
null,is being opposed by,,html-keyboard-response,382,2617883,0.0-19.0-2.9,84916,List1B,black,man,,,,null,,,,,,,,,
22151.4,,,survey-text,383,2640043,0.0-19.0-3.9,84916,List1B,black,man,,,,,"{""Q0"":""ruth is being opposed by beth""}","<img src=""stim_listB/oppose8.gif""style=""height:400px;""></stim_listB>",is being opposed by,,,,,,
null,"<div style=""font-size:60px;"">+</div>",,html-keyboard-response,384,2640546,0.0-19.0-0.10,84916,List1B,black,man,,,,null,,,,,,,,,
null,"<img src=""stim_listB/look2.gif""style=""height:400px;""></stim_listB>",,html-keyboard-response,385,2642553,0.0-19.0-1.10,84916,List1B,black,man,,,,null,,,,,,,,,
null,is being looked at by,,html-keyboard-response,386,2644568,0.0-19.0-2.10,84916,List1B,black,man,,,,null,,,,,,,,,
13569.2,,,survey-text,387,2658143,0.0-19.0-3.10,84916,List1B,black,man,,,,,"{""Q0"":""mike is being looked at by kate""}","<img src=""stim_listB/look2.gif""style=""height:400px;""></stim_listB>",is being looked at by,,,,,,
null,"<div style=""font-size:60px;"">+</div>",,html-keyboard-response,388,2658656,0.0-19.0-0.11,84916,List1B,black,man,,,,null,,,,,,,,,
null,"<img src=""stim_listB/oppose1.gif""style=""height:400px;""></stim_listB>",,html-keyboard-response,389,2660672,0.0-19.0-1.11,84916,List1B,black,man,,,,null,,,,,,,,,
null,is opposing,,html-keyboard-response,390,2662678,0.0-19.0-2.11,84916,List1B,black,man,,,,null,,,,,,,,,
10797.1,,,survey-text,391,2673477,0.0-19.0-3.11,84916,List1B,black,man,,,,,"{""Q0"":""kate is opposing mike""}","<img src=""stim_listB/oppose1.gif""style=""height:400px;""></stim_listB>",is opposing,,,,,,
null,"<div style=""font-size:60px;"">+</div>",,html-keyboard-response,392,2673987,0.0-19.0-0.12,84916,List1B,black,man,,,,null,,,,,,,,,
null,"<img src=""stim_listB/look7.gif""style=""height:400px;""></stim_listB>",,html-keyboard-response,393,2675991,0.0-19.0-1.12,84916,List1B,black,man,,,,null,,,,,,,,,
null,is looking at,,html-keyboard-response,394,2678007,0.0-19.0-2.12,84916,List1B,black,man,,,,null,,,,,,,,,
23198.6,,,survey-text,395,2701215,0.0-19.0-3.12,84916,List1B,black,man,,,,,"{""Q0"":""ruth is looking at beth""}","<img src=""stim_listB/look7.gif""style=""height:400px;""></stim_listB>",is looking at,,,,,,
null,"<div style=""font-size:60px;"">+</div>",,html-keyboard-response,396,2701722,0.0-19.0-0.13,84916,List1B,black,man,,,,null,,,,,,,,,
null,"<img src=""stim_listB/touch5.gif""style=""height:400px;""></stim_listB>",,html-keyboard-response,397,2703738,0.0-19.0-1.13,84916,List1B,black,man,,,,null,,,,,,,,,
null,is touching,,html-keyboard-response,398,2705747,0.0-19.0-2.13,84916,List1B,black,man,,,,null,,,,,,,,,
13177.8,,,survey-text,399,2718927,0.0-19.0-3.13,84916,List1B,black,man,,,,,"{""Q0"":""mike is touching dave""}","<img src=""stim_listB/touch5.gif""style=""height:400px;""></stim_listB>",is touching,,,,,,
null,"<div style=""font-size:60px;"">+</div>",,html-keyboard-response,400,2719441,0.0-19.0-0.14,84916,List1B,black,man,,,,null,,,,,,,,,
null,"<img src=""stim_listB/challenge5.gif""style=""height:400px;""></stim_listB>",,html-keyboard-response,401,2721453,0.0-19.0-1.14,84916,List1B,black,man,,,,null,,,,,,,,,
null,is challenging,,html-keyboard-response,402,2723456,0.0-19.0-2.14,84916,List1B,black,man,,,,null,,,,,,,,,
9974.7,,,survey-text,403,2733433,0.0-19.0-3.14,84916,List1B,black,man,,,,,"{""Q0"":""mike is challenging luke""}","<img src=""stim_listB/challenge5.gif""style=""height:400px;""></stim_listB>",is challenging,,,,,,
null,"<div style=""font-size:60px;"">+</div>",,html-keyboard-response,404,2733936,0.0-19.0-0.15,84916,List1B,black,man,,,,null,,,,,,,,,
null,"<img src=""stim_listB/hug7.gif""style=""height:400px;""></stim_listB>",,html-keyboard-response,405,2735949,0.0-19.0-1.15,84916,List1B,black,man,,,,null,,,,,,,,,
null,is hugging,,html-keyboard-response,406,2737960,0.0-19.0-2.15,84916,List1B,black,man,,,,null,,,,,,,,,
12539.5,,,survey-text,407,2750507,0.0-19.0-3.15,84916,List1B,black,man,,,,,"{""Q0"":""ruth is hugging beth""}","<img src=""stim_listB/hug7.gif""style=""height:400px;""></stim_listB>",is hugging,,,,,,
null,"<div style=""font-size:60px;"">+</div>",,html-keyboard-response,408,2751022,0.0-19.0-0.16,84916,List1B,black,man,,,,null,,,,,,,,,
null,"<img src=""stim_listB/challenge4.gif""style=""height:400px;""></stim_listB>",,html-keyboard-response,409,2753030,0.0-19.0-1.16,84916,List1B,black,man,,,,null,,,,,,,,,
null,is being challenged by,,html-keyboard-response,410,2755034,0.0-19.0-2.16,84916,List1B,black,man,,,,null,,,,,,,,,
35244.7,,,survey-text,411,2790282,0.0-19.0-3.16,84916,List1B,black,man,,,,,"{""Q0"":""luke is challenging ruth""}","<img src=""stim_listB/challenge4.gif""style=""height:400px;""></stim_listB>",is being challenged by,,,,,,
null,"<div style=""font-size:60px;"">+</div>",,html-keyboard-response,412,2790791,0.0-19.0-0.17,84916,List1B,black,man,,,,null,,,,,,,,,
null,"<img src=""stim_listB/hug5.gif""style=""height:400px;""></stim_listB>",,html-keyboard-response,413,2792797,0.0-19.0-1.17,84916,List1B,black,man,,,,null,,,,,,,,,
null,is hugging,,html-keyboard-response,414,2794804,0.0-19.0-2.17,84916,List1B,black,man,,,,null,,,,,,,,,
28149.7,,,survey-text,415,2822963,0.0-19.0-3.17,84916,List1B,black,man,,,,,"{""Q0"":""fred is hugging luke""}","<img src=""stim_listB/hug5.gif""style=""height:400px;""></stim_listB>",is hugging,,,,,,
null,"<div style=""font-size:60px;"">+</div>",,html-keyboard-response,416,2823476,0.0-19.0-0.18,84916,List1B,black,man,,,,null,,,,,,,,,
null,"<img src=""stim_listB/seduce7.gif""style=""height:400px;""></stim_listB>",,html-keyboard-response,417,2825478,0.0-19.0-1.18,84916,List1B,black,man,,,,null,,,,,,,,,
null,is seducing,,html-keyboard-response,418,2827484,0.0-19.0-2.18,84916,List1B,black,man,,,,null,,,,,,,,,
11836.5,,,survey-text,419,2839322,0.0-19.0-3.18,84916,List1B,black,man,,,,,"{""Q0"":""ruth is seducing beth""}","<img src=""stim_listB/seduce7.gif""style=""height:400px;""></stim_listB>",is seducing,,,,,,
null,"<div style=""font-size:60px;"">+</div>",,html-keyboard-response,420,2839827,0.0-19.0-0.19,84916,List1B,black,man,,,,null,,,,,,,,,
null,"<img src=""stim_listB/kiss2.gif""style=""height:400px;""></stim_listB>",,html-keyboard-response,421,2841839,0.0-19.0-1.19,84916,List1B,black,man,,,,null,,,,,,,,,
null,is being kissed by,,html-keyboard-response,422,2843862,0.0-19.0-2.19,84916,List1B,black,man,,,,null,,,,,,,,,
35897.7,,,survey-text,423,2879768,0.0-19.0-3.19,84916,List1B,black,man,,,,,"{""Q0"":""mike is being kissed by beth""}","<img src=""stim_listB/kiss2.gif""style=""height:400px;""></stim_listB>",is being kissed by,,,,,,
3123.5,<p>Thank you for completing that task.</p><p>The final part of this session is a questionnaire that will take about 4 minutes.</p><p>Press Continue.</p>,0,html-button-response,424,2882893,0.0-20.0,84916,List1B,black,man,,,,,,,,,,,,,
85686.6,,,survey-text,425,2969592,0.0-21.0,84916,List1B,black,man,,,,,"{""Q0"":""34"",""Q1"":""English"",""Q2"":""English"",""Q3"":""United State"",""Q4"":""Black American"",""Q5"":""Black"",""Q6"":""Male""}",,,demographics,,,,,
4339.3,<p>Have you lived in the USA for the last 5 years or more?</p>,0,html-button-response,426,2973933,0.0-22.0,84916,List1B,black,man,,,,,,,,fiveyears,,,,,
3323.1,<p>Move the slider to show the extent to which you agree with the following statements.</p>,0,html-button-response,427,2978266,0.0-23.0,84916,List1B,black,man,,,,,,,,,,,,,
5396.2,,,html-slider-response,428,2984704,0.0-24.0-0.0-0.0,84916,List1B,black,man,,,,,,,,survey_race,86,,,I feel a bond with people the same age as me.,filler
3753,,,html-slider-response,429,2988463,0.0-24.0-0.0-0.1,84916,List1B,black,man,,,,,,,,survey_race,77,,,I have a lot in common with people of a similar age to me.,filler
3896.4,,,html-slider-response,430,2992361,0.0-24.0-0.0-0.2,84916,List1B,black,man,,,,,,,,survey_race,86,,,I feel a bond with my race.,bond
3293.7,,,html-slider-response,431,2995657,0.0-24.0-0.0-0.3,84916,List1B,black,man,,,,,,,,survey_race,83,,,It is pleasant to be my race.,pleasant
3397.5,,,html-slider-response,432,2999057,0.0-24.0-0.0-0.4,84916,List1B,black,man,,,,,,,,survey_race,79,,,I think that my race has a lot to be proud of.,proud
6012.1,,,html-slider-response,433,3005070,0.0-24.0-0.0-0.5,84916,List1B,black,man,,,,,,,,survey_race,24,,,My age is not an important part of who I am.,filler
3279,,,html-slider-response,434,3008351,0.0-24.0-0.0-0.6,84916,List1B,black,man,,,,,,,,survey_race,91,,,I am glad to be my race.,glad
5623.9,,,html-slider-response,435,3013977,0.0-24.0-0.0-0.7,84916,List1B,black,man,,,,,,,,survey_race,85,,,People of my race are very similar to each other.,verysimilar
10659.1,,,html-slider-response,436,3024638,0.0-24.0-0.0-0.8,84916,List1B,black,man,,,,,,,,survey_race,83,,,The fact that I am my race is an important part of my identity.,identity
4017.2,,,html-slider-response,437,3028658,0.0-24.0-0.0-0.9,84916,List1B,black,man,,,,,,,,survey_race,88,,,I enjoy being in large groups.,filler
4610.3,,,html-slider-response,438,3033270,0.0-24.0-0.0-0.10,84916,List1B,black,man,,,,,,,,survey_race,73,,,I feel solidarity with people the same age as me.,filler
3791.7,,,html-slider-response,439,3037064,0.0-24.0-0.0-0.11,84916,List1B,black,man,,,,,,,,survey_race,54,,,I consider myself an introvert.,filler
5027.7,,,html-slider-response,440,3042093,0.0-24.0-0.0-0.12,84916,List1B,black,man,,,,,,,,survey_race,90,,,I feel committed to my race.,committed
4893.6,,,html-slider-response,441,3046992,0.0-24.0-0.0-0.13,84916,List1B,black,man,,,,,,,,survey_race,80,,,People of my race have a lot in common with each other.,common
3536.4,,,html-slider-response,442,3050530,0.0-24.0-0.0-0.14,84916,List1B,black,man,,,,,,,,survey_race,81,,,Being my race gives me a good feeling.,feeling
4226.7,,,html-slider-response,443,3054759,0.0-24.0-0.0-0.15,84916,List1B,black,man,,,,,,,,survey_race,52,,,I consider myself an extrovert.,filler
4645.4,,,html-slider-response,444,3059406,0.0-24.0-0.0-0.16,84916,List1B,black,man,,,,,,,,survey_race,83,,,"The older I get, the wiser I feel.",filler
5614.3,,,html-slider-response,445,3065023,0.0-24.0-0.0-0.17,84916,List1B,black,man,,,,,,,,survey_race,79,,,People my age have a lot in common with each other.,filler
3610.7,,,html-slider-response,446,3068636,0.0-24.0-0.0-0.18,84916,List1B,black,man,,,,,,,,survey_race,92,,,I am glad to be my age.,filler
3646.3,,,html-slider-response,447,3072285,0.0-24.0-0.0-0.19,84916,List1B,black,man,,,,,,,,survey_race,98,,,Getting older does not worry me.,filler
6222.2,,,html-slider-response,448,3078509,0.0-24.0-0.0-0.20,84916,List1B,black,man,,,,,,,,survey_race,95,,,I often think about the fact that I am my race.,often
3725.7,,,html-slider-response,449,3082236,0.0-24.0-0.0-0.21,84916,List1B,black,man,,,,,,,,survey_race,91,,,I am glad to be the age I am.,filler
6573.2,,,html-slider-response,450,3088812,0.0-24.0-0.0-0.22,84916,List1B,black,man,,,,,,,,survey_race,53,,,I often think about the fact that I am my age.,filler
4903.2,,,html-slider-response,451,3093717,0.0-24.0-0.0-0.23,84916,List1B,black,man,,,,,,,,survey_race,91,,,Being my age gives me a good feeling.,filler
4954.1,,,html-slider-response,452,3098673,0.0-24.0-0.0-0.24,84916,List1B,black,man,,,,,,,,survey_race,92,,,Being my race is an important part of how I see myself.,important
3889.1,,,html-slider-response,453,3102564,0.0-24.0-0.0-0.25,84916,List1B,black,man,,,,,,,,survey_race,79,,,I am similar to the average person of my race.,similar
2519,,,html-slider-response,454,3105085,0.0-24.0-0.0-0.26,84916,List1B,black,man,,,,,,,,survey_race,71,,,I feel solidarity with my race.,solidarity
5021,,,html-slider-response,455,3110112,0.0-24.0-0.0-0.27,84916,List1B,black,man,,,,,,,,survey_race,72,,,I have a lot in common with the average person of my race.,average
2981.6,,,html-slider-response,456,3113095,0.0-24.0-1.0-0.0,84916,List1B,black,man,,,,,,,,survey_gender,70,,,It is pleasant to be my gender.,pleasant
4360,,,html-slider-response,457,3117457,0.0-24.0-1.0-0.1,84916,List1B,black,man,,,,,,,,survey_gender,70,,,I have a lot in common with the average person of my gender.,average
4303.5,,,html-slider-response,458,3121763,0.0-24.0-1.0-0.2,84916,List1B,black,man,,,,,,,,survey_gender,67,,,I often think about my actions.,filler
5217.5,,,html-slider-response,459,3126982,0.0-24.0-1.0-0.3,84916,List1B,black,man,,,,,,,,survey_gender,64,,,People of my gender have a lot in common with each other.,common
6403.5,,,html-slider-response,460,3133388,0.0-24.0-1.0-0.4,84916,List1B,black,man,,,,,,,,survey_gender,72,,,I feel solidarity with my friends.,filler
4278.8,,,html-slider-response,461,3137669,0.0-24.0-1.0-0.5,84916,List1B,black,man,,,,,,,,survey_gender,71,,,Being around my friends gives me a good feeling.,filler
4222.7,,,html-slider-response,462,3141894,0.0-24.0-1.0-0.6,84916,List1B,black,man,,,,,,,,survey_gender,73,,,I am glad to have the friends that I have.,filler
3969.3,,,html-slider-response,463,3145866,0.0-24.0-1.0-0.7,84916,List1B,black,man,,,,,,,,survey_gender,70,,,I am similar to the average person of my gender.,similar
3994.7,,,html-slider-response,464,3149862,0.0-24.0-1.0-0.8,84916,List1B,black,man,,,,,,,,survey_gender,75,,,Being my gender gives me a good feeling.,feeling
2985,,,html-slider-response,465,3152850,0.0-24.0-1.0-0.9,84916,List1B,black,man,,,,,,,,survey_gender,78,,,I feel a bond with my gender.,bond
3090.7,,,html-slider-response,466,3155942,0.0-24.0-1.0-0.10,84916,List1B,black,man,,,,,,,,survey_gender,79,,,I feel solidarity with my gender.,solidarity
6567,,,html-slider-response,467,3162511,0.0-24.0-1.0-0.11,84916,List1B,black,man,,,,,,,,survey_gender,72,,,It is not always easy for people to know what I am thinking.,filler
4232.8,,,html-slider-response,468,3166746,0.0-24.0-1.0-0.12,84916,List1B,black,man,,,,,,,,survey_gender,72,,,I think that my gender has a lot to be proud of.,proud
7824,,,html-slider-response,469,3174573,0.0-24.0-1.0-0.13,84916,List1B,black,man,,,,,,,,survey_gender,57,,,Family is not more important to me than friendship.,filler
3399.1,,,html-slider-response,470,3177975,0.0-24.0-1.0-0.14,84916,List1B,black,man,,,,,,,,survey_gender,90,,,I am glad to be my gender.,glad
3179.4,,,html-slider-response,471,3181155,0.0-24.0-1.0-0.15,84916,List1B,black,man,,,,,,,,survey_gender,80,,,I have a lot in common with my friends.,filler
2783.6,,,html-slider-response,472,3183941,0.0-24.0-1.0-0.16,84916,List1B,black,man,,,,,,,,survey_gender,78,,,My friends understand me.,filler
3915.5,,,html-slider-response,473,3187858,0.0-24.0-1.0-0.17,84916,List1B,black,man,,,,,,,,survey_gender,81,,,The fact that I am my gender is an important part of my identity.,identity
2460.4,,,html-slider-response,474,3190321,0.0-24.0-1.0-0.18,84916,List1B,black,man,,,,,,,,survey_gender,82,,,I feel committed to my gender.,committed
5100.4,,,html-slider-response,475,3195423,0.0-24.0-1.0-0.19,84916,List1B,black,man,,,,,,,,survey_gender,60,,,I would say I am an animal person.,filler
2781.4,,,html-slider-response,476,3198206,0.0-24.0-1.0-0.20,84916,List1B,black,man,,,,,,,,survey_gender,68,,,I often think about the fact that I am my gender.,often
2968.5,,,html-slider-response,477,3201176,0.0-24.0-1.0-0.21,84916,List1B,black,man,,,,,,,,survey_gender,71,,,Most of the friends in my life are very similar to me.,filler
6752.4,,,html-slider-response,478,3207931,0.0-24.0-1.0-0.22,84916,List1B,black,man,,,,,,,,survey_gender,69,,,I consider myself a highly empathetic person.,filler
2869.4,,,html-slider-response,479,3210803,0.0-24.0-1.0-0.23,84916,List1B,black,man,,,,,,,,survey_gender,72,,,My friends have a lot in common with each other.,filler
3546,,,html-slider-response,480,3214351,0.0-24.0-1.0-0.24,84916,List1B,black,man,,,,,,,,survey_gender,73,,,I feel a bond with my friends.,filler
2911.5,,,html-slider-response,481,3217264,0.0-24.0-1.0-0.25,84916,List1B,black,man,,,,,,,,survey_gender,71,,,Being my gender is an important part of how I see myself.,important
3982.7,,,html-slider-response,482,3221249,0.0-24.0-1.0-0.26,84916,List1B,black,man,,,,,,,,survey_gender,42,,,Routine is not important to me.,filler
3587.1,,,html-slider-response,483,3224839,0.0-24.0-1.0-0.27,84916,List1B,black,man,,,,,,,,survey_gender,81,,,People of my gender are very similar to each other.,verysimilar
18250.1,,,survey-text,484,3243096,0.0-25.0,84916,List1B,black,man,,,,,"{""Q0"":""ccc""}",,,worker_id,,,,,
7519.3,,,external-html,485,3251922,0.0-26.0,84916,List1B,black,man,debrief.html,,,,,,,,,,,,
