rt,stimulus,button_pressed,trial_type,trial_index,time_elapsed,internal_node_id,subject,list,ppt_race,ppt_gender,url,first_guess,correct,key_press,responses,image_type,phrase_type,test_part,response,stimulus1,stimulus2,question_type,survey_item
17689,Welcome to the experiment. Press Continue to begin.,0,html-button-response,0,17699,0.0-0.0,8551,List2B,white,man,,,,,,,,,,,,,
3943,,,external-html,1,23444,0.0-1.0,8551,List2B,white,man,consent.html,,,,,,,,,,,,
3569,"<p>On the next page, you will see portraits of 8 people and their names.</p><p>Your first task is to take a few minutes to memorise the names of these people.</p><p>You will have to recall their names during the rest of the experiment, so it is</p><p>essential that you try to memorise these people and their names as best as you can.</p><br><p><strong>You will then be tested on your memory of these names and portraits.</strong></p><br><p>The experiment will start after you have completed this memory test.</p><br><p>Ready?</p>",0,html-button-response,2,27015,0.0-2.0,8551,List2B,white,man,,,,,,,,,,,,,
30591,"<img src='img/portrait_matrix_list2.jpg' style='width:900px;height:500px;''></img><p>If you have memorised all the portraits and names and are ready to start, press Continue.</p><p><strong>Please note: Your memory of these faces will be tested 4 times during this experiment.</strong></p>",0,html-button-response,3,58608,0.0-3.0-0.0,8551,List2B,white,man,,,,,,,,,,,,,
1234104,"<img src=""portrait/WW1.jpg""style=""height:400px;""></img>",1,html-button-response,4,1293719,0.0-3.0-1.0,8551,List2B,white,man,,TRUE,1,,,,,,,,,,
null,CORRECT,,html-keyboard-response,5,1295223,0.0-3.0-2.0-0.0,8551,List2B,white,man,,,,null,,,,,,,,,
13538,"<img src=""portrait/WM2.jpg""style=""height:400px;""></img>",7,html-button-response,6,1308766,0.0-3.0-4.0,8551,List2B,white,man,,TRUE,7,,,,,,,,,,
null,CORRECT,,html-keyboard-response,7,1310271,0.0-3.0-5.0-0.0,8551,List2B,white,man,,,,null,,,,,,,,,
5620,"<img src=""portrait/BM2.jpg""style=""height:400px;""></img>",5,html-button-response,8,1315894,0.0-3.0-7.0,8551,List2B,white,man,,TRUE,5,,,,,,,,,,
null,CORRECT,,html-keyboard-response,9,1317399,0.0-3.0-8.0-0.0,8551,List2B,white,man,,,,null,,,,,,,,,
16260,"<img src=""portrait/WM1.jpg""style=""height:400px;""></img>",6,html-button-response,10,1333662,0.0-3.0-10.0,8551,List2B,white,man,,TRUE,6,,,,,,,,,,
null,CORRECT,,html-keyboard-response,11,1335166,0.0-3.0-11.0-0.0,8551,List2B,white,man,,,,null,,,,,,,,,
6870,"<img src=""portrait/BM1.jpg""style=""height:400px;""></img>",4,html-button-response,12,1342038,0.0-3.0-13.0,8551,List2B,white,man,,TRUE,4,,,,,,,,,,
null,CORRECT,,html-keyboard-response,13,1343539,0.0-3.0-14.0-0.0,8551,List2B,white,man,,,,null,,,,,,,,,
11976,"<img src=""portrait/BW1.jpg""style=""height:400px;""></img>",0,html-button-response,14,1355517,0.0-3.0-16.0,8551,List2B,white,man,,TRUE,0,,,,,,,,,,
null,CORRECT,,html-keyboard-response,15,1357022,0.0-3.0-17.0-0.0,8551,List2B,white,man,,,,null,,,,,,,,,
4716,"<img src=""portrait/WW2.jpg""style=""height:400px;""></img>",3,html-button-response,16,1361741,0.0-3.0-19.0,8551,List2B,white,man,,TRUE,3,,,,,,,,,,
null,CORRECT,,html-keyboard-response,17,1363246,0.0-3.0-20.0-0.0,8551,List2B,white,man,,,,null,,,,,,,,,
6214,"<img src=""portrait/BW2.jpg""style=""height:400px;""></img>",2,html-button-response,18,1369462,0.0-3.0-22.0,8551,List2B,white,man,,TRUE,2,,,,,,,,,,
null,CORRECT,,html-keyboard-response,19,1370965,0.0-3.0-23.0-0.0,8551,List2B,white,man,,,,null,,,,,,,,,
9397,<p>You got 8 out of 8 right first time. Press Continue.</p>,0,html-button-response,20,1380365,0.0-3.0-25.0,8551,List2B,white,man,,,,,,,,,,,,,
2978,"<p>In this experiment, you will view photographs of the people from the memory game interacting.</p><p>By using the <strong>exact</strong> phrase given <i>after</i> the photograph appears and recalling the correct names of the people in the photographs, form a sentence describing the interaction. You do not need to capitalise names.</p><p>Type your answer in the space provided. Please complete every sentence before moving onto the next trial.</p><p>You will only have a few seconds to memorise each given photograph and phrase before you can respond, so try your best to focus.</p><p>An example is given below. Press 'Continue' when you are ready.</p><img src='img/speaking_example.jpg' style='width:800px;height:460px;''></img>",0,html-button-response,21,1384349,0.0-4.0,8551,List2B,white,man,,,,,,,,,,,,,
1101,"<p>Before the experiment starts, you will watch two example trials. Press 'Continue'.</p>",0,html-button-response,22,1386454,0.0-5.0,8551,List2B,white,man,,,,,,,,,,,,,
null,<img src='img/play_eg.gif' style='height:400px;''></img>,,html-keyboard-response,23,1389457,0.0-6.0,8551,List2B,white,man,,,,null,,,,,,,,,
null,<p>is playing with</p>,,html-keyboard-response,24,1391459,0.0-7.0,8551,List2B,white,man,,,,null,,,,,,,,,
601,<p><b>Answer:</b> jane is playing with ruth</p>,0,html-button-response,25,1392061,0.0-8.0,8551,List2B,white,man,,,,,,,,,,,,,
null,<img src='img/dance_eg.gif' style='height:400px;''></img>,,html-keyboard-response,26,1395064,0.0-9.0,8551,List2B,white,man,,,,null,,,,,,,,,
null,<p>is being entertained by</p>,,html-keyboard-response,27,1397065,0.0-10.0,8551,List2B,white,man,,,,null,,,,,,,,,
1226,<p><b>Answer:</b> fred is being entertained by mike</p>,0,html-button-response,28,1398292,0.0-11.0,8551,List2B,white,man,,,,,,,,,,,,,
1230,"<p>Ready to start the experiment?</p><br><p><strong>Remember to describe the picture using a full sentence,</strong></p><p><strong>that combines the names of the people with the <i>exact</i> phrase given.</strong></p><p><strong>To receive full payment you must do this correctly.</strong></p><p><strong> You do not need to capitalise names or use punctuation.</strong></p><br><p>Press 'Continue' to begin.</p>",0,html-button-response,29,1400524,0.0-12.0,8551,List2B,white,man,,,,,,,,,,,,,
null,"<div style=""font-size:60px;"">+</div>",,html-keyboard-response,30,1402029,0.0-13.0-0.0,8551,List2B,white,man,,,,null,,,,,,,,,
null,"<img src=""stim_listB/kiss8.gif""style=""height:400px;""></stim_listB>",,html-keyboard-response,31,1404033,0.0-13.0-1.0,8551,List2B,white,man,,,,null,,,,,,,,,
null,is being kissed by,,html-keyboard-response,32,1406038,0.0-13.0-2.0,8551,List2B,white,man,,,,null,,,,,,,,,
63671,,,survey-text,33,1469715,0.0-13.0-3.0,8551,List2B,white,man,,,,,"{""Q0"":""Jene""}","<img src=""stim_listB/kiss8.gif""style=""height:400px;""></stim_listB>",is being kissed by,,,,,,
null,"<div style=""font-size:60px;"">+</div>",,html-keyboard-response,34,1470216,0.0-13.0-0.1,8551,List2B,white,man,,,,null,,,,,,,,,
null,"<img src=""stim_listB/look8.gif""style=""height:400px;""></stim_listB>",,html-keyboard-response,35,1472218,0.0-13.0-1.1,8551,List2B,white,man,,,,null,,,,,,,,,
null,is being looked at by,,html-keyboard-response,36,1474219,0.0-13.0-2.1,8551,List2B,white,man,,,,null,,,,,,,,,
24413,,,survey-text,37,1498637,0.0-13.0-3.1,8551,List2B,white,man,,,,,"{""Q0"":""Dave""}","<img src=""stim_listB/look8.gif""style=""height:400px;""></stim_listB>",is being looked at by,,,,,,
null,"<div style=""font-size:60px;"">+</div>",,html-keyboard-response,38,1499140,0.0-13.0-0.2,8551,List2B,white,man,,,,null,,,,,,,,,
null,"<img src=""stim_listB/look3.gif""style=""height:400px;""></stim_listB>",,html-keyboard-response,39,1501143,0.0-13.0-1.2,8551,List2B,white,man,,,,null,,,,,,,,,
null,is looking at,,html-keyboard-response,40,1503144,0.0-13.0-2.2,8551,List2B,white,man,,,,null,,,,,,,,,
11843,,,survey-text,41,1514989,0.0-13.0-3.2,8551,List2B,white,man,,,,,"{""Q0"":""Fred looking ""}","<img src=""stim_listB/look3.gif""style=""height:400px;""></stim_listB>",is looking at,,,,,,
null,"<div style=""font-size:60px;"">+</div>",,html-keyboard-response,42,1515492,0.0-13.0-0.3,8551,List2B,white,man,,,,null,,,,,,,,,
null,"<img src=""stim_listB/greet5.gif""style=""height:400px;""></stim_listB>",,html-keyboard-response,43,1517494,0.0-13.0-1.3,8551,List2B,white,man,,,,null,,,,,,,,,
null,is greeting,,html-keyboard-response,44,1519496,0.0-13.0-2.3,8551,List2B,white,man,,,,null,,,,,,,,,
20610,,,survey-text,45,1540110,0.0-13.0-3.3,8551,List2B,white,man,,,,,"{""Q0"":""Dave""}","<img src=""stim_listB/greet5.gif""style=""height:400px;""></stim_listB>",is greeting,,,,,,
null,"<div style=""font-size:60px;"">+</div>",,html-keyboard-response,46,1540612,0.0-13.0-0.4,8551,List2B,white,man,,,,null,,,,,,,,,
null,"<img src=""stim_listB/oppose5.gif""style=""height:400px;""></stim_listB>",,html-keyboard-response,47,1542613,0.0-13.0-1.4,8551,List2B,white,man,,,,null,,,,,,,,,
null,is opposing,,html-keyboard-response,48,1544614,0.0-13.0-2.4,8551,List2B,white,man,,,,null,,,,,,,,,
12408,,,survey-text,49,1557029,0.0-13.0-3.4,8551,List2B,white,man,,,,,"{""Q0"":""dave is opposing""}","<img src=""stim_listB/oppose5.gif""style=""height:400px;""></stim_listB>",is opposing,,,,,,
null,"<div style=""font-size:60px;"">+</div>",,html-keyboard-response,50,1557531,0.0-13.0-0.5,8551,List2B,white,man,,,,null,,,,,,,,,
null,"<img src=""stim_listB/challenge4.gif""style=""height:400px;""></stim_listB>",,html-keyboard-response,51,1559534,0.0-13.0-1.5,8551,List2B,white,man,,,,null,,,,,,,,,
null,is being challenged by,,html-keyboard-response,52,1561535,0.0-13.0-2.5,8551,List2B,white,man,,,,null,,,,,,,,,
20356,,,survey-text,53,1581894,0.0-13.0-3.5,8551,List2B,white,man,,,,,"{""Q0"":""Fred is being challenged by kate""}","<img src=""stim_listB/challenge4.gif""style=""height:400px;""></stim_listB>",is being challenged by,,,,,,
null,"<div style=""font-size:60px;"">+</div>",,html-keyboard-response,54,1582395,0.0-13.0-0.6,8551,List2B,white,man,,,,null,,,,,,,,,
null,"<img src=""stim_listB/kiss4.gif""style=""height:400px;""></stim_listB>",,html-keyboard-response,55,1584396,0.0-13.0-1.6,8551,List2B,white,man,,,,null,,,,,,,,,
null,is being kissed by,,html-keyboard-response,56,1586397,0.0-13.0-2.6,8551,List2B,white,man,,,,null,,,,,,,,,
27621,,,survey-text,57,1614021,0.0-13.0-3.6,8551,List2B,white,man,,,,,"{""Q0"":""Mike is being kissed by beth""}","<img src=""stim_listB/kiss4.gif""style=""height:400px;""></stim_listB>",is being kissed by,,,,,,
null,"<div style=""font-size:60px;"">+</div>",,html-keyboard-response,58,1614523,0.0-13.0-0.7,8551,List2B,white,man,,,,null,,,,,,,,,
null,"<img src=""stim_listB/challenge6.gif""style=""height:400px;""></stim_listB>",,html-keyboard-response,59,1616524,0.0-13.0-1.7,8551,List2B,white,man,,,,null,,,,,,,,,
null,is being challenged by,,html-keyboard-response,60,1618526,0.0-13.0-2.7,8551,List2B,white,man,,,,null,,,,,,,,,
16209,,,survey-text,61,1634741,0.0-13.0-3.7,8551,List2B,white,man,,,,,"{""Q0"":""Luke is being challenged by mike""}","<img src=""stim_listB/challenge6.gif""style=""height:400px;""></stim_listB>",is being challenged by,,,,,,
null,"<div style=""font-size:60px;"">+</div>",,html-keyboard-response,62,1635241,0.0-13.0-0.8,8551,List2B,white,man,,,,null,,,,,,,,,
null,"<img src=""stim_listB/shout2.gif""style=""height:400px;""></stim_listB>",,html-keyboard-response,63,1637244,0.0-13.0-1.8,8551,List2B,white,man,,,,null,,,,,,,,,
null,is being shouted at by,,html-keyboard-response,64,1639246,0.0-13.0-2.8,8551,List2B,white,man,,,,null,,,,,,,,,
18730,,,survey-text,65,1657980,0.0-13.0-3.8,8551,List2B,white,man,,,,,"{""Q0"":""dave is being shouted at by jane""}","<img src=""stim_listB/shout2.gif""style=""height:400px;""></stim_listB>",is being shouted at by,,,,,,
null,"<div style=""font-size:60px;"">+</div>",,html-keyboard-response,66,1658481,0.0-13.0-0.9,8551,List2B,white,man,,,,null,,,,,,,,,
null,"<img src=""stim_listB/greet8.gif""style=""height:400px;""></stim_listB>",,html-keyboard-response,67,1660483,0.0-13.0-1.9,8551,List2B,white,man,,,,null,,,,,,,,,
null,is being greeted by,,html-keyboard-response,68,1662483,0.0-13.0-2.9,8551,List2B,white,man,,,,null,,,,,,,,,
20986,,,survey-text,69,1683476,0.0-13.0-3.9,8551,List2B,white,man,,,,,"{""Q0"":""ruth is being greeted by kate""}","<img src=""stim_listB/greet8.gif""style=""height:400px;""></stim_listB>",is being greeted by,,,,,,
null,"<div style=""font-size:60px;"">+</div>",,html-keyboard-response,70,1683978,0.0-13.0-0.10,8551,List2B,white,man,,,,null,,,,,,,,,
null,"<img src=""stim_listB/touch7.gif""style=""height:400px;""></stim_listB>",,html-keyboard-response,71,1685979,0.0-13.0-1.10,8551,List2B,white,man,,,,null,,,,,,,,,
null,is touching,,html-keyboard-response,72,1687980,0.0-13.0-2.10,8551,List2B,white,man,,,,null,,,,,,,,,
8938,,,survey-text,73,1696924,0.0-13.0-3.10,8551,List2B,white,man,,,,,"{""Q0"":""kate is touching jane""}","<img src=""stim_listB/touch7.gif""style=""height:400px;""></stim_listB>",is touching,,,,,,
null,"<div style=""font-size:60px;"">+</div>",,html-keyboard-response,74,1697425,0.0-13.0-0.11,8551,List2B,white,man,,,,null,,,,,,,,,
null,"<img src=""stim_listB/kiss1.gif""style=""height:400px;""></stim_listB>",,html-keyboard-response,75,1699427,0.0-13.0-1.11,8551,List2B,white,man,,,,null,,,,,,,,,
null,is kissing,,html-keyboard-response,76,1701428,0.0-13.0-2.11,8551,List2B,white,man,,,,null,,,,,,,,,
13604,,,survey-text,77,1715035,0.0-13.0-3.11,8551,List2B,white,man,,,,,"{""Q0"":""Luke is kissing ruth""}","<img src=""stim_listB/kiss1.gif""style=""height:400px;""></stim_listB>",is kissing,,,,,,
null,"<div style=""font-size:60px;"">+</div>",,html-keyboard-response,78,1715536,0.0-13.0-0.12,8551,List2B,white,man,,,,null,,,,,,,,,
null,"<img src=""stim_listB/seduce5.gif""style=""height:400px;""></stim_listB>",,html-keyboard-response,79,1717538,0.0-13.0-1.12,8551,List2B,white,man,,,,null,,,,,,,,,
null,is seducing,,html-keyboard-response,80,1719539,0.0-13.0-2.12,8551,List2B,white,man,,,,null,,,,,,,,,
15379,,,survey-text,81,1734924,0.0-13.0-3.12,8551,List2B,white,man,,,,,"{""Q0"":""Luke is seducing mike""}","<img src=""stim_listB/seduce5.gif""style=""height:400px;""></stim_listB>",is seducing,,,,,,
null,"<div style=""font-size:60px;"">+</div>",,html-keyboard-response,82,1735425,0.0-13.0-0.13,8551,List2B,white,man,,,,null,,,,,,,,,
null,"<img src=""stim_listB/touch6.gif""style=""height:400px;""></stim_listB>",,html-keyboard-response,83,1737427,0.0-13.0-1.13,8551,List2B,white,man,,,,null,,,,,,,,,
null,is being touched by,,html-keyboard-response,84,1739427,0.0-13.0-2.13,8551,List2B,white,man,,,,null,,,,,,,,,
13670,,,survey-text,85,1753099,0.0-13.0-3.13,8551,List2B,white,man,,,,,"{""Q0"":""Fred is being touched by Luke""}","<img src=""stim_listB/touch6.gif""style=""height:400px;""></stim_listB>",is being touched by,,,,,,
null,"<div style=""font-size:60px;"">+</div>",,html-keyboard-response,86,1753602,0.0-13.0-0.14,8551,List2B,white,man,,,,null,,,,,,,,,
null,"<img src=""stim_listB/touch8.gif""style=""height:400px;""></stim_listB>",,html-keyboard-response,87,1755604,0.0-13.0-1.14,8551,List2B,white,man,,,,null,,,,,,,,,
null,is being touched by,,html-keyboard-response,88,1757605,0.0-13.0-2.14,8551,List2B,white,man,,,,null,,,,,,,,,
36892,,,survey-text,89,1794499,0.0-13.0-3.14,8551,List2B,white,man,,,,,"{""Q0"":""beth is being touched by ruth""}","<img src=""stim_listB/touch8.gif""style=""height:400px;""></stim_listB>",is being touched by,,,,,,
null,"<div style=""font-size:60px;"">+</div>",,html-keyboard-response,90,1795001,0.0-13.0-0.15,8551,List2B,white,man,,,,null,,,,,,,,,
null,"<img src=""stim_listB/shout7.gif""style=""height:400px;""></stim_listB>",,html-keyboard-response,91,1797002,0.0-13.0-1.15,8551,List2B,white,man,,,,null,,,,,,,,,
null,is shouting at,,html-keyboard-response,92,1799004,0.0-13.0-2.15,8551,List2B,white,man,,,,null,,,,,,,,,
10794,,,survey-text,93,1809803,0.0-13.0-3.15,8551,List2B,white,man,,,,,"{""Q0"":""beth is shouting at Ruth""}","<img src=""stim_listB/shout7.gif""style=""height:400px;""></stim_listB>",is shouting at,,,,,,
null,"<div style=""font-size:60px;"">+</div>",,html-keyboard-response,94,1810305,0.0-13.0-0.16,8551,List2B,white,man,,,,null,,,,,,,,,
null,"<img src=""stim_listB/kiss2.gif""style=""height:400px;""></stim_listB>",,html-keyboard-response,95,1812306,0.0-13.0-1.16,8551,List2B,white,man,,,,null,,,,,,,,,
null,is being kissed by,,html-keyboard-response,96,1814308,0.0-13.0-2.16,8551,List2B,white,man,,,,null,,,,,,,,,
16418,,,survey-text,97,1830731,0.0-13.0-3.16,8551,List2B,white,man,,,,,"{""Q0"":""Dave is being kissed by jane""}","<img src=""stim_listB/kiss2.gif""style=""height:400px;""></stim_listB>",is being kissed by,,,,,,
null,"<div style=""font-size:60px;"">+</div>",,html-keyboard-response,98,1831233,0.0-13.0-0.17,8551,List2B,white,man,,,,null,,,,,,,,,
null,"<img src=""stim_listB/look7.gif""style=""height:400px;""></stim_listB>",,html-keyboard-response,99,1833235,0.0-13.0-1.17,8551,List2B,white,man,,,,null,,,,,,,,,
null,is looking at,,html-keyboard-response,100,1835237,0.0-13.0-2.17,8551,List2B,white,man,,,,null,,,,,,,,,
13928,,,survey-text,101,1849171,0.0-13.0-3.17,8551,List2B,white,man,,,,,"{""Q0"":""Jane is looking at beth""}","<img src=""stim_listB/look7.gif""style=""height:400px;""></stim_listB>",is looking at,,,,,,
null,"<div style=""font-size:60px;"">+</div>",,html-keyboard-response,102,1849672,0.0-13.0-0.18,8551,List2B,white,man,,,,null,,,,,,,,,
null,"<img src=""stim_listB/kiss5.gif""style=""height:400px;""></stim_listB>",,html-keyboard-response,103,1851674,0.0-13.0-1.18,8551,List2B,white,man,,,,null,,,,,,,,,
null,is kissing,,html-keyboard-response,104,1853676,0.0-13.0-2.18,8551,List2B,white,man,,,,null,,,,,,,,,
9212,,,survey-text,105,1862890,0.0-13.0-3.18,8551,List2B,white,man,,,,,"{""Q0"":""Luke is kissing fred""}","<img src=""stim_listB/kiss5.gif""style=""height:400px;""></stim_listB>",is kissing,,,,,,
null,"<div style=""font-size:60px;"">+</div>",,html-keyboard-response,106,1863392,0.0-13.0-0.19,8551,List2B,white,man,,,,null,,,,,,,,,
null,"<img src=""stim_listB/touch5.gif""style=""height:400px;""></stim_listB>",,html-keyboard-response,107,1865394,0.0-13.0-1.19,8551,List2B,white,man,,,,null,,,,,,,,,
null,is touching,,html-keyboard-response,108,1867395,0.0-13.0-2.19,8551,List2B,white,man,,,,null,,,,,,,,,
9685,,,survey-text,109,1877082,0.0-13.0-3.19,8551,List2B,white,man,,,,,"{""Q0"":""Mike is touching Dave""}","<img src=""stim_listB/touch5.gif""style=""height:400px;""></stim_listB>",is touching,,,,,,
2117,"<img src='img/portrait_matrix_list2.jpg' style='width:900px;height:500px;''></img><p>If you have memorised all the portraits and names and are ready to start, press Continue.</p><p><strong>Please note: Your memory of these faces will be tested 4 times during this experiment.</strong></p>",0,html-button-response,110,1879202,0.0-14.0-0.0,8551,List2B,white,man,,,,,,,,,,,,,
5077,"<img src=""portrait/BM1.jpg""style=""height:400px;""></img>",4,html-button-response,111,1885281,0.0-14.0-1.0,8551,List2B,white,man,,TRUE,4,,,,,,,,,,
null,CORRECT,,html-keyboard-response,112,1886783,0.0-14.0-2.0-0.0,8551,List2B,white,man,,,,null,,,,,,,,,
3929,"<img src=""portrait/WM2.jpg""style=""height:400px;""></img>",7,html-button-response,113,1890713,0.0-14.0-4.0,8551,List2B,white,man,,TRUE,7,,,,,,,,,,
null,CORRECT,,html-keyboard-response,114,1892214,0.0-14.0-5.0-0.0,8551,List2B,white,man,,,,null,,,,,,,,,
7137,"<img src=""portrait/BW1.jpg""style=""height:400px;""></img>",0,html-button-response,115,1899353,0.0-14.0-7.0,8551,List2B,white,man,,TRUE,0,,,,,,,,,,
null,CORRECT,,html-keyboard-response,116,1900857,0.0-14.0-8.0-0.0,8551,List2B,white,man,,,,null,,,,,,,,,
2935,"<img src=""portrait/WM1.jpg""style=""height:400px;""></img>",6,html-button-response,117,1903793,0.0-14.0-10.0,8551,List2B,white,man,,TRUE,6,,,,,,,,,,
null,CORRECT,,html-keyboard-response,118,1905296,0.0-14.0-11.0-0.0,8551,List2B,white,man,,,,null,,,,,,,,,
2272,"<img src=""portrait/WW2.jpg""style=""height:400px;""></img>",3,html-button-response,119,1907570,0.0-14.0-13.0,8551,List2B,white,man,,TRUE,3,,,,,,,,,,
null,CORRECT,,html-keyboard-response,120,1909072,0.0-14.0-14.0-0.0,8551,List2B,white,man,,,,null,,,,,,,,,
2592,"<img src=""portrait/BM2.jpg""style=""height:400px;""></img>",5,html-button-response,121,1911665,0.0-14.0-16.0,8551,List2B,white,man,,TRUE,5,,,,,,,,,,
null,CORRECT,,html-keyboard-response,122,1913168,0.0-14.0-17.0-0.0,8551,List2B,white,man,,,,null,,,,,,,,,
2976,"<img src=""portrait/WW1.jpg""style=""height:400px;""></img>",1,html-button-response,123,1916145,0.0-14.0-19.0,8551,List2B,white,man,,TRUE,1,,,,,,,,,,
null,CORRECT,,html-keyboard-response,124,1917649,0.0-14.0-20.0-0.0,8551,List2B,white,man,,,,null,,,,,,,,,
4287,"<img src=""portrait/BW2.jpg""style=""height:400px;""></img>",2,html-button-response,125,1921937,0.0-14.0-22.0,8551,List2B,white,man,,TRUE,2,,,,,,,,,,
null,CORRECT,,html-keyboard-response,126,1923440,0.0-14.0-23.0-0.0,8551,List2B,white,man,,,,null,,,,,,,,,
1015,<p>You got 8 out of 8 right first time. Press Continue.</p>,0,html-button-response,127,1924457,0.0-14.0-25.0,8551,List2B,white,man,,,,,,,,,,,,,
null,"<div style=""font-size:60px;"">+</div>",,html-keyboard-response,128,1925960,0.0-15.0-0.0,8551,List2B,white,man,,,,null,,,,,,,,,
null,"<img src=""stim_listB/greet7.gif""style=""height:400px;""></stim_listB>",,html-keyboard-response,129,1927961,0.0-15.0-1.0,8551,List2B,white,man,,,,null,,,,,,,,,
null,is greeting,,html-keyboard-response,130,1929963,0.0-15.0-2.0,8551,List2B,white,man,,,,null,,,,,,,,,
11604,,,survey-text,131,1941570,0.0-15.0-3.0,8551,List2B,white,man,,,,,"{""Q0"":""Jane is greeting Beth""}","<img src=""stim_listB/greet7.gif""style=""height:400px;""></stim_listB>",is greeting,,,,,,
null,"<div style=""font-size:60px;"">+</div>",,html-keyboard-response,132,1942071,0.0-15.0-0.1,8551,List2B,white,man,,,,null,,,,,,,,,
null,"<img src=""stim_listB/copy8.gif""style=""height:400px;""></stim_listB>",,html-keyboard-response,133,1944073,0.0-15.0-1.1,8551,List2B,white,man,,,,null,,,,,,,,,
null,is being copied by,,html-keyboard-response,134,1946075,0.0-15.0-2.1,8551,List2B,white,man,,,,null,,,,,,,,,
6725,,,survey-text,135,1952802,0.0-15.0-3.1,8551,List2B,white,man,,,,,"{""Q0"":""Jane is being copied by kate\\""}","<img src=""stim_listB/copy8.gif""style=""height:400px;""></stim_listB>",is being copied by,,,,,,
null,"<div style=""font-size:60px;"">+</div>",,html-keyboard-response,136,1953304,0.0-15.0-0.2,8551,List2B,white,man,,,,null,,,,,,,,,
null,"<img src=""stim_listB/challenge1.gif""style=""height:400px;""></stim_listB>",,html-keyboard-response,137,1955305,0.0-15.0-1.2,8551,List2B,white,man,,,,null,,,,,,,,,
null,is challenging,,html-keyboard-response,138,1957306,0.0-15.0-2.2,8551,List2B,white,man,,,,null,,,,,,,,,
8667,,,survey-text,139,1965978,0.0-15.0-3.2,8551,List2B,white,man,,,,,"{""Q0"":""dave is challenging ruth""}","<img src=""stim_listB/challenge1.gif""style=""height:400px;""></stim_listB>",is challenging,,,,,,
null,"<div style=""font-size:60px;"">+</div>",,html-keyboard-response,140,1966479,0.0-15.0-0.3,8551,List2B,white,man,,,,null,,,,,,,,,
null,"<img src=""stim_listB/kiss7.gif""style=""height:400px;""></stim_listB>",,html-keyboard-response,141,1968481,0.0-15.0-1.3,8551,List2B,white,man,,,,null,,,,,,,,,
null,is kissing,,html-keyboard-response,142,1970482,0.0-15.0-2.3,8551,List2B,white,man,,,,null,,,,,,,,,
14008,,,survey-text,143,1984492,0.0-15.0-3.3,8551,List2B,white,man,,,,,"{""Q0"":""Beth is kissing Ruth""}","<img src=""stim_listB/kiss7.gif""style=""height:400px;""></stim_listB>",is kissing,,,,,,
null,"<div style=""font-size:60px;"">+</div>",,html-keyboard-response,144,1984994,0.0-15.0-0.4,8551,List2B,white,man,,,,null,,,,,,,,,
null,"<img src=""stim_listB/seduce4.gif""style=""height:400px;""></stim_listB>",,html-keyboard-response,145,1986995,0.0-15.0-1.4,8551,List2B,white,man,,,,null,,,,,,,,,
null,is being seduced by,,html-keyboard-response,146,1988997,0.0-15.0-2.4,8551,List2B,white,man,,,,null,,,,,,,,,
14998,,,survey-text,147,2004002,0.0-15.0-3.4,8551,List2B,white,man,,,,,"{""Q0"":""Mike is being seduced by Beth""}","<img src=""stim_listB/seduce4.gif""style=""height:400px;""></stim_listB>",is being seduced by,,,,,,
null,"<div style=""font-size:60px;"">+</div>",,html-keyboard-response,148,2004502,0.0-15.0-0.5,8551,List2B,white,man,,,,null,,,,,,,,,
null,"<img src=""stim_listB/oppose4.gif""style=""height:400px;""></stim_listB>",,html-keyboard-response,149,2006504,0.0-15.0-1.5,8551,List2B,white,man,,,,null,,,,,,,,,
null,is being opposed by,,html-keyboard-response,150,2008505,0.0-15.0-2.5,8551,List2B,white,man,,,,null,,,,,,,,,
10778,,,survey-text,151,2019289,0.0-15.0-3.5,8551,List2B,white,man,,,,,"{""Q0"":""Fred is being opposed by Beth""}","<img src=""stim_listB/oppose4.gif""style=""height:400px;""></stim_listB>",is being opposed by,,,,,,
null,"<div style=""font-size:60px;"">+</div>",,html-keyboard-response,152,2019791,0.0-15.0-0.6,8551,List2B,white,man,,,,null,,,,,,,,,
null,"<img src=""stim_listB/oppose6.gif""style=""height:400px;""></stim_listB>",,html-keyboard-response,153,2021792,0.0-15.0-1.6,8551,List2B,white,man,,,,null,,,,,,,,,
null,is being opposed by,,html-keyboard-response,154,2023795,0.0-15.0-2.6,8551,List2B,white,man,,,,null,,,,,,,,,
13580,,,survey-text,155,2037376,0.0-15.0-3.6,8551,List2B,white,man,,,,,"{""Q0"":""Luke is being opposed by fred""}","<img src=""stim_listB/oppose6.gif""style=""height:400px;""></stim_listB>",is being opposed by,,,,,,
null,"<div style=""font-size:60px;"">+</div>",,html-keyboard-response,156,2037879,0.0-15.0-0.7,8551,List2B,white,man,,,,null,,,,,,,,,
null,"<img src=""stim_listB/shout4.gif""style=""height:400px;""></stim_listB>",,html-keyboard-response,157,2039880,0.0-15.0-1.7,8551,List2B,white,man,,,,null,,,,,,,,,
null,is being shouted at by,,html-keyboard-response,158,2041883,0.0-15.0-2.7,8551,List2B,white,man,,,,null,,,,,,,,,
9086,,,survey-text,159,2050976,0.0-15.0-3.7,8551,List2B,white,man,,,,,"{""Q0"":""Mike is being shouted at by kate""}","<img src=""stim_listB/shout4.gif""style=""height:400px;""></stim_listB>",is being shouted at by,,,,,,
null,"<div style=""font-size:60px;"">+</div>",,html-keyboard-response,160,2051480,0.0-15.0-0.8,8551,List2B,white,man,,,,null,,,,,,,,,
null,"<img src=""stim_listB/copy1.gif""style=""height:400px;""></stim_listB>",,html-keyboard-response,161,2053481,0.0-15.0-1.8,8551,List2B,white,man,,,,null,,,,,,,,,
null,is copying,,html-keyboard-response,162,2055482,0.0-15.0-2.8,8551,List2B,white,man,,,,null,,,,,,,,,
10362,,,survey-text,163,2065849,0.0-15.0-3.8,8551,List2B,white,man,,,,,"{""Q0"":""dave is copying Ruth""}","<img src=""stim_listB/copy1.gif""style=""height:400px;""></stim_listB>",is copying,,,,,,
null,"<div style=""font-size:60px;"">+</div>",,html-keyboard-response,164,2066351,0.0-15.0-0.9,8551,List2B,white,man,,,,null,,,,,,,,,
null,"<img src=""stim_listB/look1.gif""style=""height:400px;""></stim_listB>",,html-keyboard-response,165,2068352,0.0-15.0-1.9,8551,List2B,white,man,,,,null,,,,,,,,,
null,is looking at,,html-keyboard-response,166,2070353,0.0-15.0-2.9,8551,List2B,white,man,,,,null,,,,,,,,,
10810,,,survey-text,167,2081168,0.0-15.0-3.9,8551,List2B,white,man,,,,,"{""Q0"":""Luke is looking at Ruth""}","<img src=""stim_listB/look1.gif""style=""height:400px;""></stim_listB>",is looking at,,,,,,
null,"<div style=""font-size:60px;"">+</div>",,html-keyboard-response,168,2081671,0.0-15.0-0.10,8551,List2B,white,man,,,,null,,,,,,,,,
null,"<img src=""stim_listB/touch2.gif""style=""height:400px;""></stim_listB>",,html-keyboard-response,169,2083672,0.0-15.0-1.10,8551,List2B,white,man,,,,null,,,,,,,,,
null,is being touched by,,html-keyboard-response,170,2085677,0.0-15.0-2.10,8551,List2B,white,man,,,,null,,,,,,,,,
7336,,,survey-text,171,2093017,0.0-15.0-3.10,8551,List2B,white,man,,,,,"{""Q0"":""ruth is being touched by luke""}","<img src=""stim_listB/touch2.gif""style=""height:400px;""></stim_listB>",is being touched by,,,,,,
null,"<div style=""font-size:60px;"">+</div>",,html-keyboard-response,172,2093518,0.0-15.0-0.11,8551,List2B,white,man,,,,null,,,,,,,,,
null,"<img src=""stim_listB/seduce8.gif""style=""height:400px;""></stim_listB>",,html-keyboard-response,173,2095519,0.0-15.0-1.11,8551,List2B,white,man,,,,null,,,,,,,,,
null,is being seduced by,,html-keyboard-response,174,2097522,0.0-15.0-2.11,8551,List2B,white,man,,,,null,,,,,,,,,
10443,,,survey-text,175,2107968,0.0-15.0-3.11,8551,List2B,white,man,,,,,"{""Q0"":""Beth is being seduced by jane""}","<img src=""stim_listB/seduce8.gif""style=""height:400px;""></stim_listB>",is being seduced by,,,,,,
null,"<div style=""font-size:60px;"">+</div>",,html-keyboard-response,176,2108470,0.0-15.0-0.12,8551,List2B,white,man,,,,null,,,,,,,,,
null,"<img src=""stim_listB/hug1.gif""style=""height:400px;""></stim_listB>",,html-keyboard-response,177,2110472,0.0-15.0-1.12,8551,List2B,white,man,,,,null,,,,,,,,,
null,is hugging,,html-keyboard-response,178,2112474,0.0-15.0-2.12,8551,List2B,white,man,,,,null,,,,,,,,,
7736,,,survey-text,179,2120216,0.0-15.0-3.12,8551,List2B,white,man,,,,,"{""Q0"":""Luke is hugging jane""}","<img src=""stim_listB/hug1.gif""style=""height:400px;""></stim_listB>",is hugging,,,,,,
null,"<div style=""font-size:60px;"">+</div>",,html-keyboard-response,180,2120717,0.0-15.0-0.13,8551,List2B,white,man,,,,null,,,,,,,,,
null,"<img src=""stim_listB/challenge3.gif""style=""height:400px;""></stim_listB>",,html-keyboard-response,181,2122719,0.0-15.0-1.13,8551,List2B,white,man,,,,null,,,,,,,,,
null,is challenging,,html-keyboard-response,182,2124720,0.0-15.0-2.13,8551,List2B,white,man,,,,null,,,,,,,,,
8148,,,survey-text,183,2132872,0.0-15.0-3.13,8551,List2B,white,man,,,,,"{""Q0"":""Beth is challenging mike ""}","<img src=""stim_listB/challenge3.gif""style=""height:400px;""></stim_listB>",is challenging,,,,,,
null,"<div style=""font-size:60px;"">+</div>",,html-keyboard-response,184,2133374,0.0-15.0-0.14,8551,List2B,white,man,,,,null,,,,,,,,,
null,"<img src=""stim_listB/oppose7.gif""style=""height:400px;""></stim_listB>",,html-keyboard-response,185,2135375,0.0-15.0-1.14,8551,List2B,white,man,,,,null,,,,,,,,,
null,is opposing,,html-keyboard-response,186,2137375,0.0-15.0-2.14,8551,List2B,white,man,,,,null,,,,,,,,,
9131,,,survey-text,187,2146511,0.0-15.0-3.14,8551,List2B,white,man,,,,,"{""Q0"":""jane is opposing kate""}","<img src=""stim_listB/oppose7.gif""style=""height:400px;""></stim_listB>",is opposing,,,,,,
null,"<div style=""font-size:60px;"">+</div>",,html-keyboard-response,188,2147013,0.0-15.0-0.15,8551,List2B,white,man,,,,null,,,,,,,,,
null,"<img src=""stim_listB/kiss6.gif""style=""height:400px;""></stim_listB>",,html-keyboard-response,189,2149015,0.0-15.0-1.15,8551,List2B,white,man,,,,null,,,,,,,,,
null,is being kissed by,,html-keyboard-response,190,2151016,0.0-15.0-2.15,8551,List2B,white,man,,,,null,,,,,,,,,
7474,,,survey-text,191,2158496,0.0-15.0-3.15,8551,List2B,white,man,,,,,"{""Q0"":""Mike is being kissed by dave""}","<img src=""stim_listB/kiss6.gif""style=""height:400px;""></stim_listB>",is being kissed by,,,,,,
null,"<div style=""font-size:60px;"">+</div>",,html-keyboard-response,192,2158998,0.0-15.0-0.16,8551,List2B,white,man,,,,null,,,,,,,,,
null,"<img src=""stim_listB/touch3.gif""style=""height:400px;""></stim_listB>",,html-keyboard-response,193,2160999,0.0-15.0-1.16,8551,List2B,white,man,,,,null,,,,,,,,,
null,is touching,,html-keyboard-response,194,2163001,0.0-15.0-2.16,8551,List2B,white,man,,,,null,,,,,,,,,
5253,,,survey-text,195,2168256,0.0-15.0-3.16,8551,List2B,white,man,,,,,"{""Q0"":""Mike is touching kate""}","<img src=""stim_listB/touch3.gif""style=""height:400px;""></stim_listB>",is touching,,,,,,
null,"<div style=""font-size:60px;"">+</div>",,html-keyboard-response,196,2168758,0.0-15.0-0.17,8551,List2B,white,man,,,,null,,,,,,,,,
null,"<img src=""stim_listB/challenge7.gif""style=""height:400px;""></stim_listB>",,html-keyboard-response,197,2170758,0.0-15.0-1.17,8551,List2B,white,man,,,,null,,,,,,,,,
null,is challenging,,html-keyboard-response,198,2172760,0.0-15.0-2.17,8551,List2B,white,man,,,,null,,,,,,,,,
9796,,,survey-text,199,2182559,0.0-15.0-3.17,8551,List2B,white,man,,,,,"{""Q0"":""jane is challenging Beth""}","<img src=""stim_listB/challenge7.gif""style=""height:400px;""></stim_listB>",is challenging,,,,,,
null,"<div style=""font-size:60px;"">+</div>",,html-keyboard-response,200,2183061,0.0-15.0-0.18,8551,List2B,white,man,,,,null,,,,,,,,,
null,"<img src=""stim_listB/greet6.gif""style=""height:400px;""></stim_listB>",,html-keyboard-response,201,2185062,0.0-15.0-1.18,8551,List2B,white,man,,,,null,,,,,,,,,
null,is being greeted by,,html-keyboard-response,202,2187063,0.0-15.0-2.18,8551,List2B,white,man,,,,null,,,,,,,,,
9441,,,survey-text,203,2196511,0.0-15.0-3.18,8551,List2B,white,man,,,,,"{""Q0"":""Mike is being greeted by luke""}","<img src=""stim_listB/greet6.gif""style=""height:400px;""></stim_listB>",is being greeted by,,,,,,
null,"<div style=""font-size:60px;"">+</div>",,html-keyboard-response,204,2197012,0.0-15.0-0.19,8551,List2B,white,man,,,,null,,,,,,,,,
null,"<img src=""stim_listB/challenge5.gif""style=""height:400px;""></stim_listB>",,html-keyboard-response,205,2199016,0.0-15.0-1.19,8551,List2B,white,man,,,,null,,,,,,,,,
null,is challenging,,html-keyboard-response,206,2201018,0.0-15.0-2.19,8551,List2B,white,man,,,,null,,,,,,,,,
8994,,,survey-text,207,2210015,0.0-15.0-3.19,8551,List2B,white,man,,,,,"{""Q0"":""fred is challenging dave""}","<img src=""stim_listB/challenge5.gif""style=""height:400px;""></stim_listB>",is challenging,,,,,,
2150,"<img src='img/portrait_matrix_list2.jpg' style='width:900px;height:500px;''></img><p>If you have memorised all the portraits and names and are ready to start, press Continue.</p><p><strong>Please note: Your memory of these faces will be tested 4 times during this experiment.</strong></p>",0,html-button-response,208,2212167,0.0-16.0-0.0,8551,List2B,white,man,,,,,,,,,,,,,
4835,"<img src=""portrait/WW1.jpg""style=""height:400px;""></img>",1,html-button-response,209,2218006,0.0-16.0-1.0,8551,List2B,white,man,,TRUE,1,,,,,,,,,,
null,CORRECT,,html-keyboard-response,210,2219509,0.0-16.0-2.0-0.0,8551,List2B,white,man,,,,null,,,,,,,,,
2551,"<img src=""portrait/WM1.jpg""style=""height:400px;""></img>",6,html-button-response,211,2222061,0.0-16.0-4.0,8551,List2B,white,man,,TRUE,6,,,,,,,,,,
null,CORRECT,,html-keyboard-response,212,2223565,0.0-16.0-5.0-0.0,8551,List2B,white,man,,,,null,,,,,,,,,
2985,"<img src=""portrait/WM2.jpg""style=""height:400px;""></img>",7,html-button-response,213,2226550,0.0-16.0-7.0,8551,List2B,white,man,,TRUE,7,,,,,,,,,,
null,CORRECT,,html-keyboard-response,214,2228052,0.0-16.0-8.0-0.0,8551,List2B,white,man,,,,null,,,,,,,,,
2223,"<img src=""portrait/WW2.jpg""style=""height:400px;""></img>",3,html-button-response,215,2230277,0.0-16.0-10.0,8551,List2B,white,man,,TRUE,3,,,,,,,,,,
null,CORRECT,,html-keyboard-response,216,2231779,0.0-16.0-11.0-0.0,8551,List2B,white,man,,,,null,,,,,,,,,
4298,"<img src=""portrait/BW2.jpg""style=""height:400px;""></img>",2,html-button-response,217,2236078,0.0-16.0-13.0,8551,List2B,white,man,,TRUE,2,,,,,,,,,,
null,CORRECT,,html-keyboard-response,218,2237581,0.0-16.0-14.0-0.0,8551,List2B,white,man,,,,null,,,,,,,,,
2521,"<img src=""portrait/BM1.jpg""style=""height:400px;""></img>",4,html-button-response,219,2240102,0.0-16.0-16.0,8551,List2B,white,man,,TRUE,4,,,,,,,,,,
null,CORRECT,,html-keyboard-response,220,2241604,0.0-16.0-17.0-0.0,8551,List2B,white,man,,,,null,,,,,,,,,
2521,"<img src=""portrait/BM2.jpg""style=""height:400px;""></img>",5,html-button-response,221,2244126,0.0-16.0-19.0,8551,List2B,white,man,,TRUE,5,,,,,,,,,,
null,CORRECT,,html-keyboard-response,222,2245629,0.0-16.0-20.0-0.0,8551,List2B,white,man,,,,null,,,,,,,,,
5056,"<img src=""portrait/BW1.jpg""style=""height:400px;""></img>",0,html-button-response,223,2250687,0.0-16.0-22.0,8551,List2B,white,man,,TRUE,0,,,,,,,,,,
null,CORRECT,,html-keyboard-response,224,2252191,0.0-16.0-23.0-0.0,8551,List2B,white,man,,,,null,,,,,,,,,
877,<p>You got 8 out of 8 right first time. Press Continue.</p>,0,html-button-response,225,2253069,0.0-16.0-25.0,8551,List2B,white,man,,,,,,,,,,,,,
null,"<div style=""font-size:60px;"">+</div>",,html-keyboard-response,226,2254573,0.0-17.0-0.0,8551,List2B,white,man,,,,null,,,,,,,,,
null,"<img src=""stim_listB/hug7.gif""style=""height:400px;""></stim_listB>",,html-keyboard-response,227,2256576,0.0-17.0-1.0,8551,List2B,white,man,,,,null,,,,,,,,,
null,is hugging,,html-keyboard-response,228,2258577,0.0-17.0-2.0,8551,List2B,white,man,,,,null,,,,,,,,,
11258,,,survey-text,229,2269838,0.0-17.0-3.0,8551,List2B,white,man,,,,,"{""Q0"":""Ruth is hugging Beth""}","<img src=""stim_listB/hug7.gif""style=""height:400px;""></stim_listB>",is hugging,,,,,,
null,"<div style=""font-size:60px;"">+</div>",,html-keyboard-response,230,2270341,0.0-17.0-0.1,8551,List2B,white,man,,,,null,,,,,,,,,
null,"<img src=""stim_listB/touch1.gif""style=""height:400px;""></stim_listB>",,html-keyboard-response,231,2272344,0.0-17.0-1.1,8551,List2B,white,man,,,,null,,,,,,,,,
null,is touching,,html-keyboard-response,232,2274345,0.0-17.0-2.1,8551,List2B,white,man,,,,null,,,,,,,,,
8107,,,survey-text,233,2282455,0.0-17.0-3.1,8551,List2B,white,man,,,,,"{""Q0"":""Dave is touching jane""}","<img src=""stim_listB/touch1.gif""style=""height:400px;""></stim_listB>",is touching,,,,,,
null,"<div style=""font-size:60px;"">+</div>",,html-keyboard-response,234,2282957,0.0-17.0-0.2,8551,List2B,white,man,,,,null,,,,,,,,,
null,"<img src=""stim_listB/look6.gif""style=""height:400px;""></stim_listB>",,html-keyboard-response,235,2284959,0.0-17.0-1.2,8551,List2B,white,man,,,,null,,,,,,,,,
null,is being looked at by,,html-keyboard-response,236,2286960,0.0-17.0-2.2,8551,List2B,white,man,,,,null,,,,,,,,,
7023,,,survey-text,237,2293990,0.0-17.0-3.2,8551,List2B,white,man,,,,,"{""Q0"":""Mike is being looked at by Dave""}","<img src=""stim_listB/look6.gif""style=""height:400px;""></stim_listB>",is being looked at by,,,,,,
null,"<div style=""font-size:60px;"">+</div>",,html-keyboard-response,238,2294493,0.0-17.0-0.3,8551,List2B,white,man,,,,null,,,,,,,,,
null,"<img src=""stim_listB/touch4.gif""style=""height:400px;""></stim_listB>",,html-keyboard-response,239,2296496,0.0-17.0-1.3,8551,List2B,white,man,,,,null,,,,,,,,,
null,is being touched by,,html-keyboard-response,240,2298496,0.0-17.0-2.3,8551,List2B,white,man,,,,null,,,,,,,,,
17130,,,survey-text,241,2315631,0.0-17.0-3.3,8551,List2B,white,man,,,,,"{""Q0"":""dave is being touched by Bath""}","<img src=""stim_listB/touch4.gif""style=""height:400px;""></stim_listB>",is being touched by,,,,,,
null,"<div style=""font-size:60px;"">+</div>",,html-keyboard-response,242,2316131,0.0-17.0-0.4,8551,List2B,white,man,,,,null,,,,,,,,,
null,"<img src=""stim_listB/shout8.gif""style=""height:400px;""></stim_listB>",,html-keyboard-response,243,2318133,0.0-17.0-1.4,8551,List2B,white,man,,,,null,,,,,,,,,
null,is being shouted at by,,html-keyboard-response,244,2320134,0.0-17.0-2.4,8551,List2B,white,man,,,,null,,,,,,,,,
6171,,,survey-text,245,2326310,0.0-17.0-3.4,8551,List2B,white,man,,,,,"{""Q0"":""Jane is being shouted at by kate""}","<img src=""stim_listB/shout8.gif""style=""height:400px;""></stim_listB>",is being shouted at by,,,,,,
null,"<div style=""font-size:60px;"">+</div>",,html-keyboard-response,246,2326813,0.0-17.0-0.5,8551,List2B,white,man,,,,null,,,,,,,,,
null,"<img src=""stim_listB/hug2.gif""style=""height:400px;""></stim_listB>",,html-keyboard-response,247,2328816,0.0-17.0-1.5,8551,List2B,white,man,,,,null,,,,,,,,,
null,is being hugged by,,html-keyboard-response,248,2330818,0.0-17.0-2.5,8551,List2B,white,man,,,,null,,,,,,,,,
6783,,,survey-text,249,2337607,0.0-17.0-3.5,8551,List2B,white,man,,,,,"{""Q0"":""dave is being hugged by jane""}","<img src=""stim_listB/hug2.gif""style=""height:400px;""></stim_listB>",is being hugged by,,,,,,
null,"<div style=""font-size:60px;"">+</div>",,html-keyboard-response,250,2338108,0.0-17.0-0.6,8551,List2B,white,man,,,,null,,,,,,,,,
null,"<img src=""stim_listB/challenge8.gif""style=""height:400px;""></stim_listB>",,html-keyboard-response,251,2340110,0.0-17.0-1.6,8551,List2B,white,man,,,,null,,,,,,,,,
null,is being challenged by,,html-keyboard-response,252,2342111,0.0-17.0-2.6,8551,List2B,white,man,,,,null,,,,,,,,,
5629,,,survey-text,253,2347741,0.0-17.0-3.6,8551,List2B,white,man,,,,,"{""Q0"":""kate is being challenged by ruth""}","<img src=""stim_listB/challenge8.gif""style=""height:400px;""></stim_listB>",is being challenged by,,,,,,
null,"<div style=""font-size:60px;"">+</div>",,html-keyboard-response,254,2348244,0.0-17.0-0.7,8551,List2B,white,man,,,,null,,,,,,,,,
null,"<img src=""stim_listB/greet4.gif""style=""height:400px;""></stim_listB>",,html-keyboard-response,255,2350246,0.0-17.0-1.7,8551,List2B,white,man,,,,null,,,,,,,,,
null,is being greeted by,,html-keyboard-response,256,2352248,0.0-17.0-2.7,8551,List2B,white,man,,,,null,,,,,,,,,
12080,,,survey-text,257,2364335,0.0-17.0-3.7,8551,List2B,white,man,,,,,"{""Q0"":""Beth is being greeted by fred""}","<img src=""stim_listB/greet4.gif""style=""height:400px;""></stim_listB>",is being greeted by,,,,,,
null,"<div style=""font-size:60px;"">+</div>",,html-keyboard-response,258,2364836,0.0-17.0-0.8,8551,List2B,white,man,,,,null,,,,,,,,,
null,"<img src=""stim_listB/challenge2.gif""style=""height:400px;""></stim_listB>",,html-keyboard-response,259,2366838,0.0-17.0-1.8,8551,List2B,white,man,,,,null,,,,,,,,,
null,is being challenged by,,html-keyboard-response,260,2368838,0.0-17.0-2.8,8551,List2B,white,man,,,,null,,,,,,,,,
6928,,,survey-text,261,2375773,0.0-17.0-3.8,8551,List2B,white,man,,,,,"{""Q0"":""Luke is being challenged by jane""}","<img src=""stim_listB/challenge2.gif""style=""height:400px;""></stim_listB>",is being challenged by,,,,,,
null,"<div style=""font-size:60px;"">+</div>",,html-keyboard-response,262,2376275,0.0-17.0-0.9,8551,List2B,white,man,,,,null,,,,,,,,,
null,"<img src=""stim_listB/seduce2.gif""style=""height:400px;""></stim_listB>",,html-keyboard-response,263,2378276,0.0-17.0-1.9,8551,List2B,white,man,,,,null,,,,,,,,,
null,is being seduced by,,html-keyboard-response,264,2380277,0.0-17.0-2.9,8551,List2B,white,man,,,,null,,,,,,,,,
8739,,,survey-text,265,2389021,0.0-17.0-3.9,8551,List2B,white,man,,,,,"{""Q0"":""ruth is being seduced by dave""}","<img src=""stim_listB/seduce2.gif""style=""height:400px;""></stim_listB>",is being seduced by,,,,,,
null,"<div style=""font-size:60px;"">+</div>",,html-keyboard-response,266,2389524,0.0-17.0-0.10,8551,List2B,white,man,,,,null,,,,,,,,,
null,"<img src=""stim_listB/shout1.gif""style=""height:400px;""></stim_listB>",,html-keyboard-response,267,2391526,0.0-17.0-1.10,8551,List2B,white,man,,,,null,,,,,,,,,
null,is shouting at,,html-keyboard-response,268,2393527,0.0-17.0-2.10,8551,List2B,white,man,,,,null,,,,,,,,,
8801,,,survey-text,269,2402333,0.0-17.0-3.10,8551,List2B,white,man,,,,,"{""Q0"":""Luke is shouting at Ruth""}","<img src=""stim_listB/shout1.gif""style=""height:400px;""></stim_listB>",is shouting at,,,,,,
null,"<div style=""font-size:60px;"">+</div>",,html-keyboard-response,270,2402834,0.0-17.0-0.11,8551,List2B,white,man,,,,null,,,,,,,,,
null,"<img src=""stim_listB/oppose8.gif""style=""height:400px;""></stim_listB>",,html-keyboard-response,271,2404836,0.0-17.0-1.11,8551,List2B,white,man,,,,null,,,,,,,,,
null,is being opposed by,,html-keyboard-response,272,2406837,0.0-17.0-2.11,8551,List2B,white,man,,,,null,,,,,,,,,
6110,,,survey-text,273,2412949,0.0-17.0-3.11,8551,List2B,white,man,,,,,"{""Q0"":""Ruth is being opposed by beth""}","<img src=""stim_listB/oppose8.gif""style=""height:400px;""></stim_listB>",is being opposed by,,,,,,
null,"<div style=""font-size:60px;"">+</div>",,html-keyboard-response,274,2413451,0.0-17.0-0.12,8551,List2B,white,man,,,,null,,,,,,,,,
null,"<img src=""stim_listB/hug4.gif""style=""height:400px;""></stim_listB>",,html-keyboard-response,275,2415453,0.0-17.0-1.12,8551,List2B,white,man,,,,null,,,,,,,,,
null,is being hugged by,,html-keyboard-response,276,2417455,0.0-17.0-2.12,8551,List2B,white,man,,,,null,,,,,,,,,
7780,,,survey-text,277,2425237,0.0-17.0-3.12,8551,List2B,white,man,,,,,"{""Q0"":""kate is being hugged by mike""}","<img src=""stim_listB/hug4.gif""style=""height:400px;""></stim_listB>",is being hugged by,,,,,,
null,"<div style=""font-size:60px;"">+</div>",,html-keyboard-response,278,2425739,0.0-17.0-0.13,8551,List2B,white,man,,,,null,,,,,,,,,
null,"<img src=""stim_listB/copy7.gif""style=""height:400px;""></stim_listB>",,html-keyboard-response,279,2427740,0.0-17.0-1.13,8551,List2B,white,man,,,,null,,,,,,,,,
null,is copying,,html-keyboard-response,280,2429741,0.0-17.0-2.13,8551,List2B,white,man,,,,null,,,,,,,,,
9382,,,survey-text,281,2439125,0.0-17.0-3.13,8551,List2B,white,man,,,,,"{""Q0"":""jane  beth""}","<img src=""stim_listB/copy7.gif""style=""height:400px;""></stim_listB>",is copying,,,,,,
null,"<div style=""font-size:60px;"">+</div>",,html-keyboard-response,282,2439627,0.0-17.0-0.14,8551,List2B,white,man,,,,null,,,,,,,,,
null,"<img src=""stim_listB/hug5.gif""style=""height:400px;""></stim_listB>",,html-keyboard-response,283,2441629,0.0-17.0-1.14,8551,List2B,white,man,,,,null,,,,,,,,,
null,is hugging,,html-keyboard-response,284,2443632,0.0-17.0-2.14,8551,List2B,white,man,,,,null,,,,,,,,,
11455,,,survey-text,285,2455093,0.0-17.0-3.14,8551,List2B,white,man,,,,,"{""Q0"":""Fred is hugging luke""}","<img src=""stim_listB/hug5.gif""style=""height:400px;""></stim_listB>",is hugging,,,,,,
null,"<div style=""font-size:60px;"">+</div>",,html-keyboard-response,286,2455595,0.0-17.0-0.15,8551,List2B,white,man,,,,null,,,,,,,,,
null,"<img src=""stim_listB/copy6.gif""style=""height:400px;""></stim_listB>",,html-keyboard-response,287,2457597,0.0-17.0-1.15,8551,List2B,white,man,,,,null,,,,,,,,,
null,is being copied by,,html-keyboard-response,288,2459599,0.0-17.0-2.15,8551,List2B,white,man,,,,null,,,,,,,,,
17577,,,survey-text,289,2477182,0.0-17.0-3.15,8551,List2B,white,man,,,,,"{""Q0"":""Mike coping Luke""}","<img src=""stim_listB/copy6.gif""style=""height:400px;""></stim_listB>",is being copied by,,,,,,
null,"<div style=""font-size:60px;"">+</div>",,html-keyboard-response,290,2477684,0.0-17.0-0.16,8551,List2B,white,man,,,,null,,,,,,,,,
null,"<img src=""stim_listB/hug8.gif""style=""height:400px;""></stim_listB>",,html-keyboard-response,291,2479686,0.0-17.0-1.16,8551,List2B,white,man,,,,null,,,,,,,,,
null,is being hugged by,,html-keyboard-response,292,2481687,0.0-17.0-2.16,8551,List2B,white,man,,,,null,,,,,,,,,
12904,,,survey-text,293,2494597,0.0-17.0-3.16,8551,List2B,white,man,,,,,"{""Q0"":""Kate jane""}","<img src=""stim_listB/hug8.gif""style=""height:400px;""></stim_listB>",is being hugged by,,,,,,
null,"<div style=""font-size:60px;"">+</div>",,html-keyboard-response,294,2495099,0.0-17.0-0.17,8551,List2B,white,man,,,,null,,,,,,,,,
null,"<img src=""stim_listB/seduce6.gif""style=""height:400px;""></stim_listB>",,html-keyboard-response,295,2497100,0.0-17.0-1.17,8551,List2B,white,man,,,,null,,,,,,,,,
null,is being seduced by,,html-keyboard-response,296,2499102,0.0-17.0-2.17,8551,List2B,white,man,,,,null,,,,,,,,,
9556,,,survey-text,297,2508659,0.0-17.0-3.17,8551,List2B,white,man,,,,,"{""Q0"":""fred is being seduced by  Dave""}","<img src=""stim_listB/seduce6.gif""style=""height:400px;""></stim_listB>",is being seduced by,,,,,,
null,"<div style=""font-size:60px;"">+</div>",,html-keyboard-response,298,2509163,0.0-17.0-0.18,8551,List2B,white,man,,,,null,,,,,,,,,
null,"<img src=""stim_listB/hug6.gif""style=""height:400px;""></stim_listB>",,html-keyboard-response,299,2511164,0.0-17.0-1.18,8551,List2B,white,man,,,,null,,,,,,,,,
null,is being hugged by,,html-keyboard-response,300,2513165,0.0-17.0-2.18,8551,List2B,white,man,,,,null,,,,,,,,,
10349,,,survey-text,301,2523516,0.0-17.0-3.18,8551,List2B,white,man,,,,,"{""Q0"":""Mike is being hugged by Dave""}","<img src=""stim_listB/hug6.gif""style=""height:400px;""></stim_listB>",is being hugged by,,,,,,
null,"<div style=""font-size:60px;"">+</div>",,html-keyboard-response,302,2524018,0.0-17.0-0.19,8551,List2B,white,man,,,,null,,,,,,,,,
null,"<img src=""stim_listB/shout3.gif""style=""height:400px;""></stim_listB>",,html-keyboard-response,303,2526020,0.0-17.0-1.19,8551,List2B,white,man,,,,null,,,,,,,,,
null,is shouting at,,html-keyboard-response,304,2528024,0.0-17.0-2.19,8551,List2B,white,man,,,,null,,,,,,,,,
5258,,,survey-text,305,2533284,0.0-17.0-3.19,8551,List2B,white,man,,,,,"{""Q0"":""Beth is shouting at Fred""}","<img src=""stim_listB/shout3.gif""style=""height:400px;""></stim_listB>",is shouting at,,,,,,
2102,"<img src='img/portrait_matrix_list2.jpg' style='width:900px;height:500px;''></img><p>If you have memorised all the portraits and names and are ready to start, press Continue.</p><p><strong>Please note: Your memory of these faces will be tested 4 times during this experiment.</strong></p>",0,html-button-response,306,2535387,0.0-18.0-0.0,8551,List2B,white,man,,,,,,,,,,,,,
4373,"<img src=""portrait/BW1.jpg""style=""height:400px;""></img>",0,html-button-response,307,2540763,0.0-18.0-1.0,8551,List2B,white,man,,TRUE,0,,,,,,,,,,
null,CORRECT,,html-keyboard-response,308,2542267,0.0-18.0-2.0-0.0,8551,List2B,white,man,,,,null,,,,,,,,,
2423,"<img src=""portrait/BM2.jpg""style=""height:400px;""></img>",5,html-button-response,309,2544690,0.0-18.0-4.0,8551,List2B,white,man,,TRUE,5,,,,,,,,,,
null,CORRECT,,html-keyboard-response,310,2546193,0.0-18.0-5.0-0.0,8551,List2B,white,man,,,,null,,,,,,,,,
3025,"<img src=""portrait/BM1.jpg""style=""height:400px;""></img>",4,html-button-response,311,2549220,0.0-18.0-7.0,8551,List2B,white,man,,TRUE,4,,,,,,,,,,
null,CORRECT,,html-keyboard-response,312,2550722,0.0-18.0-8.0-0.0,8551,List2B,white,man,,,,null,,,,,,,,,
3881,"<img src=""portrait/WM2.jpg""style=""height:400px;""></img>",7,html-button-response,313,2554604,0.0-18.0-10.0,8551,List2B,white,man,,TRUE,7,,,,,,,,,,
null,CORRECT,,html-keyboard-response,314,2556109,0.0-18.0-11.0-0.0,8551,List2B,white,man,,,,null,,,,,,,,,
7396,"<img src=""portrait/WM1.jpg""style=""height:400px;""></img>",6,html-button-response,315,2563507,0.0-18.0-13.0,8551,List2B,white,man,,TRUE,6,,,,,,,,,,
null,CORRECT,,html-keyboard-response,316,2565010,0.0-18.0-14.0-0.0,8551,List2B,white,man,,,,null,,,,,,,,,
6904,"<img src=""portrait/BW2.jpg""style=""height:400px;""></img>",2,html-button-response,317,2571916,0.0-18.0-16.0,8551,List2B,white,man,,TRUE,2,,,,,,,,,,
null,CORRECT,,html-keyboard-response,318,2573419,0.0-18.0-17.0-0.0,8551,List2B,white,man,,,,null,,,,,,,,,
1591,"<img src=""portrait/WW2.jpg""style=""height:400px;""></img>",3,html-button-response,319,2575011,0.0-18.0-19.0,8551,List2B,white,man,,TRUE,3,,,,,,,,,,
null,CORRECT,,html-keyboard-response,320,2576515,0.0-18.0-20.0-0.0,8551,List2B,white,man,,,,null,,,,,,,,,
2430,"<img src=""portrait/WW1.jpg""style=""height:400px;""></img>",1,html-button-response,321,2578947,0.0-18.0-22.0,8551,List2B,white,man,,TRUE,1,,,,,,,,,,
null,CORRECT,,html-keyboard-response,322,2580450,0.0-18.0-23.0-0.0,8551,List2B,white,man,,,,null,,,,,,,,,
1071,<p>You got 8 out of 8 right first time. Press Continue.</p>,0,html-button-response,323,2581523,0.0-18.0-25.0,8551,List2B,white,man,,,,,,,,,,,,,
null,"<div style=""font-size:60px;"">+</div>",,html-keyboard-response,324,2583027,0.0-19.0-0.0,8551,List2B,white,man,,,,null,,,,,,,,,
null,"<img src=""stim_listB/oppose3.gif""style=""height:400px;""></stim_listB>",,html-keyboard-response,325,2585029,0.0-19.0-1.0,8551,List2B,white,man,,,,null,,,,,,,,,
null,is opposing,,html-keyboard-response,326,2587030,0.0-19.0-2.0,8551,List2B,white,man,,,,null,,,,,,,,,
9536,,,survey-text,327,2596572,0.0-19.0-3.0,8551,List2B,white,man,,,,,"{""Q0"":""Mike is opposing kate""}","<img src=""stim_listB/oppose3.gif""style=""height:400px;""></stim_listB>",is opposing,,,,,,
null,"<div style=""font-size:60px;"">+</div>",,html-keyboard-response,328,2597073,0.0-19.0-0.1,8551,List2B,white,man,,,,null,,,,,,,,,
null,"<img src=""stim_listB/copy4.gif""style=""height:400px;""></stim_listB>",,html-keyboard-response,329,2599075,0.0-19.0-1.1,8551,List2B,white,man,,,,null,,,,,,,,,
null,is being copied by,,html-keyboard-response,330,2601076,0.0-19.0-2.1,8551,List2B,white,man,,,,null,,,,,,,,,
10038,,,survey-text,331,2611115,0.0-19.0-3.1,8551,List2B,white,man,,,,,"{""Q0"":""kate  is being copied by fred""}","<img src=""stim_listB/copy4.gif""style=""height:400px;""></stim_listB>",is being copied by,,,,,,
null,"<div style=""font-size:60px;"">+</div>",,html-keyboard-response,332,2611618,0.0-19.0-0.2,8551,List2B,white,man,,,,null,,,,,,,,,
null,"<img src=""stim_listB/kiss3.gif""style=""height:400px;""></stim_listB>",,html-keyboard-response,333,2613619,0.0-19.0-1.2,8551,List2B,white,man,,,,null,,,,,,,,,
null,is kissing,,html-keyboard-response,334,2615621,0.0-19.0-2.2,8551,List2B,white,man,,,,null,,,,,,,,,
7808,,,survey-text,335,2623435,0.0-19.0-3.2,8551,List2B,white,man,,,,,"{""Q0"":""Beth is kissing fred""}","<img src=""stim_listB/kiss3.gif""style=""height:400px;""></stim_listB>",is kissing,,,,,,
null,"<div style=""font-size:60px;"">+</div>",,html-keyboard-response,336,2623938,0.0-19.0-0.3,8551,List2B,white,man,,,,null,,,,,,,,,
null,"<img src=""stim_listB/seduce1.gif""style=""height:400px;""></stim_listB>",,html-keyboard-response,337,2625940,0.0-19.0-1.3,8551,List2B,white,man,,,,null,,,,,,,,,
null,is seducing,,html-keyboard-response,338,2627941,0.0-19.0-2.3,8551,List2B,white,man,,,,null,,,,,,,,,
6699,,,survey-text,339,2634644,0.0-19.0-3.3,8551,List2B,white,man,,,,,"{""Q0"":""Luke is seducing jane""}","<img src=""stim_listB/seduce1.gif""style=""height:400px;""></stim_listB>",is seducing,,,,,,
null,"<div style=""font-size:60px;"">+</div>",,html-keyboard-response,340,2635148,0.0-19.0-0.4,8551,List2B,white,man,,,,null,,,,,,,,,
null,"<img src=""stim_listB/copy5.gif""style=""height:400px;""></stim_listB>",,html-keyboard-response,341,2637148,0.0-19.0-1.4,8551,List2B,white,man,,,,null,,,,,,,,,
null,is copying,,html-keyboard-response,342,2639151,0.0-19.0-2.4,8551,List2B,white,man,,,,null,,,,,,,,,
7849,,,survey-text,343,2647003,0.0-19.0-3.4,8551,List2B,white,man,,,,,"{""Q0"":""Dave is copying fred""}","<img src=""stim_listB/copy5.gif""style=""height:400px;""></stim_listB>",is copying,,,,,,
null,"<div style=""font-size:60px;"">+</div>",,html-keyboard-response,344,2647505,0.0-19.0-0.5,8551,List2B,white,man,,,,null,,,,,,,,,
null,"<img src=""stim_listB/look5.gif""style=""height:400px;""></stim_listB>",,html-keyboard-response,345,2649507,0.0-19.0-1.5,8551,List2B,white,man,,,,null,,,,,,,,,
null,is looking at,,html-keyboard-response,346,2651508,0.0-19.0-2.5,8551,List2B,white,man,,,,null,,,,,,,,,
7641,,,survey-text,347,2659155,0.0-19.0-3.5,8551,List2B,white,man,,,,,"{""Q0"":""Luke is looking at Fred""}","<img src=""stim_listB/look5.gif""style=""height:400px;""></stim_listB>",is looking at,,,,,,
null,"<div style=""font-size:60px;"">+</div>",,html-keyboard-response,348,2659657,0.0-19.0-0.6,8551,List2B,white,man,,,,null,,,,,,,,,
null,"<img src=""stim_listB/greet1.gif""style=""height:400px;""></stim_listB>",,html-keyboard-response,349,2661659,0.0-19.0-1.6,8551,List2B,white,man,,,,null,,,,,,,,,
null,is greeting,,html-keyboard-response,350,2663660,0.0-19.0-2.6,8551,List2B,white,man,,,,null,,,,,,,,,
8625,,,survey-text,351,2672291,0.0-19.0-3.6,8551,List2B,white,man,,,,,"{""Q0"":""Dave is greeting ruth""}","<img src=""stim_listB/greet1.gif""style=""height:400px;""></stim_listB>",is greeting,,,,,,
null,"<div style=""font-size:60px;"">+</div>",,html-keyboard-response,352,2672792,0.0-19.0-0.7,8551,List2B,white,man,,,,null,,,,,,,,,
null,"<img src=""stim_listB/copy3.gif""style=""height:400px;""></stim_listB>",,html-keyboard-response,353,2674794,0.0-19.0-1.7,8551,List2B,white,man,,,,null,,,,,,,,,
null,is copying,,html-keyboard-response,354,2676796,0.0-19.0-2.7,8551,List2B,white,man,,,,null,,,,,,,,,
7691,,,survey-text,355,2684491,0.0-19.0-3.7,8551,List2B,white,man,,,,,"{""Q0"":""Mike is copying Beth""}","<img src=""stim_listB/copy3.gif""style=""height:400px;""></stim_listB>",is copying,,,,,,
null,"<div style=""font-size:60px;"">+</div>",,html-keyboard-response,356,2684993,0.0-19.0-0.8,8551,List2B,white,man,,,,null,,,,,,,,,
null,"<img src=""stim_listB/oppose1.gif""style=""height:400px;""></stim_listB>",,html-keyboard-response,357,2686994,0.0-19.0-1.8,8551,List2B,white,man,,,,null,,,,,,,,,
null,is opposing,,html-keyboard-response,358,2688996,0.0-19.0-2.8,8551,List2B,white,man,,,,null,,,,,,,,,
3898,,,survey-text,359,2692899,0.0-19.0-3.8,8551,List2B,white,man,,,,,"{""Q0"":""Dave is opposing jane""}","<img src=""stim_listB/oppose1.gif""style=""height:400px;""></stim_listB>",is opposing,,,,,,
null,"<div style=""font-size:60px;"">+</div>",,html-keyboard-response,360,2693400,0.0-19.0-0.9,8551,List2B,white,man,,,,null,,,,,,,,,
null,"<img src=""stim_listB/oppose2.gif""style=""height:400px;""></stim_listB>",,html-keyboard-response,361,2695401,0.0-19.0-1.9,8551,List2B,white,man,,,,null,,,,,,,,,
null,is being opposed by,,html-keyboard-response,362,2697404,0.0-19.0-2.9,8551,List2B,white,man,,,,null,,,,,,,,,
9644,,,survey-text,363,2707051,0.0-19.0-3.9,8551,List2B,white,man,,,,,"{""Q0"":""Ruth is being opposed by Luke""}","<img src=""stim_listB/oppose2.gif""style=""height:400px;""></stim_listB>",is being opposed by,,,,,,
null,"<div style=""font-size:60px;"">+</div>",,html-keyboard-response,364,2707554,0.0-19.0-0.10,8551,List2B,white,man,,,,null,,,,,,,,,
null,"<img src=""stim_listB/hug3.gif""style=""height:400px;""></stim_listB>",,html-keyboard-response,365,2709556,0.0-19.0-1.10,8551,List2B,white,man,,,,null,,,,,,,,,
null,is hugging,,html-keyboard-response,366,2711557,0.0-19.0-2.10,8551,List2B,white,man,,,,null,,,,,,,,,
5393,,,survey-text,367,2716954,0.0-19.0-3.10,8551,List2B,white,man,,,,,"{""Q0"":""beth is hugging fred""}","<img src=""stim_listB/hug3.gif""style=""height:400px;""></stim_listB>",is hugging,,,,,,
null,"<div style=""font-size:60px;"">+</div>",,html-keyboard-response,368,2717456,0.0-19.0-0.11,8551,List2B,white,man,,,,null,,,,,,,,,
null,"<img src=""stim_listB/copy2.gif""style=""height:400px;""></stim_listB>",,html-keyboard-response,369,2719459,0.0-19.0-1.11,8551,List2B,white,man,,,,null,,,,,,,,,
null,is being copied by,,html-keyboard-response,370,2721461,0.0-19.0-2.11,8551,List2B,white,man,,,,null,,,,,,,,,
6882,,,survey-text,371,2728346,0.0-19.0-3.11,8551,List2B,white,man,,,,,"{""Q0"":""Jane is being copied by Luke""}","<img src=""stim_listB/copy2.gif""style=""height:400px;""></stim_listB>",is being copied by,,,,,,
null,"<div style=""font-size:60px;"">+</div>",,html-keyboard-response,372,2728848,0.0-19.0-0.12,8551,List2B,white,man,,,,null,,,,,,,,,
null,"<img src=""stim_listB/greet3.gif""style=""height:400px;""></stim_listB>",,html-keyboard-response,373,2730849,0.0-19.0-1.12,8551,List2B,white,man,,,,null,,,,,,,,,
null,is greeting,,html-keyboard-response,374,2732851,0.0-19.0-2.12,8551,List2B,white,man,,,,null,,,,,,,,,
5244,,,survey-text,375,2738098,0.0-19.0-3.12,8551,List2B,white,man,,,,,"{""Q0"":""Mike is greeting Beth""}","<img src=""stim_listB/greet3.gif""style=""height:400px;""></stim_listB>",is greeting,,,,,,
null,"<div style=""font-size:60px;"">+</div>",,html-keyboard-response,376,2738600,0.0-19.0-0.13,8551,List2B,white,man,,,,null,,,,,,,,,
null,"<img src=""stim_listB/greet2.gif""style=""height:400px;""></stim_listB>",,html-keyboard-response,377,2740602,0.0-19.0-1.13,8551,List2B,white,man,,,,null,,,,,,,,,
null,is being greeted by,,html-keyboard-response,378,2742603,0.0-19.0-2.13,8551,List2B,white,man,,,,null,,,,,,,,,
10161,,,survey-text,379,2752770,0.0-19.0-3.13,8551,List2B,white,man,,,,,"{""Q0"":""Luke is being greeted by jane""}","<img src=""stim_listB/greet2.gif""style=""height:400px;""></stim_listB>",is being greeted by,,,,,,
null,"<div style=""font-size:60px;"">+</div>",,html-keyboard-response,380,2753273,0.0-19.0-0.14,8551,List2B,white,man,,,,null,,,,,,,,,
null,"<img src=""stim_listB/look2.gif""style=""height:400px;""></stim_listB>",,html-keyboard-response,381,2755274,0.0-19.0-1.14,8551,List2B,white,man,,,,null,,,,,,,,,
null,is being looked at by,,html-keyboard-response,382,2757276,0.0-19.0-2.14,8551,List2B,white,man,,,,null,,,,,,,,,
5808,,,survey-text,383,2763090,0.0-19.0-3.14,8551,List2B,white,man,,,,,"{""Q0"":""Jane is being looked at by Dave""}","<img src=""stim_listB/look2.gif""style=""height:400px;""></stim_listB>",is being looked at by,,,,,,
null,"<div style=""font-size:60px;"">+</div>",,html-keyboard-response,384,2763592,0.0-19.0-0.15,8551,List2B,white,man,,,,null,,,,,,,,,
null,"<img src=""stim_listB/seduce7.gif""style=""height:400px;""></stim_listB>",,html-keyboard-response,385,2765594,0.0-19.0-1.15,8551,List2B,white,man,,,,null,,,,,,,,,
null,is seducing,,html-keyboard-response,386,2767596,0.0-19.0-2.15,8551,List2B,white,man,,,,null,,,,,,,,,
7585,,,survey-text,387,2775186,0.0-19.0-3.15,8551,List2B,white,man,,,,,"{""Q0"":""Ruth is seducing Kate""}","<img src=""stim_listB/seduce7.gif""style=""height:400px;""></stim_listB>",is seducing,,,,,,
null,"<div style=""font-size:60px;"">+</div>",,html-keyboard-response,388,2775688,0.0-19.0-0.16,8551,List2B,white,man,,,,null,,,,,,,,,
null,"<img src=""stim_listB/shout5.gif""style=""height:400px;""></stim_listB>",,html-keyboard-response,389,2777689,0.0-19.0-1.16,8551,List2B,white,man,,,,null,,,,,,,,,
null,is shouting at,,html-keyboard-response,390,2779689,0.0-19.0-2.16,8551,List2B,white,man,,,,null,,,,,,,,,
6525,,,survey-text,391,2786218,0.0-19.0-3.16,8551,List2B,white,man,,,,,"{""Q0"":""Luke  fred""}","<img src=""stim_listB/shout5.gif""style=""height:400px;""></stim_listB>",is shouting at,,,,,,
null,"<div style=""font-size:60px;"">+</div>",,html-keyboard-response,392,2786720,0.0-19.0-0.17,8551,List2B,white,man,,,,null,,,,,,,,,
null,"<img src=""stim_listB/shout6.gif""style=""height:400px;""></stim_listB>",,html-keyboard-response,393,2788721,0.0-19.0-1.17,8551,List2B,white,man,,,,null,,,,,,,,,
null,is being shouted at by,,html-keyboard-response,394,2790724,0.0-19.0-2.17,8551,List2B,white,man,,,,null,,,,,,,,,
3834,,,survey-text,395,2794562,0.0-19.0-3.17,8551,List2B,white,man,,,,,"{""Q0"":""Mike is being shouted at by dave""}","<img src=""stim_listB/shout6.gif""style=""height:400px;""></stim_listB>",is being shouted at by,,,,,,
null,"<div style=""font-size:60px;"">+</div>",,html-keyboard-response,396,2795065,0.0-19.0-0.18,8551,List2B,white,man,,,,null,,,,,,,,,
null,"<img src=""stim_listB/look4.gif""style=""height:400px;""></stim_listB>",,html-keyboard-response,397,2797066,0.0-19.0-1.18,8551,List2B,white,man,,,,null,,,,,,,,,
null,is being looked at by,,html-keyboard-response,398,2799067,0.0-19.0-2.18,8551,List2B,white,man,,,,null,,,,,,,,,
5491,,,survey-text,399,2804562,0.0-19.0-3.18,8551,List2B,white,man,,,,,"{""Q0"":""Kate is being looked at by mike""}","<img src=""stim_listB/look4.gif""style=""height:400px;""></stim_listB>",is being looked at by,,,,,,
null,"<div style=""font-size:60px;"">+</div>",,html-keyboard-response,400,2805064,0.0-19.0-0.19,8551,List2B,white,man,,,,null,,,,,,,,,
null,"<img src=""stim_listB/seduce3.gif""style=""height:400px;""></stim_listB>",,html-keyboard-response,401,2807066,0.0-19.0-1.19,8551,List2B,white,man,,,,null,,,,,,,,,
null,is seducing,,html-keyboard-response,402,2809067,0.0-19.0-2.19,8551,List2B,white,man,,,,null,,,,,,,,,
6340,,,survey-text,403,2815410,0.0-19.0-3.19,8551,List2B,white,man,,,,,"{""Q0"":""frede is seducing kate""}","<img src=""stim_listB/seduce3.gif""style=""height:400px;""></stim_listB>",is seducing,,,,,,
3733,<p>Thank you for completing that task.</p><p>The final part of this session is a questionnaire that will take about 4 minutes.</p><p>Press Continue.</p>,0,html-button-response,404,2819144,0.0-20.0,8551,List2B,white,man,,,,,,,,,,,,,
48077,,,survey-text,405,2868241,0.0-21.0,8551,List2B,white,man,,,,,"{""Q0"":""30"",""Q1"":""English"",""Q2"":""English"",""Q3"":""USA"",""Q4"":"" American"",""Q5"":""White"",""Q6"":""Male""}",,,demographics,,,,,
3093,<p>Have you lived in the USA for the last 5 years or more?</p>,0,html-button-response,406,2871336,0.0-22.0,8551,List2B,white,man,,,,,,,,fiveyears,,,,,
3013,<p>Move the slider to show the extent to which you agree with the following statements.</p>,0,html-button-response,407,2875353,0.0-23.0,8551,List2B,white,man,,,,,,,,,,,,,
3981,,,html-slider-response,408,2880345,0.0-24.0-0.0-0.0,8551,List2B,white,man,,,,,,,,survey_race,94,,,My age is not an important part of who I am.,filler
1933,,,html-slider-response,409,2882280,0.0-24.0-0.0-0.1,8551,List2B,white,man,,,,,,,,survey_race,100,,,I am similar to the average person of my race.,similar
1678,,,html-slider-response,410,2883961,0.0-24.0-0.0-0.2,8551,List2B,white,man,,,,,,,,survey_race,90,,,I am glad to be my age.,filler
1485,,,html-slider-response,411,2885448,0.0-24.0-0.0-0.3,8551,List2B,white,man,,,,,,,,survey_race,95,,,People of my race are very similar to each other.,verysimilar
1774,,,html-slider-response,412,2887224,0.0-24.0-0.0-0.4,8551,List2B,white,man,,,,,,,,survey_race,30,,,I feel solidarity with people the same age as me.,filler
1503,,,html-slider-response,413,2888729,0.0-24.0-0.0-0.5,8551,List2B,white,man,,,,,,,,survey_race,83,,,It is pleasant to be my race.,pleasant
1373,,,html-slider-response,414,2890105,0.0-24.0-0.0-0.6,8551,List2B,white,man,,,,,,,,survey_race,81,,,I consider myself an introvert.,filler
1973,,,html-slider-response,415,2892080,0.0-24.0-0.0-0.7,8551,List2B,white,man,,,,,,,,survey_race,84,,,I feel a bond with my race.,bond
1783,,,html-slider-response,416,2893865,0.0-24.0-0.0-0.8,8551,List2B,white,man,,,,,,,,survey_race,100,,,I think that my race has a lot to be proud of.,proud
2631,,,html-slider-response,417,2896498,0.0-24.0-0.0-0.9,8551,List2B,white,man,,,,,,,,survey_race,93,,,I often think about the fact that I am my race.,often
1484,,,html-slider-response,418,2897984,0.0-24.0-0.0-0.10,8551,List2B,white,man,,,,,,,,survey_race,88,,,I feel solidarity with my race.,solidarity
1670,,,html-slider-response,419,2899656,0.0-24.0-0.0-0.11,8551,List2B,white,man,,,,,,,,survey_race,97,,,"The older I get, the wiser I feel.",filler
2446,,,html-slider-response,420,2902104,0.0-24.0-0.0-0.12,8551,List2B,white,man,,,,,,,,survey_race,32,,,I have a lot in common with people of a similar age to me.,filler
1598,,,html-slider-response,421,2903704,0.0-24.0-0.0-0.13,8551,List2B,white,man,,,,,,,,survey_race,100,,,The fact that I am my race is an important part of my identity.,identity
1558,,,html-slider-response,422,2905264,0.0-24.0-0.0-0.14,8551,List2B,white,man,,,,,,,,survey_race,94,,,I feel a bond with people the same age as me.,filler
3694,,,html-slider-response,423,2908961,0.0-24.0-0.0-0.15,8551,List2B,white,man,,,,,,,,survey_race,98,,,I am glad to be my race.,glad
2069,,,html-slider-response,424,2911032,0.0-24.0-0.0-0.16,8551,List2B,white,man,,,,,,,,survey_race,83,,,Being my age gives me a good feeling.,filler
1661,,,html-slider-response,425,2912695,0.0-24.0-0.0-0.17,8551,List2B,white,man,,,,,,,,survey_race,99,,,I often think about the fact that I am my age.,filler
1413,,,html-slider-response,426,2914112,0.0-24.0-0.0-0.18,8551,List2B,white,man,,,,,,,,survey_race,91,,,I have a lot in common with the average person of my race.,average
1653,,,html-slider-response,427,2915769,0.0-24.0-0.0-0.19,8551,List2B,white,man,,,,,,,,survey_race,89,,,I am glad to be the age I am.,filler
1517,,,html-slider-response,428,2917288,0.0-24.0-0.0-0.20,8551,List2B,white,man,,,,,,,,survey_race,93,,,Being my race is an important part of how I see myself.,important
1830,,,html-slider-response,429,2919120,0.0-24.0-0.0-0.21,8551,List2B,white,man,,,,,,,,survey_race,98,,,People my age have a lot in common with each other.,filler
3287,,,html-slider-response,430,2922409,0.0-24.0-0.0-0.22,8551,List2B,white,man,,,,,,,,survey_race,100,,,Being my race gives me a good feeling.,feeling
3285,,,html-slider-response,431,2925697,0.0-24.0-0.0-0.23,8551,List2B,white,man,,,,,,,,survey_race,100,,,I enjoy being in large groups.,filler
1774,,,html-slider-response,432,2927472,0.0-24.0-0.0-0.24,8551,List2B,white,man,,,,,,,,survey_race,76,,,People of my race have a lot in common with each other.,common
2037,,,html-slider-response,433,2929512,0.0-24.0-0.0-0.25,8551,List2B,white,man,,,,,,,,survey_race,93,,,I feel committed to my race.,committed
1383,,,html-slider-response,434,2930896,0.0-24.0-0.0-0.26,8551,List2B,white,man,,,,,,,,survey_race,100,,,I consider myself an extrovert.,filler
1509,,,html-slider-response,435,2932409,0.0-24.0-0.0-0.27,8551,List2B,white,man,,,,,,,,survey_race,91,,,Getting older does not worry me.,filler
1852,,,html-slider-response,436,2934264,0.0-24.0-1.0-0.0,8551,List2B,white,man,,,,,,,,survey_gender,100,,,My friends understand me.,filler
1822,,,html-slider-response,437,2936087,0.0-24.0-1.0-0.1,8551,List2B,white,man,,,,,,,,survey_gender,100,,,Being around my friends gives me a good feeling.,filler
1447,,,html-slider-response,438,2937536,0.0-24.0-1.0-0.2,8551,List2B,white,man,,,,,,,,survey_gender,100,,,My friends have a lot in common with each other.,filler
1333,,,html-slider-response,439,2938871,0.0-24.0-1.0-0.3,8551,List2B,white,man,,,,,,,,survey_gender,93,,,I feel solidarity with my friends.,filler
1343,,,html-slider-response,440,2940216,0.0-24.0-1.0-0.4,8551,List2B,white,man,,,,,,,,survey_gender,68,,,I have a lot in common with the average person of my gender.,average
1413,,,html-slider-response,441,2941632,0.0-24.0-1.0-0.5,8551,List2B,white,man,,,,,,,,survey_gender,79,,,Routine is not important to me.,filler
1813,,,html-slider-response,442,2943448,0.0-24.0-1.0-0.6,8551,List2B,white,man,,,,,,,,survey_gender,80,,,Most of the friends in my life are very similar to me.,filler
1334,,,html-slider-response,443,2944783,0.0-24.0-1.0-0.7,8551,List2B,white,man,,,,,,,,survey_gender,86,,,I am similar to the average person of my gender.,similar
1302,,,html-slider-response,444,2946089,0.0-24.0-1.0-0.8,8551,List2B,white,man,,,,,,,,survey_gender,94,,,I often think about my actions.,filler
1494,,,html-slider-response,445,2947584,0.0-24.0-1.0-0.9,8551,List2B,white,man,,,,,,,,survey_gender,81,,,I feel a bond with my gender.,bond
2127,,,html-slider-response,446,2949712,0.0-24.0-1.0-0.10,8551,List2B,white,man,,,,,,,,survey_gender,94,,,I have a lot in common with my friends.,filler
2048,,,html-slider-response,447,2951761,0.0-24.0-1.0-0.11,8551,List2B,white,man,,,,,,,,survey_gender,86,,,The fact that I am my gender is an important part of my identity.,identity
1332,,,html-slider-response,448,2953096,0.0-24.0-1.0-0.12,8551,List2B,white,man,,,,,,,,survey_gender,82,,,I am glad to be my gender.,glad
1430,,,html-slider-response,449,2954529,0.0-24.0-1.0-0.13,8551,List2B,white,man,,,,,,,,survey_gender,100,,,I often think about the fact that I am my gender.,often
1254,,,html-slider-response,450,2955784,0.0-24.0-1.0-0.14,8551,List2B,white,man,,,,,,,,survey_gender,83,,,It is pleasant to be my gender.,pleasant
1198,,,html-slider-response,451,2956984,0.0-24.0-1.0-0.15,8551,List2B,white,man,,,,,,,,survey_gender,95,,,I feel committed to my gender.,committed
1270,,,html-slider-response,452,2958256,0.0-24.0-1.0-0.16,8551,List2B,white,man,,,,,,,,survey_gender,87,,,Being my gender gives me a good feeling.,feeling
1503,,,html-slider-response,453,2959762,0.0-24.0-1.0-0.17,8551,List2B,white,man,,,,,,,,survey_gender,100,,,I feel solidarity with my gender.,solidarity
1676,,,html-slider-response,454,2961441,0.0-24.0-1.0-0.18,8551,List2B,white,man,,,,,,,,survey_gender,78,,,It is not always easy for people to know what I am thinking.,filler
1462,,,html-slider-response,455,2962904,0.0-24.0-1.0-0.19,8551,List2B,white,man,,,,,,,,survey_gender,79,,,I consider myself a highly empathetic person.,filler
1325,,,html-slider-response,456,2964231,0.0-24.0-1.0-0.20,8551,List2B,white,man,,,,,,,,survey_gender,91,,,I think that my gender has a lot to be proud of.,proud
1222,,,html-slider-response,457,2965455,0.0-24.0-1.0-0.21,8551,List2B,white,man,,,,,,,,survey_gender,92,,,I feel a bond with my friends.,filler
1423,,,html-slider-response,458,2966880,0.0-24.0-1.0-0.22,8551,List2B,white,man,,,,,,,,survey_gender,100,,,I am glad to have the friends that I have.,filler
1389,,,html-slider-response,459,2968272,0.0-24.0-1.0-0.23,8551,List2B,white,man,,,,,,,,survey_gender,96,,,I would say I am an animal person.,filler
1358,,,html-slider-response,460,2969631,0.0-24.0-1.0-0.24,8551,List2B,white,man,,,,,,,,survey_gender,71,,,People of my gender are very similar to each other.,verysimilar
1559,,,html-slider-response,461,2971192,0.0-24.0-1.0-0.25,8551,List2B,white,man,,,,,,,,survey_gender,93,,,Family is not more important to me than friendship.,filler
1542,,,html-slider-response,462,2972736,0.0-24.0-1.0-0.26,8551,List2B,white,man,,,,,,,,survey_gender,31,,,Being my gender is an important part of how I see myself.,important
1581,,,html-slider-response,463,2974321,0.0-24.0-1.0-0.27,8551,List2B,white,man,,,,,,,,survey_gender,99,,,People of my gender have a lot in common with each other.,common
5717,,,survey-text,464,2980040,0.0-25.0,8551,List2B,white,man,,,,,"{""Q0"":""ccc""}",,,worker_id,,,,,
11332,,,external-html,465,2992879,0.0-26.0,8551,List2B,white,man,debrief.html,,,,,,,,,,,,
