"rt","stimulus","button_pressed","trial_type","trial_index","time_elapsed","internal_node_id","subject","list","ppt_race","ppt_gender","url","first_guess","correct","key_press","responses","image_type","phrase_type","test_part","response","stimulus1","stimulus2","question_type","survey_item"
"2752.4000000003725","Welcome to the experiment. Press Continue to begin.","0","html-button-response","0","2754","0.0-0.0","8597","List1B","black","man","","","","","","","","","","","","",""
"18278.799999998882","","","external-html","1","22179","0.0-1.0","8597","List1B","black","man","consent.html","","","","","","","","","","","",""
"28628.299999998882","<p>On the next page, you will see portraits of 8 people and their names.</p><p>Your first task is to take a few minutes to memorise the names of these people.</p><p>You will have to recall their names during the rest of the experiment, so it is</p><p>essential that you try to memorise these people and their names as best as you can.</p><br><p><strong>You will then be tested on your memory of these names and portraits.</strong></p><br><p>The experiment will start after you have completed this memory test.</p><br><p>Ready?</p>","0","html-button-response","2","50809","0.0-2.0","8597","List1B","black","man","","","","","","","","","","","","",""
"166857.09999999963","<img src='img/portrait_matrix_list1.jpg' style='width:900px;height:500px;''></img><p>If you have memorised all the portraits and names and are ready to start, press Continue.</p><p><strong>Please note: Your memory of these faces will be tested 4 times during this experiment.</strong></p>","0","html-button-response","3","218669","0.0-3.0-0.0","8597","List1B","black","man","","","","","","","","","","","","",""
"5810.700000001118","<img src=""portrait/WM1.jpg""style=""height:400px;""></img>","6","html-button-response","4","225483","0.0-3.0-1.0","8597","List1B","black","man","","true","6","","","","","","","","","",""
"null","CORRECT","","html-keyboard-response","5","226986","0.0-3.0-2.0-0.0","8597","List1B","black","man","","","","null","","","","","","","","",""
"3421.300000000745","<img src=""portrait/BM2.jpg""style=""height:400px;""></img>","5","html-button-response","6","230408","0.0-3.0-4.0","8597","List1B","black","man","","true","5","","","","","","","","","",""
"null","CORRECT","","html-keyboard-response","7","231911","0.0-3.0-5.0-0.0","8597","List1B","black","man","","","","null","","","","","","","","",""
"2100","<img src=""portrait/WW2.jpg""style=""height:400px;""></img>","3","html-button-response","8","234012","0.0-3.0-7.0","8597","List1B","black","man","","true","3","","","","","","","","","",""
"null","CORRECT","","html-keyboard-response","9","235514","0.0-3.0-8.0-0.0","8597","List1B","black","man","","","","null","","","","","","","","",""
"3102.9000000003725","<img src=""portrait/WM2.jpg""style=""height:400px;""></img>","7","html-button-response","10","238618","0.0-3.0-10.0","8597","List1B","black","man","","true","7","","","","","","","","","",""
"null","CORRECT","","html-keyboard-response","11","240120","0.0-3.0-11.0-0.0","8597","List1B","black","man","","","","null","","","","","","","","",""
"3063.199999999255","<img src=""portrait/BM1.jpg""style=""height:400px;""></img>","4","html-button-response","12","243184","0.0-3.0-13.0","8597","List1B","black","man","","true","4","","","","","","","","","",""
"null","CORRECT","","html-keyboard-response","13","244687","0.0-3.0-14.0-0.0","8597","List1B","black","man","","","","null","","","","","","","","",""
"3100.5","<img src=""portrait/BW1.jpg""style=""height:400px;""></img>","0","html-button-response","14","247788","0.0-3.0-16.0","8597","List1B","black","man","","true","0","","","","","","","","","",""
"null","CORRECT","","html-keyboard-response","15","249290","0.0-3.0-17.0-0.0","8597","List1B","black","man","","","","null","","","","","","","","",""
"15387.5","<img src=""portrait/WW1.jpg""style=""height:400px;""></img>","1","html-button-response","16","264678","0.0-3.0-19.0","8597","List1B","black","man","","true","1","","","","","","","","","",""
"null","CORRECT","","html-keyboard-response","17","266182","0.0-3.0-20.0-0.0","8597","List1B","black","man","","","","null","","","","","","","","",""
"3109.699999999255","<img src=""portrait/BW2.jpg""style=""height:400px;""></img>","2","html-button-response","18","269292","0.0-3.0-22.0","8597","List1B","black","man","","true","2","","","","","","","","","",""
"null","CORRECT","","html-keyboard-response","19","270794","0.0-3.0-23.0-0.0","8597","List1B","black","man","","","","null","","","","","","","","",""
"2550.2999999988824","<p>You got 8 out of 8 right first time. Press Continue.</p>","0","html-button-response","20","273346","0.0-3.0-25.0","8597","List1B","black","man","","","","","","","","","","","","",""
"80209.10000000149","<p>In this experiment, you will view photographs of the people from the memory game interacting.</p><p>By using the <strong>exact</strong> phrase given <i>after</i> the photograph appears and recalling the correct names of the people in the photographs, form a sentence describing the interaction. You do not need to capitalise names.</p><p>Type your answer in the space provided. Please complete every sentence before moving onto the next trial.</p><p>You will only have a few seconds to memorise each given photograph and phrase before you can respond, so try your best to focus.</p><p>An example is given below. Press 'Continue' when you are ready.</p><img src='img/speaking_example.jpg' style='width:800px;height:460px;''></img>","0","html-button-response","21","354558","0.0-4.0","8597","List1B","black","man","","","","","","","","","","","","",""
"5214.5","<p>Before the experiment starts, you will watch two example trials. Press 'Continue'.</p>","0","html-button-response","22","360774","0.0-5.0","8597","List1B","black","man","","","","","","","","","","","","",""
"null","<img src='img/play_eg.gif' style='height:400px;''></img>","","html-keyboard-response","23","363777","0.0-6.0","8597","List1B","black","man","","","","null","","","","","","","","",""
"null","<p>is playing with</p>","","html-keyboard-response","24","365777","0.0-7.0","8597","List1B","black","man","","","","null","","","","","","","","",""
"11964.099999999627","<p><b>Answer:</b> kate is playing with beth</p>","0","html-button-response","25","377742","0.0-8.0","8597","List1B","black","man","","","","","","","","","","","","",""
"null","<img src='img/dance_eg.gif' style='height:400px;''></img>","","html-keyboard-response","26","380744","0.0-9.0","8597","List1B","black","man","","","","null","","","","","","","","",""
"null","<p>is being entertained by</p>","","html-keyboard-response","27","382745","0.0-10.0","8597","List1B","black","man","","","","null","","","","","","","","",""
"20730","<p><b>Answer:</b> luke is being entertained by dave</p>","0","html-button-response","28","403476","0.0-11.0","8597","List1B","black","man","","","","","","","","","","","","",""
"16571.199999999255","<p>Ready to start the experiment?</p><br><p><strong>Remember to describe the picture using a full sentence,</strong></p><p><strong>that combines the names of the people with the <i>exact</i> phrase given.</strong></p><p><strong>To receive full payment you must do this correctly.</strong></p><p><strong> You do not need to capitalise names or use punctuation.</strong></p><br><p>Press 'Continue' to begin.</p>","0","html-button-response","29","421048","0.0-12.0","8597","List1B","black","man","","","","","","","","","","","","",""
"null","<div style=""font-size:60px;"">+</div>","","html-keyboard-response","30","422550","0.0-13.0-0.0","8597","List1B","black","man","","","","null","","","","","","","","",""
"null","<img src=""stim_listB/hug8.gif""style=""height:400px;""></stim_listB>","","html-keyboard-response","31","424552","0.0-13.0-1.0","8597","List1B","black","man","","","","null","","","","","","","","",""
"null","is being hugged by","","html-keyboard-response","32","426553","0.0-13.0-2.0","8597","List1B","black","man","","","","null","","","","","","","","",""
"24036.099999999627","","","survey-text","33","450592","0.0-13.0-3.0","8597","List1B","black","man","","","","","{""Q0"":""jane is being hugged by kate""}","<img src=""stim_listB/hug8.gif""style=""height:400px;""></stim_listB>","is being hugged by","","","","","",""
"null","<div style=""font-size:60px;"">+</div>","","html-keyboard-response","34","451093","0.0-13.0-0.1","8597","List1B","black","man","","","","null","","","","","","","","",""
"null","<img src=""stim_listB/challenge6.gif""style=""height:400px;""></stim_listB>","","html-keyboard-response","35","453094","0.0-13.0-1.1","8597","List1B","black","man","","","","null","","","","","","","","",""
"null","is being challenged by","","html-keyboard-response","36","455095","0.0-13.0-2.1","8597","List1B","black","man","","","","null","","","","","","","","",""
"33740.300000000745","","","survey-text","37","488837","0.0-13.0-3.1","8597","List1B","black","man","","","","","{""Q0"":""dave is talking to fred""}","<img src=""stim_listB/challenge6.gif""style=""height:400px;""></stim_listB>","is being challenged by","","","","","",""
"null","<div style=""font-size:60px;"">+</div>","","html-keyboard-response","38","489339","0.0-13.0-0.2","8597","List1B","black","man","","","","null","","","","","","","","",""
"null","<img src=""stim_listB/seduce7.gif""style=""height:400px;""></stim_listB>","","html-keyboard-response","39","491341","0.0-13.0-1.2","8597","List1B","black","man","","","","null","","","","","","","","",""
"null","is seducing","","html-keyboard-response","40","493341","0.0-13.0-2.2","8597","List1B","black","man","","","","null","","","","","","","","",""
"22841.200000001118","","","survey-text","41","516185","0.0-13.0-3.2","8597","List1B","black","man","","","","","{""Q0"":""Jane is seducing Beth""}","<img src=""stim_listB/seduce7.gif""style=""height:400px;""></stim_listB>","is seducing","","","","","",""
"null","<div style=""font-size:60px;"">+</div>","","html-keyboard-response","42","516687","0.0-13.0-0.3","8597","List1B","black","man","","","","null","","","","","","","","",""
"null","<img src=""stim_listB/seduce2.gif""style=""height:400px;""></stim_listB>","","html-keyboard-response","43","518689","0.0-13.0-1.3","8597","List1B","black","man","","","","null","","","","","","","","",""
"null","is being seduced by","","html-keyboard-response","44","520690","0.0-13.0-2.3","8597","List1B","black","man","","","","null","","","","","","","","",""
"30835.299999998882","","","survey-text","45","551528","0.0-13.0-3.3","8597","List1B","black","man","","","","","{""Q0"":""beth is being seduced by mike""}","<img src=""stim_listB/seduce2.gif""style=""height:400px;""></stim_listB>","is being seduced by","","","","","",""
"null","<div style=""font-size:60px;"">+</div>","","html-keyboard-response","46","552029","0.0-13.0-0.4","8597","List1B","black","man","","","","null","","","","","","","","",""
"null","<img src=""stim_listB/look7.gif""style=""height:400px;""></stim_listB>","","html-keyboard-response","47","554030","0.0-13.0-1.4","8597","List1B","black","man","","","","null","","","","","","","","",""
"null","is looking at","","html-keyboard-response","48","556031","0.0-13.0-2.4","8597","List1B","black","man","","","","null","","","","","","","","",""
"14361.199999999255","","","survey-text","49","570394","0.0-13.0-3.4","8597","List1B","black","man","","","","","{""Q0"":""beth is looking at ruth""}","<img src=""stim_listB/look7.gif""style=""height:400px;""></stim_listB>","is looking at","","","","","",""
"null","<div style=""font-size:60px;"">+</div>","","html-keyboard-response","50","570896","0.0-13.0-0.5","8597","List1B","black","man","","","","null","","","","","","","","",""
"null","<img src=""stim_listB/hug6.gif""style=""height:400px;""></stim_listB>","","html-keyboard-response","51","572898","0.0-13.0-1.5","8597","List1B","black","man","","","","null","","","","","","","","",""
"null","is being hugged by","","html-keyboard-response","52","574900","0.0-13.0-2.5","8597","List1B","black","man","","","","null","","","","","","","","",""
"13396.200000001118","","","survey-text","53","588298","0.0-13.0-3.5","8597","List1B","black","man","","","","","{""Q0"":""Dave is being hugged by Mike""}","<img src=""stim_listB/hug6.gif""style=""height:400px;""></stim_listB>","is being hugged by","","","","","",""
"null","<div style=""font-size:60px;"">+</div>","","html-keyboard-response","54","588801","0.0-13.0-0.6","8597","List1B","black","man","","","","null","","","","","","","","",""
"null","<img src=""stim_listB/hug7.gif""style=""height:400px;""></stim_listB>","","html-keyboard-response","55","590802","0.0-13.0-1.6","8597","List1B","black","man","","","","null","","","","","","","","",""
"null","is hugging","","html-keyboard-response","56","592804","0.0-13.0-2.6","8597","List1B","black","man","","","","null","","","","","","","","",""
"13192.10000000149","","","survey-text","57","605999","0.0-13.0-3.6","8597","List1B","black","man","","","","","{""Q0"":""Beth is hugging Ruth""}","<img src=""stim_listB/hug7.gif""style=""height:400px;""></stim_listB>","is hugging","","","","","",""
"null","<div style=""font-size:60px;"">+</div>","","html-keyboard-response","58","606500","0.0-13.0-0.7","8597","List1B","black","man","","","","null","","","","","","","","",""
"null","<img src=""stim_listB/copy5.gif""style=""height:400px;""></stim_listB>","","html-keyboard-response","59","608502","0.0-13.0-1.7","8597","List1B","black","man","","","","null","","","","","","","","",""
"null","is copying","","html-keyboard-response","60","610504","0.0-13.0-2.7","8597","List1B","black","man","","","","null","","","","","","","","",""
"45021.39999999851","","","survey-text","61","655528","0.0-13.0-3.7","8597","List1B","black","man","","","","","{""Q0"":""Mike is holding Luke""}","<img src=""stim_listB/copy5.gif""style=""height:400px;""></stim_listB>","is copying","","","","","",""
"null","<div style=""font-size:60px;"">+</div>","","html-keyboard-response","62","656028","0.0-13.0-0.8","8597","List1B","black","man","","","","null","","","","","","","","",""
"null","<img src=""stim_listB/copy1.gif""style=""height:400px;""></stim_listB>","","html-keyboard-response","63","658030","0.0-13.0-1.8","8597","List1B","black","man","","","","null","","","","","","","","",""
"null","is copying","","html-keyboard-response","64","660032","0.0-13.0-2.8","8597","List1B","black","man","","","","null","","","","","","","","",""
"6989.5","","","survey-text","65","667023","0.0-13.0-3.8","8597","List1B","black","man","","","","","{""Q0"":""Mike is copying beth""}","<img src=""stim_listB/copy1.gif""style=""height:400px;""></stim_listB>","is copying","","","","","",""
"null","<div style=""font-size:60px;"">+</div>","","html-keyboard-response","66","667525","0.0-13.0-0.9","8597","List1B","black","man","","","","null","","","","","","","","",""
"null","<img src=""stim_listB/touch7.gif""style=""height:400px;""></stim_listB>","","html-keyboard-response","67","669526","0.0-13.0-1.9","8597","List1B","black","man","","","","null","","","","","","","","",""
"null","is touching","","html-keyboard-response","68","671529","0.0-13.0-2.9","8597","List1B","black","man","","","","null","","","","","","","","",""
"10444.5","","","survey-text","69","681975","0.0-13.0-3.9","8597","List1B","black","man","","","","","{""Q0"":""Kate is touching Jane""}","<img src=""stim_listB/touch7.gif""style=""height:400px;""></stim_listB>","is touching","","","","","",""
"null","<div style=""font-size:60px;"">+</div>","","html-keyboard-response","70","682477","0.0-13.0-0.10","8597","List1B","black","man","","","","null","","","","","","","","",""
"null","<img src=""stim_listB/copy6.gif""style=""height:400px;""></stim_listB>","","html-keyboard-response","71","684479","0.0-13.0-1.10","8597","List1B","black","man","","","","null","","","","","","","","",""
"null","is being copied by","","html-keyboard-response","72","686480","0.0-13.0-2.10","8597","List1B","black","man","","","","null","","","","","","","","",""
"41221","","","survey-text","73","727703","0.0-13.0-3.10","8597","List1B","black","man","","","","","{""Q0"":""Dave is being copied by Fred""}","<img src=""stim_listB/copy6.gif""style=""height:400px;""></stim_listB>","is being copied by","","","","","",""
"null","<div style=""font-size:60px;"">+</div>","","html-keyboard-response","74","728205","0.0-13.0-0.11","8597","List1B","black","man","","","","null","","","","","","","","",""
"null","<img src=""stim_listB/seduce6.gif""style=""height:400px;""></stim_listB>","","html-keyboard-response","75","730207","0.0-13.0-1.11","8597","List1B","black","man","","","","null","","","","","","","","",""
"null","is being seduced by","","html-keyboard-response","76","732209","0.0-13.0-2.11","8597","List1B","black","man","","","","null","","","","","","","","",""
"13764.300000000745","","","survey-text","77","745975","0.0-13.0-3.11","8597","List1B","black","man","","","","","{""Q0"":""Mike is being seduced by Luke""}","<img src=""stim_listB/seduce6.gif""style=""height:400px;""></stim_listB>","is being seduced by","","","","","",""
"null","<div style=""font-size:60px;"">+</div>","","html-keyboard-response","78","746476","0.0-13.0-0.12","8597","List1B","black","man","","","","null","","","","","","","","",""
"null","<img src=""stim_listB/shout4.gif""style=""height:400px;""></stim_listB>","","html-keyboard-response","79","748477","0.0-13.0-1.12","8597","List1B","black","man","","","","null","","","","","","","","",""
"null","is being shouted at by","","html-keyboard-response","80","750479","0.0-13.0-2.12","8597","List1B","black","man","","","","null","","","","","","","","",""
"12437.799999998882","","","survey-text","81","762919","0.0-13.0-3.12","8597","List1B","black","man","","","","","{""Q0"":""Dave is being shouted at by Jane""}","<img src=""stim_listB/shout4.gif""style=""height:400px;""></stim_listB>","is being shouted at by","","","","","",""
"null","<div style=""font-size:60px;"">+</div>","","html-keyboard-response","82","763420","0.0-13.0-0.13","8597","List1B","black","man","","","","null","","","","","","","","",""
"null","<img src=""stim_listB/challenge2.gif""style=""height:400px;""></stim_listB>","","html-keyboard-response","83","765422","0.0-13.0-1.13","8597","List1B","black","man","","","","null","","","","","","","","",""
"null","is being challenged by","","html-keyboard-response","84","767422","0.0-13.0-2.13","8597","List1B","black","man","","","","null","","","","","","","","",""
"10550","","","survey-text","85","777975","0.0-13.0-3.13","8597","List1B","black","man","","","","","{""Q0"":""Kate  is being challenged by Fred""}","<img src=""stim_listB/challenge2.gif""style=""height:400px;""></stim_listB>","is being challenged by","","","","","",""
"null","<div style=""font-size:60px;"">+</div>","","html-keyboard-response","86","778477","0.0-13.0-0.14","8597","List1B","black","man","","","","null","","","","","","","","",""
"null","<img src=""stim_listB/oppose5.gif""style=""height:400px;""></stim_listB>","","html-keyboard-response","87","780479","0.0-13.0-1.14","8597","List1B","black","man","","","","null","","","","","","","","",""
"null","is opposing","","html-keyboard-response","88","782479","0.0-13.0-2.14","8597","List1B","black","man","","","","null","","","","","","","","",""
"6565.800000000745","","","survey-text","89","789047","0.0-13.0-3.14","8597","List1B","black","man","","","","","{""Q0"":""Mike is opposing Dave""}","<img src=""stim_listB/oppose5.gif""style=""height:400px;""></stim_listB>","is opposing","","","","","",""
"null","<div style=""font-size:60px;"">+</div>","","html-keyboard-response","90","789561","0.0-13.0-0.15","8597","List1B","black","man","","","","null","","","","","","","","",""
"null","<img src=""stim_listB/kiss8.gif""style=""height:400px;""></stim_listB>","","html-keyboard-response","91","791563","0.0-13.0-1.15","8597","List1B","black","man","","","","null","","","","","","","","",""
"null","is being kissed by","","html-keyboard-response","92","793564","0.0-13.0-2.15","8597","List1B","black","man","","","","null","","","","","","","","",""
"14640.599999999627","","","survey-text","93","808207","0.0-13.0-3.15","8597","List1B","black","man","","","","","{""Q0"":""Kate is being kissed by Jane""}","<img src=""stim_listB/kiss8.gif""style=""height:400px;""></stim_listB>","is being kissed by","","","","","",""
"null","<div style=""font-size:60px;"">+</div>","","html-keyboard-response","94","808708","0.0-13.0-0.16","8597","List1B","black","man","","","","null","","","","","","","","",""
"null","<img src=""stim_listB/greet8.gif""style=""height:400px;""></stim_listB>","","html-keyboard-response","95","810710","0.0-13.0-1.16","8597","List1B","black","man","","","","null","","","","","","","","",""
"null","is being greeted by","","html-keyboard-response","96","812711","0.0-13.0-2.16","8597","List1B","black","man","","","","null","","","","","","","","",""
"30789.900000000373","","","survey-text","97","843503","0.0-13.0-3.16","8597","List1B","black","man","","","","","{""Q0"":""Beth is being greeted by jane""}","<img src=""stim_listB/greet8.gif""style=""height:400px;""></stim_listB>","is being greeted by","","","","","",""
"null","<div style=""font-size:60px;"">+</div>","","html-keyboard-response","98","844004","0.0-13.0-0.17","8597","List1B","black","man","","","","null","","","","","","","","",""
"null","<img src=""stim_listB/copy7.gif""style=""height:400px;""></stim_listB>","","html-keyboard-response","99","846005","0.0-13.0-1.17","8597","List1B","black","man","","","","null","","","","","","","","",""
"null","is copying","","html-keyboard-response","100","848007","0.0-13.0-2.17","8597","List1B","black","man","","","","null","","","","","","","","",""
"14333.599999999627","","","survey-text","101","862343","0.0-13.0-3.17","8597","List1B","black","man","","","","","{""Q0"":""Ruth is copying kate""}","<img src=""stim_listB/copy7.gif""style=""height:400px;""></stim_listB>","is copying","","","","","",""
"null","<div style=""font-size:60px;"">+</div>","","html-keyboard-response","102","862844","0.0-13.0-0.18","8597","List1B","black","man","","","","null","","","","","","","","",""
"null","<img src=""stim_listB/kiss2.gif""style=""height:400px;""></stim_listB>","","html-keyboard-response","103","864846","0.0-13.0-1.18","8597","List1B","black","man","","","","null","","","","","","","","",""
"null","is being kissed by","","html-keyboard-response","104","866847","0.0-13.0-2.18","8597","List1B","black","man","","","","null","","","","","","","","",""
"7789.300000000745","","","survey-text","105","874639","0.0-13.0-3.18","8597","List1B","black","man","","","","","{""Q0"":""Mike is being kissed by kate""}","<img src=""stim_listB/kiss2.gif""style=""height:400px;""></stim_listB>","is being kissed by","","","","","",""
"null","<div style=""font-size:60px;"">+</div>","","html-keyboard-response","106","875140","0.0-13.0-0.19","8597","List1B","black","man","","","","null","","","","","","","","",""
"null","<img src=""stim_listB/look5.gif""style=""height:400px;""></stim_listB>","","html-keyboard-response","107","877143","0.0-13.0-1.19","8597","List1B","black","man","","","","null","","","","","","","","",""
"null","is looking at","","html-keyboard-response","108","879145","0.0-13.0-2.19","8597","List1B","black","man","","","","null","","","","","","","","",""
"8083","","","survey-text","109","887230","0.0-13.0-3.19","8597","List1B","black","man","","","","","{""Q0"":""Fred is looking at Luke""}","<img src=""stim_listB/look5.gif""style=""height:400px;""></stim_listB>","is looking at","","","","","",""
"17633.800000000745","<img src='img/portrait_matrix_list1.jpg' style='width:900px;height:500px;''></img><p>If you have memorised all the portraits and names and are ready to start, press Continue.</p><p><strong>Please note: Your memory of these faces will be tested 4 times during this experiment.</strong></p>","0","html-button-response","110","904866","0.0-14.0-0.0","8597","List1B","black","man","","","","","","","","","","","","",""
"4474.199999999255","<img src=""portrait/BW1.jpg""style=""height:400px;""></img>","0","html-button-response","111","910342","0.0-14.0-1.0","8597","List1B","black","man","","true","0","","","","","","","","","",""
"null","CORRECT","","html-keyboard-response","112","911845","0.0-14.0-2.0-0.0","8597","List1B","black","man","","","","null","","","","","","","","",""
"4191.5999999996275","<img src=""portrait/WM2.jpg""style=""height:400px;""></img>","7","html-button-response","113","916038","0.0-14.0-4.0","8597","List1B","black","man","","true","7","","","","","","","","","",""
"null","CORRECT","","html-keyboard-response","114","917541","0.0-14.0-5.0-0.0","8597","List1B","black","man","","","","null","","","","","","","","",""
"1901.9000000003725","<img src=""portrait/WW2.jpg""style=""height:400px;""></img>","3","html-button-response","115","919443","0.0-14.0-7.0","8597","List1B","black","man","","true","3","","","","","","","","","",""
"null","CORRECT","","html-keyboard-response","116","920946","0.0-14.0-8.0-0.0","8597","List1B","black","man","","","","null","","","","","","","","",""
"3342.89999999851","<img src=""portrait/BM1.jpg""style=""height:400px;""></img>","4","html-button-response","117","924289","0.0-14.0-10.0","8597","List1B","black","man","","true","4","","","","","","","","","",""
"null","CORRECT","","html-keyboard-response","118","925792","0.0-14.0-11.0-0.0","8597","List1B","black","man","","","","null","","","","","","","","",""
"4467.9000000003725","<img src=""portrait/WM1.jpg""style=""height:400px;""></img>","6","html-button-response","119","930261","0.0-14.0-13.0","8597","List1B","black","man","","true","6","","","","","","","","","",""
"null","CORRECT","","html-keyboard-response","120","931764","0.0-14.0-14.0-0.0","8597","List1B","black","man","","","","null","","","","","","","","",""
"2842.5","<img src=""portrait/BW2.jpg""style=""height:400px;""></img>","2","html-button-response","121","934608","0.0-14.0-16.0","8597","List1B","black","man","","true","2","","","","","","","","","",""
"null","CORRECT","","html-keyboard-response","122","936111","0.0-14.0-17.0-0.0","8597","List1B","black","man","","","","null","","","","","","","","",""
"2387.2999999988824","<img src=""portrait/BM2.jpg""style=""height:400px;""></img>","5","html-button-response","123","938499","0.0-14.0-19.0","8597","List1B","black","man","","true","5","","","","","","","","","",""
"null","CORRECT","","html-keyboard-response","124","940002","0.0-14.0-20.0-0.0","8597","List1B","black","man","","","","null","","","","","","","","",""
"2294.2999999988824","<img src=""portrait/WW1.jpg""style=""height:400px;""></img>","1","html-button-response","125","942297","0.0-14.0-22.0","8597","List1B","black","man","","true","1","","","","","","","","","",""
"null","CORRECT","","html-keyboard-response","126","943801","0.0-14.0-23.0-0.0","8597","List1B","black","man","","","","null","","","","","","","","",""
"3053.4000000003725","<p>You got 8 out of 8 right first time. Press Continue.</p>","0","html-button-response","127","946855","0.0-14.0-25.0","8597","List1B","black","man","","","","","","","","","","","","",""
"null","<div style=""font-size:60px;"">+</div>","","html-keyboard-response","128","948358","0.0-15.0-0.0","8597","List1B","black","man","","","","null","","","","","","","","",""
"null","<img src=""stim_listB/oppose3.gif""style=""height:400px;""></stim_listB>","","html-keyboard-response","129","950360","0.0-15.0-1.0","8597","List1B","black","man","","","","null","","","","","","","","",""
"null","is opposing","","html-keyboard-response","130","952362","0.0-15.0-2.0","8597","List1B","black","man","","","","null","","","","","","","","",""
"16342.89999999851","","","survey-text","131","968707","0.0-15.0-3.0","8597","List1B","black","man","","","","","{""Q0"":""Dave is opposing Jane""}","<img src=""stim_listB/oppose3.gif""style=""height:400px;""></stim_listB>","is opposing","","","","","",""
"null","<div style=""font-size:60px;"">+</div>","","html-keyboard-response","132","969208","0.0-15.0-0.1","8597","List1B","black","man","","","","null","","","","","","","","",""
"null","<img src=""stim_listB/touch6.gif""style=""height:400px;""></stim_listB>","","html-keyboard-response","133","971210","0.0-15.0-1.1","8597","List1B","black","man","","","","null","","","","","","","","",""
"null","is being touched by","","html-keyboard-response","134","973211","0.0-15.0-2.1","8597","List1B","black","man","","","","null","","","","","","","","",""
"13271.800000000745","","","survey-text","135","986485","0.0-15.0-3.1","8597","List1B","black","man","","","","","{""Q0"":""Fred is being touched by Luke""}","<img src=""stim_listB/touch6.gif""style=""height:400px;""></stim_listB>","is being touched by","","","","","",""
"null","<div style=""font-size:60px;"">+</div>","","html-keyboard-response","136","986986","0.0-15.0-0.2","8597","List1B","black","man","","","","null","","","","","","","","",""
"null","<img src=""stim_listB/oppose1.gif""style=""height:400px;""></stim_listB>","","html-keyboard-response","137","988988","0.0-15.0-1.2","8597","List1B","black","man","","","","null","","","","","","","","",""
"null","is opposing","","html-keyboard-response","138","990989","0.0-15.0-2.2","8597","List1B","black","man","","","","null","","","","","","","","",""
"9153.099999999627","","","survey-text","139","1000145","0.0-15.0-3.2","8597","List1B","black","man","","","","","{""Q0"":""Mike is opposing Kate""}","<img src=""stim_listB/oppose1.gif""style=""height:400px;""></stim_listB>","is opposing","","","","","",""
"null","<div style=""font-size:60px;"">+</div>","","html-keyboard-response","140","1000647","0.0-15.0-0.3","8597","List1B","black","man","","","","null","","","","","","","","",""
"null","<img src=""stim_listB/hug3.gif""style=""height:400px;""></stim_listB>","","html-keyboard-response","141","1002648","0.0-15.0-1.3","8597","List1B","black","man","","","","null","","","","","","","","",""
"null","is hugging","","html-keyboard-response","142","1004649","0.0-15.0-2.3","8597","List1B","black","man","","","","null","","","","","","","","",""
"9146.300000000745","","","survey-text","143","1013798","0.0-15.0-3.3","8597","List1B","black","man","","","","","{""Q0"":""Ruth is hugging Luke""}","<img src=""stim_listB/hug3.gif""style=""height:400px;""></stim_listB>","is hugging","","","","","",""
"null","<div style=""font-size:60px;"">+</div>","","html-keyboard-response","144","1014299","0.0-15.0-0.4","8597","List1B","black","man","","","","null","","","","","","","","",""
"null","<img src=""stim_listB/greet5.gif""style=""height:400px;""></stim_listB>","","html-keyboard-response","145","1016301","0.0-15.0-1.4","8597","List1B","black","man","","","","null","","","","","","","","",""
"null","is greeting","","html-keyboard-response","146","1018302","0.0-15.0-2.4","8597","List1B","black","man","","","","null","","","","","","","","",""
"14789.700000001118","","","survey-text","147","1033094","0.0-15.0-3.4","8597","List1B","black","man","","","","","{""Q0"":""Luke is greeting Mike""}","<img src=""stim_listB/greet5.gif""style=""height:400px;""></stim_listB>","is greeting","","","","","",""
"null","<div style=""font-size:60px;"">+</div>","","html-keyboard-response","148","1033597","0.0-15.0-0.5","8597","List1B","black","man","","","","null","","","","","","","","",""
"null","<img src=""stim_listB/greet6.gif""style=""height:400px;""></stim_listB>","","html-keyboard-response","149","1035598","0.0-15.0-1.5","8597","List1B","black","man","","","","null","","","","","","","","",""
"null","is being greeted by","","html-keyboard-response","150","1037600","0.0-15.0-2.5","8597","List1B","black","man","","","","null","","","","","","","","",""
"14660.799999998882","","","survey-text","151","1052263","0.0-15.0-3.5","8597","List1B","black","man","","","","","{""Q0"":""Fred is being greeted by Dave""}","<img src=""stim_listB/greet6.gif""style=""height:400px;""></stim_listB>","is being greeted by","","","","","",""
"null","<div style=""font-size:60px;"">+</div>","","html-keyboard-response","152","1052764","0.0-15.0-0.6","8597","List1B","black","man","","","","null","","","","","","","","",""
"null","<img src=""stim_listB/seduce5.gif""style=""height:400px;""></stim_listB>","","html-keyboard-response","153","1054766","0.0-15.0-1.6","8597","List1B","black","man","","","","null","","","","","","","","",""
"null","is seducing","","html-keyboard-response","154","1056767","0.0-15.0-2.6","8597","List1B","black","man","","","","null","","","","","","","","",""
"8572.599999999627","","","survey-text","155","1065342","0.0-15.0-3.6","8597","List1B","black","man","","","","","{""Q0"":""Fred is seducing Dave""}","<img src=""stim_listB/seduce5.gif""style=""height:400px;""></stim_listB>","is seducing","","","","","",""
"null","<div style=""font-size:60px;"">+</div>","","html-keyboard-response","156","1065844","0.0-15.0-0.7","8597","List1B","black","man","","","","null","","","","","","","","",""
"null","<img src=""stim_listB/touch3.gif""style=""height:400px;""></stim_listB>","","html-keyboard-response","157","1067846","0.0-15.0-1.7","8597","List1B","black","man","","","","null","","","","","","","","",""
"null","is touching","","html-keyboard-response","158","1069848","0.0-15.0-2.7","8597","List1B","black","man","","","","null","","","","","","","","",""
"12164","","","survey-text","159","1082013","0.0-15.0-3.7","8597","List1B","black","man","","","","","{""Q0"":""Jane is touching dave""}","<img src=""stim_listB/touch3.gif""style=""height:400px;""></stim_listB>","is touching","","","","","",""
"null","<div style=""font-size:60px;"">+</div>","","html-keyboard-response","160","1082515","0.0-15.0-0.8","8597","List1B","black","man","","","","null","","","","","","","","",""
"null","<img src=""stim_listB/shout7.gif""style=""height:400px;""></stim_listB>","","html-keyboard-response","161","1084516","0.0-15.0-1.8","8597","List1B","black","man","","","","null","","","","","","","","",""
"null","is shouting at","","html-keyboard-response","162","1086518","0.0-15.0-2.8","8597","List1B","black","man","","","","null","","","","","","","","",""
"13383.900000000373","","","survey-text","163","1099904","0.0-15.0-3.8","8597","List1B","black","man","","","","","{""Q0"":""Beth is shouting at Ruth""}","<img src=""stim_listB/shout7.gif""style=""height:400px;""></stim_listB>","is shouting at","","","","","",""
"null","<div style=""font-size:60px;"">+</div>","","html-keyboard-response","164","1100406","0.0-15.0-0.9","8597","List1B","black","man","","","","null","","","","","","","","",""
"null","<img src=""stim_listB/touch8.gif""style=""height:400px;""></stim_listB>","","html-keyboard-response","165","1102408","0.0-15.0-1.9","8597","List1B","black","man","","","","null","","","","","","","","",""
"null","is being touched by","","html-keyboard-response","166","1104409","0.0-15.0-2.9","8597","List1B","black","man","","","","null","","","","","","","","",""
"7289.5","","","survey-text","167","1111701","0.0-15.0-3.9","8597","List1B","black","man","","","","","{""Q0"":""Beth is being touched by Ruth""}","<img src=""stim_listB/touch8.gif""style=""height:400px;""></stim_listB>","is being touched by","","","","","",""
"null","<div style=""font-size:60px;"">+</div>","","html-keyboard-response","168","1112203","0.0-15.0-0.10","8597","List1B","black","man","","","","null","","","","","","","","",""
"null","<img src=""stim_listB/shout3.gif""style=""height:400px;""></stim_listB>","","html-keyboard-response","169","1114204","0.0-15.0-1.10","8597","List1B","black","man","","","","null","","","","","","","","",""
"null","is shouting at","","html-keyboard-response","170","1116206","0.0-15.0-2.10","8597","List1B","black","man","","","","null","","","","","","","","",""
"14381.400000000373","","","survey-text","171","1130589","0.0-15.0-3.10","8597","List1B","black","man","","","","","{""Q0"":""Luke is shouting at Ruth""}","<img src=""stim_listB/shout3.gif""style=""height:400px;""></stim_listB>","is shouting at","","","","","",""
"null","<div style=""font-size:60px;"">+</div>","","html-keyboard-response","172","1131096","0.0-15.0-0.11","8597","List1B","black","man","","","","null","","","","","","","","",""
"null","<img src=""stim_listB/hug5.gif""style=""height:400px;""></stim_listB>","","html-keyboard-response","173","1133097","0.0-15.0-1.11","8597","List1B","black","man","","","","null","","","","","","","","",""
"null","is hugging","","html-keyboard-response","174","1135099","0.0-15.0-2.11","8597","List1B","black","man","","","","null","","","","","","","","",""
"11128.200000001118","","","survey-text","175","1146229","0.0-15.0-3.11","8597","List1B","black","man","","","","","{""Q0"":""Luke is hugging Fred""}","<img src=""stim_listB/hug5.gif""style=""height:400px;""></stim_listB>","is hugging","","","","","",""
"null","<div style=""font-size:60px;"">+</div>","","html-keyboard-response","176","1146731","0.0-15.0-0.12","8597","List1B","black","man","","","","null","","","","","","","","",""
"null","<img src=""stim_listB/challenge7.gif""style=""height:400px;""></stim_listB>","","html-keyboard-response","177","1148732","0.0-15.0-1.12","8597","List1B","black","man","","","","null","","","","","","","","",""
"null","is challenging","","html-keyboard-response","178","1150733","0.0-15.0-2.12","8597","List1B","black","man","","","","null","","","","","","","","",""
"18989.5","","","survey-text","179","1169725","0.0-15.0-3.12","8597","List1B","black","man","","","","","{""Q0"":""Kate is challenging Ruth""}","<img src=""stim_listB/challenge7.gif""style=""height:400px;""></stim_listB>","is challenging","","","","","",""
"null","<div style=""font-size:60px;"">+</div>","","html-keyboard-response","180","1170226","0.0-15.0-0.13","8597","List1B","black","man","","","","null","","","","","","","","",""
"null","<img src=""stim_listB/copy8.gif""style=""height:400px;""></stim_listB>","","html-keyboard-response","181","1172228","0.0-15.0-1.13","8597","List1B","black","man","","","","null","","","","","","","","",""
"null","is being copied by","","html-keyboard-response","182","1174229","0.0-15.0-2.13","8597","List1B","black","man","","","","null","","","","","","","","",""
"11647.299999998882","","","survey-text","183","1185878","0.0-15.0-3.13","8597","List1B","black","man","","","","","{""Q0"":""Jane is being copied by Beth""}","<img src=""stim_listB/copy8.gif""style=""height:400px;""></stim_listB>","is being copied by","","","","","",""
"null","<div style=""font-size:60px;"">+</div>","","html-keyboard-response","184","1186379","0.0-15.0-0.14","8597","List1B","black","man","","","","null","","","","","","","","",""
"null","<img src=""stim_listB/shout2.gif""style=""height:400px;""></stim_listB>","","html-keyboard-response","185","1188381","0.0-15.0-1.14","8597","List1B","black","man","","","","null","","","","","","","","",""
"null","is being shouted at by","","html-keyboard-response","186","1190382","0.0-15.0-2.14","8597","List1B","black","man","","","","null","","","","","","","","",""
"22426.299999998882","","","survey-text","187","1212810","0.0-15.0-3.14","8597","List1B","black","man","","","","","{""Q0"":""Jane is being shouted at by Mike""}","<img src=""stim_listB/shout2.gif""style=""height:400px;""></stim_listB>","is being shouted at by","","","","","",""
"null","<div style=""font-size:60px;"">+</div>","","html-keyboard-response","188","1213312","0.0-15.0-0.15","8597","List1B","black","man","","","","null","","","","","","","","",""
"null","<img src=""stim_listB/touch4.gif""style=""height:400px;""></stim_listB>","","html-keyboard-response","189","1215314","0.0-15.0-1.15","8597","List1B","black","man","","","","null","","","","","","","","",""
"null","is being touched by","","html-keyboard-response","190","1217315","0.0-15.0-2.15","8597","List1B","black","man","","","","null","","","","","","","","",""
"14430.599999999627","","","survey-text","191","1231748","0.0-15.0-3.15","8597","List1B","black","man","","","","","{""Q0"":""Luke is being touched by Ruth""}","<img src=""stim_listB/touch4.gif""style=""height:400px;""></stim_listB>","is being touched by","","","","","",""
"null","<div style=""font-size:60px;"">+</div>","","html-keyboard-response","192","1232249","0.0-15.0-0.16","8597","List1B","black","man","","","","null","","","","","","","","",""
"null","<img src=""stim_listB/kiss3.gif""style=""height:400px;""></stim_listB>","","html-keyboard-response","193","1234250","0.0-15.0-1.16","8597","List1B","black","man","","","","null","","","","","","","","",""
"null","is kissing","","html-keyboard-response","194","1236251","0.0-15.0-2.16","8597","List1B","black","man","","","","null","","","","","","","","",""
"8400","","","survey-text","195","1244653","0.0-15.0-3.16","8597","List1B","black","man","","","","","{""Q0"":""Ruth is kissing Luke""}","<img src=""stim_listB/kiss3.gif""style=""height:400px;""></stim_listB>","is kissing","","","","","",""
"null","<div style=""font-size:60px;"">+</div>","","html-keyboard-response","196","1245154","0.0-15.0-0.17","8597","List1B","black","man","","","","null","","","","","","","","",""
"null","<img src=""stim_listB/challenge3.gif""style=""height:400px;""></stim_listB>","","html-keyboard-response","197","1247155","0.0-15.0-1.17","8597","List1B","black","man","","","","null","","","","","","","","",""
"null","is challenging","","html-keyboard-response","198","1249157","0.0-15.0-2.17","8597","List1B","black","man","","","","null","","","","","","","","",""
"16302.5","","","survey-text","199","1265460","0.0-15.0-3.17","8597","List1B","black","man","","","","","{""Q0"":""Dave is challenging Ruth""}","<img src=""stim_listB/challenge3.gif""style=""height:400px;""></stim_listB>","is challenging","","","","","",""
"null","<div style=""font-size:60px;"">+</div>","","html-keyboard-response","200","1265962","0.0-15.0-0.18","8597","List1B","black","man","","","","null","","","","","","","","",""
"null","<img src=""stim_listB/oppose6.gif""style=""height:400px;""></stim_listB>","","html-keyboard-response","201","1267963","0.0-15.0-1.18","8597","List1B","black","man","","","","null","","","","","","","","",""
"null","is being opposed by","","html-keyboard-response","202","1269965","0.0-15.0-2.18","8597","List1B","black","man","","","","null","","","","","","","","",""
"16580.799999998882","","","survey-text","203","1286548","0.0-15.0-3.18","8597","List1B","black","man","","","","","{""Q0"":""Fred is being opposed by Luke""}","<img src=""stim_listB/oppose6.gif""style=""height:400px;""></stim_listB>","is being opposed by","","","","","",""
"null","<div style=""font-size:60px;"">+</div>","","html-keyboard-response","204","1287049","0.0-15.0-0.19","8597","List1B","black","man","","","","null","","","","","","","","",""
"null","<img src=""stim_listB/copy4.gif""style=""height:400px;""></stim_listB>","","html-keyboard-response","205","1289051","0.0-15.0-1.19","8597","List1B","black","man","","","","null","","","","","","","","",""
"null","is being copied by","","html-keyboard-response","206","1291053","0.0-15.0-2.19","8597","List1B","black","man","","","","null","","","","","","","","",""
"16397","","","survey-text","207","1307452","0.0-15.0-3.19","8597","List1B","black","man","","","","","{""Q0"":""Jane is being copied by Luke""}","<img src=""stim_listB/copy4.gif""style=""height:400px;""></stim_listB>","is being copied by","","","","","",""
"7749.5999999996275","<img src='img/portrait_matrix_list1.jpg' style='width:900px;height:500px;''></img><p>If you have memorised all the portraits and names and are ready to start, press Continue.</p><p><strong>Please note: Your memory of these faces will be tested 4 times during this experiment.</strong></p>","0","html-button-response","208","1315203","0.0-16.0-0.0","8597","List1B","black","man","","","","","","","","","","","","",""
"2305.800000000745","<img src=""portrait/WM2.jpg""style=""height:400px;""></img>","7","html-button-response","209","1318512","0.0-16.0-1.0","8597","List1B","black","man","","true","7","","","","","","","","","",""
"null","CORRECT","","html-keyboard-response","210","1320014","0.0-16.0-2.0-0.0","8597","List1B","black","man","","","","null","","","","","","","","",""
"3001.7000000011176","<img src=""portrait/WM1.jpg""style=""height:400px;""></img>","6","html-button-response","211","1323017","0.0-16.0-4.0","8597","List1B","black","man","","true","6","","","","","","","","","",""
"null","CORRECT","","html-keyboard-response","212","1324519","0.0-16.0-5.0-0.0","8597","List1B","black","man","","","","null","","","","","","","","",""
"3383.10000000149","<img src=""portrait/BM1.jpg""style=""height:400px;""></img>","4","html-button-response","213","1327904","0.0-16.0-7.0","8597","List1B","black","man","","true","4","","","","","","","","","",""
"null","CORRECT","","html-keyboard-response","214","1329405","0.0-16.0-8.0-0.0","8597","List1B","black","man","","","","null","","","","","","","","",""
"4072.60000000149","<img src=""portrait/BW2.jpg""style=""height:400px;""></img>","2","html-button-response","215","1333479","0.0-16.0-10.0","8597","List1B","black","man","","true","2","","","","","","","","","",""
"null","CORRECT","","html-keyboard-response","216","1334981","0.0-16.0-11.0-0.0","8597","List1B","black","man","","","","null","","","","","","","","",""
"2471.2000000011176","<img src=""portrait/WW1.jpg""style=""height:400px;""></img>","1","html-button-response","217","1337453","0.0-16.0-13.0","8597","List1B","black","man","","true","1","","","","","","","","","",""
"null","CORRECT","","html-keyboard-response","218","1338955","0.0-16.0-14.0-0.0","8597","List1B","black","man","","","","null","","","","","","","","",""
"2823.4000000003725","<img src=""portrait/BM2.jpg""style=""height:400px;""></img>","5","html-button-response","219","1341779","0.0-16.0-16.0","8597","List1B","black","man","","true","5","","","","","","","","","",""
"null","CORRECT","","html-keyboard-response","220","1343281","0.0-16.0-17.0-0.0","8597","List1B","black","man","","","","null","","","","","","","","",""
"4982.800000000745","<img src=""portrait/BW1.jpg""style=""height:400px;""></img>","0","html-button-response","221","1348265","0.0-16.0-19.0","8597","List1B","black","man","","true","0","","","","","","","","","",""
"null","CORRECT","","html-keyboard-response","222","1349768","0.0-16.0-20.0-0.0","8597","List1B","black","man","","","","null","","","","","","","","",""
"4338.5999999996275","<img src=""portrait/WW2.jpg""style=""height:400px;""></img>","3","html-button-response","223","1354107","0.0-16.0-22.0","8597","List1B","black","man","","true","3","","","","","","","","","",""
"null","CORRECT","","html-keyboard-response","224","1355609","0.0-16.0-23.0-0.0","8597","List1B","black","man","","","","null","","","","","","","","",""
"3864.699999999255","<p>You got 8 out of 8 right first time. Press Continue.</p>","0","html-button-response","225","1359475","0.0-16.0-25.0","8597","List1B","black","man","","","","","","","","","","","","",""
"null","<div style=""font-size:60px;"">+</div>","","html-keyboard-response","226","1360980","0.0-17.0-0.0","8597","List1B","black","man","","","","null","","","","","","","","",""
"null","<img src=""stim_listB/touch5.gif""style=""height:400px;""></stim_listB>","","html-keyboard-response","227","1362981","0.0-17.0-1.0","8597","List1B","black","man","","","","null","","","","","","","","",""
"null","is touching","","html-keyboard-response","228","1364981","0.0-17.0-2.0","8597","List1B","black","man","","","","null","","","","","","","","",""
"22180.400000000373","","","survey-text","229","1387165","0.0-17.0-3.0","8597","List1B","black","man","","","","","{""Q0"":""Dave is touching mike""}","<img src=""stim_listB/touch5.gif""style=""height:400px;""></stim_listB>","is touching","","","","","",""
"null","<div style=""font-size:60px;"">+</div>","","html-keyboard-response","230","1387667","0.0-17.0-0.1","8597","List1B","black","man","","","","null","","","","","","","","",""
"null","<img src=""stim_listB/look2.gif""style=""height:400px;""></stim_listB>","","html-keyboard-response","231","1389669","0.0-17.0-1.1","8597","List1B","black","man","","","","null","","","","","","","","",""
"null","is being looked at by","","html-keyboard-response","232","1391670","0.0-17.0-2.1","8597","List1B","black","man","","","","null","","","","","","","","",""
"9747.599999999627","","","survey-text","233","1401420","0.0-17.0-3.1","8597","List1B","black","man","","","","","{""Q0"":""kate is being looked at by mike""}","<img src=""stim_listB/look2.gif""style=""height:400px;""></stim_listB>","is being looked at by","","","","","",""
"null","<div style=""font-size:60px;"">+</div>","","html-keyboard-response","234","1401936","0.0-17.0-0.2","8597","List1B","black","man","","","","null","","","","","","","","",""
"null","<img src=""stim_listB/look1.gif""style=""height:400px;""></stim_listB>","","html-keyboard-response","235","1403938","0.0-17.0-1.2","8597","List1B","black","man","","","","null","","","","","","","","",""
"null","is looking at","","html-keyboard-response","236","1405939","0.0-17.0-2.2","8597","List1B","black","man","","","","null","","","","","","","","",""
"6814.0999999996275","","","survey-text","237","1412756","0.0-17.0-3.2","8597","List1B","black","man","","","","","{""Q0"":""Fred is looking at beth""}","<img src=""stim_listB/look1.gif""style=""height:400px;""></stim_listB>","is looking at","","","","","",""
"null","<div style=""font-size:60px;"">+</div>","","html-keyboard-response","238","1413257","0.0-17.0-0.3","8597","List1B","black","man","","","","null","","","","","","","","",""
"null","<img src=""stim_listB/touch1.gif""style=""height:400px;""></stim_listB>","","html-keyboard-response","239","1415259","0.0-17.0-1.3","8597","List1B","black","man","","","","null","","","","","","","","",""
"null","is touching","","html-keyboard-response","240","1417260","0.0-17.0-2.3","8597","List1B","black","man","","","","null","","","","","","","","",""
"6773.199999999255","","","survey-text","241","1424036","0.0-17.0-3.3","8597","List1B","black","man","","","","","{""Q0"":""kate is touching Mike""}","<img src=""stim_listB/touch1.gif""style=""height:400px;""></stim_listB>","is touching","","","","","",""
"null","<div style=""font-size:60px;"">+</div>","","html-keyboard-response","242","1424538","0.0-17.0-0.4","8597","List1B","black","man","","","","null","","","","","","","","",""
"null","<img src=""stim_listB/challenge8.gif""style=""height:400px;""></stim_listB>","","html-keyboard-response","243","1426540","0.0-17.0-1.4","8597","List1B","black","man","","","","null","","","","","","","","",""
"null","is being challenged by","","html-keyboard-response","244","1428541","0.0-17.0-2.4","8597","List1B","black","man","","","","null","","","","","","","","",""
"11057.699999999255","","","survey-text","245","1439601","0.0-17.0-3.4","8597","List1B","black","man","","","","","{""Q0"":""Jane is being challenged by  Beth""}","<img src=""stim_listB/challenge8.gif""style=""height:400px;""></stim_listB>","is being challenged by","","","","","",""
"null","<div style=""font-size:60px;"">+</div>","","html-keyboard-response","246","1440103","0.0-17.0-0.5","8597","List1B","black","man","","","","null","","","","","","","","",""
"null","<img src=""stim_listB/seduce4.gif""style=""height:400px;""></stim_listB>","","html-keyboard-response","247","1442105","0.0-17.0-1.5","8597","List1B","black","man","","","","null","","","","","","","","",""
"null","is being seduced by","","html-keyboard-response","248","1444106","0.0-17.0-2.5","8597","List1B","black","man","","","","null","","","","","","","","",""
"12346.200000001118","","","survey-text","249","1456455","0.0-17.0-3.5","8597","List1B","black","man","","","","","{""Q0"":""Dave is being seduced by Ruth""}","<img src=""stim_listB/seduce4.gif""style=""height:400px;""></stim_listB>","is being seduced by","","","","","",""
"null","<div style=""font-size:60px;"">+</div>","","html-keyboard-response","250","1456957","0.0-17.0-0.6","8597","List1B","black","man","","","","null","","","","","","","","",""
"null","<img src=""stim_listB/kiss5.gif""style=""height:400px;""></stim_listB>","","html-keyboard-response","251","1458959","0.0-17.0-1.6","8597","List1B","black","man","","","","null","","","","","","","","",""
"null","is kissing","","html-keyboard-response","252","1460960","0.0-17.0-2.6","8597","List1B","black","man","","","","null","","","","","","","","",""
"16996.10000000149","","","survey-text","253","1477958","0.0-17.0-3.6","8597","List1B","black","man","","","","","{""Q0"":""Fred is kissing Luke""}","<img src=""stim_listB/kiss5.gif""style=""height:400px;""></stim_listB>","is kissing","","","","","",""
"null","<div style=""font-size:60px;"">+</div>","","html-keyboard-response","254","1478459","0.0-17.0-0.7","8597","List1B","black","man","","","","null","","","","","","","","",""
"null","<img src=""stim_listB/look3.gif""style=""height:400px;""></stim_listB>","","html-keyboard-response","255","1480461","0.0-17.0-1.7","8597","List1B","black","man","","","","null","","","","","","","","",""
"null","is looking at","","html-keyboard-response","256","1482462","0.0-17.0-2.7","8597","List1B","black","man","","","","null","","","","","","","","",""
"8555.10000000149","","","survey-text","257","1491019","0.0-17.0-3.7","8597","List1B","black","man","","","","","{""Q0"":""Ruth is looking at Luke""}","<img src=""stim_listB/look3.gif""style=""height:400px;""></stim_listB>","is looking at","","","","","",""
"null","<div style=""font-size:60px;"">+</div>","","html-keyboard-response","258","1491521","0.0-17.0-0.8","8597","List1B","black","man","","","","null","","","","","","","","",""
"null","<img src=""stim_listB/seduce8.gif""style=""height:400px;""></stim_listB>","","html-keyboard-response","259","1493522","0.0-17.0-1.8","8597","List1B","black","man","","","","null","","","","","","","","",""
"null","is being seduced by","","html-keyboard-response","260","1495523","0.0-17.0-2.8","8597","List1B","black","man","","","","null","","","","","","","","",""
"15078","","","survey-text","261","1510603","0.0-17.0-3.8","8597","List1B","black","man","","","","","{""Q0"":""Kate is being seduced by Ruth""}","<img src=""stim_listB/seduce8.gif""style=""height:400px;""></stim_listB>","is being seduced by","","","","","",""
"null","<div style=""font-size:60px;"">+</div>","","html-keyboard-response","262","1511105","0.0-17.0-0.9","8597","List1B","black","man","","","","null","","","","","","","","",""
"null","<img src=""stim_listB/kiss6.gif""style=""height:400px;""></stim_listB>","","html-keyboard-response","263","1513106","0.0-17.0-1.9","8597","List1B","black","man","","","","null","","","","","","","","",""
"null","is being kissed by","","html-keyboard-response","264","1515107","0.0-17.0-2.9","8597","List1B","black","man","","","","null","","","","","","","","",""
"17441.400000000373","","","survey-text","265","1532550","0.0-17.0-3.9","8597","List1B","black","man","","","","","{""Q0"":""Dave is being kissed by Mike""}","<img src=""stim_listB/kiss6.gif""style=""height:400px;""></stim_listB>","is being kissed by","","","","","",""
"null","<div style=""font-size:60px;"">+</div>","","html-keyboard-response","266","1533052","0.0-17.0-0.10","8597","List1B","black","man","","","","null","","","","","","","","",""
"null","<img src=""stim_listB/seduce1.gif""style=""height:400px;""></stim_listB>","","html-keyboard-response","267","1535053","0.0-17.0-1.10","8597","List1B","black","man","","","","null","","","","","","","","",""
"null","is seducing","","html-keyboard-response","268","1537054","0.0-17.0-2.10","8597","List1B","black","man","","","","null","","","","","","","","",""
"9897.599999999627","","","survey-text","269","1546954","0.0-17.0-3.10","8597","List1B","black","man","","","","","{""Q0"":""Fred is seducing kate""}","<img src=""stim_listB/seduce1.gif""style=""height:400px;""></stim_listB>","is seducing","","","","","",""
"null","<div style=""font-size:60px;"">+</div>","","html-keyboard-response","270","1547455","0.0-17.0-0.11","8597","List1B","black","man","","","","null","","","","","","","","",""
"null","<img src=""stim_listB/oppose4.gif""style=""height:400px;""></stim_listB>","","html-keyboard-response","271","1549457","0.0-17.0-1.11","8597","List1B","black","man","","","","null","","","","","","","","",""
"null","is being opposed by","","html-keyboard-response","272","1551458","0.0-17.0-2.11","8597","List1B","black","man","","","","null","","","","","","","","",""
"7159","","","survey-text","273","1558620","0.0-17.0-3.11","8597","List1B","black","man","","","","","{""Q0"":""Ruth is being opposed by Luke""}","<img src=""stim_listB/oppose4.gif""style=""height:400px;""></stim_listB>","is being opposed by","","","","","",""
"null","<div style=""font-size:60px;"">+</div>","","html-keyboard-response","274","1559127","0.0-17.0-0.12","8597","List1B","black","man","","","","null","","","","","","","","",""
"null","<img src=""stim_listB/oppose7.gif""style=""height:400px;""></stim_listB>","","html-keyboard-response","275","1561128","0.0-17.0-1.12","8597","List1B","black","man","","","","null","","","","","","","","",""
"null","is opposing","","html-keyboard-response","276","1563130","0.0-17.0-2.12","8597","List1B","black","man","","","","null","","","","","","","","",""
"24050.200000001118","","","survey-text","277","1587183","0.0-17.0-3.12","8597","List1B","black","man","","","","","{""Q0"":""Jane is opposed by Kate""}","<img src=""stim_listB/oppose7.gif""style=""height:400px;""></stim_listB>","is opposing","","","","","",""
"null","<div style=""font-size:60px;"">+</div>","","html-keyboard-response","278","1587685","0.0-17.0-0.13","8597","List1B","black","man","","","","null","","","","","","","","",""
"null","<img src=""stim_listB/look8.gif""style=""height:400px;""></stim_listB>","","html-keyboard-response","279","1589686","0.0-17.0-1.13","8597","List1B","black","man","","","","null","","","","","","","","",""
"null","is being looked at by","","html-keyboard-response","280","1591688","0.0-17.0-2.13","8597","List1B","black","man","","","","null","","","","","","","","",""
"13393.800000000745","","","survey-text","281","1605084","0.0-17.0-3.13","8597","List1B","black","man","","","","","{""Q0"":""Kate is being looked at by Jane""}","<img src=""stim_listB/look8.gif""style=""height:400px;""></stim_listB>","is being looked at by","","","","","",""
"null","<div style=""font-size:60px;"">+</div>","","html-keyboard-response","282","1605585","0.0-17.0-0.14","8597","List1B","black","man","","","","null","","","","","","","","",""
"null","<img src=""stim_listB/greet3.gif""style=""height:400px;""></stim_listB>","","html-keyboard-response","283","1607586","0.0-17.0-1.14","8597","List1B","black","man","","","","null","","","","","","","","",""
"null","is greeting","","html-keyboard-response","284","1609587","0.0-17.0-2.14","8597","List1B","black","man","","","","null","","","","","","","","",""
"14702.400000000373","","","survey-text","285","1624291","0.0-17.0-3.14","8597","List1B","black","man","","","","","{""Q0"":""Dave is greeting Ruth""}","<img src=""stim_listB/greet3.gif""style=""height:400px;""></stim_listB>","is greeting","","","","","",""
"null","<div style=""font-size:60px;"">+</div>","","html-keyboard-response","286","1624792","0.0-17.0-0.15","8597","List1B","black","man","","","","null","","","","","","","","",""
"null","<img src=""stim_listB/hug1.gif""style=""height:400px;""></stim_listB>","","html-keyboard-response","287","1626794","0.0-17.0-1.15","8597","List1B","black","man","","","","null","","","","","","","","",""
"null","is hugging","","html-keyboard-response","288","1628796","0.0-17.0-2.15","8597","List1B","black","man","","","","null","","","","","","","","",""
"8708.799999998882","","","survey-text","289","1637507","0.0-17.0-3.15","8597","List1B","black","man","","","","","{""Q0"":""Fred is hugging Beth""}","<img src=""stim_listB/hug1.gif""style=""height:400px;""></stim_listB>","is hugging","","","","","",""
"null","<div style=""font-size:60px;"">+</div>","","html-keyboard-response","290","1638008","0.0-17.0-0.16","8597","List1B","black","man","","","","null","","","","","","","","",""
"null","<img src=""stim_listB/copy2.gif""style=""height:400px;""></stim_listB>","","html-keyboard-response","291","1640010","0.0-17.0-1.16","8597","List1B","black","man","","","","null","","","","","","","","",""
"null","is being copied by","","html-keyboard-response","292","1642011","0.0-17.0-2.16","8597","List1B","black","man","","","","null","","","","","","","","",""
"22269.799999998882","","","survey-text","293","1664283","0.0-17.0-3.16","8597","List1B","black","man","","","","","{""Q0"":""Fred is being copied by kate""}","<img src=""stim_listB/copy2.gif""style=""height:400px;""></stim_listB>","is being copied by","","","","","",""
"null","<div style=""font-size:60px;"">+</div>","","html-keyboard-response","294","1664784","0.0-17.0-0.17","8597","List1B","black","man","","","","null","","","","","","","","",""
"null","<img src=""stim_listB/challenge5.gif""style=""height:400px;""></stim_listB>","","html-keyboard-response","295","1666785","0.0-17.0-1.17","8597","List1B","black","man","","","","null","","","","","","","","",""
"null","is challenging","","html-keyboard-response","296","1668786","0.0-17.0-2.17","8597","List1B","black","man","","","","null","","","","","","","","",""
"8822.800000000745","","","survey-text","297","1677610","0.0-17.0-3.17","8597","List1B","black","man","","","","","{""Q0"":""Mike is challenging luke""}","<img src=""stim_listB/challenge5.gif""style=""height:400px;""></stim_listB>","is challenging","","","","","",""
"null","<div style=""font-size:60px;"">+</div>","","html-keyboard-response","298","1678112","0.0-17.0-0.18","8597","List1B","black","man","","","","null","","","","","","","","",""
"null","<img src=""stim_listB/look4.gif""style=""height:400px;""></stim_listB>","","html-keyboard-response","299","1680113","0.0-17.0-1.18","8597","List1B","black","man","","","","null","","","","","","","","",""
"null","is being looked at by","","html-keyboard-response","300","1682114","0.0-17.0-2.18","8597","List1B","black","man","","","","null","","","","","","","","",""
"13735.099999999627","","","survey-text","301","1695851","0.0-17.0-3.18","8597","List1B","black","man","","","","","{""Q0"":""Jane is being looked at Dave""}","<img src=""stim_listB/look4.gif""style=""height:400px;""></stim_listB>","is being looked at by","","","","","",""
"null","<div style=""font-size:60px;"">+</div>","","html-keyboard-response","302","1696352","0.0-17.0-0.19","8597","List1B","black","man","","","","null","","","","","","","","",""
"null","<img src=""stim_listB/kiss1.gif""style=""height:400px;""></stim_listB>","","html-keyboard-response","303","1698353","0.0-17.0-1.19","8597","List1B","black","man","","","","null","","","","","","","","",""
"null","is kissing","","html-keyboard-response","304","1700354","0.0-17.0-2.19","8597","List1B","black","man","","","","null","","","","","","","","",""
"5534.4000000003725","","","survey-text","305","1705891","0.0-17.0-3.19","8597","List1B","black","man","","","","","{""Q0"":""Beth is kissing Fred""}","<img src=""stim_listB/kiss1.gif""style=""height:400px;""></stim_listB>","is kissing","","","","","",""
"3595.300000000745","<img src='img/portrait_matrix_list1.jpg' style='width:900px;height:500px;''></img><p>If you have memorised all the portraits and names and are ready to start, press Continue.</p><p><strong>Please note: Your memory of these faces will be tested 4 times during this experiment.</strong></p>","0","html-button-response","306","1709487","0.0-18.0-0.0","8597","List1B","black","man","","","","","","","","","","","","",""
"2775.199999999255","<img src=""portrait/BM2.jpg""style=""height:400px;""></img>","5","html-button-response","307","1713265","0.0-18.0-1.0","8597","List1B","black","man","","true","5","","","","","","","","","",""
"null","CORRECT","","html-keyboard-response","308","1714767","0.0-18.0-2.0-0.0","8597","List1B","black","man","","","","null","","","","","","","","",""
"1702.7999999988824","<img src=""portrait/WM2.jpg""style=""height:400px;""></img>","7","html-button-response","309","1716471","0.0-18.0-4.0","8597","List1B","black","man","","true","7","","","","","","","","","",""
"null","CORRECT","","html-keyboard-response","310","1717973","0.0-18.0-5.0-0.0","8597","List1B","black","man","","","","null","","","","","","","","",""
"1952.7999999988824","<img src=""portrait/WW1.jpg""style=""height:400px;""></img>","1","html-button-response","311","1719927","0.0-18.0-7.0","8597","List1B","black","man","","true","1","","","","","","","","","",""
"null","CORRECT","","html-keyboard-response","312","1721430","0.0-18.0-8.0-0.0","8597","List1B","black","man","","","","null","","","","","","","","",""
"2980","<img src=""portrait/BW2.jpg""style=""height:400px;""></img>","2","html-button-response","313","1724411","0.0-18.0-10.0","8597","List1B","black","man","","true","2","","","","","","","","","",""
"null","CORRECT","","html-keyboard-response","314","1725913","0.0-18.0-11.0-0.0","8597","List1B","black","man","","","","null","","","","","","","","",""
"5190.699999999255","<img src=""portrait/BM1.jpg""style=""height:400px;""></img>","4","html-button-response","315","1731105","0.0-18.0-13.0","8597","List1B","black","man","","true","4","","","","","","","","","",""
"null","CORRECT","","html-keyboard-response","316","1732608","0.0-18.0-14.0-0.0","8597","List1B","black","man","","","","null","","","","","","","","",""
"7090.199999999255","<img src=""portrait/WM1.jpg""style=""height:400px;""></img>","6","html-button-response","317","1739700","0.0-18.0-16.0","8597","List1B","black","man","","true","6","","","","","","","","","",""
"null","CORRECT","","html-keyboard-response","318","1741202","0.0-18.0-17.0-0.0","8597","List1B","black","man","","","","null","","","","","","","","",""
"3936.4000000003725","<img src=""portrait/BW1.jpg""style=""height:400px;""></img>","0","html-button-response","319","1745139","0.0-18.0-19.0","8597","List1B","black","man","","true","0","","","","","","","","","",""
"null","CORRECT","","html-keyboard-response","320","1746642","0.0-18.0-20.0-0.0","8597","List1B","black","man","","","","null","","","","","","","","",""
"1989","<img src=""portrait/WW2.jpg""style=""height:400px;""></img>","3","html-button-response","321","1748632","0.0-18.0-22.0","8597","List1B","black","man","","true","3","","","","","","","","","",""
"null","CORRECT","","html-keyboard-response","322","1750134","0.0-18.0-23.0-0.0","8597","List1B","black","man","","","","null","","","","","","","","",""
"1652.0999999996275","<p>You got 8 out of 8 right first time. Press Continue.</p>","0","html-button-response","323","1751787","0.0-18.0-25.0","8597","List1B","black","man","","","","","","","","","","","","",""
"null","<div style=""font-size:60px;"">+</div>","","html-keyboard-response","324","1753289","0.0-19.0-0.0","8597","List1B","black","man","","","","null","","","","","","","","",""
"null","<img src=""stim_listB/greet7.gif""style=""height:400px;""></stim_listB>","","html-keyboard-response","325","1755290","0.0-19.0-1.0","8597","List1B","black","man","","","","null","","","","","","","","",""
"null","is greeting","","html-keyboard-response","326","1757292","0.0-19.0-2.0","8597","List1B","black","man","","","","null","","","","","","","","",""
"6075.4000000003725","","","survey-text","327","1763369","0.0-19.0-3.0","8597","List1B","black","man","","","","","{""Q0"":""Ruth his greeting kate""}","<img src=""stim_listB/greet7.gif""style=""height:400px;""></stim_listB>","is greeting","","","","","",""
"null","<div style=""font-size:60px;"">+</div>","","html-keyboard-response","328","1763872","0.0-19.0-0.1","8597","List1B","black","man","","","","null","","","","","","","","",""
"null","<img src=""stim_listB/greet2.gif""style=""height:400px;""></stim_listB>","","html-keyboard-response","329","1765874","0.0-19.0-1.1","8597","List1B","black","man","","","","null","","","","","","","","",""
"null","is being greeted by","","html-keyboard-response","330","1767874","0.0-19.0-2.1","8597","List1B","black","man","","","","null","","","","","","","","",""
"7491","","","survey-text","331","1775367","0.0-19.0-3.1","8597","List1B","black","man","","","","","{""Q0"":""fred is being greeted by kate""}","<img src=""stim_listB/greet2.gif""style=""height:400px;""></stim_listB>","is being greeted by","","","","","",""
"null","<div style=""font-size:60px;"">+</div>","","html-keyboard-response","332","1775870","0.0-19.0-0.2","8597","List1B","black","man","","","","null","","","","","","","","",""
"null","<img src=""stim_listB/challenge1.gif""style=""height:400px;""></stim_listB>","","html-keyboard-response","333","1777871","0.0-19.0-1.2","8597","List1B","black","man","","","","null","","","","","","","","",""
"null","is challenging","","html-keyboard-response","334","1779873","0.0-19.0-2.2","8597","List1B","black","man","","","","null","","","","","","","","",""
"12668.200000001118","","","survey-text","335","1792543","0.0-19.0-3.2","8597","List1B","black","man","","","","","{""Q0"":""beth is challenging mike""}","<img src=""stim_listB/challenge1.gif""style=""height:400px;""></stim_listB>","is challenging","","","","","",""
"null","<div style=""font-size:60px;"">+</div>","","html-keyboard-response","336","1793045","0.0-19.0-0.3","8597","List1B","black","man","","","","null","","","","","","","","",""
"null","<img src=""stim_listB/hug4.gif""style=""height:400px;""></stim_listB>","","html-keyboard-response","337","1795046","0.0-19.0-1.3","8597","List1B","black","man","","","","null","","","","","","","","",""
"null","is being hugged by","","html-keyboard-response","338","1797047","0.0-19.0-2.3","8597","List1B","black","man","","","","null","","","","","","","","",""
"14261.700000001118","","","survey-text","339","1811311","0.0-19.0-3.3","8597","List1B","black","man","","","","","{""Q0"":""dave is being hugged by jane""}","<img src=""stim_listB/hug4.gif""style=""height:400px;""></stim_listB>","is being hugged by","","","","","",""
"null","<div style=""font-size:60px;"">+</div>","","html-keyboard-response","340","1811813","0.0-19.0-0.4","8597","List1B","black","man","","","","null","","","","","","","","",""
"null","<img src=""stim_listB/touch2.gif""style=""height:400px;""></stim_listB>","","html-keyboard-response","341","1813814","0.0-19.0-1.4","8597","List1B","black","man","","","","null","","","","","","","","",""
"null","is being touched by","","html-keyboard-response","342","1815816","0.0-19.0-2.4","8597","List1B","black","man","","","","null","","","","","","","","",""
"8759.300000000745","","","survey-text","343","1824577","0.0-19.0-3.4","8597","List1B","black","man","","","","","{""Q0"":""Fred is being touched by beth""}","<img src=""stim_listB/touch2.gif""style=""height:400px;""></stim_listB>","is being touched by","","","","","",""
"null","<div style=""font-size:60px;"">+</div>","","html-keyboard-response","344","1825079","0.0-19.0-0.5","8597","List1B","black","man","","","","null","","","","","","","","",""
"null","<img src=""stim_listB/kiss4.gif""style=""height:400px;""></stim_listB>","","html-keyboard-response","345","1827081","0.0-19.0-1.5","8597","List1B","black","man","","","","null","","","","","","","","",""
"null","is being kissed by","","html-keyboard-response","346","1829082","0.0-19.0-2.5","8597","List1B","black","man","","","","null","","","","","","","","",""
"7509.5","","","survey-text","347","1836594","0.0-19.0-3.5","8597","List1B","black","man","","","","","{""Q0"":""dave is being kissed by jane""}","<img src=""stim_listB/kiss4.gif""style=""height:400px;""></stim_listB>","is being kissed by","","","","","",""
"null","<div style=""font-size:60px;"">+</div>","","html-keyboard-response","348","1837096","0.0-19.0-0.6","8597","List1B","black","man","","","","null","","","","","","","","",""
"null","<img src=""stim_listB/kiss7.gif""style=""height:400px;""></stim_listB>","","html-keyboard-response","349","1839098","0.0-19.0-1.6","8597","List1B","black","man","","","","null","","","","","","","","",""
"null","is kissing","","html-keyboard-response","350","1841100","0.0-19.0-2.6","8597","List1B","black","man","","","","null","","","","","","","","",""
"18409.199999999255","","","survey-text","351","1859511","0.0-19.0-3.6","8597","List1B","black","man","","","","","{""Q0"":""beth is kissing ruth""}","<img src=""stim_listB/kiss7.gif""style=""height:400px;""></stim_listB>","is kissing","","","","","",""
"null","<div style=""font-size:60px;"">+</div>","","html-keyboard-response","352","1860012","0.0-19.0-0.7","8597","List1B","black","man","","","","null","","","","","","","","",""
"null","<img src=""stim_listB/shout8.gif""style=""height:400px;""></stim_listB>","","html-keyboard-response","353","1862014","0.0-19.0-1.7","8597","List1B","black","man","","","","null","","","","","","","","",""
"null","is being shouted at by","","html-keyboard-response","354","1864015","0.0-19.0-2.7","8597","List1B","black","man","","","","null","","","","","","","","",""
"17689.5","","","survey-text","355","1881707","0.0-19.0-3.7","8597","List1B","black","man","","","","","{""Q0"":""Kate is being shouted at by Jane""}","<img src=""stim_listB/shout8.gif""style=""height:400px;""></stim_listB>","is being shouted at by","","","","","",""
"null","<div style=""font-size:60px;"">+</div>","","html-keyboard-response","356","1882208","0.0-19.0-0.8","8597","List1B","black","man","","","","null","","","","","","","","",""
"null","<img src=""stim_listB/look6.gif""style=""height:400px;""></stim_listB>","","html-keyboard-response","357","1884209","0.0-19.0-1.8","8597","List1B","black","man","","","","null","","","","","","","","",""
"null","is being looked at by","","html-keyboard-response","358","1886210","0.0-19.0-2.8","8597","List1B","black","man","","","","null","","","","","","","","",""
"39860.40000000037","","","survey-text","359","1926073","0.0-19.0-3.8","8597","List1B","black","man","","","","","{""Q0"":""mike is being looked at by jane""}","<img src=""stim_listB/look6.gif""style=""height:400px;""></stim_listB>","is being looked at by","","","","","",""
"null","<div style=""font-size:60px;"">+</div>","","html-keyboard-response","360","1926574","0.0-19.0-0.9","8597","List1B","black","man","","","","null","","","","","","","","",""
"null","<img src=""stim_listB/copy3.gif""style=""height:400px;""></stim_listB>","","html-keyboard-response","361","1928575","0.0-19.0-1.9","8597","List1B","black","man","","","","null","","","","","","","","",""
"null","is copying","","html-keyboard-response","362","1930577","0.0-19.0-2.9","8597","List1B","black","man","","","","null","","","","","","","","",""
"13718.800000000745","","","survey-text","363","1944298","0.0-19.0-3.9","8597","List1B","black","man","","","","","{""Q0"":""Dave is copying ruth""}","<img src=""stim_listB/copy3.gif""style=""height:400px;""></stim_listB>","is copying","","","","","",""
"null","<div style=""font-size:60px;"">+</div>","","html-keyboard-response","364","1944800","0.0-19.0-0.10","8597","List1B","black","man","","","","null","","","","","","","","",""
"null","<img src=""stim_listB/greet4.gif""style=""height:400px;""></stim_listB>","","html-keyboard-response","365","1946803","0.0-19.0-1.10","8597","List1B","black","man","","","","null","","","","","","","","",""
"null","is being greeted by","","html-keyboard-response","366","1948804","0.0-19.0-2.10","8597","List1B","black","man","","","","null","","","","","","","","",""
"30944","","","survey-text","367","1979750","0.0-19.0-3.10","8597","List1B","black","man","","","","","{""Q0"":""luke is copying jane""}","<img src=""stim_listB/greet4.gif""style=""height:400px;""></stim_listB>","is being greeted by","","","","","",""
"null","<div style=""font-size:60px;"">+</div>","","html-keyboard-response","368","1980251","0.0-19.0-0.11","8597","List1B","black","man","","","","null","","","","","","","","",""
"null","<img src=""stim_listB/oppose8.gif""style=""height:400px;""></stim_listB>","","html-keyboard-response","369","1982253","0.0-19.0-1.11","8597","List1B","black","man","","","","null","","","","","","","","",""
"null","is being opposed by","","html-keyboard-response","370","1984254","0.0-19.0-2.11","8597","List1B","black","man","","","","null","","","","","","","","",""
"17089","","","survey-text","371","2001345","0.0-19.0-3.11","8597","List1B","black","man","","","","","{""Q0"":""Ruth is being opposed by Beth""}","<img src=""stim_listB/oppose8.gif""style=""height:400px;""></stim_listB>","is being opposed by","","","","","",""
"null","<div style=""font-size:60px;"">+</div>","","html-keyboard-response","372","2001846","0.0-19.0-0.12","8597","List1B","black","man","","","","null","","","","","","","","",""
"null","<img src=""stim_listB/oppose2.gif""style=""height:400px;""></stim_listB>","","html-keyboard-response","373","2003848","0.0-19.0-1.12","8597","List1B","black","man","","","","null","","","","","","","","",""
"null","is being opposed by","","html-keyboard-response","374","2005849","0.0-19.0-2.12","8597","List1B","black","man","","","","null","","","","","","","","",""
"10357.5","","","survey-text","375","2016209","0.0-19.0-3.12","8597","List1B","black","man","","","","","{""Q0"":""Beth is being opposed by fred""}","<img src=""stim_listB/oppose2.gif""style=""height:400px;""></stim_listB>","is being opposed by","","","","","",""
"null","<div style=""font-size:60px;"">+</div>","","html-keyboard-response","376","2016720","0.0-19.0-0.13","8597","List1B","black","man","","","","null","","","","","","","","",""
"null","<img src=""stim_listB/hug2.gif""style=""height:400px;""></stim_listB>","","html-keyboard-response","377","2018721","0.0-19.0-1.13","8597","List1B","black","man","","","","null","","","","","","","","",""
"null","is being hugged by","","html-keyboard-response","378","2020723","0.0-19.0-2.13","8597","List1B","black","man","","","","null","","","","","","","","",""
"8316.10000000149","","","survey-text","379","2029041","0.0-19.0-3.13","8597","List1B","black","man","","","","","{""Q0"":""mike is being hugged by kate""}","<img src=""stim_listB/hug2.gif""style=""height:400px;""></stim_listB>","is being hugged by","","","","","",""
"null","<div style=""font-size:60px;"">+</div>","","html-keyboard-response","380","2029543","0.0-19.0-0.14","8597","List1B","black","man","","","","null","","","","","","","","",""
"null","<img src=""stim_listB/shout6.gif""style=""height:400px;""></stim_listB>","","html-keyboard-response","381","2031545","0.0-19.0-1.14","8597","List1B","black","man","","","","null","","","","","","","","",""
"null","is being shouted at by","","html-keyboard-response","382","2033545","0.0-19.0-2.14","8597","List1B","black","man","","","","null","","","","","","","","",""
"13712.299999998882","","","survey-text","383","2047260","0.0-19.0-3.14","8597","List1B","black","man","","","","","{""Q0"":""mike is being shouted at by Dave""}","<img src=""stim_listB/shout6.gif""style=""height:400px;""></stim_listB>","is being shouted at by","","","","","",""
"null","<div style=""font-size:60px;"">+</div>","","html-keyboard-response","384","2047762","0.0-19.0-0.15","8597","List1B","black","man","","","","null","","","","","","","","",""
"null","<img src=""stim_listB/shout1.gif""style=""height:400px;""></stim_listB>","","html-keyboard-response","385","2049763","0.0-19.0-1.15","8597","List1B","black","man","","","","null","","","","","","","","",""
"null","is shouting at","","html-keyboard-response","386","2051764","0.0-19.0-2.15","8597","List1B","black","man","","","","null","","","","","","","","",""
"9602.60000000149","","","survey-text","387","2061369","0.0-19.0-3.15","8597","List1B","black","man","","","","","{""Q0"":""beth is shouting at Fred""}","<img src=""stim_listB/shout1.gif""style=""height:400px;""></stim_listB>","is shouting at","","","","","",""
"null","<div style=""font-size:60px;"">+</div>","","html-keyboard-response","388","2061870","0.0-19.0-0.16","8597","List1B","black","man","","","","null","","","","","","","","",""
"null","<img src=""stim_listB/greet1.gif""style=""height:400px;""></stim_listB>","","html-keyboard-response","389","2063873","0.0-19.0-1.16","8597","List1B","black","man","","","","null","","","","","","","","",""
"null","is greeting","","html-keyboard-response","390","2065874","0.0-19.0-2.16","8597","List1B","black","man","","","","null","","","","","","","","",""
"9228.599999999627","","","survey-text","391","2075106","0.0-19.0-3.16","8597","List1B","black","man","","","","","{""Q0"":""Beth is greeting mike""}","<img src=""stim_listB/greet1.gif""style=""height:400px;""></stim_listB>","is greeting","","","","","",""
"null","<div style=""font-size:60px;"">+</div>","","html-keyboard-response","392","2075620","0.0-19.0-0.17","8597","List1B","black","man","","","","null","","","","","","","","",""
"null","<img src=""stim_listB/seduce3.gif""style=""height:400px;""></stim_listB>","","html-keyboard-response","393","2077622","0.0-19.0-1.17","8597","List1B","black","man","","","","null","","","","","","","","",""
"null","is seducing","","html-keyboard-response","394","2079623","0.0-19.0-2.17","8597","List1B","black","man","","","","null","","","","","","","","",""
"9700.300000000745","","","survey-text","395","2089325","0.0-19.0-3.17","8597","List1B","black","man","","","","","{""Q0"":""jane is seducing luke""}","<img src=""stim_listB/seduce3.gif""style=""height:400px;""></stim_listB>","is seducing","","","","","",""
"null","<div style=""font-size:60px;"">+</div>","","html-keyboard-response","396","2089827","0.0-19.0-0.18","8597","List1B","black","man","","","","null","","","","","","","","",""
"null","<img src=""stim_listB/shout5.gif""style=""height:400px;""></stim_listB>","","html-keyboard-response","397","2091829","0.0-19.0-1.18","8597","List1B","black","man","","","","null","","","","","","","","",""
"null","is shouting at","","html-keyboard-response","398","2093831","0.0-19.0-2.18","8597","List1B","black","man","","","","null","","","","","","","","",""
"10295.799999998882","","","survey-text","399","2104129","0.0-19.0-3.18","8597","List1B","black","man","","","","","{""Q0"":""luke is shouting at fred""}","<img src=""stim_listB/shout5.gif""style=""height:400px;""></stim_listB>","is shouting at","","","","","",""
"null","<div style=""font-size:60px;"">+</div>","","html-keyboard-response","400","2104630","0.0-19.0-0.19","8597","List1B","black","man","","","","null","","","","","","","","",""
"null","<img src=""stim_listB/challenge4.gif""style=""height:400px;""></stim_listB>","","html-keyboard-response","401","2106632","0.0-19.0-1.19","8597","List1B","black","man","","","","null","","","","","","","","",""
"null","is being challenged by","","html-keyboard-response","402","2108634","0.0-19.0-2.19","8597","List1B","black","man","","","","null","","","","","","","","",""
"10617.700000001118","","","survey-text","403","2119254","0.0-19.0-3.19","8597","List1B","black","man","","","","","{""Q0"":""luke is being challenged by jane""}","<img src=""stim_listB/challenge4.gif""style=""height:400px;""></stim_listB>","is being challenged by","","","","","",""
"5645","<p>Thank you for completing that task.</p><p>The final part of this session is a questionnaire that will take about 4 minutes.</p><p>Press Continue.</p>","0","html-button-response","404","2124900","0.0-20.0","8597","List1B","black","man","","","","","","","","","","","","",""
"46232.59999999963","","","survey-text","405","2172140","0.0-21.0","8597","List1B","black","man","","","","","{""Q0"":""35"",""Q1"":""english"",""Q2"":""english"",""Q3"":""United States"",""Q4"":""Belizean"",""Q5"":""Black"",""Q6"":""Male""}","","","demographics","","","","",""
"2737.0999999996275","<p>Have you lived in the USA for the last 5 years or more?</p>","0","html-button-response","406","2174880","0.0-22.0","8597","List1B","black","man","","","","","","","","fiveyears","","","","",""
"3899.2000000011176","<p>Move the slider to show the extent to which you agree with the following statements.</p>","0","html-button-response","407","2179782","0.0-23.0","8597","List1B","black","man","","","","","","","","","","","","",""
"12303.400000000373","","","html-slider-response","408","2193088","0.0-24.0-0.0-0.0","8597","List1B","black","man","","","","","","","","survey_gender","42","","","I have a lot in common with the average person of my gender.","average"
"6514.200000001118","","","html-slider-response","409","2199604","0.0-24.0-0.0-0.1","8597","List1B","black","man","","","","","","","","survey_gender","48","","","I think that my gender has a lot to be proud of.","proud"
"5476.0999999996275","","","html-slider-response","410","2205082","0.0-24.0-0.0-0.2","8597","List1B","black","man","","","","","","","","survey_gender","70","","","Being around my friends gives me a good feeling.","filler"
"10550.299999998882","","","html-slider-response","411","2215634","0.0-24.0-0.0-0.3","8597","List1B","black","man","","","","","","","","survey_gender","58","","","It is not always easy for people to know what I am thinking.","filler"
"6118.4000000003725","","","html-slider-response","412","2221754","0.0-24.0-0.0-0.4","8597","List1B","black","man","","","","","","","","survey_gender","88","","","I feel solidarity with my friends.","filler"
"7120.300000000745","","","html-slider-response","413","2228875","0.0-24.0-0.0-0.5","8597","List1B","black","man","","","","","","","","survey_gender","1","","","I would say I am an animal person.","filler"
"6976.299999998882","","","html-slider-response","414","2235853","0.0-24.0-0.0-0.6","8597","List1B","black","man","","","","","","","","survey_gender","2","","","Being my gender is an important part of how I see myself.","important"
"5342.5","","","html-slider-response","415","2241197","0.0-24.0-0.0-0.7","8597","List1B","black","man","","","","","","","","survey_gender","13","","","Most of the friends in my life are very similar to me.","filler"
"4524.5999999996275","","","html-slider-response","416","2245723","0.0-24.0-0.0-0.8","8597","List1B","black","man","","","","","","","","survey_gender","100","","","I often think about my actions.","filler"
"8520.599999999627","","","html-slider-response","417","2254245","0.0-24.0-0.0-0.9","8597","List1B","black","man","","","","","","","","survey_gender","76","","","I feel a bond with my gender.","bond"
"8124.4000000003725","","","html-slider-response","418","2262371","0.0-24.0-0.0-0.10","8597","List1B","black","man","","","","","","","","survey_gender","38","","","I feel committed to my gender.","committed"
"7770.4000000003725","","","html-slider-response","419","2270143","0.0-24.0-0.0-0.11","8597","List1B","black","man","","","","","","","","survey_gender","57","","","I have a lot in common with my friends.","filler"
"3434.5","","","html-slider-response","420","2273579","0.0-24.0-0.0-0.12","8597","List1B","black","man","","","","","","","","survey_gender","71","","","I feel a bond with my friends.","filler"
"6726.700000001118","","","html-slider-response","421","2280307","0.0-24.0-0.0-0.13","8597","List1B","black","man","","","","","","","","survey_gender","80","","","I am glad to have the friends that I have.","filler"
"29038.400000000373","","","html-slider-response","422","2309347","0.0-24.0-0.0-0.14","8597","List1B","black","man","","","","","","","","survey_gender","44","","","Family is not more important to me than friendship.","filler"
"7838.200000001118","","","html-slider-response","423","2317187","0.0-24.0-0.0-0.15","8597","List1B","black","man","","","","","","","","survey_gender","55","","","Being my gender gives me a good feeling.","feeling"
"8178.300000000745","","","html-slider-response","424","2325367","0.0-24.0-0.0-0.16","8597","List1B","black","man","","","","","","","","survey_gender","25","","","People of my gender have a lot in common with each other.","common"
"7076.5","","","html-slider-response","425","2332445","0.0-24.0-0.0-0.17","8597","List1B","black","man","","","","","","","","survey_gender","9","","","The fact that I am my gender is an important part of my identity.","identity"
"6122.5","","","html-slider-response","426","2338568","0.0-24.0-0.0-0.18","8597","List1B","black","man","","","","","","","","survey_gender","30","","","I feel solidarity with my gender.","solidarity"
"16794.5","","","html-slider-response","427","2355364","0.0-24.0-0.0-0.19","8597","List1B","black","man","","","","","","","","survey_gender","11","","","Routine is not important to me.","filler"
"4776.4000000003725","","","html-slider-response","428","2360142","0.0-24.0-0.0-0.20","8597","List1B","black","man","","","","","","","","survey_gender","96","","","I consider myself a highly empathetic person.","filler"
"6682.9000000003725","","","html-slider-response","429","2366827","0.0-24.0-0.0-0.21","8597","List1B","black","man","","","","","","","","survey_gender","72","","","My friends have a lot in common with each other.","filler"
"5162.199999999255","","","html-slider-response","430","2371990","0.0-24.0-0.0-0.22","8597","List1B","black","man","","","","","","","","survey_gender","70","","","It is pleasant to be my gender.","pleasant"
"8878.400000000373","","","html-slider-response","431","2380870","0.0-24.0-0.0-0.23","8597","List1B","black","man","","","","","","","","survey_gender","20","","","People of my gender are very similar to each other.","verysimilar"
"5936.5","","","html-slider-response","432","2386808","0.0-24.0-0.0-0.24","8597","List1B","black","man","","","","","","","","survey_gender","30","","","I am similar to the average person of my gender.","similar"
"7848.200000001118","","","html-slider-response","433","2394658","0.0-24.0-0.0-0.25","8597","List1B","black","man","","","","","","","","survey_gender","76","","","My friends understand me.","filler"
"2778.5999999996275","","","html-slider-response","434","2397438","0.0-24.0-0.0-0.26","8597","List1B","black","man","","","","","","","","survey_gender","60","","","I am glad to be my gender.","glad"
"7260.800000000745","","","html-slider-response","435","2404701","0.0-24.0-0.0-0.27","8597","List1B","black","man","","","","","","","","survey_gender","17","","","I often think about the fact that I am my gender.","often"
"4820.700000001118","","","html-slider-response","436","2409523","0.0-24.0-1.0-0.0","8597","List1B","black","man","","","","","","","","survey_race","22","","","I am glad to be the age I am.","filler"
"5014.5","","","html-slider-response","437","2414539","0.0-24.0-1.0-0.1","8597","List1B","black","man","","","","","","","","survey_race","41","","","People my age have a lot in common with each other.","filler"
"4356.5999999996275","","","html-slider-response","438","2418897","0.0-24.0-1.0-0.2","8597","List1B","black","man","","","","","","","","survey_race","20","","","Getting older does not worry me.","filler"
"7142.5","","","html-slider-response","439","2426041","0.0-24.0-1.0-0.3","8597","List1B","black","man","","","","","","","","survey_race","14","","","I am similar to the average person of my race.","similar"
"4242.5","","","html-slider-response","440","2430285","0.0-24.0-1.0-0.4","8597","List1B","black","man","","","","","","","","survey_race","27","","","I feel a bond with my race.","bond"
"5470.4000000003725","","","html-slider-response","441","2435757","0.0-24.0-1.0-0.5","8597","List1B","black","man","","","","","","","","survey_race","27","","","It is pleasant to be my race.","pleasant"
"11466.400000000373","","","html-slider-response","442","2447225","0.0-24.0-1.0-0.6","8597","List1B","black","man","","","","","","","","survey_race","40","","","I have a lot in common with people of a similar age to me.","filler"
"9680.200000001118","","","html-slider-response","443","2456906","0.0-24.0-1.0-0.7","8597","List1B","black","man","","","","","","","","survey_race","32","","","Being my age gives me a good feeling.","filler"
"7488.299999998882","","","html-slider-response","444","2464396","0.0-24.0-1.0-0.8","8597","List1B","black","man","","","","","","","","survey_race","37","","","I often think about the fact that I am my race.","often"
"5012.299999998882","","","html-slider-response","445","2469410","0.0-24.0-1.0-0.9","8597","List1B","black","man","","","","","","","","survey_race","20","","","I feel solidarity with my race.","solidarity"
"8168.799999998882","","","html-slider-response","446","2477580","0.0-24.0-1.0-0.10","8597","List1B","black","man","","","","","","","","survey_race","64","","","The older I get, the wiser I feel.","filler"
"7546.5","","","html-slider-response","447","2485128","0.0-24.0-1.0-0.11","8597","List1B","black","man","","","","","","","","survey_race","0","","","I consider myself an extrovert.","filler"
"4804.5","","","html-slider-response","448","2489934","0.0-24.0-1.0-0.12","8597","List1B","black","man","","","","","","","","survey_race","34","","","I am glad to be my age.","filler"
"5534.5","","","html-slider-response","449","2495470","0.0-24.0-1.0-0.13","8597","List1B","black","man","","","","","","","","survey_race","100","","","I consider myself an introvert.","filler"
"6348.5999999996275","","","html-slider-response","450","2501820","0.0-24.0-1.0-0.14","8597","List1B","black","man","","","","","","","","survey_race","24","","","People of my race are very similar to each other.","verysimilar"
"7804.5999999996275","","","html-slider-response","451","2509626","0.0-24.0-1.0-0.15","8597","List1B","black","man","","","","","","","","survey_race","28","","","I enjoy being in large groups.","filler"
"5738.4000000003725","","","html-slider-response","452","2515366","0.0-24.0-1.0-0.16","8597","List1B","black","man","","","","","","","","survey_race","29","","","The fact that I am my race is an important part of my identity.","identity"
"6518.4000000003725","","","html-slider-response","453","2521885","0.0-24.0-1.0-0.17","8597","List1B","black","man","","","","","","","","survey_race","23","","","Being my race gives me a good feeling.","feeling"
"10030.800000000745","","","html-slider-response","454","2531917","0.0-24.0-1.0-0.18","8597","List1B","black","man","","","","","","","","survey_race","57","","","I think that my race has a lot to be proud of.","proud"
"5736.300000000745","","","html-slider-response","455","2537655","0.0-24.0-1.0-0.19","8597","List1B","black","man","","","","","","","","survey_race","24","","","I often think about the fact that I am my age.","filler"
"5400.300000000745","","","html-slider-response","456","2543057","0.0-24.0-1.0-0.20","8597","List1B","black","man","","","","","","","","survey_race","71","","","I feel a bond with people the same age as me.","filler"
"7248.60000000149","","","html-slider-response","457","2550307","0.0-24.0-1.0-0.21","8597","List1B","black","man","","","","","","","","survey_race","20","","","People of my race have a lot in common with each other.","common"
"3420.2999999988824","","","html-slider-response","458","2553729","0.0-24.0-1.0-0.22","8597","List1B","black","man","","","","","","","","survey_race","30","","","Being my race is an important part of how I see myself.","important"
"5129.10000000149","","","html-slider-response","459","2558859","0.0-24.0-1.0-0.23","8597","List1B","black","man","","","","","","","","survey_race","54","","","I feel solidarity with people the same age as me.","filler"
"4664.299999998882","","","html-slider-response","460","2563525","0.0-24.0-1.0-0.24","8597","List1B","black","man","","","","","","","","survey_race","23","","","I have a lot in common with the average person of my race.","average"
"6804.799999998882","","","html-slider-response","461","2570331","0.0-24.0-1.0-0.25","8597","List1B","black","man","","","","","","","","survey_race","33","","","My age is not an important part of who I am.","filler"
"3162.60000000149","","","html-slider-response","462","2573495","0.0-24.0-1.0-0.26","8597","List1B","black","man","","","","","","","","survey_race","35","","","I feel committed to my race.","committed"
"2184.7999999988824","","","html-slider-response","463","2575681","0.0-24.0-1.0-0.27","8597","List1B","black","man","","","","","","","","survey_race","36","","","I am glad to be my race.","glad"
"13655.300000000745","","","survey-text","464","2589340","0.0-25.0","8597","List1B","black","man","","","","","{""Q0"":""611d7710ead2f2cbb759ddf9""}","","","worker_id","","","","",""
"24050.5","","","external-html","465","2614102","0.0-26.0","8597","List1B","black","man","debrief.html","","","","","","","","","","","",""
