rt,stimulus,button_pressed,trial_type,trial_index,time_elapsed,internal_node_id,subject,list,ppt_race,ppt_gender,url,first_guess,correct,key_press,responses,image_type,phrase_type,test_part,response,stimulus1,stimulus2,question_type,survey_item
2486.1,Welcome to the experiment. Press Continue to begin.,0,html-button-response,0,2489,0.0-0.0,86276,List1B,white,man,,,,,,,,,,,,,
54014.1,,,external-html,1,57683,0.0-1.0,86276,List1B,white,man,consent.html,,,,,,,,,,,,
17134.9,"<p>On the next page, you will see portraits of 8 people and their names.</p><p>Your first task is to take a few minutes to memorise the names of these people.</p><p>You will have to recall their names during the rest of the experiment, so it is</p><p>essential that you try to memorise these people and their names as best as you can.</p><br><p><strong>You will then be tested on your memory of these names and portraits.</strong></p><br><p>The experiment will start after you have completed this memory test.</p><br><p>Ready?</p>",0,html-button-response,2,74818,0.0-2.0,86276,List1B,white,man,,,,,,,,,,,,,
58984.3,"<img src='img/portrait_matrix_list1.jpg' style='width:900px;height:500px;''></img><p>If you have memorised all the portraits and names and are ready to start, press Continue.</p><p><strong>Please note: Your memory of these faces will be tested 4 times during this experiment.</strong></p>",0,html-button-response,3,134802,0.0-3.0-0.0,86276,List1B,white,man,,,,,,,,,,,,,
9326.7,"<img src=""portrait/BW1.jpg""style=""height:400px;""></img>",0,html-button-response,4,145131,0.0-3.0-1.0,86276,List1B,white,man,,TRUE,0,,,,,,,,,,
null,CORRECT,,html-keyboard-response,5,146643,0.0-3.0-2.0-0.0,86276,List1B,white,man,,,,null,,,,,,,,,
2861.7,"<img src=""portrait/BW2.jpg""style=""height:400px;""></img>",2,html-button-response,6,149507,0.0-3.0-4.0,86276,List1B,white,man,,TRUE,2,,,,,,,,,,
null,CORRECT,,html-keyboard-response,7,151011,0.0-3.0-5.0-0.0,86276,List1B,white,man,,,,null,,,,,,,,,
7775.8,"<img src=""portrait/WM2.jpg""style=""height:400px;""></img>",7,html-button-response,8,158788,0.0-3.0-7.0,86276,List1B,white,man,,TRUE,7,,,,,,,,,,
null,CORRECT,,html-keyboard-response,9,160294,0.0-3.0-8.0-0.0,86276,List1B,white,man,,,,null,,,,,,,,,
3025.7,"<img src=""portrait/BM1.jpg""style=""height:400px;""></img>",4,html-button-response,10,163322,0.0-3.0-10.0,86276,List1B,white,man,,TRUE,4,,,,,,,,,,
null,CORRECT,,html-keyboard-response,11,164828,0.0-3.0-11.0-0.0,86276,List1B,white,man,,,,null,,,,,,,,,
2913.5,"<img src=""portrait/WW2.jpg""style=""height:400px;""></img>",3,html-button-response,12,167743,0.0-3.0-13.0,86276,List1B,white,man,,TRUE,3,,,,,,,,,,
null,CORRECT,,html-keyboard-response,13,169252,0.0-3.0-14.0-0.0,86276,List1B,white,man,,,,null,,,,,,,,,
4780,"<img src=""portrait/WW1.jpg""style=""height:400px;""></img>",1,html-button-response,14,174033,0.0-3.0-16.0,86276,List1B,white,man,,TRUE,1,,,,,,,,,,
null,CORRECT,,html-keyboard-response,15,175544,0.0-3.0-17.0-0.0,86276,List1B,white,man,,,,null,,,,,,,,,
3965.2,"<img src=""portrait/WM1.jpg""style=""height:400px;""></img>",6,html-button-response,16,179511,0.0-3.0-19.0,86276,List1B,white,man,,TRUE,6,,,,,,,,,,
null,CORRECT,,html-keyboard-response,17,181017,0.0-3.0-20.0-0.0,86276,List1B,white,man,,,,null,,,,,,,,,
4871.7,"<img src=""portrait/BM2.jpg""style=""height:400px;""></img>",5,html-button-response,18,185889,0.0-3.0-22.0,86276,List1B,white,man,,TRUE,5,,,,,,,,,,
null,CORRECT,,html-keyboard-response,19,187396,0.0-3.0-23.0-0.0,86276,List1B,white,man,,,,null,,,,,,,,,
2902.5,<p>You got 8 out of 8 right first time. Press Continue.</p>,0,html-button-response,20,190300,0.0-3.0-25.0,86276,List1B,white,man,,,,,,,,,,,,,
47487.2,"<p>In this experiment, you will view photographs of the people from the memory game interacting.</p><p>By using the <strong>exact</strong> phrase given <i>after</i> the photograph appears and recalling the correct names of the people in the photographs, form a sentence describing the interaction. You do not need to capitalise names.</p><p>Type your answer in the space provided. Please complete every sentence before moving onto the next trial.</p><p>You will only have a few seconds to memorise each given photograph and phrase before you can respond, so try your best to focus.</p><p>An example is given below. Press 'Continue' when you are ready.</p><img src='img/speaking_example.jpg' style='width:800px;height:460px;''></img>",0,html-button-response,21,238788,0.0-4.0,86276,List1B,white,man,,,,,,,,,,,,,
2812.6,"<p>Before the experiment starts, you will watch two example trials. Press 'Continue'.</p>",0,html-button-response,22,242602,0.0-5.0,86276,List1B,white,man,,,,,,,,,,,,,
null,<img src='img/play_eg.gif' style='height:400px;''></img>,,html-keyboard-response,23,245609,0.0-6.0,86276,List1B,white,man,,,,null,,,,,,,,,
null,<p>is playing with</p>,,html-keyboard-response,24,247614,0.0-7.0,86276,List1B,white,man,,,,null,,,,,,,,,
8442.5,<p><b>Answer:</b> kate is playing with beth</p>,0,html-button-response,25,256057,0.0-8.0,86276,List1B,white,man,,,,,,,,,,,,,
null,<img src='img/dance_eg.gif' style='height:400px;''></img>,,html-keyboard-response,26,259063,0.0-9.0,86276,List1B,white,man,,,,null,,,,,,,,,
null,<p>is being entertained by</p>,,html-keyboard-response,27,261067,0.0-10.0,86276,List1B,white,man,,,,null,,,,,,,,,
4540.4,<p><b>Answer:</b> luke is being entertained by dave</p>,0,html-button-response,28,265608,0.0-11.0,86276,List1B,white,man,,,,,,,,,,,,,
19032.8,"<p>Ready to start the experiment?</p><br><p><strong>Remember to describe the picture using a full sentence,</strong></p><p><strong>that combines the names of the people with the <i>exact</i> phrase given.</strong></p><p><strong>To receive full payment you must do this correctly.</strong></p><p><strong> You do not need to capitalise names or use punctuation.</strong></p><br><p>Press 'Continue' to begin.</p>",0,html-button-response,29,285647,0.0-12.0,86276,List1B,white,man,,,,,,,,,,,,,
null,"<div style=""font-size:60px;"">+</div>",,html-keyboard-response,30,287149,0.0-13.0-0.0,86276,List1B,white,man,,,,null,,,,,,,,,
null,"<img src=""stim_listB/copy6.gif""style=""height:400px;""></stim_listB>",,html-keyboard-response,31,289151,0.0-13.0-1.0,86276,List1B,white,man,,,,null,,,,,,,,,
null,is being copied by,,html-keyboard-response,32,291152,0.0-13.0-2.0,86276,List1B,white,man,,,,null,,,,,,,,,
18676.3,,,survey-text,33,309831,0.0-13.0-3.0,86276,List1B,white,man,,,,,"{""Q0"":""luke is being copied by fred""}","<img src=""stim_listB/copy6.gif""style=""height:400px;""></stim_listB>",is being copied by,,,,,,
null,"<div style=""font-size:60px;"">+</div>",,html-keyboard-response,34,310333,0.0-13.0-0.1,86276,List1B,white,man,,,,null,,,,,,,,,
null,"<img src=""stim_listB/challenge1.gif""style=""height:400px;""></stim_listB>",,html-keyboard-response,35,312340,0.0-13.0-1.1,86276,List1B,white,man,,,,null,,,,,,,,,
null,is challenging,,html-keyboard-response,36,314343,0.0-13.0-2.1,86276,List1B,white,man,,,,null,,,,,,,,,
16693.9,,,survey-text,37,331039,0.0-13.0-3.1,86276,List1B,white,man,,,,,"{""Q0"":""mike is challenging beth""}","<img src=""stim_listB/challenge1.gif""style=""height:400px;""></stim_listB>",is challenging,,,,,,
null,"<div style=""font-size:60px;"">+</div>",,html-keyboard-response,38,331540,0.0-13.0-0.2,86276,List1B,white,man,,,,null,,,,,,,,,
null,"<img src=""stim_listB/shout2.gif""style=""height:400px;""></stim_listB>",,html-keyboard-response,39,333545,0.0-13.0-1.2,86276,List1B,white,man,,,,null,,,,,,,,,
null,is being shouted at by,,html-keyboard-response,40,335550,0.0-13.0-2.2,86276,List1B,white,man,,,,null,,,,,,,,,
25292.6,,,survey-text,41,360846,0.0-13.0-3.2,86276,List1B,white,man,,,,,"{""Q0"":""mike is being shouted at by kate""}","<img src=""stim_listB/shout2.gif""style=""height:400px;""></stim_listB>",is being shouted at by,,,,,,
null,"<div style=""font-size:60px;"">+</div>",,html-keyboard-response,42,361347,0.0-13.0-0.3,86276,List1B,white,man,,,,null,,,,,,,,,
null,"<img src=""stim_listB/oppose1.gif""style=""height:400px;""></stim_listB>",,html-keyboard-response,43,363350,0.0-13.0-1.3,86276,List1B,white,man,,,,null,,,,,,,,,
null,is opposing,,html-keyboard-response,44,365356,0.0-13.0-2.3,86276,List1B,white,man,,,,null,,,,,,,,,
15563.9,,,survey-text,45,380922,0.0-13.0-3.3,86276,List1B,white,man,,,,,"{""Q0"":""kate is opposing mike""}","<img src=""stim_listB/oppose1.gif""style=""height:400px;""></stim_listB>",is opposing,,,,,,
null,"<div style=""font-size:60px;"">+</div>",,html-keyboard-response,46,381423,0.0-13.0-0.4,86276,List1B,white,man,,,,null,,,,,,,,,
null,"<img src=""stim_listB/oppose2.gif""style=""height:400px;""></stim_listB>",,html-keyboard-response,47,383429,0.0-13.0-1.4,86276,List1B,white,man,,,,null,,,,,,,,,
null,is being opposed by,,html-keyboard-response,48,385434,0.0-13.0-2.4,86276,List1B,white,man,,,,null,,,,,,,,,
21294.4,,,survey-text,49,406730,0.0-13.0-3.4,86276,List1B,white,man,,,,,"{""Q0"":""fred is being opposed by beth""}","<img src=""stim_listB/oppose2.gif""style=""height:400px;""></stim_listB>",is being opposed by,,,,,,
null,"<div style=""font-size:60px;"">+</div>",,html-keyboard-response,50,407233,0.0-13.0-0.5,86276,List1B,white,man,,,,null,,,,,,,,,
null,"<img src=""stim_listB/kiss1.gif""style=""height:400px;""></stim_listB>",,html-keyboard-response,51,409234,0.0-13.0-1.5,86276,List1B,white,man,,,,null,,,,,,,,,
null,is kissing,,html-keyboard-response,52,411235,0.0-13.0-2.5,86276,List1B,white,man,,,,null,,,,,,,,,
11557.4,,,survey-text,53,422795,0.0-13.0-3.5,86276,List1B,white,man,,,,,"{""Q0"":""fred is kissing beth""}","<img src=""stim_listB/kiss1.gif""style=""height:400px;""></stim_listB>",is kissing,,,,,,
null,"<div style=""font-size:60px;"">+</div>",,html-keyboard-response,54,423300,0.0-13.0-0.6,86276,List1B,white,man,,,,null,,,,,,,,,
null,"<img src=""stim_listB/challenge5.gif""style=""height:400px;""></stim_listB>",,html-keyboard-response,55,425305,0.0-13.0-1.6,86276,List1B,white,man,,,,null,,,,,,,,,
null,is challenging,,html-keyboard-response,56,427310,0.0-13.0-2.6,86276,List1B,white,man,,,,null,,,,,,,,,
10940.3,,,survey-text,57,438253,0.0-13.0-3.6,86276,List1B,white,man,,,,,"{""Q0"":""luke is challenging mike""}","<img src=""stim_listB/challenge5.gif""style=""height:400px;""></stim_listB>",is challenging,,,,,,
null,"<div style=""font-size:60px;"">+</div>",,html-keyboard-response,58,438755,0.0-13.0-0.7,86276,List1B,white,man,,,,null,,,,,,,,,
null,"<img src=""stim_listB/challenge8.gif""style=""height:400px;""></stim_listB>",,html-keyboard-response,59,440761,0.0-13.0-1.7,86276,List1B,white,man,,,,null,,,,,,,,,
null,is being challenged by,,html-keyboard-response,60,442763,0.0-13.0-2.7,86276,List1B,white,man,,,,null,,,,,,,,,
21880.4,,,survey-text,61,464646,0.0-13.0-3.7,86276,List1B,white,man,,,,,"{""Q0"":""jane is being challenged by kate""}","<img src=""stim_listB/challenge8.gif""style=""height:400px;""></stim_listB>",is being challenged by,,,,,,
null,"<div style=""font-size:60px;"">+</div>",,html-keyboard-response,62,465150,0.0-13.0-0.8,86276,List1B,white,man,,,,null,,,,,,,,,
null,"<img src=""stim_listB/greet5.gif""style=""height:400px;""></stim_listB>",,html-keyboard-response,63,467154,0.0-13.0-1.8,86276,List1B,white,man,,,,null,,,,,,,,,
null,is greeting,,html-keyboard-response,64,469159,0.0-13.0-2.8,86276,List1B,white,man,,,,null,,,,,,,,,
11820.1,,,survey-text,65,480982,0.0-13.0-3.8,86276,List1B,white,man,,,,,"{""Q0"":""luke is greeting mike""}","<img src=""stim_listB/greet5.gif""style=""height:400px;""></stim_listB>",is greeting,,,,,,
null,"<div style=""font-size:60px;"">+</div>",,html-keyboard-response,66,481483,0.0-13.0-0.9,86276,List1B,white,man,,,,null,,,,,,,,,
null,"<img src=""stim_listB/hug1.gif""style=""height:400px;""></stim_listB>",,html-keyboard-response,67,483485,0.0-13.0-1.9,86276,List1B,white,man,,,,null,,,,,,,,,
null,is hugging,,html-keyboard-response,68,485490,0.0-13.0-2.9,86276,List1B,white,man,,,,null,,,,,,,,,
10407.7,,,survey-text,69,495899,0.0-13.0-3.9,86276,List1B,white,man,,,,,"{""Q0"":""beth is hugging fred""}","<img src=""stim_listB/hug1.gif""style=""height:400px;""></stim_listB>",is hugging,,,,,,
null,"<div style=""font-size:60px;"">+</div>",,html-keyboard-response,70,496403,0.0-13.0-0.10,86276,List1B,white,man,,,,null,,,,,,,,,
null,"<img src=""stim_listB/copy1.gif""style=""height:400px;""></stim_listB>",,html-keyboard-response,71,498404,0.0-13.0-1.10,86276,List1B,white,man,,,,null,,,,,,,,,
null,is copying,,html-keyboard-response,72,500405,0.0-13.0-2.10,86276,List1B,white,man,,,,null,,,,,,,,,
11174.3,,,survey-text,73,511582,0.0-13.0-3.10,86276,List1B,white,man,,,,,"{""Q0"":""beth is copying mike""}","<img src=""stim_listB/copy1.gif""style=""height:400px;""></stim_listB>",is copying,,,,,,
null,"<div style=""font-size:60px;"">+</div>",,html-keyboard-response,74,512088,0.0-13.0-0.11,86276,List1B,white,man,,,,null,,,,,,,,,
null,"<img src=""stim_listB/touch2.gif""style=""height:400px;""></stim_listB>",,html-keyboard-response,75,514094,0.0-13.0-1.11,86276,List1B,white,man,,,,null,,,,,,,,,
null,is being touched by,,html-keyboard-response,76,516099,0.0-13.0-2.11,86276,List1B,white,man,,,,null,,,,,,,,,
11478.1,,,survey-text,77,527580,0.0-13.0-3.11,86276,List1B,white,man,,,,,"{""Q0"":""fred is being touched by beth""}","<img src=""stim_listB/touch2.gif""style=""height:400px;""></stim_listB>",is being touched by,,,,,,
null,"<div style=""font-size:60px;"">+</div>",,html-keyboard-response,78,528086,0.0-13.0-0.12,86276,List1B,white,man,,,,null,,,,,,,,,
null,"<img src=""stim_listB/kiss7.gif""style=""height:400px;""></stim_listB>",,html-keyboard-response,79,530087,0.0-13.0-1.12,86276,List1B,white,man,,,,null,,,,,,,,,
null,is kissing,,html-keyboard-response,80,532089,0.0-13.0-2.12,86276,List1B,white,man,,,,null,,,,,,,,,
15232.3,,,survey-text,81,547324,0.0-13.0-3.12,86276,List1B,white,man,,,,,"{""Q0"":""jane is kissing beth""}","<img src=""stim_listB/kiss7.gif""style=""height:400px;""></stim_listB>",is kissing,,,,,,
null,"<div style=""font-size:60px;"">+</div>",,html-keyboard-response,82,547830,0.0-13.0-0.13,86276,List1B,white,man,,,,null,,,,,,,,,
null,"<img src=""stim_listB/hug2.gif""style=""height:400px;""></stim_listB>",,html-keyboard-response,83,549835,0.0-13.0-1.13,86276,List1B,white,man,,,,null,,,,,,,,,
null,is being hugged by,,html-keyboard-response,84,551837,0.0-13.0-2.13,86276,List1B,white,man,,,,null,,,,,,,,,
13146.9,,,survey-text,85,564987,0.0-13.0-3.13,86276,List1B,white,man,,,,,"{""Q0"":""mike is being hugged by kate""}","<img src=""stim_listB/hug2.gif""style=""height:400px;""></stim_listB>",is being hugged by,,,,,,
null,"<div style=""font-size:60px;"">+</div>",,html-keyboard-response,86,565488,0.0-13.0-0.14,86276,List1B,white,man,,,,null,,,,,,,,,
null,"<img src=""stim_listB/seduce3.gif""style=""height:400px;""></stim_listB>",,html-keyboard-response,87,567490,0.0-13.0-1.14,86276,List1B,white,man,,,,null,,,,,,,,,
null,is seducing,,html-keyboard-response,88,569491,0.0-13.0-2.14,86276,List1B,white,man,,,,null,,,,,,,,,
12649.7,,,survey-text,89,582143,0.0-13.0-3.14,86276,List1B,white,man,,,,,"{""Q0"":""jane is seducing luke""}","<img src=""stim_listB/seduce3.gif""style=""height:400px;""></stim_listB>",is seducing,,,,,,
null,"<div style=""font-size:60px;"">+</div>",,html-keyboard-response,90,582649,0.0-13.0-0.15,86276,List1B,white,man,,,,null,,,,,,,,,
null,"<img src=""stim_listB/kiss3.gif""style=""height:400px;""></stim_listB>",,html-keyboard-response,91,584650,0.0-13.0-1.15,86276,List1B,white,man,,,,null,,,,,,,,,
null,is kissing,,html-keyboard-response,92,586655,0.0-13.0-2.15,86276,List1B,white,man,,,,null,,,,,,,,,
22532,,,survey-text,93,609190,0.0-13.0-3.15,86276,List1B,white,man,,,,,"{""Q0"":""jane is kissing luke""}","<img src=""stim_listB/kiss3.gif""style=""height:400px;""></stim_listB>",is kissing,,,,,,
null,"<div style=""font-size:60px;"">+</div>",,html-keyboard-response,94,609692,0.0-13.0-0.16,86276,List1B,white,man,,,,null,,,,,,,,,
null,"<img src=""stim_listB/challenge7.gif""style=""height:400px;""></stim_listB>",,html-keyboard-response,95,611696,0.0-13.0-1.16,86276,List1B,white,man,,,,null,,,,,,,,,
null,is challenging,,html-keyboard-response,96,613700,0.0-13.0-2.16,86276,List1B,white,man,,,,null,,,,,,,,,
9840.4,,,survey-text,97,623543,0.0-13.0-3.16,86276,List1B,white,man,,,,,"{""Q0"":""jane is challenging kate""}","<img src=""stim_listB/challenge7.gif""style=""height:400px;""></stim_listB>",is challenging,,,,,,
null,"<div style=""font-size:60px;"">+</div>",,html-keyboard-response,98,624047,0.0-13.0-0.17,86276,List1B,white,man,,,,null,,,,,,,,,
null,"<img src=""stim_listB/look5.gif""style=""height:400px;""></stim_listB>",,html-keyboard-response,99,626050,0.0-13.0-1.17,86276,List1B,white,man,,,,null,,,,,,,,,
null,is looking at,,html-keyboard-response,100,628050,0.0-13.0-2.17,86276,List1B,white,man,,,,null,,,,,,,,,
8405.6,,,survey-text,101,636459,0.0-13.0-3.17,86276,List1B,white,man,,,,,"{""Q0"":""luke is looking at fred""}","<img src=""stim_listB/look5.gif""style=""height:400px;""></stim_listB>",is looking at,,,,,,
null,"<div style=""font-size:60px;"">+</div>",,html-keyboard-response,102,636961,0.0-13.0-0.18,86276,List1B,white,man,,,,null,,,,,,,,,
null,"<img src=""stim_listB/shout6.gif""style=""height:400px;""></stim_listB>",,html-keyboard-response,103,638968,0.0-13.0-1.18,86276,List1B,white,man,,,,null,,,,,,,,,
null,is being shouted at by,,html-keyboard-response,104,640969,0.0-13.0-2.18,86276,List1B,white,man,,,,null,,,,,,,,,
15343.9,,,survey-text,105,656315,0.0-13.0-3.18,86276,List1B,white,man,,,,,"{""Q0"":""mike is being shouted at luke""}","<img src=""stim_listB/shout6.gif""style=""height:400px;""></stim_listB>",is being shouted at by,,,,,,
null,"<div style=""font-size:60px;"">+</div>",,html-keyboard-response,106,656816,0.0-13.0-0.19,86276,List1B,white,man,,,,null,,,,,,,,,
null,"<img src=""stim_listB/greet6.gif""style=""height:400px;""></stim_listB>",,html-keyboard-response,107,658817,0.0-13.0-1.19,86276,List1B,white,man,,,,null,,,,,,,,,
null,is being greeted by,,html-keyboard-response,108,660822,0.0-13.0-2.19,86276,List1B,white,man,,,,null,,,,,,,,,
14490.6,,,survey-text,109,675315,0.0-13.0-3.19,86276,List1B,white,man,,,,,"{""Q0"":""fred is being greeted by dave""}","<img src=""stim_listB/greet6.gif""style=""height:400px;""></stim_listB>",is being greeted by,,,,,,
24323.8,"<img src='img/portrait_matrix_list1.jpg' style='width:900px;height:500px;''></img><p>If you have memorised all the portraits and names and are ready to start, press Continue.</p><p><strong>Please note: Your memory of these faces will be tested 4 times during this experiment.</strong></p>",0,html-button-response,110,699639,0.0-14.0-0.0,86276,List1B,white,man,,,,,,,,,,,,,
5186.3,"<img src=""portrait/WM2.jpg""style=""height:400px;""></img>",7,html-button-response,111,705829,0.0-14.0-1.0,86276,List1B,white,man,,TRUE,7,,,,,,,,,,
null,CORRECT,,html-keyboard-response,112,707334,0.0-14.0-2.0-0.0,86276,List1B,white,man,,,,null,,,,,,,,,
2913.4,"<img src=""portrait/BM1.jpg""style=""height:400px;""></img>",4,html-button-response,113,710249,0.0-14.0-4.0,86276,List1B,white,man,,TRUE,4,,,,,,,,,,
null,CORRECT,,html-keyboard-response,114,711755,0.0-14.0-5.0-0.0,86276,List1B,white,man,,,,null,,,,,,,,,
10059.1,"<img src=""portrait/BW2.jpg""style=""height:400px;""></img>",2,html-button-response,115,721816,0.0-14.0-7.0,86276,List1B,white,man,,TRUE,2,,,,,,,,,,
null,CORRECT,,html-keyboard-response,116,723318,0.0-14.0-8.0-0.0,86276,List1B,white,man,,,,null,,,,,,,,,
2534.3,"<img src=""portrait/BM2.jpg""style=""height:400px;""></img>",5,html-button-response,117,725854,0.0-14.0-10.0,86276,List1B,white,man,,TRUE,5,,,,,,,,,,
null,CORRECT,,html-keyboard-response,118,727366,0.0-14.0-11.0-0.0,86276,List1B,white,man,,,,null,,,,,,,,,
1703,"<img src=""portrait/WW2.jpg""style=""height:400px;""></img>",3,html-button-response,119,729070,0.0-14.0-13.0,86276,List1B,white,man,,TRUE,3,,,,,,,,,,
null,CORRECT,,html-keyboard-response,120,730580,0.0-14.0-14.0-0.0,86276,List1B,white,man,,,,null,,,,,,,,,
3741.9,"<img src=""portrait/BW1.jpg""style=""height:400px;""></img>",0,html-button-response,121,734323,0.0-14.0-16.0,86276,List1B,white,man,,TRUE,0,,,,,,,,,,
null,CORRECT,,html-keyboard-response,122,735834,0.0-14.0-17.0-0.0,86276,List1B,white,man,,,,null,,,,,,,,,
2618.7,"<img src=""portrait/WM1.jpg""style=""height:400px;""></img>",6,html-button-response,123,738454,0.0-14.0-19.0,86276,List1B,white,man,,TRUE,6,,,,,,,,,,
null,CORRECT,,html-keyboard-response,124,739957,0.0-14.0-20.0-0.0,86276,List1B,white,man,,,,null,,,,,,,,,
3286.7,"<img src=""portrait/WW1.jpg""style=""height:400px;""></img>",1,html-button-response,125,743246,0.0-14.0-22.0,86276,List1B,white,man,,TRUE,1,,,,,,,,,,
null,CORRECT,,html-keyboard-response,126,744754,0.0-14.0-23.0-0.0,86276,List1B,white,man,,,,null,,,,,,,,,
2800.9,<p>You got 8 out of 8 right first time. Press Continue.</p>,0,html-button-response,127,747556,0.0-14.0-25.0,86276,List1B,white,man,,,,,,,,,,,,,
null,"<div style=""font-size:60px;"">+</div>",,html-keyboard-response,128,749066,0.0-15.0-0.0,86276,List1B,white,man,,,,null,,,,,,,,,
null,"<img src=""stim_listB/kiss5.gif""style=""height:400px;""></stim_listB>",,html-keyboard-response,129,751071,0.0-15.0-1.0,86276,List1B,white,man,,,,null,,,,,,,,,
null,is kissing,,html-keyboard-response,130,753072,0.0-15.0-2.0,86276,List1B,white,man,,,,null,,,,,,,,,
12962.6,,,survey-text,131,766038,0.0-15.0-3.0,86276,List1B,white,man,,,,,"{""Q0"":""luke is kissing fred""}","<img src=""stim_listB/kiss5.gif""style=""height:400px;""></stim_listB>",is kissing,,,,,,
null,"<div style=""font-size:60px;"">+</div>",,html-keyboard-response,132,766540,0.0-15.0-0.1,86276,List1B,white,man,,,,null,,,,,,,,,
null,"<img src=""stim_listB/greet2.gif""style=""height:400px;""></stim_listB>",,html-keyboard-response,133,768546,0.0-15.0-1.1,86276,List1B,white,man,,,,null,,,,,,,,,
null,is being greeted by,,html-keyboard-response,134,770547,0.0-15.0-2.1,86276,List1B,white,man,,,,null,,,,,,,,,
23186.6,,,survey-text,135,793736,0.0-15.0-3.1,86276,List1B,white,man,,,,,"{""Q0"":""fred is being greeted at by kate""}","<img src=""stim_listB/greet2.gif""style=""height:400px;""></stim_listB>",is being greeted by,,,,,,
null,"<div style=""font-size:60px;"">+</div>",,html-keyboard-response,136,794239,0.0-15.0-0.2,86276,List1B,white,man,,,,null,,,,,,,,,
null,"<img src=""stim_listB/look2.gif""style=""height:400px;""></stim_listB>",,html-keyboard-response,137,796241,0.0-15.0-1.2,86276,List1B,white,man,,,,null,,,,,,,,,
null,is being looked at by,,html-keyboard-response,138,798242,0.0-15.0-2.2,86276,List1B,white,man,,,,null,,,,,,,,,
11984.1,,,survey-text,139,810229,0.0-15.0-3.2,86276,List1B,white,man,,,,,"{""Q0"":""mike is being looked at by kate""}","<img src=""stim_listB/look2.gif""style=""height:400px;""></stim_listB>",is being looked at by,,,,,,
null,"<div style=""font-size:60px;"">+</div>",,html-keyboard-response,140,810733,0.0-15.0-0.3,86276,List1B,white,man,,,,null,,,,,,,,,
null,"<img src=""stim_listB/seduce1.gif""style=""height:400px;""></stim_listB>",,html-keyboard-response,141,812739,0.0-15.0-1.3,86276,List1B,white,man,,,,null,,,,,,,,,
null,is seducing,,html-keyboard-response,142,814743,0.0-15.0-2.3,86276,List1B,white,man,,,,null,,,,,,,,,
10918.4,,,survey-text,143,825664,0.0-15.0-3.3,86276,List1B,white,man,,,,,"{""Q0"":""kate is seducing fred""}","<img src=""stim_listB/seduce1.gif""style=""height:400px;""></stim_listB>",is seducing,,,,,,
null,"<div style=""font-size:60px;"">+</div>",,html-keyboard-response,144,826167,0.0-15.0-0.4,86276,List1B,white,man,,,,null,,,,,,,,,
null,"<img src=""stim_listB/hug7.gif""style=""height:400px;""></stim_listB>",,html-keyboard-response,145,828172,0.0-15.0-1.4,86276,List1B,white,man,,,,null,,,,,,,,,
null,is hugging,,html-keyboard-response,146,830176,0.0-15.0-2.4,86276,List1B,white,man,,,,null,,,,,,,,,
7657.6,,,survey-text,147,837837,0.0-15.0-3.4,86276,List1B,white,man,,,,,"{""Q0"":""beth is hugging jane""}","<img src=""stim_listB/hug7.gif""style=""height:400px;""></stim_listB>",is hugging,,,,,,
null,"<div style=""font-size:60px;"">+</div>",,html-keyboard-response,148,838343,0.0-15.0-0.5,86276,List1B,white,man,,,,null,,,,,,,,,
null,"<img src=""stim_listB/kiss6.gif""style=""height:400px;""></stim_listB>",,html-keyboard-response,149,840347,0.0-15.0-1.5,86276,List1B,white,man,,,,null,,,,,,,,,
null,is being kissed by,,html-keyboard-response,150,842350,0.0-15.0-2.5,86276,List1B,white,man,,,,null,,,,,,,,,
12415.9,,,survey-text,151,854769,0.0-15.0-3.5,86276,List1B,white,man,,,,,"{""Q0"":""dave is being kissed by mike""}","<img src=""stim_listB/kiss6.gif""style=""height:400px;""></stim_listB>",is being kissed by,,,,,,
null,"<div style=""font-size:60px;"">+</div>",,html-keyboard-response,152,855270,0.0-15.0-0.6,86276,List1B,white,man,,,,null,,,,,,,,,
null,"<img src=""stim_listB/seduce4.gif""style=""height:400px;""></stim_listB>",,html-keyboard-response,153,857275,0.0-15.0-1.6,86276,List1B,white,man,,,,null,,,,,,,,,
null,is being seduced by,,html-keyboard-response,154,859280,0.0-15.0-2.6,86276,List1B,white,man,,,,null,,,,,,,,,
8456.8,,,survey-text,155,867740,0.0-15.0-3.6,86276,List1B,white,man,,,,,"{""Q0"":""dave is being seduced by jane""}","<img src=""stim_listB/seduce4.gif""style=""height:400px;""></stim_listB>",is being seduced by,,,,,,
null,"<div style=""font-size:60px;"">+</div>",,html-keyboard-response,156,868246,0.0-15.0-0.7,86276,List1B,white,man,,,,null,,,,,,,,,
null,"<img src=""stim_listB/seduce5.gif""style=""height:400px;""></stim_listB>",,html-keyboard-response,157,870248,0.0-15.0-1.7,86276,List1B,white,man,,,,null,,,,,,,,,
null,is seducing,,html-keyboard-response,158,872249,0.0-15.0-2.7,86276,List1B,white,man,,,,null,,,,,,,,,
10046.7,,,survey-text,159,882297,0.0-15.0-3.7,86276,List1B,white,man,,,,,"{""Q0"":""fred is seducing dave""}","<img src=""stim_listB/seduce5.gif""style=""height:400px;""></stim_listB>",is seducing,,,,,,
null,"<div style=""font-size:60px;"">+</div>",,html-keyboard-response,160,882803,0.0-15.0-0.8,86276,List1B,white,man,,,,null,,,,,,,,,
null,"<img src=""stim_listB/seduce7.gif""style=""height:400px;""></stim_listB>",,html-keyboard-response,161,884809,0.0-15.0-1.8,86276,List1B,white,man,,,,null,,,,,,,,,
null,is seducing,,html-keyboard-response,162,886814,0.0-15.0-2.8,86276,List1B,white,man,,,,null,,,,,,,,,
10905,,,survey-text,163,897722,0.0-15.0-3.8,86276,List1B,white,man,,,,,"{""Q0"":""jane is seducing beth""}","<img src=""stim_listB/seduce7.gif""style=""height:400px;""></stim_listB>",is seducing,,,,,,
null,"<div style=""font-size:60px;"">+</div>",,html-keyboard-response,164,898224,0.0-15.0-0.9,86276,List1B,white,man,,,,null,,,,,,,,,
null,"<img src=""stim_listB/hug5.gif""style=""height:400px;""></stim_listB>",,html-keyboard-response,165,900230,0.0-15.0-1.9,86276,List1B,white,man,,,,null,,,,,,,,,
null,is hugging,,html-keyboard-response,166,902234,0.0-15.0-2.9,86276,List1B,white,man,,,,null,,,,,,,,,
7725,,,survey-text,167,909962,0.0-15.0-3.9,86276,List1B,white,man,,,,,"{""Q0"":""luke is hugging fred""}","<img src=""stim_listB/hug5.gif""style=""height:400px;""></stim_listB>",is hugging,,,,,,
null,"<div style=""font-size:60px;"">+</div>",,html-keyboard-response,168,910467,0.0-15.0-0.10,86276,List1B,white,man,,,,null,,,,,,,,,
null,"<img src=""stim_listB/oppose6.gif""style=""height:400px;""></stim_listB>",,html-keyboard-response,169,912473,0.0-15.0-1.10,86276,List1B,white,man,,,,null,,,,,,,,,
null,is being opposed by,,html-keyboard-response,170,914479,0.0-15.0-2.10,86276,List1B,white,man,,,,null,,,,,,,,,
13716.3,,,survey-text,171,928198,0.0-15.0-3.10,86276,List1B,white,man,,,,,"{""Q0"":""luke is being opposed by fred""}","<img src=""stim_listB/oppose6.gif""style=""height:400px;""></stim_listB>",is being opposed by,,,,,,
null,"<div style=""font-size:60px;"">+</div>",,html-keyboard-response,172,928703,0.0-15.0-0.11,86276,List1B,white,man,,,,null,,,,,,,,,
null,"<img src=""stim_listB/copy4.gif""style=""height:400px;""></stim_listB>",,html-keyboard-response,173,930709,0.0-15.0-1.11,86276,List1B,white,man,,,,null,,,,,,,,,
null,is being copied by,,html-keyboard-response,174,932714,0.0-15.0-2.11,86276,List1B,white,man,,,,null,,,,,,,,,
7608.3,,,survey-text,175,940326,0.0-15.0-3.11,86276,List1B,white,man,,,,,"{""Q0"":""luke is being copied by jane""}","<img src=""stim_listB/copy4.gif""style=""height:400px;""></stim_listB>",is being copied by,,,,,,
null,"<div style=""font-size:60px;"">+</div>",,html-keyboard-response,176,940827,0.0-15.0-0.12,86276,List1B,white,man,,,,null,,,,,,,,,
null,"<img src=""stim_listB/copy5.gif""style=""height:400px;""></stim_listB>",,html-keyboard-response,177,942833,0.0-15.0-1.12,86276,List1B,white,man,,,,null,,,,,,,,,
null,is copying,,html-keyboard-response,178,944837,0.0-15.0-2.12,86276,List1B,white,man,,,,null,,,,,,,,,
7264.7,,,survey-text,179,952114,0.0-15.0-3.12,86276,List1B,white,man,,,,,"{""Q0"":""luke is copying mike""}","<img src=""stim_listB/copy5.gif""style=""height:400px;""></stim_listB>",is copying,,,,,,
null,"<div style=""font-size:60px;"">+</div>",,html-keyboard-response,180,952616,0.0-15.0-0.13,86276,List1B,white,man,,,,null,,,,,,,,,
null,"<img src=""stim_listB/look8.gif""style=""height:400px;""></stim_listB>",,html-keyboard-response,181,954626,0.0-15.0-1.13,86276,List1B,white,man,,,,null,,,,,,,,,
null,is being looked at by,,html-keyboard-response,182,956636,0.0-15.0-2.13,86276,List1B,white,man,,,,null,,,,,,,,,
12956.3,,,survey-text,183,969611,0.0-15.0-3.13,86276,List1B,white,man,,,,,"{""Q0"":""jane is being looked at by kate""}","<img src=""stim_listB/look8.gif""style=""height:400px;""></stim_listB>",is being looked at by,,,,,,
null,"<div style=""font-size:60px;"">+</div>",,html-keyboard-response,184,970113,0.0-15.0-0.14,86276,List1B,white,man,,,,null,,,,,,,,,
null,"<img src=""stim_listB/greet8.gif""style=""height:400px;""></stim_listB>",,html-keyboard-response,185,972119,0.0-15.0-1.14,86276,List1B,white,man,,,,null,,,,,,,,,
null,is being greeted by,,html-keyboard-response,186,974122,0.0-15.0-2.14,86276,List1B,white,man,,,,null,,,,,,,,,
15144,,,survey-text,187,989275,0.0-15.0-3.14,86276,List1B,white,man,,,,,"{""Q0"":""beth is being greeted at by jane""}","<img src=""stim_listB/greet8.gif""style=""height:400px;""></stim_listB>",is being greeted by,,,,,,
null,"<div style=""font-size:60px;"">+</div>",,html-keyboard-response,188,989776,0.0-15.0-0.15,86276,List1B,white,man,,,,null,,,,,,,,,
null,"<img src=""stim_listB/oppose3.gif""style=""height:400px;""></stim_listB>",,html-keyboard-response,189,991779,0.0-15.0-1.15,86276,List1B,white,man,,,,null,,,,,,,,,
null,is opposing,,html-keyboard-response,190,993784,0.0-15.0-2.15,86276,List1B,white,man,,,,null,,,,,,,,,
8020.8,,,survey-text,191,1001809,0.0-15.0-3.15,86276,List1B,white,man,,,,,"{""Q0"":""jane is opposing dave""}","<img src=""stim_listB/oppose3.gif""style=""height:400px;""></stim_listB>",is opposing,,,,,,
null,"<div style=""font-size:60px;"">+</div>",,html-keyboard-response,192,1002314,0.0-15.0-0.16,86276,List1B,white,man,,,,null,,,,,,,,,
null,"<img src=""stim_listB/copy3.gif""style=""height:400px;""></stim_listB>",,html-keyboard-response,193,1004316,0.0-15.0-1.16,86276,List1B,white,man,,,,null,,,,,,,,,
null,is copying,,html-keyboard-response,194,1006322,0.0-15.0-2.16,86276,List1B,white,man,,,,null,,,,,,,,,
8320.6,,,survey-text,195,1014646,0.0-15.0-3.16,86276,List1B,white,man,,,,,"{""Q0"":""jane is copying dave""}","<img src=""stim_listB/copy3.gif""style=""height:400px;""></stim_listB>",is copying,,,,,,
null,"<div style=""font-size:60px;"">+</div>",,html-keyboard-response,196,1015149,0.0-15.0-0.17,86276,List1B,white,man,,,,null,,,,,,,,,
null,"<img src=""stim_listB/touch1.gif""style=""height:400px;""></stim_listB>",,html-keyboard-response,197,1017154,0.0-15.0-1.17,86276,List1B,white,man,,,,null,,,,,,,,,
null,is touching,,html-keyboard-response,198,1019155,0.0-15.0-2.17,86276,List1B,white,man,,,,null,,,,,,,,,
6885.2,,,survey-text,199,1026043,0.0-15.0-3.17,86276,List1B,white,man,,,,,"{""Q0"":""mike is touching kate""}","<img src=""stim_listB/touch1.gif""style=""height:400px;""></stim_listB>",is touching,,,,,,
null,"<div style=""font-size:60px;"">+</div>",,html-keyboard-response,200,1026549,0.0-15.0-0.18,86276,List1B,white,man,,,,null,,,,,,,,,
null,"<img src=""stim_listB/greet3.gif""style=""height:400px;""></stim_listB>",,html-keyboard-response,201,1028552,0.0-15.0-1.18,86276,List1B,white,man,,,,null,,,,,,,,,
null,is greeting,,html-keyboard-response,202,1030558,0.0-15.0-2.18,86276,List1B,white,man,,,,null,,,,,,,,,
6992.3,,,survey-text,203,1037553,0.0-15.0-3.18,86276,List1B,white,man,,,,,"{""Q0"":""jane is greeting dave""}","<img src=""stim_listB/greet3.gif""style=""height:400px;""></stim_listB>",is greeting,,,,,,
null,"<div style=""font-size:60px;"">+</div>",,html-keyboard-response,204,1038059,0.0-15.0-0.19,86276,List1B,white,man,,,,null,,,,,,,,,
null,"<img src=""stim_listB/challenge4.gif""style=""height:400px;""></stim_listB>",,html-keyboard-response,205,1040062,0.0-15.0-1.19,86276,List1B,white,man,,,,null,,,,,,,,,
null,is being challenged by,,html-keyboard-response,206,1042066,0.0-15.0-2.19,86276,List1B,white,man,,,,null,,,,,,,,,
11020.4,,,survey-text,207,1053090,0.0-15.0-3.19,86276,List1B,white,man,,,,,"{""Q0"":""luke is being challenged by jane""}","<img src=""stim_listB/challenge4.gif""style=""height:400px;""></stim_listB>",is being challenged by,,,,,,
6096.9,"<img src='img/portrait_matrix_list1.jpg' style='width:900px;height:500px;''></img><p>If you have memorised all the portraits and names and are ready to start, press Continue.</p><p><strong>Please note: Your memory of these faces will be tested 4 times during this experiment.</strong></p>",0,html-button-response,208,1059188,0.0-16.0-0.0,86276,List1B,white,man,,,,,,,,,,,,,
1861.3,"<img src=""portrait/WM2.jpg""style=""height:400px;""></img>",7,html-button-response,209,1062056,0.0-16.0-1.0,86276,List1B,white,man,,TRUE,7,,,,,,,,,,
null,CORRECT,,html-keyboard-response,210,1063567,0.0-16.0-2.0-0.0,86276,List1B,white,man,,,,null,,,,,,,,,
2864.5,"<img src=""portrait/BW2.jpg""style=""height:400px;""></img>",2,html-button-response,211,1066433,0.0-16.0-4.0,86276,List1B,white,man,,TRUE,2,,,,,,,,,,
null,CORRECT,,html-keyboard-response,212,1067943,0.0-16.0-5.0-0.0,86276,List1B,white,man,,,,null,,,,,,,,,
2325.5,"<img src=""portrait/BW1.jpg""style=""height:400px;""></img>",0,html-button-response,213,1070270,0.0-16.0-7.0,86276,List1B,white,man,,TRUE,0,,,,,,,,,,
null,CORRECT,,html-keyboard-response,214,1071778,0.0-16.0-8.0-0.0,86276,List1B,white,man,,,,null,,,,,,,,,
2495.1,"<img src=""portrait/WM1.jpg""style=""height:400px;""></img>",6,html-button-response,215,1074274,0.0-16.0-10.0,86276,List1B,white,man,,TRUE,6,,,,,,,,,,
null,CORRECT,,html-keyboard-response,216,1075777,0.0-16.0-11.0-0.0,86276,List1B,white,man,,,,null,,,,,,,,,
2849.3,"<img src=""portrait/BM2.jpg""style=""height:400px;""></img>",5,html-button-response,217,1078628,0.0-16.0-13.0,86276,List1B,white,man,,TRUE,5,,,,,,,,,,
null,CORRECT,,html-keyboard-response,218,1080136,0.0-16.0-14.0-0.0,86276,List1B,white,man,,,,null,,,,,,,,,
2641.7,"<img src=""portrait/BM1.jpg""style=""height:400px;""></img>",4,html-button-response,219,1082779,0.0-16.0-16.0,86276,List1B,white,man,,TRUE,4,,,,,,,,,,
null,CORRECT,,html-keyboard-response,220,1084286,0.0-16.0-17.0-0.0,86276,List1B,white,man,,,,null,,,,,,,,,
2147.9,"<img src=""portrait/WW1.jpg""style=""height:400px;""></img>",1,html-button-response,221,1086436,0.0-16.0-19.0,86276,List1B,white,man,,TRUE,1,,,,,,,,,,
null,CORRECT,,html-keyboard-response,222,1087942,0.0-16.0-20.0-0.0,86276,List1B,white,man,,,,null,,,,,,,,,
2249.8,"<img src=""portrait/WW2.jpg""style=""height:400px;""></img>",3,html-button-response,223,1090193,0.0-16.0-22.0,86276,List1B,white,man,,TRUE,3,,,,,,,,,,
null,CORRECT,,html-keyboard-response,224,1091701,0.0-16.0-23.0-0.0,86276,List1B,white,man,,,,null,,,,,,,,,
5409,<p>You got 8 out of 8 right first time. Press Continue.</p>,0,html-button-response,225,1097111,0.0-16.0-25.0,86276,List1B,white,man,,,,,,,,,,,,,
null,"<div style=""font-size:60px;"">+</div>",,html-keyboard-response,226,1098618,0.0-17.0-0.0,86276,List1B,white,man,,,,null,,,,,,,,,
null,"<img src=""stim_listB/kiss4.gif""style=""height:400px;""></stim_listB>",,html-keyboard-response,227,1100625,0.0-17.0-1.0,86276,List1B,white,man,,,,null,,,,,,,,,
null,is being kissed by,,html-keyboard-response,228,1102627,0.0-17.0-2.0,86276,List1B,white,man,,,,null,,,,,,,,,
8523.1,,,survey-text,229,1111153,0.0-17.0-3.0,86276,List1B,white,man,,,,,"{""Q0"":""dave is being kissed by jane""}","<img src=""stim_listB/kiss4.gif""style=""height:400px;""></stim_listB>",is being kissed by,,,,,,
null,"<div style=""font-size:60px;"">+</div>",,html-keyboard-response,230,1111659,0.0-17.0-0.1,86276,List1B,white,man,,,,null,,,,,,,,,
null,"<img src=""stim_listB/hug3.gif""style=""height:400px;""></stim_listB>",,html-keyboard-response,231,1113664,0.0-17.0-1.1,86276,List1B,white,man,,,,null,,,,,,,,,
null,is hugging,,html-keyboard-response,232,1115669,0.0-17.0-2.1,86276,List1B,white,man,,,,null,,,,,,,,,
9329.2,,,survey-text,233,1125001,0.0-17.0-3.1,86276,List1B,white,man,,,,,"{""Q0"":""luke is hugging jane""}","<img src=""stim_listB/hug3.gif""style=""height:400px;""></stim_listB>",is hugging,,,,,,
null,"<div style=""font-size:60px;"">+</div>",,html-keyboard-response,234,1125502,0.0-17.0-0.2,86276,List1B,white,man,,,,null,,,,,,,,,
null,"<img src=""stim_listB/shout1.gif""style=""height:400px;""></stim_listB>",,html-keyboard-response,235,1127508,0.0-17.0-1.2,86276,List1B,white,man,,,,null,,,,,,,,,
null,is shouting at,,html-keyboard-response,236,1129513,0.0-17.0-2.2,86276,List1B,white,man,,,,null,,,,,,,,,
9875.3,,,survey-text,237,1139391,0.0-17.0-3.2,86276,List1B,white,man,,,,,"{""Q0"":""beth is shouting at fred""}","<img src=""stim_listB/shout1.gif""style=""height:400px;""></stim_listB>",is shouting at,,,,,,
null,"<div style=""font-size:60px;"">+</div>",,html-keyboard-response,238,1139895,0.0-17.0-0.3,86276,List1B,white,man,,,,null,,,,,,,,,
null,"<img src=""stim_listB/greet7.gif""style=""height:400px;""></stim_listB>",,html-keyboard-response,239,1141900,0.0-17.0-1.3,86276,List1B,white,man,,,,null,,,,,,,,,
null,is greeting,,html-keyboard-response,240,1143903,0.0-17.0-2.3,86276,List1B,white,man,,,,null,,,,,,,,,
7444.1,,,survey-text,241,1151350,0.0-17.0-3.3,86276,List1B,white,man,,,,,"{""Q0"":""jane is greeting kate""}","<img src=""stim_listB/greet7.gif""style=""height:400px;""></stim_listB>",is greeting,,,,,,
null,"<div style=""font-size:60px;"">+</div>",,html-keyboard-response,242,1151854,0.0-17.0-0.4,86276,List1B,white,man,,,,null,,,,,,,,,
null,"<img src=""stim_listB/copy7.gif""style=""height:400px;""></stim_listB>",,html-keyboard-response,243,1153860,0.0-17.0-1.4,86276,List1B,white,man,,,,null,,,,,,,,,
null,is copying,,html-keyboard-response,244,1155863,0.0-17.0-2.4,86276,List1B,white,man,,,,null,,,,,,,,,
9153.1,,,survey-text,245,1165019,0.0-17.0-3.4,86276,List1B,white,man,,,,,"{""Q0"":""jane is copying kate""}","<img src=""stim_listB/copy7.gif""style=""height:400px;""></stim_listB>",is copying,,,,,,
null,"<div style=""font-size:60px;"">+</div>",,html-keyboard-response,246,1165520,0.0-17.0-0.5,86276,List1B,white,man,,,,null,,,,,,,,,
null,"<img src=""stim_listB/look1.gif""style=""height:400px;""></stim_listB>",,html-keyboard-response,247,1167525,0.0-17.0-1.5,86276,List1B,white,man,,,,null,,,,,,,,,
null,is looking at,,html-keyboard-response,248,1169527,0.0-17.0-2.5,86276,List1B,white,man,,,,null,,,,,,,,,
16549.8,,,survey-text,249,1186080,0.0-17.0-3.5,86276,List1B,white,man,,,,,"{""Q0"":""fred is looking at kate""}","<img src=""stim_listB/look1.gif""style=""height:400px;""></stim_listB>",is looking at,,,,,,
null,"<div style=""font-size:60px;"">+</div>",,html-keyboard-response,250,1186584,0.0-17.0-0.6,86276,List1B,white,man,,,,null,,,,,,,,,
null,"<img src=""stim_listB/challenge2.gif""style=""height:400px;""></stim_listB>",,html-keyboard-response,251,1188590,0.0-17.0-1.6,86276,List1B,white,man,,,,null,,,,,,,,,
null,is being challenged by,,html-keyboard-response,252,1190591,0.0-17.0-2.6,86276,List1B,white,man,,,,null,,,,,,,,,
13531,,,survey-text,253,1204125,0.0-17.0-3.6,86276,List1B,white,man,,,,,"{""Q0"":""fred is being challenged by kate""}","<img src=""stim_listB/challenge2.gif""style=""height:400px;""></stim_listB>",is being challenged by,,,,,,
null,"<div style=""font-size:60px;"">+</div>",,html-keyboard-response,254,1204626,0.0-17.0-0.7,86276,List1B,white,man,,,,null,,,,,,,,,
null,"<img src=""stim_listB/shout4.gif""style=""height:400px;""></stim_listB>",,html-keyboard-response,255,1206628,0.0-17.0-1.7,86276,List1B,white,man,,,,null,,,,,,,,,
null,is being shouted at by,,html-keyboard-response,256,1208630,0.0-17.0-2.7,86276,List1B,white,man,,,,null,,,,,,,,,
11548.5,,,survey-text,257,1220181,0.0-17.0-3.7,86276,List1B,white,man,,,,,"{""Q0"":""dave is being shouted at by jane""}","<img src=""stim_listB/shout4.gif""style=""height:400px;""></stim_listB>",is being shouted at by,,,,,,
null,"<div style=""font-size:60px;"">+</div>",,html-keyboard-response,258,1220683,0.0-17.0-0.8,86276,List1B,white,man,,,,null,,,,,,,,,
null,"<img src=""stim_listB/shout3.gif""style=""height:400px;""></stim_listB>",,html-keyboard-response,259,1222685,0.0-17.0-1.8,86276,List1B,white,man,,,,null,,,,,,,,,
null,is shouting at,,html-keyboard-response,260,1224687,0.0-17.0-2.8,86276,List1B,white,man,,,,null,,,,,,,,,
16336,,,survey-text,261,1241026,0.0-17.0-3.8,86276,List1B,white,man,,,,,"{""Q0"":""ruth is shouting at luke""}","<img src=""stim_listB/shout3.gif""style=""height:400px;""></stim_listB>",is shouting at,,,,,,
null,"<div style=""font-size:60px;"">+</div>",,html-keyboard-response,262,1241532,0.0-17.0-0.9,86276,List1B,white,man,,,,null,,,,,,,,,
null,"<img src=""stim_listB/touch6.gif""style=""height:400px;""></stim_listB>",,html-keyboard-response,263,1243534,0.0-17.0-1.9,86276,List1B,white,man,,,,null,,,,,,,,,
null,is being touched by,,html-keyboard-response,264,1245535,0.0-17.0-2.9,86276,List1B,white,man,,,,null,,,,,,,,,
15435,,,survey-text,265,1260973,0.0-17.0-3.9,86276,List1B,white,man,,,,,"{""Q0"":""luke is being touched at by fred""}","<img src=""stim_listB/touch6.gif""style=""height:400px;""></stim_listB>",is being touched by,,,,,,
null,"<div style=""font-size:60px;"">+</div>",,html-keyboard-response,266,1261479,0.0-17.0-0.10,86276,List1B,white,man,,,,null,,,,,,,,,
null,"<img src=""stim_listB/kiss2.gif""style=""height:400px;""></stim_listB>",,html-keyboard-response,267,1263481,0.0-17.0-1.10,86276,List1B,white,man,,,,null,,,,,,,,,
null,is being kissed by,,html-keyboard-response,268,1265482,0.0-17.0-2.10,86276,List1B,white,man,,,,null,,,,,,,,,
15828.8,,,survey-text,269,1281313,0.0-17.0-3.10,86276,List1B,white,man,,,,,"{""Q0"":""mike is being kissed by kate""}","<img src=""stim_listB/kiss2.gif""style=""height:400px;""></stim_listB>",is being kissed by,,,,,,
null,"<div style=""font-size:60px;"">+</div>",,html-keyboard-response,270,1281815,0.0-17.0-0.11,86276,List1B,white,man,,,,null,,,,,,,,,
null,"<img src=""stim_listB/seduce8.gif""style=""height:400px;""></stim_listB>",,html-keyboard-response,271,1283818,0.0-17.0-1.11,86276,List1B,white,man,,,,null,,,,,,,,,
null,is being seduced by,,html-keyboard-response,272,1285822,0.0-17.0-2.11,86276,List1B,white,man,,,,null,,,,,,,,,
11465.4,,,survey-text,273,1297290,0.0-17.0-3.11,86276,List1B,white,man,,,,,"{""Q0"":""jane is being seduced by kate""}","<img src=""stim_listB/seduce8.gif""style=""height:400px;""></stim_listB>",is being seduced by,,,,,,
null,"<div style=""font-size:60px;"">+</div>",,html-keyboard-response,274,1297791,0.0-17.0-0.12,86276,List1B,white,man,,,,null,,,,,,,,,
null,"<img src=""stim_listB/greet1.gif""style=""height:400px;""></stim_listB>",,html-keyboard-response,275,1299797,0.0-17.0-1.12,86276,List1B,white,man,,,,null,,,,,,,,,
null,is greeting,,html-keyboard-response,276,1301802,0.0-17.0-2.12,86276,List1B,white,man,,,,null,,,,,,,,,
10039.5,,,survey-text,277,1311845,0.0-17.0-3.12,86276,List1B,white,man,,,,,"{""Q0"":""beth is greeting mike""}","<img src=""stim_listB/greet1.gif""style=""height:400px;""></stim_listB>",is greeting,,,,,,
null,"<div style=""font-size:60px;"">+</div>",,html-keyboard-response,278,1312350,0.0-17.0-0.13,86276,List1B,white,man,,,,null,,,,,,,,,
null,"<img src=""stim_listB/challenge6.gif""style=""height:400px;""></stim_listB>",,html-keyboard-response,279,1314352,0.0-17.0-1.13,86276,List1B,white,man,,,,null,,,,,,,,,
null,is being challenged by,,html-keyboard-response,280,1316354,0.0-17.0-2.13,86276,List1B,white,man,,,,null,,,,,,,,,
14041.2,,,survey-text,281,1330398,0.0-17.0-3.13,86276,List1B,white,man,,,,,"{""Q0"":""fred is being challenged by dave""}","<img src=""stim_listB/challenge6.gif""style=""height:400px;""></stim_listB>",is being challenged by,,,,,,
null,"<div style=""font-size:60px;"">+</div>",,html-keyboard-response,282,1330901,0.0-17.0-0.14,86276,List1B,white,man,,,,null,,,,,,,,,
null,"<img src=""stim_listB/shout8.gif""style=""height:400px;""></stim_listB>",,html-keyboard-response,283,1332903,0.0-17.0-1.14,86276,List1B,white,man,,,,null,,,,,,,,,
null,is being shouted at by,,html-keyboard-response,284,1334905,0.0-17.0-2.14,86276,List1B,white,man,,,,null,,,,,,,,,
12039,,,survey-text,285,1346947,0.0-17.0-3.14,86276,List1B,white,man,,,,,"{""Q0"":""kate is being shouted at by jane""}","<img src=""stim_listB/shout8.gif""style=""height:400px;""></stim_listB>",is being shouted at by,,,,,,
null,"<div style=""font-size:60px;"">+</div>",,html-keyboard-response,286,1347449,0.0-17.0-0.15,86276,List1B,white,man,,,,null,,,,,,,,,
null,"<img src=""stim_listB/copy8.gif""style=""height:400px;""></stim_listB>",,html-keyboard-response,287,1349453,0.0-17.0-1.15,86276,List1B,white,man,,,,null,,,,,,,,,
null,is being copied by,,html-keyboard-response,288,1351458,0.0-17.0-2.15,86276,List1B,white,man,,,,null,,,,,,,,,
10899.8,,,survey-text,289,1362361,0.0-17.0-3.15,86276,List1B,white,man,,,,,"{""Q0"":""beth is being copied at by jane""}","<img src=""stim_listB/copy8.gif""style=""height:400px;""></stim_listB>",is being copied by,,,,,,
null,"<div style=""font-size:60px;"">+</div>",,html-keyboard-response,290,1362863,0.0-17.0-0.16,86276,List1B,white,man,,,,null,,,,,,,,,
null,"<img src=""stim_listB/kiss8.gif""style=""height:400px;""></stim_listB>",,html-keyboard-response,291,1364869,0.0-17.0-1.16,86276,List1B,white,man,,,,null,,,,,,,,,
null,is being kissed by,,html-keyboard-response,292,1366872,0.0-17.0-2.16,86276,List1B,white,man,,,,null,,,,,,,,,
10449.6,,,survey-text,293,1377325,0.0-17.0-3.16,86276,List1B,white,man,,,,,"{""Q0"":""kate is being kissed by jane""}","<img src=""stim_listB/kiss8.gif""style=""height:400px;""></stim_listB>",is being kissed by,,,,,,
null,"<div style=""font-size:60px;"">+</div>",,html-keyboard-response,294,1377831,0.0-17.0-0.17,86276,List1B,white,man,,,,null,,,,,,,,,
null,"<img src=""stim_listB/look7.gif""style=""height:400px;""></stim_listB>",,html-keyboard-response,295,1379837,0.0-17.0-1.17,86276,List1B,white,man,,,,null,,,,,,,,,
null,is looking at,,html-keyboard-response,296,1381842,0.0-17.0-2.17,86276,List1B,white,man,,,,null,,,,,,,,,
7460,,,survey-text,297,1389305,0.0-17.0-3.17,86276,List1B,white,man,,,,,"{""Q0"":""beth is looking at jane""}","<img src=""stim_listB/look7.gif""style=""height:400px;""></stim_listB>",is looking at,,,,,,
null,"<div style=""font-size:60px;"">+</div>",,html-keyboard-response,298,1389811,0.0-17.0-0.18,86276,List1B,white,man,,,,null,,,,,,,,,
null,"<img src=""stim_listB/oppose7.gif""style=""height:400px;""></stim_listB>",,html-keyboard-response,299,1391812,0.0-17.0-1.18,86276,List1B,white,man,,,,null,,,,,,,,,
null,is opposing,,html-keyboard-response,300,1393819,0.0-17.0-2.18,86276,List1B,white,man,,,,null,,,,,,,,,
8376,,,survey-text,301,1402198,0.0-17.0-3.18,86276,List1B,white,man,,,,,"{""Q0"":""jane is opposing kate""}","<img src=""stim_listB/oppose7.gif""style=""height:400px;""></stim_listB>",is opposing,,,,,,
null,"<div style=""font-size:60px;"">+</div>",,html-keyboard-response,302,1402703,0.0-17.0-0.19,86276,List1B,white,man,,,,null,,,,,,,,,
null,"<img src=""stim_listB/hug6.gif""style=""height:400px;""></stim_listB>",,html-keyboard-response,303,1404705,0.0-17.0-1.19,86276,List1B,white,man,,,,null,,,,,,,,,
null,is being hugged by,,html-keyboard-response,304,1406707,0.0-17.0-2.19,86276,List1B,white,man,,,,null,,,,,,,,,
22859.6,,,survey-text,305,1429569,0.0-17.0-3.19,86276,List1B,white,man,,,,,"{""Q0"":""mike is being hugged by dave""}","<img src=""stim_listB/hug6.gif""style=""height:400px;""></stim_listB>",is being hugged by,,,,,,
4398.9,"<img src='img/portrait_matrix_list1.jpg' style='width:900px;height:500px;''></img><p>If you have memorised all the portraits and names and are ready to start, press Continue.</p><p><strong>Please note: Your memory of these faces will be tested 4 times during this experiment.</strong></p>",0,html-button-response,306,1433969,0.0-18.0-0.0,86276,List1B,white,man,,,,,,,,,,,,,
3169,"<img src=""portrait/BW1.jpg""style=""height:400px;""></img>",0,html-button-response,307,1438142,0.0-18.0-1.0,86276,List1B,white,man,,TRUE,0,,,,,,,,,,
null,CORRECT,,html-keyboard-response,308,1439654,0.0-18.0-2.0-0.0,86276,List1B,white,man,,,,null,,,,,,,,,
2155.1,"<img src=""portrait/BW2.jpg""style=""height:400px;""></img>",2,html-button-response,309,1441810,0.0-18.0-4.0,86276,List1B,white,man,,TRUE,2,,,,,,,,,,
null,CORRECT,,html-keyboard-response,310,1443320,0.0-18.0-5.0-0.0,86276,List1B,white,man,,,,null,,,,,,,,,
1987.4,"<img src=""portrait/WM2.jpg""style=""height:400px;""></img>",7,html-button-response,311,1445309,0.0-18.0-7.0,86276,List1B,white,man,,TRUE,7,,,,,,,,,,
null,CORRECT,,html-keyboard-response,312,1446817,0.0-18.0-8.0-0.0,86276,List1B,white,man,,,,null,,,,,,,,,
4262.4,"<img src=""portrait/WW1.jpg""style=""height:400px;""></img>",1,html-button-response,313,1451081,0.0-18.0-10.0,86276,List1B,white,man,,TRUE,1,,,,,,,,,,
null,CORRECT,,html-keyboard-response,314,1452585,0.0-18.0-11.0-0.0,86276,List1B,white,man,,,,null,,,,,,,,,
2566.7,"<img src=""portrait/BM1.jpg""style=""height:400px;""></img>",4,html-button-response,315,1455153,0.0-18.0-13.0,86276,List1B,white,man,,TRUE,4,,,,,,,,,,
null,CORRECT,,html-keyboard-response,316,1456661,0.0-18.0-14.0-0.0,86276,List1B,white,man,,,,null,,,,,,,,,
2045.4,"<img src=""portrait/WW2.jpg""style=""height:400px;""></img>",3,html-button-response,317,1458708,0.0-18.0-16.0,86276,List1B,white,man,,TRUE,3,,,,,,,,,,
null,CORRECT,,html-keyboard-response,318,1460211,0.0-18.0-17.0-0.0,86276,List1B,white,man,,,,null,,,,,,,,,
3941.3,"<img src=""portrait/BM2.jpg""style=""height:400px;""></img>",5,html-button-response,319,1464153,0.0-18.0-19.0,86276,List1B,white,man,,TRUE,5,,,,,,,,,,
null,CORRECT,,html-keyboard-response,320,1465656,0.0-18.0-20.0-0.0,86276,List1B,white,man,,,,null,,,,,,,,,
2253.4,"<img src=""portrait/WM1.jpg""style=""height:400px;""></img>",6,html-button-response,321,1467911,0.0-18.0-22.0,86276,List1B,white,man,,TRUE,6,,,,,,,,,,
null,CORRECT,,html-keyboard-response,322,1469420,0.0-18.0-23.0-0.0,86276,List1B,white,man,,,,null,,,,,,,,,
2359.4,<p>You got 8 out of 8 right first time. Press Continue.</p>,0,html-button-response,323,1471781,0.0-18.0-25.0,86276,List1B,white,man,,,,,,,,,,,,,
null,"<div style=""font-size:60px;"">+</div>",,html-keyboard-response,324,1473288,0.0-19.0-0.0,86276,List1B,white,man,,,,null,,,,,,,,,
null,"<img src=""stim_listB/copy2.gif""style=""height:400px;""></stim_listB>",,html-keyboard-response,325,1475293,0.0-19.0-1.0,86276,List1B,white,man,,,,null,,,,,,,,,
null,is being copied by,,html-keyboard-response,326,1477298,0.0-19.0-2.0,86276,List1B,white,man,,,,null,,,,,,,,,
13076.5,,,survey-text,327,1490377,0.0-19.0-3.0,86276,List1B,white,man,,,,,"{""Q0"":""fred is being copied at by kate""}","<img src=""stim_listB/copy2.gif""style=""height:400px;""></stim_listB>",is being copied by,,,,,,
null,"<div style=""font-size:60px;"">+</div>",,html-keyboard-response,328,1490881,0.0-19.0-0.1,86276,List1B,white,man,,,,null,,,,,,,,,
null,"<img src=""stim_listB/seduce2.gif""style=""height:400px;""></stim_listB>",,html-keyboard-response,329,1492883,0.0-19.0-1.1,86276,List1B,white,man,,,,null,,,,,,,,,
null,is being seduced by,,html-keyboard-response,330,1494887,0.0-19.0-2.1,86276,List1B,white,man,,,,null,,,,,,,,,
10281.6,,,survey-text,331,1505172,0.0-19.0-3.1,86276,List1B,white,man,,,,,"{""Q0"":""mike is being seduced by beth""}","<img src=""stim_listB/seduce2.gif""style=""height:400px;""></stim_listB>",is being seduced by,,,,,,
null,"<div style=""font-size:60px;"">+</div>",,html-keyboard-response,332,1505678,0.0-19.0-0.2,86276,List1B,white,man,,,,null,,,,,,,,,
null,"<img src=""stim_listB/touch3.gif""style=""height:400px;""></stim_listB>",,html-keyboard-response,333,1507683,0.0-19.0-1.2,86276,List1B,white,man,,,,null,,,,,,,,,
null,is touching,,html-keyboard-response,334,1509688,0.0-19.0-2.2,86276,List1B,white,man,,,,null,,,,,,,,,
9700.8,,,survey-text,335,1519392,0.0-19.0-3.2,86276,List1B,white,man,,,,,"{""Q0"":""jane is touching dave""}","<img src=""stim_listB/touch3.gif""style=""height:400px;""></stim_listB>",is touching,,,,,,
null,"<div style=""font-size:60px;"">+</div>",,html-keyboard-response,336,1519896,0.0-19.0-0.3,86276,List1B,white,man,,,,null,,,,,,,,,
null,"<img src=""stim_listB/challenge3.gif""style=""height:400px;""></stim_listB>",,html-keyboard-response,337,1521902,0.0-19.0-1.3,86276,List1B,white,man,,,,null,,,,,,,,,
null,is challenging,,html-keyboard-response,338,1523904,0.0-19.0-2.3,86276,List1B,white,man,,,,null,,,,,,,,,
8309.9,,,survey-text,339,1532217,0.0-19.0-3.3,86276,List1B,white,man,,,,,"{""Q0"":""jane is challenging dave""}","<img src=""stim_listB/challenge3.gif""style=""height:400px;""></stim_listB>",is challenging,,,,,,
null,"<div style=""font-size:60px;"">+</div>",,html-keyboard-response,340,1532719,0.0-19.0-0.4,86276,List1B,white,man,,,,null,,,,,,,,,
null,"<img src=""stim_listB/touch4.gif""style=""height:400px;""></stim_listB>",,html-keyboard-response,341,1534724,0.0-19.0-1.4,86276,List1B,white,man,,,,null,,,,,,,,,
null,is being touched by,,html-keyboard-response,342,1536727,0.0-19.0-2.4,86276,List1B,white,man,,,,null,,,,,,,,,
7840.3,,,survey-text,343,1544570,0.0-19.0-3.4,86276,List1B,white,man,,,,,"{""Q0"":""luke is being touched by ruth""}","<img src=""stim_listB/touch4.gif""style=""height:400px;""></stim_listB>",is being touched by,,,,,,
null,"<div style=""font-size:60px;"">+</div>",,html-keyboard-response,344,1545072,0.0-19.0-0.5,86276,List1B,white,man,,,,null,,,,,,,,,
null,"<img src=""stim_listB/seduce6.gif""style=""height:400px;""></stim_listB>",,html-keyboard-response,345,1547077,0.0-19.0-1.5,86276,List1B,white,man,,,,null,,,,,,,,,
null,is being seduced by,,html-keyboard-response,346,1549080,0.0-19.0-2.5,86276,List1B,white,man,,,,null,,,,,,,,,
10339.3,,,survey-text,347,1559421,0.0-19.0-3.5,86276,List1B,white,man,,,,,"{""Q0"":""luke is being seduced by mike""}","<img src=""stim_listB/seduce6.gif""style=""height:400px;""></stim_listB>",is being seduced by,,,,,,
null,"<div style=""font-size:60px;"">+</div>",,html-keyboard-response,348,1559926,0.0-19.0-0.6,86276,List1B,white,man,,,,null,,,,,,,,,
null,"<img src=""stim_listB/hug8.gif""style=""height:400px;""></stim_listB>",,html-keyboard-response,349,1561928,0.0-19.0-1.6,86276,List1B,white,man,,,,null,,,,,,,,,
null,is being hugged by,,html-keyboard-response,350,1563929,0.0-19.0-2.6,86276,List1B,white,man,,,,null,,,,,,,,,
9416.1,,,survey-text,351,1573349,0.0-19.0-3.6,86276,List1B,white,man,,,,,"{""Q0"":""jane is being hugged by kate""}","<img src=""stim_listB/hug8.gif""style=""height:400px;""></stim_listB>",is being hugged by,,,,,,
null,"<div style=""font-size:60px;"">+</div>",,html-keyboard-response,352,1573852,0.0-19.0-0.7,86276,List1B,white,man,,,,null,,,,,,,,,
null,"<img src=""stim_listB/shout7.gif""style=""height:400px;""></stim_listB>",,html-keyboard-response,353,1575855,0.0-19.0-1.7,86276,List1B,white,man,,,,null,,,,,,,,,
null,is shouting at,,html-keyboard-response,354,1577856,0.0-19.0-2.7,86276,List1B,white,man,,,,null,,,,,,,,,
11454,,,survey-text,355,1589313,0.0-19.0-3.7,86276,List1B,white,man,,,,,"{""Q0"":""beth is shouting at ruth""}","<img src=""stim_listB/shout7.gif""style=""height:400px;""></stim_listB>",is shouting at,,,,,,
null,"<div style=""font-size:60px;"">+</div>",,html-keyboard-response,356,1589815,0.0-19.0-0.8,86276,List1B,white,man,,,,null,,,,,,,,,
null,"<img src=""stim_listB/touch8.gif""style=""height:400px;""></stim_listB>",,html-keyboard-response,357,1591821,0.0-19.0-1.8,86276,List1B,white,man,,,,null,,,,,,,,,
null,is being touched by,,html-keyboard-response,358,1593824,0.0-19.0-2.8,86276,List1B,white,man,,,,null,,,,,,,,,
7861.6,,,survey-text,359,1601688,0.0-19.0-3.8,86276,List1B,white,man,,,,,"{""Q0"":""beth is being touched by ruth""}","<img src=""stim_listB/touch8.gif""style=""height:400px;""></stim_listB>",is being touched by,,,,,,
null,"<div style=""font-size:60px;"">+</div>",,html-keyboard-response,360,1602194,0.0-19.0-0.9,86276,List1B,white,man,,,,null,,,,,,,,,
null,"<img src=""stim_listB/touch5.gif""style=""height:400px;""></stim_listB>",,html-keyboard-response,361,1604199,0.0-19.0-1.9,86276,List1B,white,man,,,,null,,,,,,,,,
null,is touching,,html-keyboard-response,362,1606201,0.0-19.0-2.9,86276,List1B,white,man,,,,null,,,,,,,,,
6307,,,survey-text,363,1612511,0.0-19.0-3.9,86276,List1B,white,man,,,,,"{""Q0"":""dave is touching mike""}","<img src=""stim_listB/touch5.gif""style=""height:400px;""></stim_listB>",is touching,,,,,,
null,"<div style=""font-size:60px;"">+</div>",,html-keyboard-response,364,1613014,0.0-19.0-0.10,86276,List1B,white,man,,,,null,,,,,,,,,
null,"<img src=""stim_listB/look6.gif""style=""height:400px;""></stim_listB>",,html-keyboard-response,365,1615018,0.0-19.0-1.10,86276,List1B,white,man,,,,null,,,,,,,,,
null,is being looked at by,,html-keyboard-response,366,1617023,0.0-19.0-2.10,86276,List1B,white,man,,,,null,,,,,,,,,
11516.8,,,survey-text,367,1628543,0.0-19.0-3.10,86276,List1B,white,man,,,,,"{""Q0"":""dave is being looked at by mike""}","<img src=""stim_listB/look6.gif""style=""height:400px;""></stim_listB>",is being looked at by,,,,,,
null,"<div style=""font-size:60px;"">+</div>",,html-keyboard-response,368,1629045,0.0-19.0-0.11,86276,List1B,white,man,,,,null,,,,,,,,,
null,"<img src=""stim_listB/oppose4.gif""style=""height:400px;""></stim_listB>",,html-keyboard-response,369,1631051,0.0-19.0-1.11,86276,List1B,white,man,,,,null,,,,,,,,,
null,is being opposed by,,html-keyboard-response,370,1633052,0.0-19.0-2.11,86276,List1B,white,man,,,,null,,,,,,,,,
17257.3,,,survey-text,371,1650312,0.0-19.0-3.11,86276,List1B,white,man,,,,,"{""Q0"":""luke is being opposed at  by ruth""}","<img src=""stim_listB/oppose4.gif""style=""height:400px;""></stim_listB>",is being opposed by,,,,,,
null,"<div style=""font-size:60px;"">+</div>",,html-keyboard-response,372,1650814,0.0-19.0-0.12,86276,List1B,white,man,,,,null,,,,,,,,,
null,"<img src=""stim_listB/oppose5.gif""style=""height:400px;""></stim_listB>",,html-keyboard-response,373,1652816,0.0-19.0-1.12,86276,List1B,white,man,,,,null,,,,,,,,,
null,is opposing,,html-keyboard-response,374,1654820,0.0-19.0-2.12,86276,List1B,white,man,,,,null,,,,,,,,,
9495.7,,,survey-text,375,1664318,0.0-19.0-3.12,86276,List1B,white,man,,,,,"{""Q0"":""dave is opposing mike""}","<img src=""stim_listB/oppose5.gif""style=""height:400px;""></stim_listB>",is opposing,,,,,,
null,"<div style=""font-size:60px;"">+</div>",,html-keyboard-response,376,1664822,0.0-19.0-0.13,86276,List1B,white,man,,,,null,,,,,,,,,
null,"<img src=""stim_listB/look4.gif""style=""height:400px;""></stim_listB>",,html-keyboard-response,377,1666829,0.0-19.0-1.13,86276,List1B,white,man,,,,null,,,,,,,,,
null,is being looked at by,,html-keyboard-response,378,1668831,0.0-19.0-2.13,86276,List1B,white,man,,,,null,,,,,,,,,
12236.7,,,survey-text,379,1681070,0.0-19.0-3.13,86276,List1B,white,man,,,,,"{""Q0"":""dave is looking at jane""}","<img src=""stim_listB/look4.gif""style=""height:400px;""></stim_listB>",is being looked at by,,,,,,
null,"<div style=""font-size:60px;"">+</div>",,html-keyboard-response,380,1681573,0.0-19.0-0.14,86276,List1B,white,man,,,,null,,,,,,,,,
null,"<img src=""stim_listB/shout5.gif""style=""height:400px;""></stim_listB>",,html-keyboard-response,381,1683580,0.0-19.0-1.14,86276,List1B,white,man,,,,null,,,,,,,,,
null,is shouting at,,html-keyboard-response,382,1685584,0.0-19.0-2.14,86276,List1B,white,man,,,,null,,,,,,,,,
10210.2,,,survey-text,383,1695797,0.0-19.0-3.14,86276,List1B,white,man,,,,,"{""Q0"":""luke is shouting at fred""}","<img src=""stim_listB/shout5.gif""style=""height:400px;""></stim_listB>",is shouting at,,,,,,
null,"<div style=""font-size:60px;"">+</div>",,html-keyboard-response,384,1696299,0.0-19.0-0.15,86276,List1B,white,man,,,,null,,,,,,,,,
null,"<img src=""stim_listB/hug4.gif""style=""height:400px;""></stim_listB>",,html-keyboard-response,385,1698305,0.0-19.0-1.15,86276,List1B,white,man,,,,null,,,,,,,,,
null,is being hugged by,,html-keyboard-response,386,1700307,0.0-19.0-2.15,86276,List1B,white,man,,,,null,,,,,,,,,
14252.1,,,survey-text,387,1714562,0.0-19.0-3.15,86276,List1B,white,man,,,,,"{""Q0"":""dave is being hugged at by jane""}","<img src=""stim_listB/hug4.gif""style=""height:400px;""></stim_listB>",is being hugged by,,,,,,
null,"<div style=""font-size:60px;"">+</div>",,html-keyboard-response,388,1715069,0.0-19.0-0.16,86276,List1B,white,man,,,,null,,,,,,,,,
null,"<img src=""stim_listB/greet4.gif""style=""height:400px;""></stim_listB>",,html-keyboard-response,389,1717071,0.0-19.0-1.16,86276,List1B,white,man,,,,null,,,,,,,,,
null,is being greeted by,,html-keyboard-response,390,1719074,0.0-19.0-2.16,86276,List1B,white,man,,,,null,,,,,,,,,
12462.9,,,survey-text,391,1731539,0.0-19.0-3.16,86276,List1B,white,man,,,,,"{""Q0"":""luke is being greeted by jane""}","<img src=""stim_listB/greet4.gif""style=""height:400px;""></stim_listB>",is being greeted by,,,,,,
null,"<div style=""font-size:60px;"">+</div>",,html-keyboard-response,392,1732041,0.0-19.0-0.17,86276,List1B,white,man,,,,null,,,,,,,,,
null,"<img src=""stim_listB/touch7.gif""style=""height:400px;""></stim_listB>",,html-keyboard-response,393,1734044,0.0-19.0-1.17,86276,List1B,white,man,,,,null,,,,,,,,,
null,is touching,,html-keyboard-response,394,1736048,0.0-19.0-2.17,86276,List1B,white,man,,,,null,,,,,,,,,
10619,,,survey-text,395,1746670,0.0-19.0-3.17,86276,List1B,white,man,,,,,"{""Q0"":""jane is touching kate""}","<img src=""stim_listB/touch7.gif""style=""height:400px;""></stim_listB>",is touching,,,,,,
null,"<div style=""font-size:60px;"">+</div>",,html-keyboard-response,396,1747174,0.0-19.0-0.18,86276,List1B,white,man,,,,null,,,,,,,,,
null,"<img src=""stim_listB/oppose8.gif""style=""height:400px;""></stim_listB>",,html-keyboard-response,397,1749181,0.0-19.0-1.18,86276,List1B,white,man,,,,null,,,,,,,,,
null,is being opposed by,,html-keyboard-response,398,1751182,0.0-19.0-2.18,86276,List1B,white,man,,,,null,,,,,,,,,
8727.6,,,survey-text,399,1759913,0.0-19.0-3.18,86276,List1B,white,man,,,,,"{""Q0"":""beth is being opposed by ruth""}","<img src=""stim_listB/oppose8.gif""style=""height:400px;""></stim_listB>",is being opposed by,,,,,,
null,"<div style=""font-size:60px;"">+</div>",,html-keyboard-response,400,1760415,0.0-19.0-0.19,86276,List1B,white,man,,,,null,,,,,,,,,
null,"<img src=""stim_listB/look3.gif""style=""height:400px;""></stim_listB>",,html-keyboard-response,401,1762422,0.0-19.0-1.19,86276,List1B,white,man,,,,null,,,,,,,,,
null,is looking at,,html-keyboard-response,402,1764428,0.0-19.0-2.19,86276,List1B,white,man,,,,null,,,,,,,,,
11119.7,,,survey-text,403,1775551,0.0-19.0-3.19,86276,List1B,white,man,,,,,"{""Q0"":""luke is looking at ruth""}","<img src=""stim_listB/look3.gif""style=""height:400px;""></stim_listB>",is looking at,,,,,,
4476.4,<p>Thank you for completing that task.</p><p>The final part of this session is a questionnaire that will take about 4 minutes.</p><p>Press Continue.</p>,0,html-button-response,404,1780028,0.0-20.0,86276,List1B,white,man,,,,,,,,,,,,,
44713.5,,,survey-text,405,1825750,0.0-21.0,86276,List1B,white,man,,,,,"{""Q0"":""28"",""Q1"":""english"",""Q2"":""english"",""Q3"":""United States of america"",""Q4"":""american"",""Q5"":""white"",""Q6"":""male""}",,,demographics,,,,,
3361.8,<p>Have you lived in the USA for the last 5 years or more?</p>,0,html-button-response,406,1829113,0.0-22.0,86276,List1B,white,man,,,,,,,,fiveyears,,,,,
3269.7,<p>Move the slider to show the extent to which you agree with the following statements.</p>,0,html-button-response,407,1833388,0.0-23.0,86276,List1B,white,man,,,,,,,,,,,,,
9235.5,,,html-slider-response,408,1843626,0.0-24.0-0.0-0.0,86276,List1B,white,man,,,,,,,,survey_gender,88,,,Most of the friends in my life are very similar to me.,filler
9967.4,,,html-slider-response,409,1853595,0.0-24.0-0.0-0.1,86276,List1B,white,man,,,,,,,,survey_gender,37,,,Routine is not important to me.,filler
4530.9,,,html-slider-response,410,1858128,0.0-24.0-0.0-0.2,86276,List1B,white,man,,,,,,,,survey_gender,73,,,My friends understand me.,filler
6183.8,,,html-slider-response,411,1864312,0.0-24.0-0.0-0.3,86276,List1B,white,man,,,,,,,,survey_gender,100,,,Being my gender is an important part of how I see myself.,important
3669.4,,,html-slider-response,412,1867983,0.0-24.0-0.0-0.4,86276,List1B,white,man,,,,,,,,survey_gender,85,,,I feel solidarity with my friends.,filler
3193.7,,,html-slider-response,413,1871178,0.0-24.0-0.0-0.5,86276,List1B,white,man,,,,,,,,survey_gender,90,,,My friends have a lot in common with each other.,filler
8109.2,,,html-slider-response,414,1879288,0.0-24.0-0.0-0.6,86276,List1B,white,man,,,,,,,,survey_gender,59,,,It is not always easy for people to know what I am thinking.,filler
5839.2,,,html-slider-response,415,1885128,0.0-24.0-0.0-0.7,86276,List1B,white,man,,,,,,,,survey_gender,84,,,People of my gender have a lot in common with each other.,common
3980.6,,,html-slider-response,416,1889110,0.0-24.0-0.0-0.8,86276,List1B,white,man,,,,,,,,survey_gender,100,,,Being my gender gives me a good feeling.,feeling
3093.9,,,html-slider-response,417,1892205,0.0-24.0-0.0-0.9,86276,List1B,white,man,,,,,,,,survey_gender,90,,,I consider myself a highly empathetic person.,filler
4374.4,,,html-slider-response,418,1896581,0.0-24.0-0.0-0.10,86276,List1B,white,man,,,,,,,,survey_gender,100,,,The fact that I am my gender is an important part of my identity.,identity
5050,,,html-slider-response,419,1901632,0.0-24.0-0.0-0.11,86276,List1B,white,man,,,,,,,,survey_gender,74,,,I often think about the fact that I am my gender.,often
3687.3,,,html-slider-response,420,1905321,0.0-24.0-0.0-0.12,86276,List1B,white,man,,,,,,,,survey_gender,86,,,I have a lot in common with my friends.,filler
6018.6,,,html-slider-response,421,1911341,0.0-24.0-0.0-0.13,86276,List1B,white,man,,,,,,,,survey_gender,23,,,Family is not more important to me than friendship.,filler
5500.3,,,html-slider-response,422,1916843,0.0-24.0-0.0-0.14,86276,List1B,white,man,,,,,,,,survey_gender,85,,,I have a lot in common with the average person of my gender.,average
2786.3,,,html-slider-response,423,1919630,0.0-24.0-0.0-0.15,86276,List1B,white,man,,,,,,,,survey_gender,87,,,I feel solidarity with my gender.,solidarity
2745.4,,,html-slider-response,424,1922376,0.0-24.0-0.0-0.16,86276,List1B,white,man,,,,,,,,survey_gender,79,,,I feel a bond with my friends.,filler
4319.3,,,html-slider-response,425,1926697,0.0-24.0-0.0-0.17,86276,List1B,white,man,,,,,,,,survey_gender,91,,,It is pleasant to be my gender.,pleasant
3858.9,,,html-slider-response,426,1930557,0.0-24.0-0.0-0.18,86276,List1B,white,man,,,,,,,,survey_gender,100,,,I am glad to be my gender.,glad
5027.6,,,html-slider-response,427,1935586,0.0-24.0-0.0-0.19,86276,List1B,white,man,,,,,,,,survey_gender,74,,,I am glad to have the friends that I have.,filler
9257.9,,,html-slider-response,428,1944845,0.0-24.0-0.0-0.20,86276,List1B,white,man,,,,,,,,survey_gender,92,,,I am similar to the average person of my gender.,similar
15165,,,html-slider-response,429,1960011,0.0-24.0-0.0-0.21,86276,List1B,white,man,,,,,,,,survey_gender,31,,,People of my gender are very similar to each other.,verysimilar
7063,,,html-slider-response,430,1967075,0.0-24.0-0.0-0.22,86276,List1B,white,man,,,,,,,,survey_gender,80,,,I feel a bond with my gender.,bond
5479.8,,,html-slider-response,431,1972556,0.0-24.0-0.0-0.23,86276,List1B,white,man,,,,,,,,survey_gender,100,,,I think that my gender has a lot to be proud of.,proud
3043.7,,,html-slider-response,432,1975601,0.0-24.0-0.0-0.24,86276,List1B,white,man,,,,,,,,survey_gender,70,,,I often think about my actions.,filler
4140.9,,,html-slider-response,433,1979743,0.0-24.0-0.0-0.25,86276,List1B,white,man,,,,,,,,survey_gender,100,,,I would say I am an animal person.,filler
7031.6,,,html-slider-response,434,1986776,0.0-24.0-0.0-0.26,86276,List1B,white,man,,,,,,,,survey_gender,77,,,Being around my friends gives me a good feeling.,filler
3767,,,html-slider-response,435,1990544,0.0-24.0-0.0-0.27,86276,List1B,white,man,,,,,,,,survey_gender,92,,,I feel committed to my gender.,committed
3970.1,,,html-slider-response,436,1994516,0.0-24.0-1.0-0.0,86276,List1B,white,man,,,,,,,,survey_race,85,,,I feel solidarity with people the same age as me.,filler
2698.1,,,html-slider-response,437,1997215,0.0-24.0-1.0-0.1,86276,List1B,white,man,,,,,,,,survey_race,86,,,I am glad to be the age I am.,filler
3575.2,,,html-slider-response,438,2000791,0.0-24.0-1.0-0.2,86276,List1B,white,man,,,,,,,,survey_race,82,,,Being my race is an important part of how I see myself.,important
3960.3,,,html-slider-response,439,2004752,0.0-24.0-1.0-0.3,86276,List1B,white,man,,,,,,,,survey_race,84,,,I feel solidarity with my race.,solidarity
3587.9,,,html-slider-response,440,2008342,0.0-24.0-1.0-0.4,86276,List1B,white,man,,,,,,,,survey_race,85,,,"The older I get, the wiser I feel.",filler
5508.6,,,html-slider-response,441,2013852,0.0-24.0-1.0-0.5,86276,List1B,white,man,,,,,,,,survey_race,37,,,I enjoy being in large groups.,filler
3443.9,,,html-slider-response,442,2017297,0.0-24.0-1.0-0.6,86276,List1B,white,man,,,,,,,,survey_race,82,,,I feel a bond with my race.,bond
4206.4,,,html-slider-response,443,2021505,0.0-24.0-1.0-0.7,86276,List1B,white,man,,,,,,,,survey_race,81,,,My age is not an important part of who I am.,filler
3283,,,html-slider-response,444,2024789,0.0-24.0-1.0-0.8,86276,List1B,white,man,,,,,,,,survey_race,84,,,Being my race gives me a good feeling.,feeling
3036.1,,,html-slider-response,445,2027827,0.0-24.0-1.0-0.9,86276,List1B,white,man,,,,,,,,survey_race,82,,,I have a lot in common with the average person of my race.,average
4881.8,,,html-slider-response,446,2032709,0.0-24.0-1.0-0.10,86276,List1B,white,man,,,,,,,,survey_race,83,,,Getting older does not worry me.,filler
4464.4,,,html-slider-response,447,2037175,0.0-24.0-1.0-0.11,86276,List1B,white,man,,,,,,,,survey_race,24,,,I often think about the fact that I am my age.,filler
3047.4,,,html-slider-response,448,2040223,0.0-24.0-1.0-0.12,86276,List1B,white,man,,,,,,,,survey_race,73,,,I feel a bond with people the same age as me.,filler
3803.3,,,html-slider-response,449,2044028,0.0-24.0-1.0-0.13,86276,List1B,white,man,,,,,,,,survey_race,71,,,I have a lot in common with people of a similar age to me.,filler
3846.2,,,html-slider-response,450,2047875,0.0-24.0-1.0-0.14,86276,List1B,white,man,,,,,,,,survey_race,30,,,I consider myself an extrovert.,filler
2711.6,,,html-slider-response,451,2050588,0.0-24.0-1.0-0.15,86276,List1B,white,man,,,,,,,,survey_race,73,,,I consider myself an introvert.,filler
8403,,,html-slider-response,452,2058992,0.0-24.0-1.0-0.16,86276,List1B,white,man,,,,,,,,survey_race,60,,,I often think about the fact that I am my race.,often
7837.7,,,html-slider-response,453,2066831,0.0-24.0-1.0-0.17,86276,List1B,white,man,,,,,,,,survey_race,100,,,I am glad to be my race.,glad
3700.9,,,html-slider-response,454,2070533,0.0-24.0-1.0-0.18,86276,List1B,white,man,,,,,,,,survey_race,100,,,I feel committed to my race.,committed
3385.1,,,html-slider-response,455,2073920,0.0-24.0-1.0-0.19,86276,List1B,white,man,,,,,,,,survey_race,84,,,People of my race have a lot in common with each other.,common
3599.7,,,html-slider-response,456,2077520,0.0-24.0-1.0-0.20,86276,List1B,white,man,,,,,,,,survey_race,100,,,I think that my race has a lot to be proud of.,proud
4543.2,,,html-slider-response,457,2082065,0.0-24.0-1.0-0.21,86276,List1B,white,man,,,,,,,,survey_race,63,,,People my age have a lot in common with each other.,filler
3734,,,html-slider-response,458,2085800,0.0-24.0-1.0-0.22,86276,List1B,white,man,,,,,,,,survey_race,69,,,I am glad to be my age.,filler
4071,,,html-slider-response,459,2089872,0.0-24.0-1.0-0.23,86276,List1B,white,man,,,,,,,,survey_race,73,,,The fact that I am my race is an important part of my identity.,identity
4892.7,,,html-slider-response,460,2094766,0.0-24.0-1.0-0.24,86276,List1B,white,man,,,,,,,,survey_race,69,,,People of my race are very similar to each other.,verysimilar
4004.2,,,html-slider-response,461,2098771,0.0-24.0-1.0-0.25,86276,List1B,white,man,,,,,,,,survey_race,100,,,It is pleasant to be my race.,pleasant
3564.9,,,html-slider-response,462,2102338,0.0-24.0-1.0-0.26,86276,List1B,white,man,,,,,,,,survey_race,72,,,Being my age gives me a good feeling.,filler
2891.5,,,html-slider-response,463,2105231,0.0-24.0-1.0-0.27,86276,List1B,white,man,,,,,,,,survey_race,76,,,I am similar to the average person of my race.,similar
16151.3,,,survey-text,464,2121385,0.0-25.0,86276,List1B,white,man,,,,,"{""Q0"":""ccc""}",,,worker_id,,,,,
50790.7,,,external-html,465,2172518,0.0-26.0,86276,List1B,white,man,debrief.html,,,,,,,,,,,,
