rt,stimulus,button_pressed,trial_type,trial_index,time_elapsed,internal_node_id,subject,list,ppt_race,ppt_gender,url,first_guess,correct,key_press,responses,image_type,phrase_type,test_part,response,stimulus1,stimulus2,question_type,survey_item
23590.1,Welcome to the experiment. Press Continue to begin.,0,html-button-response,0,23598,0.0-0.0,86320,List2A,white,man,,,,,,,,,,,,,
48044.9,,,external-html,1,73027,0.0-1.0,86320,List2A,white,man,consent.html,,,,,,,,,,,,
11237.1,"<p>On the next page, you will see portraits of 8 people and their names.</p><p>Your first task is to take a few minutes to memorise the names of these people.</p><p>You will have to recall their names during the rest of the experiment, so it is</p><p>essential that you try to memorise these people and their names as best as you can.</p><br><p><strong>You will then be tested on your memory of these names and portraits.</strong></p><br><p>The experiment will start after you have completed this memory test.</p><br><p>Ready?</p>",0,html-button-response,2,84268,0.0-2.0,86320,List2A,white,man,,,,,,,,,,,,,
69273.3,"<img src='img/portrait_matrix_list2.jpg' style='width:900px;height:500px;''></img><p>If you have memorised all the portraits and names and are ready to start, press Continue.</p><p><strong>Please note: Your memory of these faces will be tested 4 times during this experiment.</strong></p>",0,html-button-response,3,154545,0.0-3.0-0.0,86320,List2A,white,man,,,,,,,,,,,,,
13608.2,"<img src=""portrait/WW2.jpg""style=""height:400px;""></img>",3,html-button-response,4,169157,0.0-3.0-1.0,86320,List2A,white,man,,TRUE,3,,,,,,,,,,
null,CORRECT,,html-keyboard-response,5,170664,0.0-3.0-2.0-0.0,86320,List2A,white,man,,,,null,,,,,,,,,
7455.7,"<img src=""portrait/WW1.jpg""style=""height:400px;""></img>",1,html-button-response,6,178123,0.0-3.0-4.0,86320,List2A,white,man,,TRUE,1,,,,,,,,,,
null,CORRECT,,html-keyboard-response,7,179628,0.0-3.0-5.0-0.0,86320,List2A,white,man,,,,null,,,,,,,,,
6929.4,"<img src=""portrait/BW2.jpg""style=""height:400px;""></img>",0,html-button-response,8,186562,0.0-3.0-7.0,86320,List2A,white,man,,TRUE,2,,,,,,,,,,
5518.5,"<img src=""portrait/BW2.jpg""style=""height:400px;""></img>",2,html-button-response,9,193086,0.0-3.0-9.0-0.0,86320,List2A,white,man,,FALSE,2,,,,,,,,,,
null,CORRECT,,html-keyboard-response,10,194589,0.0-3.0-9.0-1.0-0.0,86320,List2A,white,man,,,,null,,,,,,,,,
4967.4,"<img src=""portrait/BW1.jpg""style=""height:400px;""></img>",0,html-button-response,11,199559,0.0-3.0-10.0,86320,List2A,white,man,,TRUE,0,,,,,,,,,,
null,CORRECT,,html-keyboard-response,12,201062,0.0-3.0-11.0-0.0,86320,List2A,white,man,,,,null,,,,,,,,,
2981.8,"<img src=""portrait/WM1.jpg""style=""height:400px;""></img>",6,html-button-response,13,204048,0.0-3.0-13.0,86320,List2A,white,man,,TRUE,6,,,,,,,,,,
null,CORRECT,,html-keyboard-response,14,205551,0.0-3.0-14.0-0.0,86320,List2A,white,man,,,,null,,,,,,,,,
4937.6,"<img src=""portrait/WM2.jpg""style=""height:400px;""></img>",7,html-button-response,15,210491,0.0-3.0-16.0,86320,List2A,white,man,,TRUE,7,,,,,,,,,,
null,CORRECT,,html-keyboard-response,16,211994,0.0-3.0-17.0-0.0,86320,List2A,white,man,,,,null,,,,,,,,,
3230.5,"<img src=""portrait/BM1.jpg""style=""height:400px;""></img>",4,html-button-response,17,215227,0.0-3.0-19.0,86320,List2A,white,man,,TRUE,4,,,,,,,,,,
null,CORRECT,,html-keyboard-response,18,216730,0.0-3.0-20.0-0.0,86320,List2A,white,man,,,,null,,,,,,,,,
2528.4,"<img src=""portrait/BM2.jpg""style=""height:400px;""></img>",5,html-button-response,19,219261,0.0-3.0-22.0,86320,List2A,white,man,,TRUE,5,,,,,,,,,,
null,CORRECT,,html-keyboard-response,20,220763,0.0-3.0-23.0-0.0,86320,List2A,white,man,,,,null,,,,,,,,,
2135.2,<p>You got 7 out of 8 right first time. Press Continue.</p>,0,html-button-response,21,222902,0.0-3.0-25.0,86320,List2A,white,man,,,,,,,,,,,,,
3369.1,"As you did not score 100%, the memory game will repeat. Press Continue.",0,html-button-response,22,227274,0.0-3.0-26.0-0.0,86320,List2A,white,man,,,,,,,,,,,,,
9647.5,"<img src='img/portrait_matrix_list2.jpg' style='width:900px;height:500px;''></img><p>If you have memorised all the portraits and names and are ready to start, press Continue.</p><p><strong>Please note: Your memory of these faces will be tested 4 times during this experiment.</strong></p>",0,html-button-response,23,237928,0.0-3.1-0.1,86320,List2A,white,man,,,,,,,,,,,,,
2394.1,"<img src=""portrait/WW2.jpg""style=""height:400px;""></img>",3,html-button-response,24,241325,0.0-3.1-1.1,86320,List2A,white,man,,TRUE,3,,,,,,,,,,
null,CORRECT,,html-keyboard-response,25,242827,0.0-3.1-2.1-0.1,86320,List2A,white,man,,,,null,,,,,,,,,
1996.6,"<img src=""portrait/WW1.jpg""style=""height:400px;""></img>",1,html-button-response,26,244827,0.0-3.1-4.1,86320,List2A,white,man,,TRUE,1,,,,,,,,,,
null,CORRECT,,html-keyboard-response,27,246330,0.0-3.1-5.1-0.1,86320,List2A,white,man,,,,null,,,,,,,,,
3829.7,"<img src=""portrait/BW2.jpg""style=""height:400px;""></img>",2,html-button-response,28,250162,0.0-3.1-7.1,86320,List2A,white,man,,TRUE,2,,,,,,,,,,
null,CORRECT,,html-keyboard-response,29,251665,0.0-3.1-8.1-0.1,86320,List2A,white,man,,,,null,,,,,,,,,
3966.6,"<img src=""portrait/BW1.jpg""style=""height:400px;""></img>",0,html-button-response,30,255634,0.0-3.1-10.1,86320,List2A,white,man,,TRUE,0,,,,,,,,,,
null,CORRECT,,html-keyboard-response,31,257136,0.0-3.1-11.1-0.1,86320,List2A,white,man,,,,null,,,,,,,,,
1788,"<img src=""portrait/WM1.jpg""style=""height:400px;""></img>",6,html-button-response,32,258927,0.0-3.1-13.1,86320,List2A,white,man,,TRUE,6,,,,,,,,,,
null,CORRECT,,html-keyboard-response,33,260430,0.0-3.1-14.1-0.1,86320,List2A,white,man,,,,null,,,,,,,,,
2481.8,"<img src=""portrait/WM2.jpg""style=""height:400px;""></img>",7,html-button-response,34,262915,0.0-3.1-16.1,86320,List2A,white,man,,TRUE,7,,,,,,,,,,
null,CORRECT,,html-keyboard-response,35,264418,0.0-3.1-17.1-0.1,86320,List2A,white,man,,,,null,,,,,,,,,
1746.8,"<img src=""portrait/BM1.jpg""style=""height:400px;""></img>",4,html-button-response,36,266168,0.0-3.1-19.1,86320,List2A,white,man,,TRUE,4,,,,,,,,,,
null,CORRECT,,html-keyboard-response,37,267671,0.0-3.1-20.1-0.1,86320,List2A,white,man,,,,null,,,,,,,,,
1423.1,"<img src=""portrait/BM2.jpg""style=""height:400px;""></img>",5,html-button-response,38,269097,0.0-3.1-22.1,86320,List2A,white,man,,TRUE,5,,,,,,,,,,
null,CORRECT,,html-keyboard-response,39,270599,0.0-3.1-23.1-0.1,86320,List2A,white,man,,,,null,,,,,,,,,
1702.6,<p>You got 8 out of 8 right first time. Press Continue.</p>,0,html-button-response,40,272304,0.0-3.1-25.1,86320,List2A,white,man,,,,,,,,,,,,,
44286.4,"<p>In this experiment, you will view photographs of the people from the memory game interacting.</p><p>By using the <strong>exact</strong> phrase given <i>after</i> the photograph appears and recalling the correct names of the people in the photographs, form a sentence describing the interaction. You do not need to capitalise names.</p><p>Type your answer in the space provided. Please complete every sentence before moving onto the next trial.</p><p>You will only have a few seconds to memorise each given photograph and phrase before you can respond, so try your best to focus.</p><p>An example is given below. Press 'Continue' when you are ready.</p><img src='img/speaking_example.jpg' style='width:800px;height:460px;''></img>",0,html-button-response,41,317594,0.0-4.0,86320,List2A,white,man,,,,,,,,,,,,,
3893.8,"<p>Before the experiment starts, you will watch two example trials. Press 'Continue'.</p>",0,html-button-response,42,322490,0.0-5.0,86320,List2A,white,man,,,,,,,,,,,,,
null,<img src='img/play_eg.gif' style='height:400px;''></img>,,html-keyboard-response,43,325493,0.0-6.0,86320,List2A,white,man,,,,null,,,,,,,,,
null,<p>is playing with</p>,,html-keyboard-response,44,327495,0.0-7.0,86320,List2A,white,man,,,,null,,,,,,,,,
3075.7,<p><b>Answer:</b> jane is playing with ruth</p>,0,html-button-response,45,330572,0.0-8.0,86320,List2A,white,man,,,,,,,,,,,,,
null,<img src='img/dance_eg.gif' style='height:400px;''></img>,,html-keyboard-response,46,333575,0.0-9.0,86320,List2A,white,man,,,,null,,,,,,,,,
null,<p>is being entertained by</p>,,html-keyboard-response,47,335576,0.0-10.0,86320,List2A,white,man,,,,null,,,,,,,,,
2254.1,<p><b>Answer:</b> fred is being entertained by mike</p>,0,html-button-response,48,337832,0.0-11.0,86320,List2A,white,man,,,,,,,,,,,,,
6435.2,"<p>Ready to start the experiment?</p><br><p><strong>Remember to describe the picture using a full sentence,</strong></p><p><strong>that combines the names of the people with the <i>exact</i> phrase given.</strong></p><p><strong>To receive full payment you must do this correctly.</strong></p><p><strong> You do not need to capitalise names or use punctuation.</strong></p><br><p>Press 'Continue' to begin.</p>",0,html-button-response,49,345270,0.0-12.0,86320,List2A,white,man,,,,,,,,,,,,,
null,"<div style=""font-size:60px;"">+</div>",,html-keyboard-response,50,346773,0.0-13.0-0.0,86320,List2A,white,man,,,,null,,,,,,,,,
null,"<img src=""stim_listA/challenge5.gif""style=""height:400px;""></stim_listA>",,html-keyboard-response,51,348777,0.0-13.0-1.0,86320,List2A,white,man,,,,null,,,,,,,,,
null,is challenging,,html-keyboard-response,52,350779,0.0-13.0-2.0,86320,List2A,white,man,,,,null,,,,,,,,,
32316,,,survey-text,53,383101,0.0-13.0-3.0,86320,List2A,white,man,,,,,"{""Q0"":""Dave is greeting Fred""}","<img src=""stim_listA/challenge5.gif""style=""height:400px;""></stim_listA>",is challenging,,,,,,
null,"<div style=""font-size:60px;"">+</div>",,html-keyboard-response,54,383606,0.0-13.0-0.1,86320,List2A,white,man,,,,null,,,,,,,,,
null,"<img src=""stim_listA/touch6.gif""style=""height:400px;""></stim_listA>",,html-keyboard-response,55,385608,0.0-13.0-1.1,86320,List2A,white,man,,,,null,,,,,,,,,
null,is being touched by,,html-keyboard-response,56,387610,0.0-13.0-2.1,86320,List2A,white,man,,,,null,,,,,,,,,
16118.2,,,survey-text,57,403732,0.0-13.0-3.1,86320,List2A,white,man,,,,,"{""Q0"":""Luke is being touched by Fred""}","<img src=""stim_listA/touch6.gif""style=""height:400px;""></stim_listA>",is being touched by,,,,,,
null,"<div style=""font-size:60px;"">+</div>",,html-keyboard-response,58,404235,0.0-13.0-0.2,86320,List2A,white,man,,,,null,,,,,,,,,
null,"<img src=""stim_listA/greet4.gif""style=""height:400px;""></stim_listA>",,html-keyboard-response,59,406238,0.0-13.0-1.2,86320,List2A,white,man,,,,null,,,,,,,,,
null,is being greeted by,,html-keyboard-response,60,408240,0.0-13.0-2.2,86320,List2A,white,man,,,,null,,,,,,,,,
17937,,,survey-text,61,426187,0.0-13.0-3.2,86320,List2A,white,man,,,,,"{""Q0"":""Kate is being greeted by Fred""}","<img src=""stim_listA/greet4.gif""style=""height:400px;""></stim_listA>",is being greeted by,,,,,,
null,"<div style=""font-size:60px;"">+</div>",,html-keyboard-response,62,426689,0.0-13.0-0.3,86320,List2A,white,man,,,,null,,,,,,,,,
null,"<img src=""stim_listA/copy7.gif""style=""height:400px;""></stim_listA>",,html-keyboard-response,63,428693,0.0-13.0-1.3,86320,List2A,white,man,,,,null,,,,,,,,,
null,is copying,,html-keyboard-response,64,430695,0.0-13.0-2.3,86320,List2A,white,man,,,,null,,,,,,,,,
38143.9,,,survey-text,65,468843,0.0-13.0-3.3,86320,List2A,white,man,,,,,"{""Q0"":""Beth is copying Jane""}","<img src=""stim_listA/copy7.gif""style=""height:400px;""></stim_listA>",is copying,,,,,,
null,"<div style=""font-size:60px;"">+</div>",,html-keyboard-response,66,469345,0.0-13.0-0.4,86320,List2A,white,man,,,,null,,,,,,,,,
null,"<img src=""stim_listA/kiss4.gif""style=""height:400px;""></stim_listA>",,html-keyboard-response,67,471349,0.0-13.0-1.4,86320,List2A,white,man,,,,null,,,,,,,,,
null,is being kissed by,,html-keyboard-response,68,473351,0.0-13.0-2.4,86320,List2A,white,man,,,,null,,,,,,,,,
13320.6,,,survey-text,69,486676,0.0-13.0-3.4,86320,List2A,white,man,,,,,"{""Q0"":""Mike is being kissed by Kate""}","<img src=""stim_listA/kiss4.gif""style=""height:400px;""></stim_listA>",is being kissed by,,,,,,
null,"<div style=""font-size:60px;"">+</div>",,html-keyboard-response,70,487178,0.0-13.0-0.5,86320,List2A,white,man,,,,null,,,,,,,,,
null,"<img src=""stim_listA/seduce1.gif""style=""height:400px;""></stim_listA>",,html-keyboard-response,71,489182,0.0-13.0-1.5,86320,List2A,white,man,,,,null,,,,,,,,,
null,is seducing,,html-keyboard-response,72,491184,0.0-13.0-2.5,86320,List2A,white,man,,,,null,,,,,,,,,
18742.4,,,survey-text,73,509932,0.0-13.0-3.5,86320,List2A,white,man,,,,,"{""Q0"":""Luke is seducing Ruth""}","<img src=""stim_listA/seduce1.gif""style=""height:400px;""></stim_listA>",is seducing,,,,,,
null,"<div style=""font-size:60px;"">+</div>",,html-keyboard-response,74,510434,0.0-13.0-0.6,86320,List2A,white,man,,,,null,,,,,,,,,
null,"<img src=""stim_listA/hug7.gif""style=""height:400px;""></stim_listA>",,html-keyboard-response,75,512438,0.0-13.0-1.6,86320,List2A,white,man,,,,null,,,,,,,,,
null,is hugging,,html-keyboard-response,76,514440,0.0-13.0-2.6,86320,List2A,white,man,,,,null,,,,,,,,,
40922.5,,,survey-text,77,555369,0.0-13.0-3.6,86320,List2A,white,man,,,,,"{""Q0"":""Beth is hugging Ruth""}","<img src=""stim_listA/hug7.gif""style=""height:400px;""></stim_listA>",is hugging,,,,,,
null,"<div style=""font-size:60px;"">+</div>",,html-keyboard-response,78,555872,0.0-13.0-0.7,86320,List2A,white,man,,,,null,,,,,,,,,
null,"<img src=""stim_listA/greet5.gif""style=""height:400px;""></stim_listA>",,html-keyboard-response,79,557876,0.0-13.0-1.7,86320,List2A,white,man,,,,null,,,,,,,,,
null,is greeting,,html-keyboard-response,80,559878,0.0-13.0-2.7,86320,List2A,white,man,,,,null,,,,,,,,,
11174,,,survey-text,81,571057,0.0-13.0-3.7,86320,List2A,white,man,,,,,"{""Q0"":""Dave is greeting Fred""}","<img src=""stim_listA/greet5.gif""style=""height:400px;""></stim_listA>",is greeting,,,,,,
null,"<div style=""font-size:60px;"">+</div>",,html-keyboard-response,82,571560,0.0-13.0-0.8,86320,List2A,white,man,,,,null,,,,,,,,,
null,"<img src=""stim_listA/touch7.gif""style=""height:400px;""></stim_listA>",,html-keyboard-response,83,573563,0.0-13.0-1.8,86320,List2A,white,man,,,,null,,,,,,,,,
null,is touching,,html-keyboard-response,84,575566,0.0-13.0-2.8,86320,List2A,white,man,,,,null,,,,,,,,,
17602.8,,,survey-text,85,593176,0.0-13.0-3.8,86320,List2A,white,man,,,,,"{""Q0"":""Jane is touching Kate""}","<img src=""stim_listA/touch7.gif""style=""height:400px;""></stim_listA>",is touching,,,,,,
null,"<div style=""font-size:60px;"">+</div>",,html-keyboard-response,86,593678,0.0-13.0-0.9,86320,List2A,white,man,,,,null,,,,,,,,,
null,"<img src=""stim_listA/copy1.gif""style=""height:400px;""></stim_listA>",,html-keyboard-response,87,595682,0.0-13.0-1.9,86320,List2A,white,man,,,,null,,,,,,,,,
null,is copying,,html-keyboard-response,88,597685,0.0-13.0-2.9,86320,List2A,white,man,,,,null,,,,,,,,,
15135,,,survey-text,89,612826,0.0-13.0-3.9,86320,List2A,white,man,,,,,"{""Q0"":""Ruth is copying Dave""}","<img src=""stim_listA/copy1.gif""style=""height:400px;""></stim_listA>",is copying,,,,,,
null,"<div style=""font-size:60px;"">+</div>",,html-keyboard-response,90,613328,0.0-13.0-0.10,86320,List2A,white,man,,,,null,,,,,,,,,
null,"<img src=""stim_listA/copy8.gif""style=""height:400px;""></stim_listA>",,html-keyboard-response,91,615333,0.0-13.0-1.10,86320,List2A,white,man,,,,null,,,,,,,,,
null,is being copied by,,html-keyboard-response,92,617335,0.0-13.0-2.10,86320,List2A,white,man,,,,null,,,,,,,,,
13213.9,,,survey-text,93,630554,0.0-13.0-3.10,86320,List2A,white,man,,,,,"{""Q0"":""Ruth is being copied by Kate""}","<img src=""stim_listA/copy8.gif""style=""height:400px;""></stim_listA>",is being copied by,,,,,,
null,"<div style=""font-size:60px;"">+</div>",,html-keyboard-response,94,631058,0.0-13.0-0.11,86320,List2A,white,man,,,,null,,,,,,,,,
null,"<img src=""stim_listA/greet3.gif""style=""height:400px;""></stim_listA>",,html-keyboard-response,95,633063,0.0-13.0-1.11,86320,List2A,white,man,,,,null,,,,,,,,,
null,is greeting,,html-keyboard-response,96,635065,0.0-13.0-2.11,86320,List2A,white,man,,,,null,,,,,,,,,
21858.8,,,survey-text,97,656929,0.0-13.0-3.11,86320,List2A,white,man,,,,,"{""Q0"":""Mike is greeting Beth""}","<img src=""stim_listA/greet3.gif""style=""height:400px;""></stim_listA>",is greeting,,,,,,
null,"<div style=""font-size:60px;"">+</div>",,html-keyboard-response,98,657432,0.0-13.0-0.12,86320,List2A,white,man,,,,null,,,,,,,,,
null,"<img src=""stim_listA/challenge3.gif""style=""height:400px;""></stim_listA>",,html-keyboard-response,99,659435,0.0-13.0-1.12,86320,List2A,white,man,,,,null,,,,,,,,,
null,is challenging,,html-keyboard-response,100,661437,0.0-13.0-2.12,86320,List2A,white,man,,,,null,,,,,,,,,
14328.1,,,survey-text,101,675770,0.0-13.0-3.12,86320,List2A,white,man,,,,,"{""Q0"":""Mike is challenging Beth""}","<img src=""stim_listA/challenge3.gif""style=""height:400px;""></stim_listA>",is challenging,,,,,,
null,"<div style=""font-size:60px;"">+</div>",,html-keyboard-response,102,676272,0.0-13.0-0.13,86320,List2A,white,man,,,,null,,,,,,,,,
null,"<img src=""stim_listA/oppose8.gif""style=""height:400px;""></stim_listA>",,html-keyboard-response,103,678276,0.0-13.0-1.13,86320,List2A,white,man,,,,null,,,,,,,,,
null,is being opposed by,,html-keyboard-response,104,680278,0.0-13.0-2.13,86320,List2A,white,man,,,,null,,,,,,,,,
18549.5,,,survey-text,105,698833,0.0-13.0-3.13,86320,List2A,white,man,,,,,"{""Q0"":""Beth is being opposed by Ruth""}","<img src=""stim_listA/oppose8.gif""style=""height:400px;""></stim_listA>",is being opposed by,,,,,,
null,"<div style=""font-size:60px;"">+</div>",,html-keyboard-response,106,699335,0.0-13.0-0.14,86320,List2A,white,man,,,,null,,,,,,,,,
null,"<img src=""stim_listA/copy5.gif""style=""height:400px;""></stim_listA>",,html-keyboard-response,107,701339,0.0-13.0-1.14,86320,List2A,white,man,,,,null,,,,,,,,,
null,is copying,,html-keyboard-response,108,703341,0.0-13.0-2.14,86320,List2A,white,man,,,,null,,,,,,,,,
15247.4,,,survey-text,109,718593,0.0-13.0-3.14,86320,List2A,white,man,,,,,"{""Q0"":""Fred is copying Dave""}","<img src=""stim_listA/copy5.gif""style=""height:400px;""></stim_listA>",is copying,,,,,,
null,"<div style=""font-size:60px;"">+</div>",,html-keyboard-response,110,719096,0.0-13.0-0.15,86320,List2A,white,man,,,,null,,,,,,,,,
null,"<img src=""stim_listA/greet2.gif""style=""height:400px;""></stim_listA>",,html-keyboard-response,111,721100,0.0-13.0-1.15,86320,List2A,white,man,,,,null,,,,,,,,,
null,is being greeted by,,html-keyboard-response,112,723101,0.0-13.0-2.15,86320,List2A,white,man,,,,null,,,,,,,,,
12896.8,,,survey-text,113,736003,0.0-13.0-3.15,86320,List2A,white,man,,,,,"{""Q0"":""Luke is being greeted by Jane""}","<img src=""stim_listA/greet2.gif""style=""height:400px;""></stim_listA>",is being greeted by,,,,,,
null,"<div style=""font-size:60px;"">+</div>",,html-keyboard-response,114,736506,0.0-13.0-0.16,86320,List2A,white,man,,,,null,,,,,,,,,
null,"<img src=""stim_listA/oppose5.gif""style=""height:400px;""></stim_listA>",,html-keyboard-response,115,738510,0.0-13.0-1.16,86320,List2A,white,man,,,,null,,,,,,,,,
null,is opposing,,html-keyboard-response,116,740512,0.0-13.0-2.16,86320,List2A,white,man,,,,null,,,,,,,,,
10868.1,,,survey-text,117,751385,0.0-13.0-3.16,86320,List2A,white,man,,,,,"{""Q0"":""Mike is opposing Dave""}","<img src=""stim_listA/oppose5.gif""style=""height:400px;""></stim_listA>",is opposing,,,,,,
null,"<div style=""font-size:60px;"">+</div>",,html-keyboard-response,118,751888,0.0-13.0-0.17,86320,List2A,white,man,,,,null,,,,,,,,,
null,"<img src=""stim_listA/touch5.gif""style=""height:400px;""></stim_listA>",,html-keyboard-response,119,753892,0.0-13.0-1.17,86320,List2A,white,man,,,,null,,,,,,,,,
null,is touching,,html-keyboard-response,120,755894,0.0-13.0-2.17,86320,List2A,white,man,,,,null,,,,,,,,,
12107.2,,,survey-text,121,768007,0.0-13.0-3.17,86320,List2A,white,man,,,,,"{""Q0"":""Mike is touching Dave""}","<img src=""stim_listA/touch5.gif""style=""height:400px;""></stim_listA>",is touching,,,,,,
null,"<div style=""font-size:60px;"">+</div>",,html-keyboard-response,122,768511,0.0-13.0-0.18,86320,List2A,white,man,,,,null,,,,,,,,,
null,"<img src=""stim_listA/copy2.gif""style=""height:400px;""></stim_listA>",,html-keyboard-response,123,770515,0.0-13.0-1.18,86320,List2A,white,man,,,,null,,,,,,,,,
null,is being copied by,,html-keyboard-response,124,772518,0.0-13.0-2.18,86320,List2A,white,man,,,,null,,,,,,,,,
16747,,,survey-text,125,789272,0.0-13.0-3.18,86320,List2A,white,man,,,,,"{""Q0"":""Luke is being copied by Jane""}","<img src=""stim_listA/copy2.gif""style=""height:400px;""></stim_listA>",is being copied by,,,,,,
null,"<div style=""font-size:60px;"">+</div>",,html-keyboard-response,126,789775,0.0-13.0-0.19,86320,List2A,white,man,,,,null,,,,,,,,,
null,"<img src=""stim_listA/kiss2.gif""style=""height:400px;""></stim_listA>",,html-keyboard-response,127,791780,0.0-13.0-1.19,86320,List2A,white,man,,,,null,,,,,,,,,
null,is being kissed by,,html-keyboard-response,128,793782,0.0-13.0-2.19,86320,List2A,white,man,,,,null,,,,,,,,,
14585.7,,,survey-text,129,808374,0.0-13.0-3.19,86320,List2A,white,man,,,,,"{""Q0"":""Dave is being kissed by Jane""}","<img src=""stim_listA/kiss2.gif""style=""height:400px;""></stim_listA>",is being kissed by,,,,,,
14788.3,"<img src='img/portrait_matrix_list2.jpg' style='width:900px;height:500px;''></img><p>If you have memorised all the portraits and names and are ready to start, press Continue.</p><p><strong>Please note: Your memory of these faces will be tested 4 times during this experiment.</strong></p>",0,html-button-response,130,823167,0.0-14.0-0.0,86320,List2A,white,man,,,,,,,,,,,,,
2563.4,"<img src=""portrait/WM1.jpg""style=""height:400px;""></img>",6,html-button-response,131,826737,0.0-14.0-1.0,86320,List2A,white,man,,TRUE,6,,,,,,,,,,
null,CORRECT,,html-keyboard-response,132,828240,0.0-14.0-2.0-0.0,86320,List2A,white,man,,,,null,,,,,,,,,
2290.4,"<img src=""portrait/BW1.jpg""style=""height:400px;""></img>",0,html-button-response,133,830533,0.0-14.0-4.0,86320,List2A,white,man,,TRUE,0,,,,,,,,,,
null,CORRECT,,html-keyboard-response,134,832036,0.0-14.0-5.0-0.0,86320,List2A,white,man,,,,null,,,,,,,,,
2027.3,"<img src=""portrait/BW2.jpg""style=""height:400px;""></img>",2,html-button-response,135,834066,0.0-14.0-7.0,86320,List2A,white,man,,TRUE,2,,,,,,,,,,
null,CORRECT,,html-keyboard-response,136,835569,0.0-14.0-8.0-0.0,86320,List2A,white,man,,,,null,,,,,,,,,
2206.7,"<img src=""portrait/BM2.jpg""style=""height:400px;""></img>",5,html-button-response,137,837779,0.0-14.0-10.0,86320,List2A,white,man,,TRUE,5,,,,,,,,,,
null,CORRECT,,html-keyboard-response,138,839282,0.0-14.0-11.0-0.0,86320,List2A,white,man,,,,null,,,,,,,,,
1914.1,"<img src=""portrait/WW2.jpg""style=""height:400px;""></img>",3,html-button-response,139,841199,0.0-14.0-13.0,86320,List2A,white,man,,TRUE,3,,,,,,,,,,
null,CORRECT,,html-keyboard-response,140,842702,0.0-14.0-14.0-0.0,86320,List2A,white,man,,,,null,,,,,,,,,
2444.2,"<img src=""portrait/WM2.jpg""style=""height:400px;""></img>",7,html-button-response,141,845150,0.0-14.0-16.0,86320,List2A,white,man,,TRUE,7,,,,,,,,,,
null,CORRECT,,html-keyboard-response,142,846653,0.0-14.0-17.0-0.0,86320,List2A,white,man,,,,null,,,,,,,,,
1776.2,"<img src=""portrait/BM1.jpg""style=""height:400px;""></img>",4,html-button-response,143,848432,0.0-14.0-19.0,86320,List2A,white,man,,TRUE,4,,,,,,,,,,
null,CORRECT,,html-keyboard-response,144,849935,0.0-14.0-20.0-0.0,86320,List2A,white,man,,,,null,,,,,,,,,
2944.5,"<img src=""portrait/WW1.jpg""style=""height:400px;""></img>",1,html-button-response,145,852883,0.0-14.0-22.0,86320,List2A,white,man,,TRUE,1,,,,,,,,,,
null,CORRECT,,html-keyboard-response,146,854386,0.0-14.0-23.0-0.0,86320,List2A,white,man,,,,null,,,,,,,,,
2079.9,<p>You got 8 out of 8 right first time. Press Continue.</p>,0,html-button-response,147,856469,0.0-14.0-25.0,86320,List2A,white,man,,,,,,,,,,,,,
null,"<div style=""font-size:60px;"">+</div>",,html-keyboard-response,148,857972,0.0-15.0-0.0,86320,List2A,white,man,,,,null,,,,,,,,,
null,"<img src=""stim_listA/copy6.gif""style=""height:400px;""></stim_listA>",,html-keyboard-response,149,859976,0.0-15.0-1.0,86320,List2A,white,man,,,,null,,,,,,,,,
null,is being copied by,,html-keyboard-response,150,861978,0.0-15.0-2.0,86320,List2A,white,man,,,,null,,,,,,,,,
13581.9,,,survey-text,151,875564,0.0-15.0-3.0,86320,List2A,white,man,,,,,"{""Q0"":""Luke is being copied by Mike""}","<img src=""stim_listA/copy6.gif""style=""height:400px;""></stim_listA>",is being copied by,,,,,,
null,"<div style=""font-size:60px;"">+</div>",,html-keyboard-response,152,876067,0.0-15.0-0.1,86320,List2A,white,man,,,,null,,,,,,,,,
null,"<img src=""stim_listA/challenge2.gif""style=""height:400px;""></stim_listA>",,html-keyboard-response,153,878070,0.0-15.0-1.1,86320,List2A,white,man,,,,null,,,,,,,,,
null,is being challenged by,,html-keyboard-response,154,880072,0.0-15.0-2.1,86320,List2A,white,man,,,,null,,,,,,,,,
17400.6,,,survey-text,155,897478,0.0-15.0-3.1,86320,List2A,white,man,,,,,"{""Q0"":""Luke is being challenged by Jane""}","<img src=""stim_listA/challenge2.gif""style=""height:400px;""></stim_listA>",is being challenged by,,,,,,
null,"<div style=""font-size:60px;"">+</div>",,html-keyboard-response,156,897980,0.0-15.0-0.2,86320,List2A,white,man,,,,null,,,,,,,,,
null,"<img src=""stim_listA/kiss8.gif""style=""height:400px;""></stim_listA>",,html-keyboard-response,157,899985,0.0-15.0-1.2,86320,List2A,white,man,,,,null,,,,,,,,,
null,is being kissed by,,html-keyboard-response,158,901988,0.0-15.0-2.2,86320,List2A,white,man,,,,null,,,,,,,,,
13244.6,,,survey-text,159,915236,0.0-15.0-3.2,86320,List2A,white,man,,,,,"{""Q0"":""Kate is being kissed by Jane""}","<img src=""stim_listA/kiss8.gif""style=""height:400px;""></stim_listA>",is being kissed by,,,,,,
null,"<div style=""font-size:60px;"">+</div>",,html-keyboard-response,160,915740,0.0-15.0-0.3,86320,List2A,white,man,,,,null,,,,,,,,,
null,"<img src=""stim_listA/oppose7.gif""style=""height:400px;""></stim_listA>",,html-keyboard-response,161,917744,0.0-15.0-1.3,86320,List2A,white,man,,,,null,,,,,,,,,
null,is opposing,,html-keyboard-response,162,919746,0.0-15.0-2.3,86320,List2A,white,man,,,,null,,,,,,,,,
11653.1,,,survey-text,163,931407,0.0-15.0-3.3,86320,List2A,white,man,,,,,"{""Q0"":""Kate is opposing Jane""}","<img src=""stim_listA/oppose7.gif""style=""height:400px;""></stim_listA>",is opposing,,,,,,
null,"<div style=""font-size:60px;"">+</div>",,html-keyboard-response,164,931910,0.0-15.0-0.4,86320,List2A,white,man,,,,null,,,,,,,,,
null,"<img src=""stim_listA/challenge1.gif""style=""height:400px;""></stim_listA>",,html-keyboard-response,165,933914,0.0-15.0-1.4,86320,List2A,white,man,,,,null,,,,,,,,,
null,is challenging,,html-keyboard-response,166,935917,0.0-15.0-2.4,86320,List2A,white,man,,,,null,,,,,,,,,
13878,,,survey-text,167,949800,0.0-15.0-3.4,86320,List2A,white,man,,,,,"{""Q0"":""Ruth is challenging Dave""}","<img src=""stim_listA/challenge1.gif""style=""height:400px;""></stim_listA>",is challenging,,,,,,
null,"<div style=""font-size:60px;"">+</div>",,html-keyboard-response,168,950303,0.0-15.0-0.5,86320,List2A,white,man,,,,null,,,,,,,,,
null,"<img src=""stim_listA/seduce3.gif""style=""height:400px;""></stim_listA>",,html-keyboard-response,169,952308,0.0-15.0-1.5,86320,List2A,white,man,,,,null,,,,,,,,,
null,is seducing,,html-keyboard-response,170,954310,0.0-15.0-2.5,86320,List2A,white,man,,,,null,,,,,,,,,
14994.5,,,survey-text,171,969312,0.0-15.0-3.5,86320,List2A,white,man,,,,,"{""Q0"":""Beth is seducing Fred""}","<img src=""stim_listA/seduce3.gif""style=""height:400px;""></stim_listA>",is seducing,,,,,,
null,"<div style=""font-size:60px;"">+</div>",,html-keyboard-response,172,969816,0.0-15.0-0.6,86320,List2A,white,man,,,,null,,,,,,,,,
null,"<img src=""stim_listA/shout1.gif""style=""height:400px;""></stim_listA>",,html-keyboard-response,173,971820,0.0-15.0-1.6,86320,List2A,white,man,,,,null,,,,,,,,,
null,is shouting at,,html-keyboard-response,174,973823,0.0-15.0-2.6,86320,List2A,white,man,,,,null,,,,,,,,,
12847.3,,,survey-text,175,986677,0.0-15.0-3.6,86320,List2A,white,man,,,,,"{""Q0"":""Ruth is shouting at Luke""}","<img src=""stim_listA/shout1.gif""style=""height:400px;""></stim_listA>",is shouting at,,,,,,
null,"<div style=""font-size:60px;"">+</div>",,html-keyboard-response,176,987180,0.0-15.0-0.7,86320,List2A,white,man,,,,null,,,,,,,,,
null,"<img src=""stim_listA/look7.gif""style=""height:400px;""></stim_listA>",,html-keyboard-response,177,989184,0.0-15.0-1.7,86320,List2A,white,man,,,,null,,,,,,,,,
null,is looking at,,html-keyboard-response,178,991187,0.0-15.0-2.7,86320,List2A,white,man,,,,null,,,,,,,,,
17722.3,,,survey-text,179,1008915,0.0-15.0-3.7,86320,List2A,white,man,,,,,"{""Q0"":""Beth is looking at Ruth""}","<img src=""stim_listA/look7.gif""style=""height:400px;""></stim_listA>",is looking at,,,,,,
null,"<div style=""font-size:60px;"">+</div>",,html-keyboard-response,180,1009419,0.0-15.0-0.8,86320,List2A,white,man,,,,null,,,,,,,,,
null,"<img src=""stim_listA/hug4.gif""style=""height:400px;""></stim_listA>",,html-keyboard-response,181,1011423,0.0-15.0-1.8,86320,List2A,white,man,,,,null,,,,,,,,,
null,is being hugged by,,html-keyboard-response,182,1013425,0.0-15.0-2.8,86320,List2A,white,man,,,,null,,,,,,,,,
14092.5,,,survey-text,183,1027522,0.0-15.0-3.8,86320,List2A,white,man,,,,,"{""Q0"":""Mike is being hugged by Kate""}","<img src=""stim_listA/hug4.gif""style=""height:400px;""></stim_listA>",is being hugged by,,,,,,
null,"<div style=""font-size:60px;"">+</div>",,html-keyboard-response,184,1028024,0.0-15.0-0.9,86320,List2A,white,man,,,,null,,,,,,,,,
null,"<img src=""stim_listA/look5.gif""style=""height:400px;""></stim_listA>",,html-keyboard-response,185,1030027,0.0-15.0-1.9,86320,List2A,white,man,,,,null,,,,,,,,,
null,is looking at,,html-keyboard-response,186,1032029,0.0-15.0-2.9,86320,List2A,white,man,,,,null,,,,,,,,,
10758.1,,,survey-text,187,1042793,0.0-15.0-3.9,86320,List2A,white,man,,,,,"{""Q0"":""Fred is looking at Luke""}","<img src=""stim_listA/look5.gif""style=""height:400px;""></stim_listA>",is looking at,,,,,,
null,"<div style=""font-size:60px;"">+</div>",,html-keyboard-response,188,1043295,0.0-15.0-0.10,86320,List2A,white,man,,,,null,,,,,,,,,
null,"<img src=""stim_listA/challenge8.gif""style=""height:400px;""></stim_listA>",,html-keyboard-response,189,1045298,0.0-15.0-1.10,86320,List2A,white,man,,,,null,,,,,,,,,
null,is being challenged by,,html-keyboard-response,190,1047300,0.0-15.0-2.10,86320,List2A,white,man,,,,null,,,,,,,,,
19774.4,,,survey-text,191,1067080,0.0-15.0-3.10,86320,List2A,white,man,,,,,"{""Q0"":""Ruth is being challenged by Kate""}","<img src=""stim_listA/challenge8.gif""style=""height:400px;""></stim_listA>",is being challenged by,,,,,,
null,"<div style=""font-size:60px;"">+</div>",,html-keyboard-response,192,1067583,0.0-15.0-0.11,86320,List2A,white,man,,,,null,,,,,,,,,
null,"<img src=""stim_listA/oppose3.gif""style=""height:400px;""></stim_listA>",,html-keyboard-response,193,1069587,0.0-15.0-1.11,86320,List2A,white,man,,,,null,,,,,,,,,
null,is opposing,,html-keyboard-response,194,1071589,0.0-15.0-2.11,86320,List2A,white,man,,,,null,,,,,,,,,
11371.8,,,survey-text,195,1082966,0.0-15.0-3.11,86320,List2A,white,man,,,,,"{""Q0"":""Mike is opposing Kate""}","<img src=""stim_listA/oppose3.gif""style=""height:400px;""></stim_listA>",is opposing,,,,,,
null,"<div style=""font-size:60px;"">+</div>",,html-keyboard-response,196,1083468,0.0-15.0-0.12,86320,List2A,white,man,,,,null,,,,,,,,,
null,"<img src=""stim_listA/look2.gif""style=""height:400px;""></stim_listA>",,html-keyboard-response,197,1085473,0.0-15.0-1.12,86320,List2A,white,man,,,,null,,,,,,,,,
null,is being looked at by,,html-keyboard-response,198,1087475,0.0-15.0-2.12,86320,List2A,white,man,,,,null,,,,,,,,,
16173.6,,,survey-text,199,1103654,0.0-15.0-3.12,86320,List2A,white,man,,,,,"{""Q0"":""Jane is being looked by Dave""}","<img src=""stim_listA/look2.gif""style=""height:400px;""></stim_listA>",is being looked at by,,,,,,
null,"<div style=""font-size:60px;"">+</div>",,html-keyboard-response,200,1104157,0.0-15.0-0.13,86320,List2A,white,man,,,,null,,,,,,,,,
null,"<img src=""stim_listA/look6.gif""style=""height:400px;""></stim_listA>",,html-keyboard-response,201,1106161,0.0-15.0-1.13,86320,List2A,white,man,,,,null,,,,,,,,,
null,is being looked at by,,html-keyboard-response,202,1108164,0.0-15.0-2.13,86320,List2A,white,man,,,,null,,,,,,,,,
13913.5,,,survey-text,203,1122084,0.0-15.0-3.13,86320,List2A,white,man,,,,,"{""Q0"":""Dave is being looked at by Mike""}","<img src=""stim_listA/look6.gif""style=""height:400px;""></stim_listA>",is being looked at by,,,,,,
null,"<div style=""font-size:60px;"">+</div>",,html-keyboard-response,204,1122589,0.0-15.0-0.14,86320,List2A,white,man,,,,null,,,,,,,,,
null,"<img src=""stim_listA/oppose6.gif""style=""height:400px;""></stim_listA>",,html-keyboard-response,205,1124592,0.0-15.0-1.14,86320,List2A,white,man,,,,null,,,,,,,,,
null,is being opposed by,,html-keyboard-response,206,1126594,0.0-15.0-2.14,86320,List2A,white,man,,,,null,,,,,,,,,
11071.8,,,survey-text,207,1137674,0.0-15.0-3.14,86320,List2A,white,man,,,,,"{""Q0"":""Luke is being opposed by Fred""}","<img src=""stim_listA/oppose6.gif""style=""height:400px;""></stim_listA>",is being opposed by,,,,,,
null,"<div style=""font-size:60px;"">+</div>",,html-keyboard-response,208,1138177,0.0-15.0-0.15,86320,List2A,white,man,,,,null,,,,,,,,,
null,"<img src=""stim_listA/touch8.gif""style=""height:400px;""></stim_listA>",,html-keyboard-response,209,1140182,0.0-15.0-1.15,86320,List2A,white,man,,,,null,,,,,,,,,
null,is being touched by,,html-keyboard-response,210,1142184,0.0-15.0-2.15,86320,List2A,white,man,,,,null,,,,,,,,,
17029.5,,,survey-text,211,1159216,0.0-15.0-3.15,86320,List2A,white,man,,,,,"{""Q0"":""Beth is being touched by Ruth""}","<img src=""stim_listA/touch8.gif""style=""height:400px;""></stim_listA>",is being touched by,,,,,,
null,"<div style=""font-size:60px;"">+</div>",,html-keyboard-response,212,1159719,0.0-15.0-0.16,86320,List2A,white,man,,,,null,,,,,,,,,
null,"<img src=""stim_listA/seduce4.gif""style=""height:400px;""></stim_listA>",,html-keyboard-response,213,1161723,0.0-15.0-1.16,86320,List2A,white,man,,,,null,,,,,,,,,
null,is being seduced by,,html-keyboard-response,214,1163726,0.0-15.0-2.16,86320,List2A,white,man,,,,null,,,,,,,,,
11603.3,,,survey-text,215,1175336,0.0-15.0-3.16,86320,List2A,white,man,,,,,"{""Q0"":""Beth is being seduced by Mike""}","<img src=""stim_listA/seduce4.gif""style=""height:400px;""></stim_listA>",is being seduced by,,,,,,
null,"<div style=""font-size:60px;"">+</div>",,html-keyboard-response,216,1175838,0.0-15.0-0.17,86320,List2A,white,man,,,,null,,,,,,,,,
null,"<img src=""stim_listA/look4.gif""style=""height:400px;""></stim_listA>",,html-keyboard-response,217,1177842,0.0-15.0-1.17,86320,List2A,white,man,,,,null,,,,,,,,,
null,is being looked at by,,html-keyboard-response,218,1179844,0.0-15.0-2.17,86320,List2A,white,man,,,,null,,,,,,,,,
10788.2,,,survey-text,219,1190638,0.0-15.0-3.17,86320,List2A,white,man,,,,,"{""Q0"":""Kate is being looked at by Mike""}","<img src=""stim_listA/look4.gif""style=""height:400px;""></stim_listA>",is being looked at by,,,,,,
null,"<div style=""font-size:60px;"">+</div>",,html-keyboard-response,220,1191142,0.0-15.0-0.18,86320,List2A,white,man,,,,null,,,,,,,,,
null,"<img src=""stim_listA/challenge6.gif""style=""height:400px;""></stim_listA>",,html-keyboard-response,221,1193146,0.0-15.0-1.18,86320,List2A,white,man,,,,null,,,,,,,,,
null,is being challenged by,,html-keyboard-response,222,1195148,0.0-15.0-2.18,86320,List2A,white,man,,,,null,,,,,,,,,
18115.8,,,survey-text,223,1213269,0.0-15.0-3.18,86320,List2A,white,man,,,,,"{""Q0"":""Luke is being challenged by Mike""}","<img src=""stim_listA/challenge6.gif""style=""height:400px;""></stim_listA>",is being challenged by,,,,,,
null,"<div style=""font-size:60px;"">+</div>",,html-keyboard-response,224,1213772,0.0-15.0-0.19,86320,List2A,white,man,,,,null,,,,,,,,,
null,"<img src=""stim_listA/hug6.gif""style=""height:400px;""></stim_listA>",,html-keyboard-response,225,1215775,0.0-15.0-1.19,86320,List2A,white,man,,,,null,,,,,,,,,
null,is being hugged by,,html-keyboard-response,226,1217778,0.0-15.0-2.19,86320,List2A,white,man,,,,null,,,,,,,,,
11218.8,,,survey-text,227,1229001,0.0-15.0-3.19,86320,List2A,white,man,,,,,"{""Q0"":""Dave is being hugged by Mike""}","<img src=""stim_listA/hug6.gif""style=""height:400px;""></stim_listA>",is being hugged by,,,,,,
6982.4,"<img src='img/portrait_matrix_list2.jpg' style='width:900px;height:500px;''></img><p>If you have memorised all the portraits and names and are ready to start, press Continue.</p><p><strong>Please note: Your memory of these faces will be tested 4 times during this experiment.</strong></p>",0,html-button-response,228,1235987,0.0-16.0-0.0,86320,List2A,white,man,,,,,,,,,,,,,
1223.1,"<img src=""portrait/WM1.jpg""style=""height:400px;""></img>",6,html-button-response,229,1238215,0.0-16.0-1.0,86320,List2A,white,man,,TRUE,6,,,,,,,,,,
null,CORRECT,,html-keyboard-response,230,1239719,0.0-16.0-2.0-0.0,86320,List2A,white,man,,,,null,,,,,,,,,
1607.5,"<img src=""portrait/WM2.jpg""style=""height:400px;""></img>",7,html-button-response,231,1241330,0.0-16.0-4.0,86320,List2A,white,man,,TRUE,7,,,,,,,,,,
null,CORRECT,,html-keyboard-response,232,1242833,0.0-16.0-5.0-0.0,86320,List2A,white,man,,,,null,,,,,,,,,
1700.3,"<img src=""portrait/BW1.jpg""style=""height:400px;""></img>",0,html-button-response,233,1244539,0.0-16.0-7.0,86320,List2A,white,man,,TRUE,0,,,,,,,,,,
null,CORRECT,,html-keyboard-response,234,1246043,0.0-16.0-8.0-0.0,86320,List2A,white,man,,,,null,,,,,,,,,
1798.7,"<img src=""portrait/BW2.jpg""style=""height:400px;""></img>",2,html-button-response,235,1247845,0.0-16.0-10.0,86320,List2A,white,man,,TRUE,2,,,,,,,,,,
null,CORRECT,,html-keyboard-response,236,1249349,0.0-16.0-11.0-0.0,86320,List2A,white,man,,,,null,,,,,,,,,
2487.9,"<img src=""portrait/BM1.jpg""style=""height:400px;""></img>",4,html-button-response,237,1251841,0.0-16.0-13.0,86320,List2A,white,man,,TRUE,4,,,,,,,,,,
null,CORRECT,,html-keyboard-response,238,1253345,0.0-16.0-14.0-0.0,86320,List2A,white,man,,,,null,,,,,,,,,
2014.4,"<img src=""portrait/BM2.jpg""style=""height:400px;""></img>",5,html-button-response,239,1255363,0.0-16.0-16.0,86320,List2A,white,man,,TRUE,5,,,,,,,,,,
null,CORRECT,,html-keyboard-response,240,1256867,0.0-16.0-17.0-0.0,86320,List2A,white,man,,,,null,,,,,,,,,
1908.5,"<img src=""portrait/WW2.jpg""style=""height:400px;""></img>",3,html-button-response,241,1258780,0.0-16.0-19.0,86320,List2A,white,man,,TRUE,3,,,,,,,,,,
null,CORRECT,,html-keyboard-response,242,1260283,0.0-16.0-20.0-0.0,86320,List2A,white,man,,,,null,,,,,,,,,
1488.7,"<img src=""portrait/WW1.jpg""style=""height:400px;""></img>",1,html-button-response,243,1261775,0.0-16.0-22.0,86320,List2A,white,man,,TRUE,1,,,,,,,,,,
null,CORRECT,,html-keyboard-response,244,1263279,0.0-16.0-23.0-0.0,86320,List2A,white,man,,,,null,,,,,,,,,
1115.6,<p>You got 8 out of 8 right first time. Press Continue.</p>,0,html-button-response,245,1264399,0.0-16.0-25.0,86320,List2A,white,man,,,,,,,,,,,,,
null,"<div style=""font-size:60px;"">+</div>",,html-keyboard-response,246,1265903,0.0-17.0-0.0,86320,List2A,white,man,,,,null,,,,,,,,,
null,"<img src=""stim_listA/look3.gif""style=""height:400px;""></stim_listA>",,html-keyboard-response,247,1267908,0.0-17.0-1.0,86320,List2A,white,man,,,,null,,,,,,,,,
null,is looking at,,html-keyboard-response,248,1269910,0.0-17.0-2.0,86320,List2A,white,man,,,,null,,,,,,,,,
9096.2,,,survey-text,249,1279013,0.0-17.0-3.0,86320,List2A,white,man,,,,,"{""Q0"":""Beth is looking at Fred""}","<img src=""stim_listA/look3.gif""style=""height:400px;""></stim_listA>",is looking at,,,,,,
null,"<div style=""font-size:60px;"">+</div>",,html-keyboard-response,250,1279517,0.0-17.0-0.1,86320,List2A,white,man,,,,null,,,,,,,,,
null,"<img src=""stim_listA/hug1.gif""style=""height:400px;""></stim_listA>",,html-keyboard-response,251,1281522,0.0-17.0-1.1,86320,List2A,white,man,,,,null,,,,,,,,,
null,is hugging,,html-keyboard-response,252,1283524,0.0-17.0-2.1,86320,List2A,white,man,,,,null,,,,,,,,,
12544.4,,,survey-text,253,1296074,0.0-17.0-3.1,86320,List2A,white,man,,,,,"{""Q0"":""Luke is hugging Ruth""}","<img src=""stim_listA/hug1.gif""style=""height:400px;""></stim_listA>",is hugging,,,,,,
null,"<div style=""font-size:60px;"">+</div>",,html-keyboard-response,254,1296579,0.0-17.0-0.2,86320,List2A,white,man,,,,null,,,,,,,,,
null,"<img src=""stim_listA/oppose4.gif""style=""height:400px;""></stim_listA>",,html-keyboard-response,255,1298583,0.0-17.0-1.2,86320,List2A,white,man,,,,null,,,,,,,,,
null,is being opposed by,,html-keyboard-response,256,1300586,0.0-17.0-2.2,86320,List2A,white,man,,,,null,,,,,,,,,
14853.3,,,survey-text,257,1315444,0.0-17.0-3.2,86320,List2A,white,man,,,,,"{""Q0"":""Fred is being opposed by Beth""}","<img src=""stim_listA/oppose4.gif""style=""height:400px;""></stim_listA>",is being opposed by,,,,,,
null,"<div style=""font-size:60px;"">+</div>",,html-keyboard-response,258,1315947,0.0-17.0-0.3,86320,List2A,white,man,,,,null,,,,,,,,,
null,"<img src=""stim_listA/shout4.gif""style=""height:400px;""></stim_listA>",,html-keyboard-response,259,1317951,0.0-17.0-1.3,86320,List2A,white,man,,,,null,,,,,,,,,
null,is being shouted at by,,html-keyboard-response,260,1319952,0.0-17.0-2.3,86320,List2A,white,man,,,,null,,,,,,,,,
23980.1,,,survey-text,261,1343937,0.0-17.0-3.3,86320,List2A,white,man,,,,,"{""Q0"":""Kate is being shouted at by Mike""}","<img src=""stim_listA/shout4.gif""style=""height:400px;""></stim_listA>",is being shouted at by,,,,,,
null,"<div style=""font-size:60px;"">+</div>",,html-keyboard-response,262,1344439,0.0-17.0-0.4,86320,List2A,white,man,,,,null,,,,,,,,,
null,"<img src=""stim_listA/hug2.gif""style=""height:400px;""></stim_listA>",,html-keyboard-response,263,1346442,0.0-17.0-1.4,86320,List2A,white,man,,,,null,,,,,,,,,
null,is being hugged by,,html-keyboard-response,264,1348444,0.0-17.0-2.4,86320,List2A,white,man,,,,null,,,,,,,,,
11870.7,,,survey-text,265,1360320,0.0-17.0-3.4,86320,List2A,white,man,,,,,"{""Q0"":""Dave is being hugged by Jane""}","<img src=""stim_listA/hug2.gif""style=""height:400px;""></stim_listA>",is being hugged by,,,,,,
null,"<div style=""font-size:60px;"">+</div>",,html-keyboard-response,266,1360822,0.0-17.0-0.5,86320,List2A,white,man,,,,null,,,,,,,,,
null,"<img src=""stim_listA/hug5.gif""style=""height:400px;""></stim_listA>",,html-keyboard-response,267,1362826,0.0-17.0-1.5,86320,List2A,white,man,,,,null,,,,,,,,,
null,is hugging,,html-keyboard-response,268,1364828,0.0-17.0-2.5,86320,List2A,white,man,,,,null,,,,,,,,,
11411.8,,,survey-text,269,1376246,0.0-17.0-3.5,86320,List2A,white,man,,,,,"{""Q0"":""Luke is hugging Fred""}","<img src=""stim_listA/hug5.gif""style=""height:400px;""></stim_listA>",is hugging,,,,,,
null,"<div style=""font-size:60px;"">+</div>",,html-keyboard-response,270,1376748,0.0-17.0-0.6,86320,List2A,white,man,,,,null,,,,,,,,,
null,"<img src=""stim_listA/greet1.gif""style=""height:400px;""></stim_listA>",,html-keyboard-response,271,1378752,0.0-17.0-1.6,86320,List2A,white,man,,,,null,,,,,,,,,
null,is greeting,,html-keyboard-response,272,1380753,0.0-17.0-2.6,86320,List2A,white,man,,,,null,,,,,,,,,
10743.2,,,survey-text,273,1391503,0.0-17.0-3.6,86320,List2A,white,man,,,,,"{""Q0"":""Ruth is greeting Dave""}","<img src=""stim_listA/greet1.gif""style=""height:400px;""></stim_listA>",is greeting,,,,,,
null,"<div style=""font-size:60px;"">+</div>",,html-keyboard-response,274,1392007,0.0-17.0-0.7,86320,List2A,white,man,,,,null,,,,,,,,,
null,"<img src=""stim_listA/seduce2.gif""style=""height:400px;""></stim_listA>",,html-keyboard-response,275,1394011,0.0-17.0-1.7,86320,List2A,white,man,,,,null,,,,,,,,,
null,is being seduced by,,html-keyboard-response,276,1396013,0.0-17.0-2.7,86320,List2A,white,man,,,,null,,,,,,,,,
13431.1,,,survey-text,277,1409450,0.0-17.0-3.7,86320,List2A,white,man,,,,,"{""Q0"":""Ruth is being seduced by Dave""}","<img src=""stim_listA/seduce2.gif""style=""height:400px;""></stim_listA>",is being seduced by,,,,,,
null,"<div style=""font-size:60px;"">+</div>",,html-keyboard-response,278,1409953,0.0-17.0-0.8,86320,List2A,white,man,,,,null,,,,,,,,,
null,"<img src=""stim_listA/seduce7.gif""style=""height:400px;""></stim_listA>",,html-keyboard-response,279,1411958,0.0-17.0-1.8,86320,List2A,white,man,,,,null,,,,,,,,,
null,is seducing,,html-keyboard-response,280,1413961,0.0-17.0-2.8,86320,List2A,white,man,,,,null,,,,,,,,,
16558.6,,,survey-text,281,1430524,0.0-17.0-3.8,86320,List2A,white,man,,,,,"{""Q0"":""Kate is seducing Ruth""}","<img src=""stim_listA/seduce7.gif""style=""height:400px;""></stim_listA>",is seducing,,,,,,
null,"<div style=""font-size:60px;"">+</div>",,html-keyboard-response,282,1431027,0.0-17.0-0.9,86320,List2A,white,man,,,,null,,,,,,,,,
null,"<img src=""stim_listA/touch3.gif""style=""height:400px;""></stim_listA>",,html-keyboard-response,283,1433031,0.0-17.0-1.9,86320,List2A,white,man,,,,null,,,,,,,,,
null,is touching,,html-keyboard-response,284,1435034,0.0-17.0-2.9,86320,List2A,white,man,,,,null,,,,,,,,,
10548.2,,,survey-text,285,1445586,0.0-17.0-3.9,86320,List2A,white,man,,,,,"{""Q0"":""Kate is touching Mike""}","<img src=""stim_listA/touch3.gif""style=""height:400px;""></stim_listA>",is touching,,,,,,
null,"<div style=""font-size:60px;"">+</div>",,html-keyboard-response,286,1446090,0.0-17.0-0.10,86320,List2A,white,man,,,,null,,,,,,,,,
null,"<img src=""stim_listA/copy4.gif""style=""height:400px;""></stim_listA>",,html-keyboard-response,287,1448095,0.0-17.0-1.10,86320,List2A,white,man,,,,null,,,,,,,,,
null,is being copied by,,html-keyboard-response,288,1450097,0.0-17.0-2.10,86320,List2A,white,man,,,,null,,,,,,,,,
16297.9,,,survey-text,289,1466402,0.0-17.0-3.10,86320,List2A,white,man,,,,,"{""Q0"":""Fred is being copied by Beth""}","<img src=""stim_listA/copy4.gif""style=""height:400px;""></stim_listA>",is being copied by,,,,,,
null,"<div style=""font-size:60px;"">+</div>",,html-keyboard-response,290,1466906,0.0-17.0-0.11,86320,List2A,white,man,,,,null,,,,,,,,,
null,"<img src=""stim_listA/shout2.gif""style=""height:400px;""></stim_listA>",,html-keyboard-response,291,1468910,0.0-17.0-1.11,86320,List2A,white,man,,,,null,,,,,,,,,
null,is being shouted at by,,html-keyboard-response,292,1470911,0.0-17.0-2.11,86320,List2A,white,man,,,,null,,,,,,,,,
14534.7,,,survey-text,293,1485451,0.0-17.0-3.11,86320,List2A,white,man,,,,,"{""Q0"":""Dave is being shouted at by Jane""}","<img src=""stim_listA/shout2.gif""style=""height:400px;""></stim_listA>",is being shouted at by,,,,,,
null,"<div style=""font-size:60px;"">+</div>",,html-keyboard-response,294,1485954,0.0-17.0-0.12,86320,List2A,white,man,,,,null,,,,,,,,,
null,"<img src=""stim_listA/kiss7.gif""style=""height:400px;""></stim_listA>",,html-keyboard-response,295,1487958,0.0-17.0-1.12,86320,List2A,white,man,,,,null,,,,,,,,,
null,is kissing,,html-keyboard-response,296,1489960,0.0-17.0-2.12,86320,List2A,white,man,,,,null,,,,,,,,,
11199.1,,,survey-text,297,1501165,0.0-17.0-3.12,86320,List2A,white,man,,,,,"{""Q0"":""Beth is kissing Ruth""}","<img src=""stim_listA/kiss7.gif""style=""height:400px;""></stim_listA>",is kissing,,,,,,
null,"<div style=""font-size:60px;"">+</div>",,html-keyboard-response,298,1501668,0.0-17.0-0.13,86320,List2A,white,man,,,,null,,,,,,,,,
null,"<img src=""stim_listA/touch4.gif""style=""height:400px;""></stim_listA>",,html-keyboard-response,299,1503672,0.0-17.0-1.13,86320,List2A,white,man,,,,null,,,,,,,,,
null,is being touched by,,html-keyboard-response,300,1505674,0.0-17.0-2.13,86320,List2A,white,man,,,,null,,,,,,,,,
14333.3,,,survey-text,301,1520012,0.0-17.0-3.13,86320,List2A,white,man,,,,,"{""Q0"":""Fred is being touched by Beth""}","<img src=""stim_listA/touch4.gif""style=""height:400px;""></stim_listA>",is being touched by,,,,,,
null,"<div style=""font-size:60px;"">+</div>",,html-keyboard-response,302,1520516,0.0-17.0-0.14,86320,List2A,white,man,,,,null,,,,,,,,,
null,"<img src=""stim_listA/kiss1.gif""style=""height:400px;""></stim_listA>",,html-keyboard-response,303,1522520,0.0-17.0-1.14,86320,List2A,white,man,,,,null,,,,,,,,,
null,is kissing,,html-keyboard-response,304,1524522,0.0-17.0-2.14,86320,List2A,white,man,,,,null,,,,,,,,,
11657.3,,,survey-text,305,1536184,0.0-17.0-3.14,86320,List2A,white,man,,,,,"{""Q0"":""Ruth is kissing Luke""}","<img src=""stim_listA/kiss1.gif""style=""height:400px;""></stim_listA>",is kissing,,,,,,
null,"<div style=""font-size:60px;"">+</div>",,html-keyboard-response,306,1536687,0.0-17.0-0.15,86320,List2A,white,man,,,,null,,,,,,,,,
null,"<img src=""stim_listA/kiss6.gif""style=""height:400px;""></stim_listA>",,html-keyboard-response,307,1538692,0.0-17.0-1.15,86320,List2A,white,man,,,,null,,,,,,,,,
null,is being kissed by,,html-keyboard-response,308,1540694,0.0-17.0-2.15,86320,List2A,white,man,,,,null,,,,,,,,,
11508.3,,,survey-text,309,1552209,0.0-17.0-3.15,86320,List2A,white,man,,,,,"{""Q0"":""Mike is being kissed by Dave""}","<img src=""stim_listA/kiss6.gif""style=""height:400px;""></stim_listA>",is being kissed by,,,,,,
null,"<div style=""font-size:60px;"">+</div>",,html-keyboard-response,310,1552712,0.0-17.0-0.16,86320,List2A,white,man,,,,null,,,,,,,,,
null,"<img src=""stim_listA/greet8.gif""style=""height:400px;""></stim_listA>",,html-keyboard-response,311,1554717,0.0-17.0-1.16,86320,List2A,white,man,,,,null,,,,,,,,,
null,is being greeted by,,html-keyboard-response,312,1556719,0.0-17.0-2.16,86320,List2A,white,man,,,,null,,,,,,,,,
12778,,,survey-text,313,1569502,0.0-17.0-3.16,86320,List2A,white,man,,,,,"{""Q0"":""Kate is being greeted by Ruth""}","<img src=""stim_listA/greet8.gif""style=""height:400px;""></stim_listA>",is being greeted by,,,,,,
null,"<div style=""font-size:60px;"">+</div>",,html-keyboard-response,314,1570005,0.0-17.0-0.17,86320,List2A,white,man,,,,null,,,,,,,,,
null,"<img src=""stim_listA/challenge4.gif""style=""height:400px;""></stim_listA>",,html-keyboard-response,315,1572009,0.0-17.0-1.17,86320,List2A,white,man,,,,null,,,,,,,,,
null,is being challenged by,,html-keyboard-response,316,1574012,0.0-17.0-2.17,86320,List2A,white,man,,,,null,,,,,,,,,
14667.2,,,survey-text,317,1588688,0.0-17.0-3.17,86320,List2A,white,man,,,,,"{""Q0"":""Kate is being challenged by Fred""}","<img src=""stim_listA/challenge4.gif""style=""height:400px;""></stim_listA>",is being challenged by,,,,,,
null,"<div style=""font-size:60px;"">+</div>",,html-keyboard-response,318,1589192,0.0-17.0-0.18,86320,List2A,white,man,,,,null,,,,,,,,,
null,"<img src=""stim_listA/shout6.gif""style=""height:400px;""></stim_listA>",,html-keyboard-response,319,1591196,0.0-17.0-1.18,86320,List2A,white,man,,,,null,,,,,,,,,
null,is being shouted at by,,html-keyboard-response,320,1593199,0.0-17.0-2.18,86320,List2A,white,man,,,,null,,,,,,,,,
11667.1,,,survey-text,321,1604872,0.0-17.0-3.18,86320,List2A,white,man,,,,,"{""Q0"":""Dave is being shouted at by Mike""}","<img src=""stim_listA/shout6.gif""style=""height:400px;""></stim_listA>",is being shouted at by,,,,,,
null,"<div style=""font-size:60px;"">+</div>",,html-keyboard-response,322,1605375,0.0-17.0-0.19,86320,List2A,white,man,,,,null,,,,,,,,,
null,"<img src=""stim_listA/greet6.gif""style=""height:400px;""></stim_listA>",,html-keyboard-response,323,1607379,0.0-17.0-1.19,86320,List2A,white,man,,,,null,,,,,,,,,
null,is being greeted by,,html-keyboard-response,324,1609382,0.0-17.0-2.19,86320,List2A,white,man,,,,null,,,,,,,,,
11244.4,,,survey-text,325,1620632,0.0-17.0-3.19,86320,List2A,white,man,,,,,"{""Q0"":""Luke is being greeted by Mike""}","<img src=""stim_listA/greet6.gif""style=""height:400px;""></stim_listA>",is being greeted by,,,,,,
4053.3,"<img src='img/portrait_matrix_list2.jpg' style='width:900px;height:500px;''></img><p>If you have memorised all the portraits and names and are ready to start, press Continue.</p><p><strong>Please note: Your memory of these faces will be tested 4 times during this experiment.</strong></p>",0,html-button-response,326,1624689,0.0-18.0-0.0,86320,List2A,white,man,,,,,,,,,,,,,
3449.9,"<img src=""portrait/WW1.jpg""style=""height:400px;""></img>",1,html-button-response,327,1629143,0.0-18.0-1.0,86320,List2A,white,man,,TRUE,1,,,,,,,,,,
null,CORRECT,,html-keyboard-response,328,1630646,0.0-18.0-2.0-0.0,86320,List2A,white,man,,,,null,,,,,,,,,
1857.7,"<img src=""portrait/WM1.jpg""style=""height:400px;""></img>",6,html-button-response,329,1632507,0.0-18.0-4.0,86320,List2A,white,man,,TRUE,6,,,,,,,,,,
null,CORRECT,,html-keyboard-response,330,1634010,0.0-18.0-5.0-0.0,86320,List2A,white,man,,,,null,,,,,,,,,
1779.7,"<img src=""portrait/BM2.jpg""style=""height:400px;""></img>",5,html-button-response,331,1635793,0.0-18.0-7.0,86320,List2A,white,man,,TRUE,5,,,,,,,,,,
null,CORRECT,,html-keyboard-response,332,1637296,0.0-18.0-8.0-0.0,86320,List2A,white,man,,,,null,,,,,,,,,
2048,"<img src=""portrait/BW2.jpg""style=""height:400px;""></img>",2,html-button-response,333,1639347,0.0-18.0-10.0,86320,List2A,white,man,,TRUE,2,,,,,,,,,,
null,CORRECT,,html-keyboard-response,334,1640850,0.0-18.0-11.0-0.0,86320,List2A,white,man,,,,null,,,,,,,,,
1593.5,"<img src=""portrait/WW2.jpg""style=""height:400px;""></img>",3,html-button-response,335,1642447,0.0-18.0-13.0,86320,List2A,white,man,,TRUE,3,,,,,,,,,,
null,CORRECT,,html-keyboard-response,336,1643950,0.0-18.0-14.0-0.0,86320,List2A,white,man,,,,null,,,,,,,,,
1763.9,"<img src=""portrait/WM2.jpg""style=""height:400px;""></img>",7,html-button-response,337,1645717,0.0-18.0-16.0,86320,List2A,white,man,,TRUE,7,,,,,,,,,,
null,CORRECT,,html-keyboard-response,338,1647221,0.0-18.0-17.0-0.0,86320,List2A,white,man,,,,null,,,,,,,,,
1437,"<img src=""portrait/BW1.jpg""style=""height:400px;""></img>",0,html-button-response,339,1648662,0.0-18.0-19.0,86320,List2A,white,man,,TRUE,0,,,,,,,,,,
null,CORRECT,,html-keyboard-response,340,1650165,0.0-18.0-20.0-0.0,86320,List2A,white,man,,,,null,,,,,,,,,
2468.2,"<img src=""portrait/BM1.jpg""style=""height:400px;""></img>",4,html-button-response,341,1652637,0.0-18.0-22.0,86320,List2A,white,man,,TRUE,4,,,,,,,,,,
null,CORRECT,,html-keyboard-response,342,1654141,0.0-18.0-23.0-0.0,86320,List2A,white,man,,,,null,,,,,,,,,
1309.7,<p>You got 8 out of 8 right first time. Press Continue.</p>,0,html-button-response,343,1655455,0.0-18.0-25.0,86320,List2A,white,man,,,,,,,,,,,,,
null,"<div style=""font-size:60px;"">+</div>",,html-keyboard-response,344,1656958,0.0-19.0-0.0,86320,List2A,white,man,,,,null,,,,,,,,,
null,"<img src=""stim_listA/seduce6.gif""style=""height:400px;""></stim_listA>",,html-keyboard-response,345,1658963,0.0-19.0-1.0,86320,List2A,white,man,,,,null,,,,,,,,,
null,is being seduced by,,html-keyboard-response,346,1660965,0.0-19.0-2.0,86320,List2A,white,man,,,,null,,,,,,,,,
12773,,,survey-text,347,1673744,0.0-19.0-3.0,86320,List2A,white,man,,,,,"{""Q0"":""Dave is being seduced by Fred""}","<img src=""stim_listA/seduce6.gif""style=""height:400px;""></stim_listA>",is being seduced by,,,,,,
null,"<div style=""font-size:60px;"">+</div>",,html-keyboard-response,348,1674247,0.0-19.0-0.1,86320,List2A,white,man,,,,null,,,,,,,,,
null,"<img src=""stim_listA/seduce5.gif""style=""height:400px;""></stim_listA>",,html-keyboard-response,349,1676252,0.0-19.0-1.1,86320,List2A,white,man,,,,null,,,,,,,,,
null,is seducing,,html-keyboard-response,350,1678254,0.0-19.0-2.1,86320,List2A,white,man,,,,null,,,,,,,,,
11239.5,,,survey-text,351,1689500,0.0-19.0-3.1,86320,List2A,white,man,,,,,"{""Q0"":""Mike is seducing Luke""}","<img src=""stim_listA/seduce5.gif""style=""height:400px;""></stim_listA>",is seducing,,,,,,
null,"<div style=""font-size:60px;"">+</div>",,html-keyboard-response,352,1690004,0.0-19.0-0.2,86320,List2A,white,man,,,,null,,,,,,,,,
null,"<img src=""stim_listA/hug3.gif""style=""height:400px;""></stim_listA>",,html-keyboard-response,353,1692008,0.0-19.0-1.2,86320,List2A,white,man,,,,null,,,,,,,,,
null,is hugging,,html-keyboard-response,354,1694010,0.0-19.0-2.2,86320,List2A,white,man,,,,null,,,,,,,,,
9059.8,,,survey-text,355,1703076,0.0-19.0-3.2,86320,List2A,white,man,,,,,"{""Q0"":""Beth is hugging Fred""}","<img src=""stim_listA/hug3.gif""style=""height:400px;""></stim_listA>",is hugging,,,,,,
null,"<div style=""font-size:60px;"">+</div>",,html-keyboard-response,356,1703580,0.0-19.0-0.3,86320,List2A,white,man,,,,null,,,,,,,,,
null,"<img src=""stim_listA/hug8.gif""style=""height:400px;""></stim_listA>",,html-keyboard-response,357,1705584,0.0-19.0-1.3,86320,List2A,white,man,,,,null,,,,,,,,,
null,is being hugged by,,html-keyboard-response,358,1707588,0.0-19.0-2.3,86320,List2A,white,man,,,,null,,,,,,,,,
13745.1,,,survey-text,359,1721338,0.0-19.0-3.3,86320,List2A,white,man,,,,,"{""Q0"":""Janes is being hugged by Kate""}","<img src=""stim_listA/hug8.gif""style=""height:400px;""></stim_listA>",is being hugged by,,,,,,
null,"<div style=""font-size:60px;"">+</div>",,html-keyboard-response,360,1721842,0.0-19.0-0.4,86320,List2A,white,man,,,,null,,,,,,,,,
null,"<img src=""stim_listA/look1.gif""style=""height:400px;""></stim_listA>",,html-keyboard-response,361,1723847,0.0-19.0-1.4,86320,List2A,white,man,,,,null,,,,,,,,,
null,is looking at,,html-keyboard-response,362,1725849,0.0-19.0-2.4,86320,List2A,white,man,,,,null,,,,,,,,,
9968.4,,,survey-text,363,1735823,0.0-19.0-3.4,86320,List2A,white,man,,,,,"{""Q0"":""Ruth is looking at Luke""}","<img src=""stim_listA/look1.gif""style=""height:400px;""></stim_listA>",is looking at,,,,,,
null,"<div style=""font-size:60px;"">+</div>",,html-keyboard-response,364,1736326,0.0-19.0-0.5,86320,List2A,white,man,,,,null,,,,,,,,,
null,"<img src=""stim_listA/challenge7.gif""style=""height:400px;""></stim_listA>",,html-keyboard-response,365,1738330,0.0-19.0-1.5,86320,List2A,white,man,,,,null,,,,,,,,,
null,is challenging,,html-keyboard-response,366,1740332,0.0-19.0-2.5,86320,List2A,white,man,,,,null,,,,,,,,,
11300.6,,,survey-text,367,1751637,0.0-19.0-3.5,86320,List2A,white,man,,,,,"{""Q0"":""Beth is challenging Jane""}","<img src=""stim_listA/challenge7.gif""style=""height:400px;""></stim_listA>",is challenging,,,,,,
null,"<div style=""font-size:60px;"">+</div>",,html-keyboard-response,368,1752139,0.0-19.0-0.6,86320,List2A,white,man,,,,null,,,,,,,,,
null,"<img src=""stim_listA/seduce8.gif""style=""height:400px;""></stim_listA>",,html-keyboard-response,369,1754144,0.0-19.0-1.6,86320,List2A,white,man,,,,null,,,,,,,,,
null,is being seduced by,,html-keyboard-response,370,1756146,0.0-19.0-2.6,86320,List2A,white,man,,,,null,,,,,,,,,
17450.9,,,survey-text,371,1773602,0.0-19.0-3.6,86320,List2A,white,man,,,,,"{""Q0"":""Jane is being seduced by Beth""}","<img src=""stim_listA/seduce8.gif""style=""height:400px;""></stim_listA>",is being seduced by,,,,,,
null,"<div style=""font-size:60px;"">+</div>",,html-keyboard-response,372,1774104,0.0-19.0-0.7,86320,List2A,white,man,,,,null,,,,,,,,,
null,"<img src=""stim_listA/touch2.gif""style=""height:400px;""></stim_listA>",,html-keyboard-response,373,1776109,0.0-19.0-1.7,86320,List2A,white,man,,,,null,,,,,,,,,
null,is being touched by,,html-keyboard-response,374,1778111,0.0-19.0-2.7,86320,List2A,white,man,,,,null,,,,,,,,,
16390.7,,,survey-text,375,1794507,0.0-19.0-3.7,86320,List2A,white,man,,,,,"{""Q0"":""Ruth is being touched by Luke""}","<img src=""stim_listA/touch2.gif""style=""height:400px;""></stim_listA>",is being touched by,,,,,,
null,"<div style=""font-size:60px;"">+</div>",,html-keyboard-response,376,1795011,0.0-19.0-0.8,86320,List2A,white,man,,,,null,,,,,,,,,
null,"<img src=""stim_listA/oppose1.gif""style=""height:400px;""></stim_listA>",,html-keyboard-response,377,1797016,0.0-19.0-1.8,86320,List2A,white,man,,,,null,,,,,,,,,
null,is opposing,,html-keyboard-response,378,1799018,0.0-19.0-2.8,86320,List2A,white,man,,,,null,,,,,,,,,
11596.3,,,survey-text,379,1810620,0.0-19.0-3.8,86320,List2A,white,man,,,,,"{""Q0"":""Dave is opposing Jane""}","<img src=""stim_listA/oppose1.gif""style=""height:400px;""></stim_listA>",is opposing,,,,,,
null,"<div style=""font-size:60px;"">+</div>",,html-keyboard-response,380,1811123,0.0-19.0-0.9,86320,List2A,white,man,,,,null,,,,,,,,,
null,"<img src=""stim_listA/shout7.gif""style=""height:400px;""></stim_listA>",,html-keyboard-response,381,1813127,0.0-19.0-1.9,86320,List2A,white,man,,,,null,,,,,,,,,
null,is shouting at,,html-keyboard-response,382,1815129,0.0-19.0-2.9,86320,List2A,white,man,,,,null,,,,,,,,,
9254.2,,,survey-text,383,1824390,0.0-19.0-3.9,86320,List2A,white,man,,,,,"{""Q0"":""Ruth is shouting at Beth""}","<img src=""stim_listA/shout7.gif""style=""height:400px;""></stim_listA>",is shouting at,,,,,,
null,"<div style=""font-size:60px;"">+</div>",,html-keyboard-response,384,1824893,0.0-19.0-0.10,86320,List2A,white,man,,,,null,,,,,,,,,
null,"<img src=""stim_listA/touch1.gif""style=""height:400px;""></stim_listA>",,html-keyboard-response,385,1826897,0.0-19.0-1.10,86320,List2A,white,man,,,,null,,,,,,,,,
null,is touching,,html-keyboard-response,386,1828900,0.0-19.0-2.10,86320,List2A,white,man,,,,null,,,,,,,,,
8801.9,,,survey-text,387,1837709,0.0-19.0-3.10,86320,List2A,white,man,,,,,"{""Q0"":""Jane is touching Dave""}","<img src=""stim_listA/touch1.gif""style=""height:400px;""></stim_listA>",is touching,,,,,,
null,"<div style=""font-size:60px;"">+</div>",,html-keyboard-response,388,1838214,0.0-19.0-0.11,86320,List2A,white,man,,,,null,,,,,,,,,
null,"<img src=""stim_listA/look8.gif""style=""height:400px;""></stim_listA>",,html-keyboard-response,389,1840218,0.0-19.0-1.11,86320,List2A,white,man,,,,null,,,,,,,,,
null,is being looked at by,,html-keyboard-response,390,1842221,0.0-19.0-2.11,86320,List2A,white,man,,,,null,,,,,,,,,
12124.9,,,survey-text,391,1854350,0.0-19.0-3.11,86320,List2A,white,man,,,,,"{""Q0"":""Kate is being looked at by Jane""}","<img src=""stim_listA/look8.gif""style=""height:400px;""></stim_listA>",is being looked at by,,,,,,
null,"<div style=""font-size:60px;"">+</div>",,html-keyboard-response,392,1854854,0.0-19.0-0.12,86320,List2A,white,man,,,,null,,,,,,,,,
null,"<img src=""stim_listA/greet7.gif""style=""height:400px;""></stim_listA>",,html-keyboard-response,393,1856858,0.0-19.0-1.12,86320,List2A,white,man,,,,null,,,,,,,,,
null,is greeting,,html-keyboard-response,394,1858861,0.0-19.0-2.12,86320,List2A,white,man,,,,null,,,,,,,,,
7771.3,,,survey-text,395,1866636,0.0-19.0-3.12,86320,List2A,white,man,,,,,"{""Q0"":""Beth is greeting Jane""}","<img src=""stim_listA/greet7.gif""style=""height:400px;""></stim_listA>",is greeting,,,,,,
null,"<div style=""font-size:60px;"">+</div>",,html-keyboard-response,396,1867140,0.0-19.0-0.13,86320,List2A,white,man,,,,null,,,,,,,,,
null,"<img src=""stim_listA/oppose2.gif""style=""height:400px;""></stim_listA>",,html-keyboard-response,397,1869145,0.0-19.0-1.13,86320,List2A,white,man,,,,null,,,,,,,,,
null,is being opposed by,,html-keyboard-response,398,1871148,0.0-19.0-2.13,86320,List2A,white,man,,,,null,,,,,,,,,
15060,,,survey-text,399,1886213,0.0-19.0-3.13,86320,List2A,white,man,,,,,"{""Q0"":""Ruth is being opposed by Luke""}","<img src=""stim_listA/oppose2.gif""style=""height:400px;""></stim_listA>",is being opposed by,,,,,,
null,"<div style=""font-size:60px;"">+</div>",,html-keyboard-response,400,1886716,0.0-19.0-0.14,86320,List2A,white,man,,,,null,,,,,,,,,
null,"<img src=""stim_listA/kiss3.gif""style=""height:400px;""></stim_listA>",,html-keyboard-response,401,1888720,0.0-19.0-1.14,86320,List2A,white,man,,,,null,,,,,,,,,
null,is kissing,,html-keyboard-response,402,1890722,0.0-19.0-2.14,86320,List2A,white,man,,,,null,,,,,,,,,
9793.6,,,survey-text,403,1900521,0.0-19.0-3.14,86320,List2A,white,man,,,,,"{""Q0"":""Beth is kissing Fred""}","<img src=""stim_listA/kiss3.gif""style=""height:400px;""></stim_listA>",is kissing,,,,,,
null,"<div style=""font-size:60px;"">+</div>",,html-keyboard-response,404,1901023,0.0-19.0-0.15,86320,List2A,white,man,,,,null,,,,,,,,,
null,"<img src=""stim_listA/shout8.gif""style=""height:400px;""></stim_listA>",,html-keyboard-response,405,1903027,0.0-19.0-1.15,86320,List2A,white,man,,,,null,,,,,,,,,
null,is being shouted at by,,html-keyboard-response,406,1905030,0.0-19.0-2.15,86320,List2A,white,man,,,,null,,,,,,,,,
18266.5,,,survey-text,407,1923301,0.0-19.0-3.15,86320,List2A,white,man,,,,,"{""Q0"":""Kate is being shouted at by Jane""}","<img src=""stim_listA/shout8.gif""style=""height:400px;""></stim_listA>",is being shouted at by,,,,,,
null,"<div style=""font-size:60px;"">+</div>",,html-keyboard-response,408,1923803,0.0-19.0-0.16,86320,List2A,white,man,,,,null,,,,,,,,,
null,"<img src=""stim_listA/shout5.gif""style=""height:400px;""></stim_listA>",,html-keyboard-response,409,1925808,0.0-19.0-1.16,86320,List2A,white,man,,,,null,,,,,,,,,
null,is shouting at,,html-keyboard-response,410,1927810,0.0-19.0-2.16,86320,List2A,white,man,,,,null,,,,,,,,,
28044.2,,,survey-text,411,1955859,0.0-19.0-3.16,86320,List2A,white,man,,,,,"{""Q0"":""Luke is looking at Fred""}","<img src=""stim_listA/shout5.gif""style=""height:400px;""></stim_listA>",is shouting at,,,,,,
null,"<div style=""font-size:60px;"">+</div>",,html-keyboard-response,412,1956361,0.0-19.0-0.17,86320,List2A,white,man,,,,null,,,,,,,,,
null,"<img src=""stim_listA/kiss5.gif""style=""height:400px;""></stim_listA>",,html-keyboard-response,413,1958365,0.0-19.0-1.17,86320,List2A,white,man,,,,null,,,,,,,,,
null,is kissing,,html-keyboard-response,414,1960368,0.0-19.0-2.17,86320,List2A,white,man,,,,null,,,,,,,,,
8376.3,,,survey-text,415,1968749,0.0-19.0-3.17,86320,List2A,white,man,,,,,"{""Q0"":""Fred is kissing Luke""}","<img src=""stim_listA/kiss5.gif""style=""height:400px;""></stim_listA>",is kissing,,,,,,
null,"<div style=""font-size:60px;"">+</div>",,html-keyboard-response,416,1969251,0.0-19.0-0.18,86320,List2A,white,man,,,,null,,,,,,,,,
null,"<img src=""stim_listA/shout3.gif""style=""height:400px;""></stim_listA>",,html-keyboard-response,417,1971255,0.0-19.0-1.18,86320,List2A,white,man,,,,null,,,,,,,,,
null,is shouting at,,html-keyboard-response,418,1973257,0.0-19.0-2.18,86320,List2A,white,man,,,,null,,,,,,,,,
8435.3,,,survey-text,419,1981698,0.0-19.0-3.18,86320,List2A,white,man,,,,,"{""Q0"":""Beth is shouting at Fred""}","<img src=""stim_listA/shout3.gif""style=""height:400px;""></stim_listA>",is shouting at,,,,,,
null,"<div style=""font-size:60px;"">+</div>",,html-keyboard-response,420,1982202,0.0-19.0-0.19,86320,List2A,white,man,,,,null,,,,,,,,,
null,"<img src=""stim_listA/copy3.gif""style=""height:400px;""></stim_listA>",,html-keyboard-response,421,1984206,0.0-19.0-1.19,86320,List2A,white,man,,,,null,,,,,,,,,
null,is copying,,html-keyboard-response,422,1986208,0.0-19.0-2.19,86320,List2A,white,man,,,,null,,,,,,,,,
8994.2,,,survey-text,423,1995208,0.0-19.0-3.19,86320,List2A,white,man,,,,,"{""Q0"":""Beth is copying Mike""}","<img src=""stim_listA/copy3.gif""style=""height:400px;""></stim_listA>",is copying,,,,,,
6878.7,<p>Thank you for completing that task.</p><p>The final part of this session is a questionnaire that will take about 4 minutes.</p><p>Press Continue.</p>,0,html-button-response,424,2002094,0.0-20.0,86320,List2A,white,man,,,,,,,,,,,,,
45435.5,,,survey-text,425,2048540,0.0-21.0,86320,List2A,white,man,,,,,"{""Q0"":""68"",""Q1"":""English"",""Q2"":""English"",""Q3"":""USA"",""Q4"":""American"",""Q5"":""Caucasian"",""Q6"":""male""}",,,demographics,,,,,
4518.5,<p>Have you lived in the USA for the last 5 years or more?</p>,0,html-button-response,426,2053066,0.0-22.0,86320,List2A,white,man,,,,,,,,fiveyears,,,,,
4545.1,<p>Move the slider to show the extent to which you agree with the following statements.</p>,0,html-button-response,427,2058615,0.0-23.0,86320,List2A,white,man,,,,,,,,,,,,,
6073.6,,,html-slider-response,428,2065696,0.0-24.0-0.0-0.0,86320,List2A,white,man,,,,,,,,survey_gender,100,,,I have a lot in common with my friends.,filler
6884.5,,,html-slider-response,429,2072587,0.0-24.0-0.0-0.1,86320,List2A,white,man,,,,,,,,survey_gender,34,,,I am similar to the average person of my gender.,similar
10786.6,,,html-slider-response,430,2083379,0.0-24.0-0.0-0.2,86320,List2A,white,man,,,,,,,,survey_gender,12,,,People of my gender are very similar to each other.,verysimilar
5985.7,,,html-slider-response,431,2089371,0.0-24.0-0.0-0.3,86320,List2A,white,man,,,,,,,,survey_gender,100,,,The fact that I am my gender is an important part of my identity.,identity
19048.7,,,html-slider-response,432,2108425,0.0-24.0-0.0-0.4,86320,List2A,white,man,,,,,,,,survey_gender,88,,,I would say I am an animal person.,filler
4180.9,,,html-slider-response,433,2112613,0.0-24.0-0.0-0.5,86320,List2A,white,man,,,,,,,,survey_gender,100,,,Being around my friends gives me a good feeling.,filler
5822.9,,,html-slider-response,434,2118440,0.0-24.0-0.0-0.6,86320,List2A,white,man,,,,,,,,survey_gender,53,,,Family is not more important to me than friendship.,filler
3292.8,,,html-slider-response,435,2121739,0.0-24.0-0.0-0.7,86320,List2A,white,man,,,,,,,,survey_gender,80,,,It is pleasant to be my gender.,pleasant
5576.5,,,html-slider-response,436,2127319,0.0-24.0-0.0-0.8,86320,List2A,white,man,,,,,,,,survey_gender,35,,,I feel solidarity with my gender.,solidarity
3262.7,,,html-slider-response,437,2130587,0.0-24.0-0.0-0.9,86320,List2A,white,man,,,,,,,,survey_gender,43,,,I feel a bond with my gender.,bond
4003.4,,,html-slider-response,438,2134595,0.0-24.0-0.0-0.10,86320,List2A,white,man,,,,,,,,survey_gender,98,,,I often think about my actions.,filler
3076.9,,,html-slider-response,439,2137677,0.0-24.0-0.0-0.11,86320,List2A,white,man,,,,,,,,survey_gender,100,,,I feel a bond with my friends.,filler
4550,,,html-slider-response,440,2142231,0.0-24.0-0.0-0.12,86320,List2A,white,man,,,,,,,,survey_gender,95,,,I am glad to be my gender.,glad
4117.2,,,html-slider-response,441,2146353,0.0-24.0-0.0-0.13,86320,List2A,white,man,,,,,,,,survey_gender,100,,,Being my gender is an important part of how I see myself.,important
6926.8,,,html-slider-response,442,2153285,0.0-24.0-0.0-0.14,86320,List2A,white,man,,,,,,,,survey_gender,62,,,It is not always easy for people to know what I am thinking.,filler
6567,,,html-slider-response,443,2159858,0.0-24.0-0.0-0.15,86320,List2A,white,man,,,,,,,,survey_gender,34,,,I have a lot in common with the average person of my gender.,average
4039.4,,,html-slider-response,444,2163903,0.0-24.0-0.0-0.16,86320,List2A,white,man,,,,,,,,survey_gender,24,,,People of my gender have a lot in common with each other.,common
3911.9,,,html-slider-response,445,2167821,0.0-24.0-0.0-0.17,86320,List2A,white,man,,,,,,,,survey_gender,100,,,I am glad to have the friends that I have.,filler
6081.8,,,html-slider-response,446,2173909,0.0-24.0-0.0-0.18,86320,List2A,white,man,,,,,,,,survey_gender,78,,,Most of the friends in my life are very similar to me.,filler
4713.1,,,html-slider-response,447,2178627,0.0-24.0-0.0-0.19,86320,List2A,white,man,,,,,,,,survey_gender,79,,,My friends have a lot in common with each other.,filler
3575.3,,,html-slider-response,448,2182209,0.0-24.0-0.0-0.20,86320,List2A,white,man,,,,,,,,survey_gender,51,,,I feel committed to my gender.,committed
4138.6,,,html-slider-response,449,2186351,0.0-24.0-0.0-0.21,86320,List2A,white,man,,,,,,,,survey_gender,90,,,Being my gender gives me a good feeling.,feeling
5213.1,,,html-slider-response,450,2191569,0.0-24.0-0.0-0.22,86320,List2A,white,man,,,,,,,,survey_gender,95,,,My friends understand me.,filler
6669.2,,,html-slider-response,451,2198245,0.0-24.0-0.0-0.23,86320,List2A,white,man,,,,,,,,survey_gender,17,,,I think that my gender has a lot to be proud of.,proud
4992.4,,,html-slider-response,452,2203243,0.0-24.0-0.0-0.24,86320,List2A,white,man,,,,,,,,survey_gender,94,,,I consider myself a highly empathetic person.,filler
5271.9,,,html-slider-response,453,2208521,0.0-24.0-0.0-0.25,86320,List2A,white,man,,,,,,,,survey_gender,1,,,Routine is not important to me.,filler
4441.6,,,html-slider-response,454,2212969,0.0-24.0-0.0-0.26,86320,List2A,white,man,,,,,,,,survey_gender,100,,,I feel solidarity with my friends.,filler
4755.2,,,html-slider-response,455,2217729,0.0-24.0-0.0-0.27,86320,List2A,white,man,,,,,,,,survey_gender,73,,,I often think about the fact that I am my gender.,often
4801.1,,,html-slider-response,456,2222534,0.0-24.0-1.0-0.0,86320,List2A,white,man,,,,,,,,survey_race,59,,,I often think about the fact that I am my race.,often
6142.8,,,html-slider-response,457,2228683,0.0-24.0-1.0-0.1,86320,List2A,white,man,,,,,,,,survey_race,31,,,I feel committed to my race.,committed
5096.8,,,html-slider-response,458,2233785,0.0-24.0-1.0-0.2,86320,List2A,white,man,,,,,,,,survey_race,14,,,I am similar to the average person of my race.,similar
8410.1,,,html-slider-response,459,2242201,0.0-24.0-1.0-0.3,86320,List2A,white,man,,,,,,,,survey_race,48,,,I am glad to be my race.,glad
7717.8,,,html-slider-response,460,2249924,0.0-24.0-1.0-0.4,86320,List2A,white,man,,,,,,,,survey_race,19,,,I feel solidarity with my race.,solidarity
7258.5,,,html-slider-response,461,2257188,0.0-24.0-1.0-0.5,86320,List2A,white,man,,,,,,,,survey_race,7,,,I am glad to be my age.,filler
7580.4,,,html-slider-response,462,2264775,0.0-24.0-1.0-0.6,86320,List2A,white,man,,,,,,,,survey_race,1,,,People of my race have a lot in common with each other.,common
5810.2,,,html-slider-response,463,2270591,0.0-24.0-1.0-0.7,86320,List2A,white,man,,,,,,,,survey_race,88,,,People my age have a lot in common with each other.,filler
5146.2,,,html-slider-response,464,2275742,0.0-24.0-1.0-0.8,86320,List2A,white,man,,,,,,,,survey_race,30,,,I feel a bond with my race.,bond
3575.4,,,html-slider-response,465,2279323,0.0-24.0-1.0-0.9,86320,List2A,white,man,,,,,,,,survey_race,95,,,I feel solidarity with people the same age as me.,filler
8388.6,,,html-slider-response,466,2287716,0.0-24.0-1.0-0.10,86320,List2A,white,man,,,,,,,,survey_race,11,,,Being my race is an important part of how I see myself.,important
4195.5,,,html-slider-response,467,2291917,0.0-24.0-1.0-0.11,86320,List2A,white,man,,,,,,,,survey_race,41,,,It is pleasant to be my race.,pleasant
4386.7,,,html-slider-response,468,2296310,0.0-24.0-1.0-0.12,86320,List2A,white,man,,,,,,,,survey_race,16,,,Getting older does not worry me.,filler
3641.6,,,html-slider-response,469,2299957,0.0-24.0-1.0-0.13,86320,List2A,white,man,,,,,,,,survey_race,91,,,I feel a bond with people the same age as me.,filler
4990.2,,,html-slider-response,470,2304954,0.0-24.0-1.0-0.14,86320,List2A,white,man,,,,,,,,survey_race,5,,,I am glad to be the age I am.,filler
3689.2,,,html-slider-response,471,2308649,0.0-24.0-1.0-0.15,86320,List2A,white,man,,,,,,,,survey_race,59,,,"The older I get, the wiser I feel.",filler
3599.2,,,html-slider-response,472,2312253,0.0-24.0-1.0-0.16,86320,List2A,white,man,,,,,,,,survey_race,92,,,I have a lot in common with people of a similar age to me.,filler
6671.6,,,html-slider-response,473,2318927,0.0-24.0-1.0-0.17,86320,List2A,white,man,,,,,,,,survey_race,68,,,The fact that I am my race is an important part of my identity.,identity
5144.2,,,html-slider-response,474,2324075,0.0-24.0-1.0-0.18,86320,List2A,white,man,,,,,,,,survey_race,25,,,My age is not an important part of who I am.,filler
5094.7,,,html-slider-response,475,2329175,0.0-24.0-1.0-0.19,86320,List2A,white,man,,,,,,,,survey_race,5,,,I consider myself an extrovert.,filler
4886.9,,,html-slider-response,476,2334067,0.0-24.0-1.0-0.20,86320,List2A,white,man,,,,,,,,survey_race,17,,,Being my age gives me a good feeling.,filler
5556,,,html-slider-response,477,2339629,0.0-24.0-1.0-0.21,86320,List2A,white,man,,,,,,,,survey_race,17,,,I have a lot in common with the average person of my race.,average
3698.7,,,html-slider-response,478,2343333,0.0-24.0-1.0-0.22,86320,List2A,white,man,,,,,,,,survey_race,4,,,I enjoy being in large groups.,filler
3301.7,,,html-slider-response,479,2346641,0.0-24.0-1.0-0.23,86320,List2A,white,man,,,,,,,,survey_race,97,,,I consider myself an introvert.,filler
4330.5,,,html-slider-response,480,2350977,0.0-24.0-1.0-0.24,86320,List2A,white,man,,,,,,,,survey_race,26,,,I think that my race has a lot to be proud of.,proud
5191.3,,,html-slider-response,481,2356175,0.0-24.0-1.0-0.25,86320,List2A,white,man,,,,,,,,survey_race,100,,,I often think about the fact that I am my age.,filler
4906.7,,,html-slider-response,482,2361087,0.0-24.0-1.0-0.26,86320,List2A,white,man,,,,,,,,survey_race,23,,,Being my race gives me a good feeling.,feeling
4474.4,,,html-slider-response,483,2365567,0.0-24.0-1.0-0.27,86320,List2A,white,man,,,,,,,,survey_race,5,,,People of my race are very similar to each other.,verysimilar
38678,,,survey-text,484,2404255,0.0-25.0,86320,List2A,white,man,,,,,"{""Q0"":""ccc""}",,,worker_id,,,,,
24135.1,,,external-html,485,2429101,0.0-26.0,86320,List2A,white,man,debrief.html,,,,,,,,,,,,
