"rt","stimulus","button_pressed","trial_type","trial_index","time_elapsed","internal_node_id","subject","list","ppt_race","ppt_gender","url","first_guess","correct","key_press","responses","image_type","phrase_type","test_part","response","stimulus1","stimulus2","question_type","survey_item"
"3249.89999999851","Welcome to the experiment. Press Continue to begin.","0","html-button-response","0","3253","0.0-0.0","86924","List1B","white","man","","","","","","","","","","","","",""
"22727.69999999553","","","external-html","1","28061","0.0-1.0","86924","List1B","white","man","consent.html","","","","","","","","","","","",""
"16742.19999999553","<p>On the next page, you will see portraits of 8 people and their names.</p><p>Your first task is to take a few minutes to memorise the names of these people.</p><p>You will have to recall their names during the rest of the experiment, so it is</p><p>essential that you try to memorise these people and their names as best as you can.</p><br><p><strong>You will then be tested on your memory of these names and portraits.</strong></p><br><p>The experiment will start after you have completed this memory test.</p><br><p>Ready?</p>","0","html-button-response","2","44804","0.0-2.0","86924","List1B","white","man","","","","","","","","","","","","",""
"39109","<img src='img/portrait_matrix_list1.jpg' style='width:900px;height:500px;''></img><p>If you have memorised all the portraits and names and are ready to start, press Continue.</p><p><strong>Please note: Your memory of these faces will be tested 4 times during this experiment.</strong></p>","0","html-button-response","3","84918","0.0-3.0-0.0","86924","List1B","white","man","","","","","","","","","","","","",""
"11235","<img src=""portrait/WM1.jpg""style=""height:400px;""></img>","6","html-button-response","4","97158","0.0-3.0-1.0","86924","List1B","white","man","","true","6","","","","","","","","","",""
"null","CORRECT","","html-keyboard-response","5","98687","0.0-3.0-2.0-0.0","86924","List1B","white","man","","","","null","","","","","","","","",""
"8365.39999999851","<img src=""portrait/BW1.jpg""style=""height:400px;""></img>","0","html-button-response","6","107054","0.0-3.0-4.0","86924","List1B","white","man","","true","0","","","","","","","","","",""
"null","CORRECT","","html-keyboard-response","7","108583","0.0-3.0-5.0-0.0","86924","List1B","white","man","","","","null","","","","","","","","",""
"8310","<img src=""portrait/WW1.jpg""style=""height:400px;""></img>","1","html-button-response","8","116894","0.0-3.0-7.0","86924","List1B","white","man","","true","1","","","","","","","","","",""
"null","CORRECT","","html-keyboard-response","9","118412","0.0-3.0-8.0-0.0","86924","List1B","white","man","","","","null","","","","","","","","",""
"6480","<img src=""portrait/BM2.jpg""style=""height:400px;""></img>","5","html-button-response","10","124894","0.0-3.0-10.0","86924","List1B","white","man","","true","5","","","","","","","","","",""
"null","CORRECT","","html-keyboard-response","11","126404","0.0-3.0-11.0-0.0","86924","List1B","white","man","","","","null","","","","","","","","",""
"14343.69999999553","<img src=""portrait/WM2.jpg""style=""height:400px;""></img>","7","html-button-response","12","140749","0.0-3.0-13.0","86924","List1B","white","man","","true","7","","","","","","","","","",""
"null","CORRECT","","html-keyboard-response","13","142259","0.0-3.0-14.0-0.0","86924","List1B","white","man","","","","null","","","","","","","","",""
"6816.20000000298","<img src=""portrait/BM1.jpg""style=""height:400px;""></img>","4","html-button-response","14","149078","0.0-3.0-16.0","86924","List1B","white","man","","true","4","","","","","","","","","",""
"null","CORRECT","","html-keyboard-response","15","150599","0.0-3.0-17.0-0.0","86924","List1B","white","man","","","","null","","","","","","","","",""
"9348.69999999553","<img src=""portrait/BW2.jpg""style=""height:400px;""></img>","2","html-button-response","16","159950","0.0-3.0-19.0","86924","List1B","white","man","","true","2","","","","","","","","","",""
"null","CORRECT","","html-keyboard-response","17","161466","0.0-3.0-20.0-0.0","86924","List1B","white","man","","","","null","","","","","","","","",""
"5282","<img src=""portrait/WW2.jpg""style=""height:400px;""></img>","3","html-button-response","18","166749","0.0-3.0-22.0","86924","List1B","white","man","","true","3","","","","","","","","","",""
"null","CORRECT","","html-keyboard-response","19","168251","0.0-3.0-23.0-0.0","86924","List1B","white","man","","","","null","","","","","","","","",""
"3335.0999999940395","<p>You got 8 out of 8 right first time. Press Continue.</p>","0","html-button-response","20","171589","0.0-3.0-25.0","86924","List1B","white","man","","","","","","","","","","","","",""
"55900.39999999851","<p>In this experiment, you will view photographs of the people from the memory game interacting.</p><p>By using the <strong>exact</strong> phrase given <i>after</i> the photograph appears and recalling the correct names of the people in the photographs, form a sentence describing the interaction. You do not need to capitalise names.</p><p>Type your answer in the space provided. Please complete every sentence before moving onto the next trial.</p><p>You will only have a few seconds to memorise each given photograph and phrase before you can respond, so try your best to focus.</p><p>An example is given below. Press 'Continue' when you are ready.</p><img src='img/speaking_example.jpg' style='width:800px;height:460px;''></img>","0","html-button-response","21","228510","0.0-4.0","86924","List1B","white","man","","","","","","","","","","","","",""
"3605.10000000149","<p>Before the experiment starts, you will watch two example trials. Press 'Continue'.</p>","0","html-button-response","22","233118","0.0-5.0","86924","List1B","white","man","","","","","","","","","","","","",""
"null","<img src='img/play_eg.gif' style='height:400px;''></img>","","html-keyboard-response","23","236121","0.0-6.0","86924","List1B","white","man","","","","null","","","","","","","","",""
"null","<p>is playing with</p>","","html-keyboard-response","24","238140","0.0-7.0","86924","List1B","white","man","","","","null","","","","","","","","",""
"4776.29999999702","<p><b>Answer:</b> kate is playing with beth</p>","0","html-button-response","25","242918","0.0-8.0","86924","List1B","white","man","","","","","","","","","","","","",""
"null","<img src='img/dance_eg.gif' style='height:400px;''></img>","","html-keyboard-response","26","245935","0.0-9.0","86924","List1B","white","man","","","","null","","","","","","","","",""
"null","<p>is being entertained by</p>","","html-keyboard-response","27","247938","0.0-10.0","86924","List1B","white","man","","","","null","","","","","","","","",""
"5058.5","<p><b>Answer:</b> luke is being entertained by dave</p>","0","html-button-response","28","252998","0.0-11.0","86924","List1B","white","man","","","","","","","","","","","","",""
"9977.89999999851","<p>Ready to start the experiment?</p><br><p><strong>Remember to describe the picture using a full sentence,</strong></p><p><strong>that combines the names of the people with the <i>exact</i> phrase given.</strong></p><p><strong>To receive full payment you must do this correctly.</strong></p><p><strong> You do not need to capitalise names or use punctuation.</strong></p><br><p>Press 'Continue' to begin.</p>","0","html-button-response","29","263982","0.0-12.0","86924","List1B","white","man","","","","","","","","","","","","",""
"null","<div style=""font-size:60px;"">+</div>","","html-keyboard-response","30","265497","0.0-13.0-0.0","86924","List1B","white","man","","","","null","","","","","","","","",""
"null","<img src=""stim_listB/challenge1.gif""style=""height:400px;""></stim_listB>","","html-keyboard-response","31","267505","0.0-13.0-1.0","86924","List1B","white","man","","","","null","","","","","","","","",""
"null","is challenging","","html-keyboard-response","32","269513","0.0-13.0-2.0","86924","List1B","white","man","","","","null","","","","","","","","",""
"24456","","","survey-text","33","293974","0.0-13.0-3.0","86924","List1B","white","man","","","","","{""Q0"":""Mike is challenging beth""}","<img src=""stim_listB/challenge1.gif""style=""height:400px;""></stim_listB>","is challenging","","","","","",""
"null","<div style=""font-size:60px;"">+</div>","","html-keyboard-response","34","294476","0.0-13.0-0.1","86924","List1B","white","man","","","","null","","","","","","","","",""
"null","<img src=""stim_listB/kiss8.gif""style=""height:400px;""></stim_listB>","","html-keyboard-response","35","296478","0.0-13.0-1.1","86924","List1B","white","man","","","","null","","","","","","","","",""
"null","is being kissed by","","html-keyboard-response","36","298505","0.0-13.0-2.1","86924","List1B","white","man","","","","null","","","","","","","","",""
"14920.60000000149","","","survey-text","37","313429","0.0-13.0-3.1","86924","List1B","white","man","","","","","{""Q0"":""Kate is kissing jane""}","<img src=""stim_listB/kiss8.gif""style=""height:400px;""></stim_listB>","is being kissed by","","","","","",""
"null","<div style=""font-size:60px;"">+</div>","","html-keyboard-response","38","313931","0.0-13.0-0.2","86924","List1B","white","man","","","","null","","","","","","","","",""
"null","<img src=""stim_listB/seduce7.gif""style=""height:400px;""></stim_listB>","","html-keyboard-response","39","315937","0.0-13.0-1.2","86924","List1B","white","man","","","","null","","","","","","","","",""
"null","is seducing","","html-keyboard-response","40","317943","0.0-13.0-2.2","86924","List1B","white","man","","","","null","","","","","","","","",""
"15091","","","survey-text","41","333037","0.0-13.0-3.2","86924","List1B","white","man","","","","","{""Q0"":""Beth is seducing jane""}","<img src=""stim_listB/seduce7.gif""style=""height:400px;""></stim_listB>","is seducing","","","","","",""
"null","<div style=""font-size:60px;"">+</div>","","html-keyboard-response","42","333545","0.0-13.0-0.3","86924","List1B","white","man","","","","null","","","","","","","","",""
"null","<img src=""stim_listB/greet6.gif""style=""height:400px;""></stim_listB>","","html-keyboard-response","43","335558","0.0-13.0-1.3","86924","List1B","white","man","","","","null","","","","","","","","",""
"null","is being greeted by","","html-keyboard-response","44","337578","0.0-13.0-2.3","86924","List1B","white","man","","","","null","","","","","","","","",""
"16023.90000000596","","","survey-text","45","353605","0.0-13.0-3.3","86924","List1B","white","man","","","","","{""Q0"":""Fred is being greeted by dave""}","<img src=""stim_listB/greet6.gif""style=""height:400px;""></stim_listB>","is being greeted by","","","","","",""
"null","<div style=""font-size:60px;"">+</div>","","html-keyboard-response","46","354109","0.0-13.0-0.4","86924","List1B","white","man","","","","null","","","","","","","","",""
"null","<img src=""stim_listB/oppose7.gif""style=""height:400px;""></stim_listB>","","html-keyboard-response","47","356127","0.0-13.0-1.4","86924","List1B","white","man","","","","null","","","","","","","","",""
"null","is opposing","","html-keyboard-response","48","358137","0.0-13.0-2.4","86924","List1B","white","man","","","","null","","","","","","","","",""
"17160.10000000149","","","survey-text","49","375301","0.0-13.0-3.4","86924","List1B","white","man","","","","","{""Q0"":""Jane is opposing kate""}","<img src=""stim_listB/oppose7.gif""style=""height:400px;""></stim_listB>","is opposing","","","","","",""
"null","<div style=""font-size:60px;"">+</div>","","html-keyboard-response","50","375809","0.0-13.0-0.5","86924","List1B","white","man","","","","null","","","","","","","","",""
"null","<img src=""stim_listB/copy4.gif""style=""height:400px;""></stim_listB>","","html-keyboard-response","51","377817","0.0-13.0-1.5","86924","List1B","white","man","","","","null","","","","","","","","",""
"null","is being copied by","","html-keyboard-response","52","379827","0.0-13.0-2.5","86924","List1B","white","man","","","","null","","","","","","","","",""
"19566","","","survey-text","53","399397","0.0-13.0-3.5","86924","List1B","white","man","","","","","{""Q0"":""Luke is being copied by jane""}","<img src=""stim_listB/copy4.gif""style=""height:400px;""></stim_listB>","is being copied by","","","","","",""
"null","<div style=""font-size:60px;"">+</div>","","html-keyboard-response","54","399898","0.0-13.0-0.6","86924","List1B","white","man","","","","null","","","","","","","","",""
"null","<img src=""stim_listB/look4.gif""style=""height:400px;""></stim_listB>","","html-keyboard-response","55","401923","0.0-13.0-1.6","86924","List1B","white","man","","","","null","","","","","","","","",""
"null","is being looked at by","","html-keyboard-response","56","403932","0.0-13.0-2.6","86924","List1B","white","man","","","","null","","","","","","","","",""
"25869.39999999851","","","survey-text","57","429804","0.0-13.0-3.6","86924","List1B","white","man","","","","","{""Q0"":""Dave is playing with jane""}","<img src=""stim_listB/look4.gif""style=""height:400px;""></stim_listB>","is being looked at by","","","","","",""
"null","<div style=""font-size:60px;"">+</div>","","html-keyboard-response","58","430308","0.0-13.0-0.7","86924","List1B","white","man","","","","null","","","","","","","","",""
"null","<img src=""stim_listB/look8.gif""style=""height:400px;""></stim_listB>","","html-keyboard-response","59","432326","0.0-13.0-1.7","86924","List1B","white","man","","","","null","","","","","","","","",""
"null","is being looked at by","","html-keyboard-response","60","434340","0.0-13.0-2.7","86924","List1B","white","man","","","","null","","","","","","","","",""
"20740.60000000149","","","survey-text","61","455084","0.0-13.0-3.7","86924","List1B","white","man","","","","","{""Q0"":""Kate is being looked at by jane""}","<img src=""stim_listB/look8.gif""style=""height:400px;""></stim_listB>","is being looked at by","","","","","",""
"null","<div style=""font-size:60px;"">+</div>","","html-keyboard-response","62","455596","0.0-13.0-0.8","86924","List1B","white","man","","","","null","","","","","","","","",""
"null","<img src=""stim_listB/oppose6.gif""style=""height:400px;""></stim_listB>","","html-keyboard-response","63","457614","0.0-13.0-1.8","86924","List1B","white","man","","","","null","","","","","","","","",""
"null","is being opposed by","","html-keyboard-response","64","459629","0.0-13.0-2.8","86924","List1B","white","man","","","","null","","","","","","","","",""
"18948.20000000298","","","survey-text","65","478580","0.0-13.0-3.8","86924","List1B","white","man","","","","","{""Q0"":""Fred is being opposed by luke""}","<img src=""stim_listB/oppose6.gif""style=""height:400px;""></stim_listB>","is being opposed by","","","","","",""
"null","<div style=""font-size:60px;"">+</div>","","html-keyboard-response","66","479082","0.0-13.0-0.9","86924","List1B","white","man","","","","null","","","","","","","","",""
"null","<img src=""stim_listB/challenge4.gif""style=""height:400px;""></stim_listB>","","html-keyboard-response","67","481089","0.0-13.0-1.9","86924","List1B","white","man","","","","null","","","","","","","","",""
"null","is being challenged by","","html-keyboard-response","68","483109","0.0-13.0-2.9","86924","List1B","white","man","","","","null","","","","","","","","",""
"17179.5","","","survey-text","69","500292","0.0-13.0-3.9","86924","List1B","white","man","","","","","{""Q0"":""Jane is being challenged by luke""}","<img src=""stim_listB/challenge4.gif""style=""height:400px;""></stim_listB>","is being challenged by","","","","","",""
"null","<div style=""font-size:60px;"">+</div>","","html-keyboard-response","70","500805","0.0-13.0-0.10","86924","List1B","white","man","","","","null","","","","","","","","",""
"null","<img src=""stim_listB/oppose5.gif""style=""height:400px;""></stim_listB>","","html-keyboard-response","71","502808","0.0-13.0-1.10","86924","List1B","white","man","","","","null","","","","","","","","",""
"null","is opposing","","html-keyboard-response","72","504829","0.0-13.0-2.10","86924","List1B","white","man","","","","null","","","","","","","","",""
"22531.89999999851","","","survey-text","73","527364","0.0-13.0-3.10","86924","List1B","white","man","","","","","{""Q0"":""Fred is being challenged by dave""}","<img src=""stim_listB/oppose5.gif""style=""height:400px;""></stim_listB>","is opposing","","","","","",""
"null","<div style=""font-size:60px;"">+</div>","","html-keyboard-response","74","527866","0.0-13.0-0.11","86924","List1B","white","man","","","","null","","","","","","","","",""
"null","<img src=""stim_listB/shout8.gif""style=""height:400px;""></stim_listB>","","html-keyboard-response","75","529874","0.0-13.0-1.11","86924","List1B","white","man","","","","null","","","","","","","","",""
"null","is being shouted at by","","html-keyboard-response","76","531880","0.0-13.0-2.11","86924","List1B","white","man","","","","null","","","","","","","","",""
"15144.79999999702","","","survey-text","77","547028","0.0-13.0-3.11","86924","List1B","white","man","","","","","{""Q0"":""Kate is being shouted at by jane""}","<img src=""stim_listB/shout8.gif""style=""height:400px;""></stim_listB>","is being shouted at by","","","","","",""
"null","<div style=""font-size:60px;"">+</div>","","html-keyboard-response","78","547530","0.0-13.0-0.12","86924","List1B","white","man","","","","null","","","","","","","","",""
"null","<img src=""stim_listB/copy6.gif""style=""height:400px;""></stim_listB>","","html-keyboard-response","79","549541","0.0-13.0-1.12","86924","List1B","white","man","","","","null","","","","","","","","",""
"null","is being copied by","","html-keyboard-response","80","551545","0.0-13.0-2.12","86924","List1B","white","man","","","","null","","","","","","","","",""
"15759.30000000447","","","survey-text","81","567308","0.0-13.0-3.12","86924","List1B","white","man","","","","","{""Q0"":""Fred is being copied by dave""}","<img src=""stim_listB/copy6.gif""style=""height:400px;""></stim_listB>","is being copied by","","","","","",""
"null","<div style=""font-size:60px;"">+</div>","","html-keyboard-response","82","567809","0.0-13.0-0.13","86924","List1B","white","man","","","","null","","","","","","","","",""
"null","<img src=""stim_listB/kiss6.gif""style=""height:400px;""></stim_listB>","","html-keyboard-response","83","569827","0.0-13.0-1.13","86924","List1B","white","man","","","","null","","","","","","","","",""
"null","is being kissed by","","html-keyboard-response","84","571831","0.0-13.0-2.13","86924","List1B","white","man","","","","null","","","","","","","","",""
"14609.20000000298","","","survey-text","85","586444","0.0-13.0-3.13","86924","List1B","white","man","","","","","{""Q0"":""Fred is being kissed by dave""}","<img src=""stim_listB/kiss6.gif""style=""height:400px;""></stim_listB>","is being kissed by","","","","","",""
"null","<div style=""font-size:60px;"">+</div>","","html-keyboard-response","86","586947","0.0-13.0-0.14","86924","List1B","white","man","","","","null","","","","","","","","",""
"null","<img src=""stim_listB/greet5.gif""style=""height:400px;""></stim_listB>","","html-keyboard-response","87","588954","0.0-13.0-1.14","86924","List1B","white","man","","","","null","","","","","","","","",""
"null","is greeting","","html-keyboard-response","88","590969","0.0-13.0-2.14","86924","List1B","white","man","","","","null","","","","","","","","",""
"13215.39999999851","","","survey-text","89","604188","0.0-13.0-3.14","86924","List1B","white","man","","","","","{""Q0"":""Mike is greeting luke""}","<img src=""stim_listB/greet5.gif""style=""height:400px;""></stim_listB>","is greeting","","","","","",""
"null","<div style=""font-size:60px;"">+</div>","","html-keyboard-response","90","604689","0.0-13.0-0.15","86924","List1B","white","man","","","","null","","","","","","","","",""
"null","<img src=""stim_listB/hug7.gif""style=""height:400px;""></stim_listB>","","html-keyboard-response","91","606701","0.0-13.0-1.15","86924","List1B","white","man","","","","null","","","","","","","","",""
"null","is hugging","","html-keyboard-response","92","608717","0.0-13.0-2.15","86924","List1B","white","man","","","","null","","","","","","","","",""
"16290.89999999851","","","survey-text","93","625011","0.0-13.0-3.15","86924","List1B","white","man","","","","","{""Q0"":""Ruth is hugging beth""}","<img src=""stim_listB/hug7.gif""style=""height:400px;""></stim_listB>","is hugging","","","","","",""
"null","<div style=""font-size:60px;"">+</div>","","html-keyboard-response","94","625513","0.0-13.0-0.16","86924","List1B","white","man","","","","null","","","","","","","","",""
"null","<img src=""stim_listB/oppose3.gif""style=""height:400px;""></stim_listB>","","html-keyboard-response","95","627531","0.0-13.0-1.16","86924","List1B","white","man","","","","null","","","","","","","","",""
"null","is opposing","","html-keyboard-response","96","629543","0.0-13.0-2.16","86924","List1B","white","man","","","","null","","","","","","","","",""
"16369.39999999851","","","survey-text","97","645916","0.0-13.0-3.16","86924","List1B","white","man","","","","","{""Q0"":""Dave is opposing jane""}","<img src=""stim_listB/oppose3.gif""style=""height:400px;""></stim_listB>","is opposing","","","","","",""
"null","<div style=""font-size:60px;"">+</div>","","html-keyboard-response","98","646417","0.0-13.0-0.17","86924","List1B","white","man","","","","null","","","","","","","","",""
"null","<img src=""stim_listB/kiss4.gif""style=""height:400px;""></stim_listB>","","html-keyboard-response","99","648437","0.0-13.0-1.17","86924","List1B","white","man","","","","null","","","","","","","","",""
"null","is being kissed by","","html-keyboard-response","100","650439","0.0-13.0-2.17","86924","List1B","white","man","","","","null","","","","","","","","",""
"14713.5","","","survey-text","101","665156","0.0-13.0-3.17","86924","List1B","white","man","","","","","{""Q0"":""Dave is being kissed by kate""}","<img src=""stim_listB/kiss4.gif""style=""height:400px;""></stim_listB>","is being kissed by","","","","","",""
"null","<div style=""font-size:60px;"">+</div>","","html-keyboard-response","102","665657","0.0-13.0-0.18","86924","List1B","white","man","","","","null","","","","","","","","",""
"null","<img src=""stim_listB/hug5.gif""style=""height:400px;""></stim_listB>","","html-keyboard-response","103","667662","0.0-13.0-1.18","86924","List1B","white","man","","","","null","","","","","","","","",""
"null","is hugging","","html-keyboard-response","104","669678","0.0-13.0-2.18","86924","List1B","white","man","","","","null","","","","","","","","",""
"16187.20000000298","","","survey-text","105","685868","0.0-13.0-3.18","86924","List1B","white","man","","","","","{""Q0"":""Fred is hugging luke""}","<img src=""stim_listB/hug5.gif""style=""height:400px;""></stim_listB>","is hugging","","","","","",""
"null","<div style=""font-size:60px;"">+</div>","","html-keyboard-response","106","686369","0.0-13.0-0.19","86924","List1B","white","man","","","","null","","","","","","","","",""
"null","<img src=""stim_listB/hug3.gif""style=""height:400px;""></stim_listB>","","html-keyboard-response","107","688388","0.0-13.0-1.19","86924","List1B","white","man","","","","null","","","","","","","","",""
"null","is hugging","","html-keyboard-response","108","690396","0.0-13.0-2.19","86924","List1B","white","man","","","","null","","","","","","","","",""
"13196.60000000149","","","survey-text","109","703596","0.0-13.0-3.19","86924","List1B","white","man","","","","","{""Q0"":""Luke is hugging ruth""}","<img src=""stim_listB/hug3.gif""style=""height:400px;""></stim_listB>","is hugging","","","","","",""
"15638.60000000149","<img src='img/portrait_matrix_list1.jpg' style='width:900px;height:500px;''></img><p>If you have memorised all the portraits and names and are ready to start, press Continue.</p><p><strong>Please note: Your memory of these faces will be tested 4 times during this experiment.</strong></p>","0","html-button-response","110","719235","0.0-14.0-0.0","86924","List1B","white","man","","","","","","","","","","","","",""
"4885","<img src=""portrait/WM2.jpg""style=""height:400px;""></img>","7","html-button-response","111","725124","0.0-14.0-1.0","86924","List1B","white","man","","true","7","","","","","","","","","",""
"null","CORRECT","","html-keyboard-response","112","726629","0.0-14.0-2.0-0.0","86924","List1B","white","man","","","","null","","","","","","","","",""
"3579.89999999851","<img src=""portrait/BM2.jpg""style=""height:400px;""></img>","5","html-button-response","113","730212","0.0-14.0-4.0","86924","List1B","white","man","","true","5","","","","","","","","","",""
"null","CORRECT","","html-keyboard-response","114","731729","0.0-14.0-5.0-0.0","86924","List1B","white","man","","","","null","","","","","","","","",""
"3784.3000000044703","<img src=""portrait/WM1.jpg""style=""height:400px;""></img>","6","html-button-response","115","735516","0.0-14.0-7.0","86924","List1B","white","man","","true","6","","","","","","","","","",""
"null","CORRECT","","html-keyboard-response","116","737029","0.0-14.0-8.0-0.0","86924","List1B","white","man","","","","null","","","","","","","","",""
"4308.10000000149","<img src=""portrait/WW1.jpg""style=""height:400px;""></img>","1","html-button-response","117","741340","0.0-14.0-10.0","86924","List1B","white","man","","true","1","","","","","","","","","",""
"null","CORRECT","","html-keyboard-response","118","742844","0.0-14.0-11.0-0.0","86924","List1B","white","man","","","","null","","","","","","","","",""
"2965.10000000149","<img src=""portrait/WW2.jpg""style=""height:400px;""></img>","3","html-button-response","119","745812","0.0-14.0-13.0","86924","List1B","white","man","","true","3","","","","","","","","","",""
"null","CORRECT","","html-keyboard-response","120","747326","0.0-14.0-14.0-0.0","86924","List1B","white","man","","","","null","","","","","","","","",""
"3970.60000000149","<img src=""portrait/BM1.jpg""style=""height:400px;""></img>","4","html-button-response","121","751299","0.0-14.0-16.0","86924","List1B","white","man","","true","4","","","","","","","","","",""
"null","CORRECT","","html-keyboard-response","122","752816","0.0-14.0-17.0-0.0","86924","List1B","white","man","","","","null","","","","","","","","",""
"4649.20000000298","<img src=""portrait/BW1.jpg""style=""height:400px;""></img>","0","html-button-response","123","757467","0.0-14.0-19.0","86924","List1B","white","man","","true","0","","","","","","","","","",""
"null","CORRECT","","html-keyboard-response","124","758985","0.0-14.0-20.0-0.0","86924","List1B","white","man","","","","null","","","","","","","","",""
"3200.39999999851","<img src=""portrait/BW2.jpg""style=""height:400px;""></img>","2","html-button-response","125","762187","0.0-14.0-22.0","86924","List1B","white","man","","true","2","","","","","","","","","",""
"null","CORRECT","","html-keyboard-response","126","763700","0.0-14.0-23.0-0.0","86924","List1B","white","man","","","","null","","","","","","","","",""
"8333","<p>You got 8 out of 8 right first time. Press Continue.</p>","0","html-button-response","127","772035","0.0-14.0-25.0","86924","List1B","white","man","","","","","","","","","","","","",""
"null","<div style=""font-size:60px;"">+</div>","","html-keyboard-response","128","773553","0.0-15.0-0.0","86924","List1B","white","man","","","","null","","","","","","","","",""
"null","<img src=""stim_listB/touch3.gif""style=""height:400px;""></stim_listB>","","html-keyboard-response","129","775579","0.0-15.0-1.0","86924","List1B","white","man","","","","null","","","","","","","","",""
"null","is touching","","html-keyboard-response","130","777587","0.0-15.0-2.0","86924","List1B","white","man","","","","null","","","","","","","","",""
"11731.29999999702","","","survey-text","131","789323","0.0-15.0-3.0","86924","List1B","white","man","","","","","{""Q0"":""Dave is touching jane""}","<img src=""stim_listB/touch3.gif""style=""height:400px;""></stim_listB>","is touching","","","","","",""
"null","<div style=""font-size:60px;"">+</div>","","html-keyboard-response","132","789824","0.0-15.0-0.1","86924","List1B","white","man","","","","null","","","","","","","","",""
"null","<img src=""stim_listB/greet7.gif""style=""height:400px;""></stim_listB>","","html-keyboard-response","133","791842","0.0-15.0-1.1","86924","List1B","white","man","","","","null","","","","","","","","",""
"null","is greeting","","html-keyboard-response","134","793846","0.0-15.0-2.1","86924","List1B","white","man","","","","null","","","","","","","","",""
"11809.39999999851","","","survey-text","135","805659","0.0-15.0-3.1","86924","List1B","white","man","","","","","{""Q0"":""Ruth is greeting kate""}","<img src=""stim_listB/greet7.gif""style=""height:400px;""></stim_listB>","is greeting","","","","","",""
"null","<div style=""font-size:60px;"">+</div>","","html-keyboard-response","136","806160","0.0-15.0-0.2","86924","List1B","white","man","","","","null","","","","","","","","",""
"null","<img src=""stim_listB/touch1.gif""style=""height:400px;""></stim_listB>","","html-keyboard-response","137","808178","0.0-15.0-1.2","86924","List1B","white","man","","","","null","","","","","","","","",""
"null","is touching","","html-keyboard-response","138","810193","0.0-15.0-2.2","86924","List1B","white","man","","","","null","","","","","","","","",""
"14302.29999999702","","","survey-text","139","824499","0.0-15.0-3.2","86924","List1B","white","man","","","","","{""Q0"":""Mike is greeting kate""}","<img src=""stim_listB/touch1.gif""style=""height:400px;""></stim_listB>","is touching","","","","","",""
"null","<div style=""font-size:60px;"">+</div>","","html-keyboard-response","140","825001","0.0-15.0-0.3","86924","List1B","white","man","","","","null","","","","","","","","",""
"null","<img src=""stim_listB/seduce5.gif""style=""height:400px;""></stim_listB>","","html-keyboard-response","141","827019","0.0-15.0-1.3","86924","List1B","white","man","","","","null","","","","","","","","",""
"null","is seducing","","html-keyboard-response","142","829029","0.0-15.0-2.3","86924","List1B","white","man","","","","null","","","","","","","","",""
"10978.19999999553","","","survey-text","143","840011","0.0-15.0-3.3","86924","List1B","white","man","","","","","{""Q0"":""Dave is seducing fred""}","<img src=""stim_listB/seduce5.gif""style=""height:400px;""></stim_listB>","is seducing","","","","","",""
"null","<div style=""font-size:60px;"">+</div>","","html-keyboard-response","144","840512","0.0-15.0-0.4","86924","List1B","white","man","","","","null","","","","","","","","",""
"null","<img src=""stim_listB/shout6.gif""style=""height:400px;""></stim_listB>","","html-keyboard-response","145","842530","0.0-15.0-1.4","86924","List1B","white","man","","","","null","","","","","","","","",""
"null","is being shouted at by","","html-keyboard-response","146","844538","0.0-15.0-2.4","86924","List1B","white","man","","","","null","","","","","","","","",""
"16789","","","survey-text","147","861331","0.0-15.0-3.4","86924","List1B","white","man","","","","","{""Q0"":""Mike is being shouted at by dave""}","<img src=""stim_listB/shout6.gif""style=""height:400px;""></stim_listB>","is being shouted at by","","","","","",""
"null","<div style=""font-size:60px;"">+</div>","","html-keyboard-response","148","861832","0.0-15.0-0.5","86924","List1B","white","man","","","","null","","","","","","","","",""
"null","<img src=""stim_listB/challenge6.gif""style=""height:400px;""></stim_listB>","","html-keyboard-response","149","863836","0.0-15.0-1.5","86924","List1B","white","man","","","","null","","","","","","","","",""
"null","is being challenged by","","html-keyboard-response","150","865844","0.0-15.0-2.5","86924","List1B","white","man","","","","null","","","","","","","","",""
"12795.20000000298","","","survey-text","151","878642","0.0-15.0-3.5","86924","List1B","white","man","","","","","{""Q0"":""Fred is being challenged by dave""}","<img src=""stim_listB/challenge6.gif""style=""height:400px;""></stim_listB>","is being challenged by","","","","","",""
"null","<div style=""font-size:60px;"">+</div>","","html-keyboard-response","152","879144","0.0-15.0-0.6","86924","List1B","white","man","","","","null","","","","","","","","",""
"null","<img src=""stim_listB/shout4.gif""style=""height:400px;""></stim_listB>","","html-keyboard-response","153","881155","0.0-15.0-1.6","86924","List1B","white","man","","","","null","","","","","","","","",""
"null","is being shouted at by","","html-keyboard-response","154","883158","0.0-15.0-2.6","86924","List1B","white","man","","","","null","","","","","","","","",""
"19601.30000000447","","","survey-text","155","902762","0.0-15.0-3.6","86924","List1B","white","man","","","","","{""Q0"":""Dave is being shouted at by jane""}","<img src=""stim_listB/shout4.gif""style=""height:400px;""></stim_listB>","is being shouted at by","","","","","",""
"null","<div style=""font-size:60px;"">+</div>","","html-keyboard-response","156","903272","0.0-15.0-0.7","86924","List1B","white","man","","","","null","","","","","","","","",""
"null","<img src=""stim_listB/look6.gif""style=""height:400px;""></stim_listB>","","html-keyboard-response","157","905287","0.0-15.0-1.7","86924","List1B","white","man","","","","null","","","","","","","","",""
"null","is being looked at by","","html-keyboard-response","158","907294","0.0-15.0-2.7","86924","List1B","white","man","","","","null","","","","","","","","",""
"13832.89999999851","","","survey-text","159","921130","0.0-15.0-3.7","86924","List1B","white","man","","","","","{""Q0"":""Dave is being looked at by mike""}","<img src=""stim_listB/look6.gif""style=""height:400px;""></stim_listB>","is being looked at by","","","","","",""
"null","<div style=""font-size:60px;"">+</div>","","html-keyboard-response","160","921631","0.0-15.0-0.8","86924","List1B","white","man","","","","null","","","","","","","","",""
"null","<img src=""stim_listB/greet8.gif""style=""height:400px;""></stim_listB>","","html-keyboard-response","161","923635","0.0-15.0-1.8","86924","List1B","white","man","","","","null","","","","","","","","",""
"null","is being greeted by","","html-keyboard-response","162","925655","0.0-15.0-2.8","86924","List1B","white","man","","","","null","","","","","","","","",""
"14112.29999999702","","","survey-text","163","939770","0.0-15.0-3.8","86924","List1B","white","man","","","","","{""Q0"":""Beth is being greeted by jane""}","<img src=""stim_listB/greet8.gif""style=""height:400px;""></stim_listB>","is being greeted by","","","","","",""
"null","<div style=""font-size:60px;"">+</div>","","html-keyboard-response","164","940271","0.0-15.0-0.9","86924","List1B","white","man","","","","null","","","","","","","","",""
"null","<img src=""stim_listB/shout2.gif""style=""height:400px;""></stim_listB>","","html-keyboard-response","165","942283","0.0-15.0-1.9","86924","List1B","white","man","","","","null","","","","","","","","",""
"null","is being shouted at by","","html-keyboard-response","166","944290","0.0-15.0-2.9","86924","List1B","white","man","","","","null","","","","","","","","",""
"20292.39999999851","","","survey-text","167","964586","0.0-15.0-3.9","86924","List1B","white","man","","","","","{""Q0"":""Mike is being shouted at by kate""}","<img src=""stim_listB/shout2.gif""style=""height:400px;""></stim_listB>","is being shouted at by","","","","","",""
"null","<div style=""font-size:60px;"">+</div>","","html-keyboard-response","168","965089","0.0-15.0-0.10","86924","List1B","white","man","","","","null","","","","","","","","",""
"null","<img src=""stim_listB/touch6.gif""style=""height:400px;""></stim_listB>","","html-keyboard-response","169","967101","0.0-15.0-1.10","86924","List1B","white","man","","","","null","","","","","","","","",""
"null","is being touched by","","html-keyboard-response","170","969116","0.0-15.0-2.10","86924","List1B","white","man","","","","null","","","","","","","","",""
"15658.80000000447","","","survey-text","171","984778","0.0-15.0-3.10","86924","List1B","white","man","","","","","{""Q0"":""Fred is being touched by luke""}","<img src=""stim_listB/touch6.gif""style=""height:400px;""></stim_listB>","is being touched by","","","","","",""
"null","<div style=""font-size:60px;"">+</div>","","html-keyboard-response","172","985290","0.0-15.0-0.11","86924","List1B","white","man","","","","null","","","","","","","","",""
"null","<img src=""stim_listB/greet3.gif""style=""height:400px;""></stim_listB>","","html-keyboard-response","173","987308","0.0-15.0-1.11","86924","List1B","white","man","","","","null","","","","","","","","",""
"null","is greeting","","html-keyboard-response","174","989315","0.0-15.0-2.11","86924","List1B","white","man","","","","null","","","","","","","","",""
"13675.70000000298","","","survey-text","175","1002994","0.0-15.0-3.11","86924","List1B","white","man","","","","","{""Q0"":""Dave is greeting ruth""}","<img src=""stim_listB/greet3.gif""style=""height:400px;""></stim_listB>","is greeting","","","","","",""
"null","<div style=""font-size:60px;"">+</div>","","html-keyboard-response","176","1003497","0.0-15.0-0.12","86924","List1B","white","man","","","","null","","","","","","","","",""
"null","<img src=""stim_listB/challenge5.gif""style=""height:400px;""></stim_listB>","","html-keyboard-response","177","1005509","0.0-15.0-1.12","86924","List1B","white","man","","","","null","","","","","","","","",""
"null","is challenging","","html-keyboard-response","178","1007518","0.0-15.0-2.12","86924","List1B","white","man","","","","null","","","","","","","","",""
"20977.10000000149","","","survey-text","179","1028498","0.0-15.0-3.12","86924","List1B","white","man","","","","","{""Q0"":""Luke Is challenging Mike""}","<img src=""stim_listB/challenge5.gif""style=""height:400px;""></stim_listB>","is challenging","","","","","",""
"null","<div style=""font-size:60px;"">+</div>","","html-keyboard-response","180","1029008","0.0-15.0-0.13","86924","List1B","white","man","","","","null","","","","","","","","",""
"null","<img src=""stim_listB/copy8.gif""style=""height:400px;""></stim_listB>","","html-keyboard-response","181","1031014","0.0-15.0-1.13","86924","List1B","white","man","","","","null","","","","","","","","",""
"null","is being copied by","","html-keyboard-response","182","1033020","0.0-15.0-2.13","86924","List1B","white","man","","","","null","","","","","","","","",""
"18378.19999999553","","","survey-text","183","1051402","0.0-15.0-3.13","86924","List1B","white","man","","","","","{""Q0"":""Beth is being copied by Jane""}","<img src=""stim_listB/copy8.gif""style=""height:400px;""></stim_listB>","is being copied by","","","","","",""
"null","<div style=""font-size:60px;"">+</div>","","html-keyboard-response","184","1051932","0.0-15.0-0.14","86924","List1B","white","man","","","","null","","","","","","","","",""
"null","<img src=""stim_listB/greet2.gif""style=""height:400px;""></stim_listB>","","html-keyboard-response","185","1053945","0.0-15.0-1.14","86924","List1B","white","man","","","","null","","","","","","","","",""
"null","is being greeted by","","html-keyboard-response","186","1055952","0.0-15.0-2.14","86924","List1B","white","man","","","","null","","","","","","","","",""
"12222","","","survey-text","187","1068178","0.0-15.0-3.14","86924","List1B","white","man","","","","","{""Q0"":""Fred is being greeted by kate""}","<img src=""stim_listB/greet2.gif""style=""height:400px;""></stim_listB>","is being greeted by","","","","","",""
"null","<div style=""font-size:60px;"">+</div>","","html-keyboard-response","188","1068680","0.0-15.0-0.15","86924","List1B","white","man","","","","null","","","","","","","","",""
"null","<img src=""stim_listB/copy2.gif""style=""height:400px;""></stim_listB>","","html-keyboard-response","189","1070691","0.0-15.0-1.15","86924","List1B","white","man","","","","null","","","","","","","","",""
"null","is being copied by","","html-keyboard-response","190","1072697","0.0-15.0-2.15","86924","List1B","white","man","","","","null","","","","","","","","",""
"14556.69999999553","","","survey-text","191","1087258","0.0-15.0-3.15","86924","List1B","white","man","","","","","{""Q0"":""Fred is being occupied by Kate""}","<img src=""stim_listB/copy2.gif""style=""height:400px;""></stim_listB>","is being copied by","","","","","",""
"null","<div style=""font-size:60px;"">+</div>","","html-keyboard-response","192","1087760","0.0-15.0-0.16","86924","List1B","white","man","","","","null","","","","","","","","",""
"null","<img src=""stim_listB/greet4.gif""style=""height:400px;""></stim_listB>","","html-keyboard-response","193","1089763","0.0-15.0-1.16","86924","List1B","white","man","","","","null","","","","","","","","",""
"null","is being greeted by","","html-keyboard-response","194","1091778","0.0-15.0-2.16","86924","List1B","white","man","","","","null","","","","","","","","",""
"14612.70000000298","","","survey-text","195","1106394","0.0-15.0-3.16","86924","List1B","white","man","","","","","{""Q0"":""Luke is being greeted by jane""}","<img src=""stim_listB/greet4.gif""style=""height:400px;""></stim_listB>","is being greeted by","","","","","",""
"null","<div style=""font-size:60px;"">+</div>","","html-keyboard-response","196","1106896","0.0-15.0-0.17","86924","List1B","white","man","","","","null","","","","","","","","",""
"null","<img src=""stim_listB/hug8.gif""style=""height:400px;""></stim_listB>","","html-keyboard-response","197","1108901","0.0-15.0-1.17","86924","List1B","white","man","","","","null","","","","","","","","",""
"null","is being hugged by","","html-keyboard-response","198","1110917","0.0-15.0-2.17","86924","List1B","white","man","","","","null","","","","","","","","",""
"16257","","","survey-text","199","1127178","0.0-15.0-3.17","86924","List1B","white","man","","","","","{""Q0"":""Dave is being hugged by fred""}","<img src=""stim_listB/hug8.gif""style=""height:400px;""></stim_listB>","is being hugged by","","","","","",""
"null","<div style=""font-size:60px;"">+</div>","","html-keyboard-response","200","1127691","0.0-15.0-0.18","86924","List1B","white","man","","","","null","","","","","","","","",""
"null","<img src=""stim_listB/seduce6.gif""style=""height:400px;""></stim_listB>","","html-keyboard-response","201","1129698","0.0-15.0-1.18","86924","List1B","white","man","","","","null","","","","","","","","",""
"null","is being seduced by","","html-keyboard-response","202","1131700","0.0-15.0-2.18","86924","List1B","white","man","","","","null","","","","","","","","",""
"13850","","","survey-text","203","1145553","0.0-15.0-3.18","86924","List1B","white","man","","","","","{""Q0"":""Luke is being seduced by Mike""}","<img src=""stim_listB/seduce6.gif""style=""height:400px;""></stim_listB>","is being seduced by","","","","","",""
"null","<div style=""font-size:60px;"">+</div>","","html-keyboard-response","204","1146069","0.0-15.0-0.19","86924","List1B","white","man","","","","null","","","","","","","","",""
"null","<img src=""stim_listB/seduce8.gif""style=""height:400px;""></stim_listB>","","html-keyboard-response","205","1148085","0.0-15.0-1.19","86924","List1B","white","man","","","","null","","","","","","","","",""
"null","is being seduced by","","html-keyboard-response","206","1150091","0.0-15.0-2.19","86924","List1B","white","man","","","","null","","","","","","","","",""
"12449.89999999851","","","survey-text","207","1162545","0.0-15.0-3.19","86924","List1B","white","man","","","","","{""Q0"":""Ruth is being seduced Kate""}","<img src=""stim_listB/seduce8.gif""style=""height:400px;""></stim_listB>","is being seduced by","","","","","",""
"3926.39999999851","<img src='img/portrait_matrix_list1.jpg' style='width:900px;height:500px;''></img><p>If you have memorised all the portraits and names and are ready to start, press Continue.</p><p><strong>Please note: Your memory of these faces will be tested 4 times during this experiment.</strong></p>","0","html-button-response","208","1166473","0.0-16.0-0.0","86924","List1B","white","man","","","","","","","","","","","","",""
"5623.89999999851","<img src=""portrait/BW2.jpg""style=""height:400px;""></img>","2","html-button-response","209","1173113","0.0-16.0-1.0","86924","List1B","white","man","","true","2","","","","","","","","","",""
"null","CORRECT","","html-keyboard-response","210","1174624","0.0-16.0-2.0-0.0","86924","List1B","white","man","","","","null","","","","","","","","",""
"2670.5","<img src=""portrait/BM1.jpg""style=""height:400px;""></img>","4","html-button-response","211","1177297","0.0-16.0-4.0","86924","List1B","white","man","","true","4","","","","","","","","","",""
"null","CORRECT","","html-keyboard-response","212","1178808","0.0-16.0-5.0-0.0","86924","List1B","white","man","","","","null","","","","","","","","",""
"7494.79999999702","<img src=""portrait/WW2.jpg""style=""height:400px;""></img>","3","html-button-response","213","1186305","0.0-16.0-7.0","86924","List1B","white","man","","true","3","","","","","","","","","",""
"null","CORRECT","","html-keyboard-response","214","1187816","0.0-16.0-8.0-0.0","86924","List1B","white","man","","","","null","","","","","","","","",""
"4614.70000000298","<img src=""portrait/WM1.jpg""style=""height:400px;""></img>","6","html-button-response","215","1192433","0.0-16.0-10.0","86924","List1B","white","man","","true","6","","","","","","","","","",""
"null","CORRECT","","html-keyboard-response","216","1193953","0.0-16.0-11.0-0.0","86924","List1B","white","man","","","","null","","","","","","","","",""
"3390.2000000029802","<img src=""portrait/BM2.jpg""style=""height:400px;""></img>","5","html-button-response","217","1197345","0.0-16.0-13.0","86924","List1B","white","man","","true","5","","","","","","","","","",""
"null","CORRECT","","html-keyboard-response","218","1198864","0.0-16.0-14.0-0.0","86924","List1B","white","man","","","","null","","","","","","","","",""
"6262.79999999702","<img src=""portrait/BW1.jpg""style=""height:400px;""></img>","0","html-button-response","219","1205129","0.0-16.0-16.0","86924","List1B","white","man","","true","0","","","","","","","","","",""
"null","CORRECT","","html-keyboard-response","220","1206632","0.0-16.0-17.0-0.0","86924","List1B","white","man","","","","null","","","","","","","","",""
"5047.60000000149","<img src=""portrait/WM2.jpg""style=""height:400px;""></img>","7","html-button-response","221","1211681","0.0-16.0-19.0","86924","List1B","white","man","","true","7","","","","","","","","","",""
"null","CORRECT","","html-keyboard-response","222","1213194","0.0-16.0-20.0-0.0","86924","List1B","white","man","","","","null","","","","","","","","",""
"5573","<img src=""portrait/WW1.jpg""style=""height:400px;""></img>","1","html-button-response","223","1218769","0.0-16.0-22.0","86924","List1B","white","man","","true","1","","","","","","","","","",""
"null","CORRECT","","html-keyboard-response","224","1220272","0.0-16.0-23.0-0.0","86924","List1B","white","man","","","","null","","","","","","","","",""
"3503","<p>You got 8 out of 8 right first time. Press Continue.</p>","0","html-button-response","225","1223777","0.0-16.0-25.0","86924","List1B","white","man","","","","","","","","","","","","",""
"null","<div style=""font-size:60px;"">+</div>","","html-keyboard-response","226","1225301","0.0-17.0-0.0","86924","List1B","white","man","","","","null","","","","","","","","",""
"null","<img src=""stim_listB/touch2.gif""style=""height:400px;""></stim_listB>","","html-keyboard-response","227","1227314","0.0-17.0-1.0","86924","List1B","white","man","","","","null","","","","","","","","",""
"null","is being touched by","","html-keyboard-response","228","1229316","0.0-17.0-2.0","86924","List1B","white","man","","","","null","","","","","","","","",""
"16377.60000000149","","","survey-text","229","1245697","0.0-17.0-3.0","86924","List1B","white","man","","","","","{""Q0"":""Fred is being touched by Beth""}","<img src=""stim_listB/touch2.gif""style=""height:400px;""></stim_listB>","is being touched by","","","","","",""
"null","<div style=""font-size:60px;"">+</div>","","html-keyboard-response","230","1246200","0.0-17.0-0.1","86924","List1B","white","man","","","","null","","","","","","","","",""
"null","<img src=""stim_listB/kiss7.gif""style=""height:400px;""></stim_listB>","","html-keyboard-response","231","1248209","0.0-17.0-1.1","86924","List1B","white","man","","","","null","","","","","","","","",""
"null","is kissing","","html-keyboard-response","232","1250225","0.0-17.0-2.1","86924","List1B","white","man","","","","null","","","","","","","","",""
"10076.69999999553","","","survey-text","233","1260305","0.0-17.0-3.1","86924","List1B","white","man","","","","","{""Q0"":""Beth is kissing Ruth""}","<img src=""stim_listB/kiss7.gif""style=""height:400px;""></stim_listB>","is kissing","","","","","",""
"null","<div style=""font-size:60px;"">+</div>","","html-keyboard-response","234","1260807","0.0-17.0-0.2","86924","List1B","white","man","","","","null","","","","","","","","",""
"null","<img src=""stim_listB/copy7.gif""style=""height:400px;""></stim_listB>","","html-keyboard-response","235","1262811","0.0-17.0-1.2","86924","List1B","white","man","","","","null","","","","","","","","",""
"null","is copying","","html-keyboard-response","236","1264827","0.0-17.0-2.2","86924","List1B","white","man","","","","null","","","","","","","","",""
"13435.19999999553","","","survey-text","237","1278265","0.0-17.0-3.2","86924","List1B","white","man","","","","","{""Q0"":""Ruth is copying Kate ""}","<img src=""stim_listB/copy7.gif""style=""height:400px;""></stim_listB>","is copying","","","","","",""
"null","<div style=""font-size:60px;"">+</div>","","html-keyboard-response","238","1278774","0.0-17.0-0.3","86924","List1B","white","man","","","","null","","","","","","","","",""
"null","<img src=""stim_listB/shout1.gif""style=""height:400px;""></stim_listB>","","html-keyboard-response","239","1280789","0.0-17.0-1.3","86924","List1B","white","man","","","","null","","","","","","","","",""
"null","is shouting at","","html-keyboard-response","240","1282796","0.0-17.0-2.3","86924","List1B","white","man","","","","null","","","","","","","","",""
"17377.70000000298","","","survey-text","241","1300177","0.0-17.0-3.3","86924","List1B","white","man","","","","","{""Q0"":""Fred is shouting at Beth""}","<img src=""stim_listB/shout1.gif""style=""height:400px;""></stim_listB>","is shouting at","","","","","",""
"null","<div style=""font-size:60px;"">+</div>","","html-keyboard-response","242","1300682","0.0-17.0-0.4","86924","List1B","white","man","","","","null","","","","","","","","",""
"null","<img src=""stim_listB/hug6.gif""style=""height:400px;""></stim_listB>","","html-keyboard-response","243","1302691","0.0-17.0-1.4","86924","List1B","white","man","","","","null","","","","","","","","",""
"null","is being hugged by","","html-keyboard-response","244","1304697","0.0-17.0-2.4","86924","List1B","white","man","","","","null","","","","","","","","",""
"17235.79999999702","","","survey-text","245","1321936","0.0-17.0-3.4","86924","List1B","white","man","","","","","{""Q0"":""Dave is being hugged by luke""}","<img src=""stim_listB/hug6.gif""style=""height:400px;""></stim_listB>","is being hugged by","","","","","",""
"null","<div style=""font-size:60px;"">+</div>","","html-keyboard-response","246","1322446","0.0-17.0-0.5","86924","List1B","white","man","","","","null","","","","","","","","",""
"null","<img src=""stim_listB/copy1.gif""style=""height:400px;""></stim_listB>","","html-keyboard-response","247","1324452","0.0-17.0-1.5","86924","List1B","white","man","","","","null","","","","","","","","",""
"null","is copying","","html-keyboard-response","248","1326457","0.0-17.0-2.5","86924","List1B","white","man","","","","null","","","","","","","","",""
"11659.70000000298","","","survey-text","249","1338120","0.0-17.0-3.5","86924","List1B","white","man","","","","","{""Q0"":""Beth is copying mike""}","<img src=""stim_listB/copy1.gif""style=""height:400px;""></stim_listB>","is copying","","","","","",""
"null","<div style=""font-size:60px;"">+</div>","","html-keyboard-response","250","1338628","0.0-17.0-0.6","86924","List1B","white","man","","","","null","","","","","","","","",""
"null","<img src=""stim_listB/greet1.gif""style=""height:400px;""></stim_listB>","","html-keyboard-response","251","1340647","0.0-17.0-1.6","86924","List1B","white","man","","","","null","","","","","","","","",""
"null","is greeting","","html-keyboard-response","252","1342662","0.0-17.0-2.6","86924","List1B","white","man","","","","null","","","","","","","","",""
"7262.10000000149","","","survey-text","253","1349928","0.0-17.0-3.6","86924","List1B","white","man","","","","","{""Q0"":""Beth is greeting Mike""}","<img src=""stim_listB/greet1.gif""style=""height:400px;""></stim_listB>","is greeting","","","","","",""
"null","<div style=""font-size:60px;"">+</div>","","html-keyboard-response","254","1350429","0.0-17.0-0.7","86924","List1B","white","man","","","","null","","","","","","","","",""
"null","<img src=""stim_listB/look2.gif""style=""height:400px;""></stim_listB>","","html-keyboard-response","255","1352437","0.0-17.0-1.7","86924","List1B","white","man","","","","null","","","","","","","","",""
"null","is being looked at by","","html-keyboard-response","256","1354454","0.0-17.0-2.7","86924","List1B","white","man","","","","null","","","","","","","","",""
"15070.79999999702","","","survey-text","257","1369528","0.0-17.0-3.7","86924","List1B","white","man","","","","","{""Q0"":""Kate is being looked at by Mike""}","<img src=""stim_listB/look2.gif""style=""height:400px;""></stim_listB>","is being looked at by","","","","","",""
"null","<div style=""font-size:60px;"">+</div>","","html-keyboard-response","258","1370030","0.0-17.0-0.8","86924","List1B","white","man","","","","null","","","","","","","","",""
"null","<img src=""stim_listB/seduce2.gif""style=""height:400px;""></stim_listB>","","html-keyboard-response","259","1372038","0.0-17.0-1.8","86924","List1B","white","man","","","","null","","","","","","","","",""
"null","is being seduced by","","html-keyboard-response","260","1374040","0.0-17.0-2.8","86924","List1B","white","man","","","","null","","","","","","","","",""
"12388.79999999702","","","survey-text","261","1386432","0.0-17.0-3.8","86924","List1B","white","man","","","","","{""Q0"":""Mike is being seduced by Beth""}","<img src=""stim_listB/seduce2.gif""style=""height:400px;""></stim_listB>","is being seduced by","","","","","",""
"null","<div style=""font-size:60px;"">+</div>","","html-keyboard-response","262","1386946","0.0-17.0-0.9","86924","List1B","white","man","","","","null","","","","","","","","",""
"null","<img src=""stim_listB/challenge8.gif""style=""height:400px;""></stim_listB>","","html-keyboard-response","263","1388964","0.0-17.0-1.9","86924","List1B","white","man","","","","null","","","","","","","","",""
"null","is being challenged by","","html-keyboard-response","264","1390969","0.0-17.0-2.9","86924","List1B","white","man","","","","null","","","","","","","","",""
"21338.60000000149","","","survey-text","265","1412312","0.0-17.0-3.9","86924","List1B","white","man","","","","","{""Q0"":""Beth is being challenged by Jane""}","<img src=""stim_listB/challenge8.gif""style=""height:400px;""></stim_listB>","is being challenged by","","","","","",""
"null","<div style=""font-size:60px;"">+</div>","","html-keyboard-response","266","1412813","0.0-17.0-0.10","86924","List1B","white","man","","","","null","","","","","","","","",""
"null","<img src=""stim_listB/challenge2.gif""style=""height:400px;""></stim_listB>","","html-keyboard-response","267","1414833","0.0-17.0-1.10","86924","List1B","white","man","","","","null","","","","","","","","",""
"null","is being challenged by","","html-keyboard-response","268","1416846","0.0-17.0-2.10","86924","List1B","white","man","","","","null","","","","","","","","",""
"16343","","","survey-text","269","1433192","0.0-17.0-3.10","86924","List1B","white","man","","","","","{""Q0"":""Fred is being challenged by Kate""}","<img src=""stim_listB/challenge2.gif""style=""height:400px;""></stim_listB>","is being challenged by","","","","","",""
"null","<div style=""font-size:60px;"">+</div>","","html-keyboard-response","270","1433699","0.0-17.0-0.11","86924","List1B","white","man","","","","null","","","","","","","","",""
"null","<img src=""stim_listB/shout5.gif""style=""height:400px;""></stim_listB>","","html-keyboard-response","271","1435702","0.0-17.0-1.11","86924","List1B","white","man","","","","null","","","","","","","","",""
"null","is shouting at","","html-keyboard-response","272","1437717","0.0-17.0-2.11","86924","List1B","white","man","","","","null","","","","","","","","",""
"20335.5","","","survey-text","273","1458055","0.0-17.0-3.11","86924","List1B","white","man","","","","","{""Q0"":""Fred is shouting at Luke""}","<img src=""stim_listB/shout5.gif""style=""height:400px;""></stim_listB>","is shouting at","","","","","",""
"null","<div style=""font-size:60px;"">+</div>","","html-keyboard-response","274","1458556","0.0-17.0-0.12","86924","List1B","white","man","","","","null","","","","","","","","",""
"null","<img src=""stim_listB/challenge3.gif""style=""height:400px;""></stim_listB>","","html-keyboard-response","275","1460561","0.0-17.0-1.12","86924","List1B","white","man","","","","null","","","","","","","","",""
"null","is challenging","","html-keyboard-response","276","1462581","0.0-17.0-2.12","86924","List1B","white","man","","","","null","","","","","","","","",""
"13510.69999999553","","","survey-text","277","1476095","0.0-17.0-3.12","86924","List1B","white","man","","","","","{""Q0"":""Ruth is challenging Dave""}","<img src=""stim_listB/challenge3.gif""style=""height:400px;""></stim_listB>","is challenging","","","","","",""
"null","<div style=""font-size:60px;"">+</div>","","html-keyboard-response","278","1476606","0.0-17.0-0.13","86924","List1B","white","man","","","","null","","","","","","","","",""
"null","<img src=""stim_listB/oppose8.gif""style=""height:400px;""></stim_listB>","","html-keyboard-response","279","1478624","0.0-17.0-1.13","86924","List1B","white","man","","","","null","","","","","","","","",""
"null","is being opposed by","","html-keyboard-response","280","1480627","0.0-17.0-2.13","86924","List1B","white","man","","","","null","","","","","","","","",""
"15416.5","","","survey-text","281","1496047","0.0-17.0-3.13","86924","List1B","white","man","","","","","{""Q0"":""Ruth is being opposed by Beth""}","<img src=""stim_listB/oppose8.gif""style=""height:400px;""></stim_listB>","is being opposed by","","","","","",""
"null","<div style=""font-size:60px;"">+</div>","","html-keyboard-response","282","1496549","0.0-17.0-0.14","86924","List1B","white","man","","","","null","","","","","","","","",""
"null","<img src=""stim_listB/kiss5.gif""style=""height:400px;""></stim_listB>","","html-keyboard-response","283","1498554","0.0-17.0-1.14","86924","List1B","white","man","","","","null","","","","","","","","",""
"null","is kissing","","html-keyboard-response","284","1500563","0.0-17.0-2.14","86924","List1B","white","man","","","","null","","","","","","","","",""
"9945.5","","","survey-text","285","1510512","0.0-17.0-3.14","86924","List1B","white","man","","","","","{""Q0"":""Fred is kissing luke""}","<img src=""stim_listB/kiss5.gif""style=""height:400px;""></stim_listB>","is kissing","","","","","",""
"null","<div style=""font-size:60px;"">+</div>","","html-keyboard-response","286","1511014","0.0-17.0-0.15","86924","List1B","white","man","","","","null","","","","","","","","",""
"null","<img src=""stim_listB/oppose4.gif""style=""height:400px;""></stim_listB>","","html-keyboard-response","287","1513028","0.0-17.0-1.15","86924","List1B","white","man","","","","null","","","","","","","","",""
"null","is being opposed by","","html-keyboard-response","288","1515039","0.0-17.0-2.15","86924","List1B","white","man","","","","null","","","","","","","","",""
"10428.60000000149","","","survey-text","289","1525471","0.0-17.0-3.15","86924","List1B","white","man","","","","","{""Q0"":""Ruth is being opposed by luke""}","<img src=""stim_listB/oppose4.gif""style=""height:400px;""></stim_listB>","is being opposed by","","","","","",""
"null","<div style=""font-size:60px;"">+</div>","","html-keyboard-response","290","1525976","0.0-17.0-0.16","86924","List1B","white","man","","","","null","","","","","","","","",""
"null","<img src=""stim_listB/look1.gif""style=""height:400px;""></stim_listB>","","html-keyboard-response","291","1527988","0.0-17.0-1.16","86924","List1B","white","man","","","","null","","","","","","","","",""
"null","is looking at","","html-keyboard-response","292","1530004","0.0-17.0-2.16","86924","List1B","white","man","","","","null","","","","","","","","",""
"7495.70000000298","","","survey-text","293","1537503","0.0-17.0-3.16","86924","List1B","white","man","","","","","{""Q0"":""Beth is looking at Fred ""}","<img src=""stim_listB/look1.gif""style=""height:400px;""></stim_listB>","is looking at","","","","","",""
"null","<div style=""font-size:60px;"">+</div>","","html-keyboard-response","294","1538014","0.0-17.0-0.17","86924","List1B","white","man","","","","null","","","","","","","","",""
"null","<img src=""stim_listB/shout3.gif""style=""height:400px;""></stim_listB>","","html-keyboard-response","295","1540031","0.0-17.0-1.17","86924","List1B","white","man","","","","null","","","","","","","","",""
"null","is shouting at","","html-keyboard-response","296","1542048","0.0-17.0-2.17","86924","List1B","white","man","","","","null","","","","","","","","",""
"16676.20000000298","","","survey-text","297","1558727","0.0-17.0-3.17","86924","List1B","white","man","","","","","{""Q0"":""Ruth is shouting at luke""}","<img src=""stim_listB/shout3.gif""style=""height:400px;""></stim_listB>","is shouting at","","","","","",""
"null","<div style=""font-size:60px;"">+</div>","","html-keyboard-response","298","1559238","0.0-17.0-0.18","86924","List1B","white","man","","","","null","","","","","","","","",""
"null","<img src=""stim_listB/kiss2.gif""style=""height:400px;""></stim_listB>","","html-keyboard-response","299","1561254","0.0-17.0-1.18","86924","List1B","white","man","","","","null","","","","","","","","",""
"null","is being kissed by","","html-keyboard-response","300","1563256","0.0-17.0-2.18","86924","List1B","white","man","","","","null","","","","","","","","",""
"18620","","","survey-text","301","1581879","0.0-17.0-3.18","86924","List1B","white","man","","","","","{""Q0"":""Mike is being kissed by Kate""}","<img src=""stim_listB/kiss2.gif""style=""height:400px;""></stim_listB>","is being kissed by","","","","","",""
"null","<div style=""font-size:60px;"">+</div>","","html-keyboard-response","302","1582381","0.0-17.0-0.19","86924","List1B","white","man","","","","null","","","","","","","","",""
"null","<img src=""stim_listB/seduce3.gif""style=""height:400px;""></stim_listB>","","html-keyboard-response","303","1584392","0.0-17.0-1.19","86924","List1B","white","man","","","","null","","","","","","","","",""
"null","is seducing","","html-keyboard-response","304","1586398","0.0-17.0-2.19","86924","List1B","white","man","","","","null","","","","","","","","",""
"10941.69999999553","","","survey-text","305","1597343","0.0-17.0-3.19","86924","List1B","white","man","","","","","{""Q0"":""Jane is seducing luke""}","<img src=""stim_listB/seduce3.gif""style=""height:400px;""></stim_listB>","is seducing","","","","","",""
"2414.60000000149","<img src='img/portrait_matrix_list1.jpg' style='width:900px;height:500px;''></img><p>If you have memorised all the portraits and names and are ready to start, press Continue.</p><p><strong>Please note: Your memory of these faces will be tested 4 times during this experiment.</strong></p>","0","html-button-response","306","1599759","0.0-18.0-0.0","86924","List1B","white","man","","","","","","","","","","","","",""
"2836.89999999851","<img src=""portrait/BM1.jpg""style=""height:400px;""></img>","4","html-button-response","307","1603599","0.0-18.0-1.0","86924","List1B","white","man","","true","4","","","","","","","","","",""
"null","CORRECT","","html-keyboard-response","308","1605101","0.0-18.0-2.0-0.0","86924","List1B","white","man","","","","null","","","","","","","","",""
"4456.30000000447","<img src=""portrait/WM1.jpg""style=""height:400px;""></img>","6","html-button-response","309","1609559","0.0-18.0-4.0","86924","List1B","white","man","","true","6","","","","","","","","","",""
"null","CORRECT","","html-keyboard-response","310","1611065","0.0-18.0-5.0-0.0","86924","List1B","white","man","","","","null","","","","","","","","",""
"4116","<img src=""portrait/BW1.jpg""style=""height:400px;""></img>","0","html-button-response","311","1615183","0.0-18.0-7.0","86924","List1B","white","man","","true","0","","","","","","","","","",""
"null","CORRECT","","html-keyboard-response","312","1616692","0.0-18.0-8.0-0.0","86924","List1B","white","man","","","","null","","","","","","","","",""
"4641","<img src=""portrait/WM2.jpg""style=""height:400px;""></img>","7","html-button-response","313","1621335","0.0-18.0-10.0","86924","List1B","white","man","","true","7","","","","","","","","","",""
"null","CORRECT","","html-keyboard-response","314","1622871","0.0-18.0-11.0-0.0","86924","List1B","white","man","","","","null","","","","","","","","",""
"3982","<img src=""portrait/BW2.jpg""style=""height:400px;""></img>","2","html-button-response","315","1626855","0.0-18.0-13.0","86924","List1B","white","man","","true","2","","","","","","","","","",""
"null","CORRECT","","html-keyboard-response","316","1628372","0.0-18.0-14.0-0.0","86924","List1B","white","man","","","","null","","","","","","","","",""
"2800.7999999970198","<img src=""portrait/BM2.jpg""style=""height:400px;""></img>","5","html-button-response","317","1631175","0.0-18.0-16.0","86924","List1B","white","man","","true","5","","","","","","","","","",""
"null","CORRECT","","html-keyboard-response","318","1632683","0.0-18.0-17.0-0.0","86924","List1B","white","man","","","","null","","","","","","","","",""
"2738.1999999955297","<img src=""portrait/WW1.jpg""style=""height:400px;""></img>","1","html-button-response","319","1635423","0.0-18.0-19.0","86924","List1B","white","man","","true","1","","","","","","","","","",""
"null","CORRECT","","html-keyboard-response","320","1636945","0.0-18.0-20.0-0.0","86924","List1B","white","man","","","","null","","","","","","","","",""
"5548","<img src=""portrait/WW2.jpg""style=""height:400px;""></img>","3","html-button-response","321","1642495","0.0-18.0-22.0","86924","List1B","white","man","","true","3","","","","","","","","","",""
"null","CORRECT","","html-keyboard-response","322","1644004","0.0-18.0-23.0-0.0","86924","List1B","white","man","","","","null","","","","","","","","",""
"1824.6000000014901","<p>You got 8 out of 8 right first time. Press Continue.</p>","0","html-button-response","323","1645831","0.0-18.0-25.0","86924","List1B","white","man","","","","","","","","","","","","",""
"null","<div style=""font-size:60px;"">+</div>","","html-keyboard-response","324","1647341","0.0-19.0-0.0","86924","List1B","white","man","","","","null","","","","","","","","",""
"null","<img src=""stim_listB/touch7.gif""style=""height:400px;""></stim_listB>","","html-keyboard-response","325","1649349","0.0-19.0-1.0","86924","List1B","white","man","","","","null","","","","","","","","",""
"null","is touching","","html-keyboard-response","326","1651360","0.0-19.0-2.0","86924","List1B","white","man","","","","null","","","","","","","","",""
"9996","","","survey-text","327","1661359","0.0-19.0-3.0","86924","List1B","white","man","","","","","{""Q0"":""Kate is touching Jane""}","<img src=""stim_listB/touch7.gif""style=""height:400px;""></stim_listB>","is touching","","","","","",""
"null","<div style=""font-size:60px;"">+</div>","","html-keyboard-response","328","1661871","0.0-19.0-0.1","86924","List1B","white","man","","","","null","","","","","","","","",""
"null","<img src=""stim_listB/hug1.gif""style=""height:400px;""></stim_listB>","","html-keyboard-response","329","1663886","0.0-19.0-1.1","86924","List1B","white","man","","","","null","","","","","","","","",""
"null","is hugging","","html-keyboard-response","330","1665902","0.0-19.0-2.1","86924","List1B","white","man","","","","null","","","","","","","","",""
"12901.39999999851","","","survey-text","331","1678807","0.0-19.0-3.1","86924","List1B","white","man","","","","","{""Q0"":""Beth is hugging Fred""}","<img src=""stim_listB/hug1.gif""style=""height:400px;""></stim_listB>","is hugging","","","","","",""
"null","<div style=""font-size:60px;"">+</div>","","html-keyboard-response","332","1679319","0.0-19.0-0.2","86924","List1B","white","man","","","","null","","","","","","","","",""
"null","<img src=""stim_listB/touch4.gif""style=""height:400px;""></stim_listB>","","html-keyboard-response","333","1681329","0.0-19.0-1.2","86924","List1B","white","man","","","","null","","","","","","","","",""
"null","is being touched by","","html-keyboard-response","334","1683332","0.0-19.0-2.2","86924","List1B","white","man","","","","null","","","","","","","","",""
"11015.19999999553","","","survey-text","335","1694351","0.0-19.0-3.2","86924","List1B","white","man","","","","","{""Q0"":""Ruth is being touched by luke""}","<img src=""stim_listB/touch4.gif""style=""height:400px;""></stim_listB>","is being touched by","","","","","",""
"null","<div style=""font-size:60px;"">+</div>","","html-keyboard-response","336","1694867","0.0-19.0-0.3","86924","List1B","white","man","","","","null","","","","","","","","",""
"null","<img src=""stim_listB/copy5.gif""style=""height:400px;""></stim_listB>","","html-keyboard-response","337","1696882","0.0-19.0-1.3","86924","List1B","white","man","","","","null","","","","","","","","",""
"null","is copying","","html-keyboard-response","338","1698891","0.0-19.0-2.3","86924","List1B","white","man","","","","null","","","","","","","","",""
"10320","","","survey-text","339","1709215","0.0-19.0-3.3","86924","List1B","white","man","","","","","{""Q0"":""Mike is copying Luke""}","<img src=""stim_listB/copy5.gif""style=""height:400px;""></stim_listB>","is copying","","","","","",""
"null","<div style=""font-size:60px;"">+</div>","","html-keyboard-response","340","1709716","0.0-19.0-0.4","86924","List1B","white","man","","","","null","","","","","","","","",""
"null","<img src=""stim_listB/hug4.gif""style=""height:400px;""></stim_listB>","","html-keyboard-response","341","1711723","0.0-19.0-1.4","86924","List1B","white","man","","","","null","","","","","","","","",""
"null","is being hugged by","","html-keyboard-response","342","1713739","0.0-19.0-2.4","86924","List1B","white","man","","","","null","","","","","","","","",""
"12376.10000000149","","","survey-text","343","1726118","0.0-19.0-3.4","86924","List1B","white","man","","","","","{""Q0"":""Dave is being hugged by Jane""}","<img src=""stim_listB/hug4.gif""style=""height:400px;""></stim_listB>","is being hugged by","","","","","",""
"null","<div style=""font-size:60px;"">+</div>","","html-keyboard-response","344","1726620","0.0-19.0-0.5","86924","List1B","white","man","","","","null","","","","","","","","",""
"null","<img src=""stim_listB/copy3.gif""style=""height:400px;""></stim_listB>","","html-keyboard-response","345","1728638","0.0-19.0-1.5","86924","List1B","white","man","","","","null","","","","","","","","",""
"null","is copying","","html-keyboard-response","346","1730641","0.0-19.0-2.5","86924","List1B","white","man","","","","null","","","","","","","","",""
"8297.70000000298","","","survey-text","347","1738943","0.0-19.0-3.5","86924","List1B","white","man","","","","","{""Q0"":""Dave is copying Ruth""}","<img src=""stim_listB/copy3.gif""style=""height:400px;""></stim_listB>","is copying","","","","","",""
"null","<div style=""font-size:60px;"">+</div>","","html-keyboard-response","348","1739454","0.0-19.0-0.6","86924","List1B","white","man","","","","null","","","","","","","","",""
"null","<img src=""stim_listB/seduce1.gif""style=""height:400px;""></stim_listB>","","html-keyboard-response","349","1741465","0.0-19.0-1.6","86924","List1B","white","man","","","","null","","","","","","","","",""
"null","is seducing","","html-keyboard-response","350","1743482","0.0-19.0-2.6","86924","List1B","white","man","","","","null","","","","","","","","",""
"14833.10000000149","","","survey-text","351","1758318","0.0-19.0-3.6","86924","List1B","white","man","","","","","{""Q0"":""Fred is copying kate""}","<img src=""stim_listB/seduce1.gif""style=""height:400px;""></stim_listB>","is seducing","","","","","",""
"null","<div style=""font-size:60px;"">+</div>","","html-keyboard-response","352","1758822","0.0-19.0-0.7","86924","List1B","white","man","","","","null","","","","","","","","",""
"null","<img src=""stim_listB/seduce4.gif""style=""height:400px;""></stim_listB>","","html-keyboard-response","353","1760833","0.0-19.0-1.7","86924","List1B","white","man","","","","null","","","","","","","","",""
"null","is being seduced by","","html-keyboard-response","354","1762849","0.0-19.0-2.7","86924","List1B","white","man","","","","null","","","","","","","","",""
"14233.69999999553","","","survey-text","355","1777086","0.0-19.0-3.7","86924","List1B","white","man","","","","","{""Q0"":""Ruth is being seduced by Dave""}","<img src=""stim_listB/seduce4.gif""style=""height:400px;""></stim_listB>","is being seduced by","","","","","",""
"null","<div style=""font-size:60px;"">+</div>","","html-keyboard-response","356","1777603","0.0-19.0-0.8","86924","List1B","white","man","","","","null","","","","","","","","",""
"null","<img src=""stim_listB/kiss1.gif""style=""height:400px;""></stim_listB>","","html-keyboard-response","357","1779607","0.0-19.0-1.8","86924","List1B","white","man","","","","null","","","","","","","","",""
"null","is kissing","","html-keyboard-response","358","1781611","0.0-19.0-2.8","86924","List1B","white","man","","","","null","","","","","","","","",""
"8503.60000000149","","","survey-text","359","1790118","0.0-19.0-3.8","86924","List1B","white","man","","","","","{""Q0"":""Beth is kissing fred""}","<img src=""stim_listB/kiss1.gif""style=""height:400px;""></stim_listB>","is kissing","","","","","",""
"null","<div style=""font-size:60px;"">+</div>","","html-keyboard-response","360","1790620","0.0-19.0-0.9","86924","List1B","white","man","","","","null","","","","","","","","",""
"null","<img src=""stim_listB/look7.gif""style=""height:400px;""></stim_listB>","","html-keyboard-response","361","1792637","0.0-19.0-1.9","86924","List1B","white","man","","","","null","","","","","","","","",""
"null","is looking at","","html-keyboard-response","362","1794653","0.0-19.0-2.9","86924","List1B","white","man","","","","null","","","","","","","","",""
"10653.19999999553","","","survey-text","363","1805310","0.0-19.0-3.9","86924","List1B","white","man","","","","","{""Q0"":""Beth is looking at Ruth""}","<img src=""stim_listB/look7.gif""style=""height:400px;""></stim_listB>","is looking at","","","","","",""
"null","<div style=""font-size:60px;"">+</div>","","html-keyboard-response","364","1805812","0.0-19.0-0.10","86924","List1B","white","man","","","","null","","","","","","","","",""
"null","<img src=""stim_listB/oppose1.gif""style=""height:400px;""></stim_listB>","","html-keyboard-response","365","1807828","0.0-19.0-1.10","86924","List1B","white","man","","","","null","","","","","","","","",""
"null","is opposing","","html-keyboard-response","366","1809845","0.0-19.0-2.10","86924","List1B","white","man","","","","null","","","","","","","","",""
"8212.79999999702","","","survey-text","367","1818062","0.0-19.0-3.10","86924","List1B","white","man","","","","","{""Q0"":""Kate is opposing Mike""}","<img src=""stim_listB/oppose1.gif""style=""height:400px;""></stim_listB>","is opposing","","","","","",""
"null","<div style=""font-size:60px;"">+</div>","","html-keyboard-response","368","1818564","0.0-19.0-0.11","86924","List1B","white","man","","","","null","","","","","","","","",""
"null","<img src=""stim_listB/challenge7.gif""style=""height:400px;""></stim_listB>","","html-keyboard-response","369","1820578","0.0-19.0-1.11","86924","List1B","white","man","","","","null","","","","","","","","",""
"null","is challenging","","html-keyboard-response","370","1822584","0.0-19.0-2.11","86924","List1B","white","man","","","","null","","","","","","","","",""
"12538.10000000149","","","survey-text","371","1835126","0.0-19.0-3.11","86924","List1B","white","man","","","","","{""Q0"":""Ruth is challenging Kate""}","<img src=""stim_listB/challenge7.gif""style=""height:400px;""></stim_listB>","is challenging","","","","","",""
"null","<div style=""font-size:60px;"">+</div>","","html-keyboard-response","372","1835627","0.0-19.0-0.12","86924","List1B","white","man","","","","null","","","","","","","","",""
"null","<img src=""stim_listB/look5.gif""style=""height:400px;""></stim_listB>","","html-keyboard-response","373","1837631","0.0-19.0-1.12","86924","List1B","white","man","","","","null","","","","","","","","",""
"null","is looking at","","html-keyboard-response","374","1839648","0.0-19.0-2.12","86924","List1B","white","man","","","","null","","","","","","","","",""
"11226.60000000149","","","survey-text","375","1850878","0.0-19.0-3.12","86924","List1B","white","man","","","","","{""Q0"":""Fred is looking at luke""}","<img src=""stim_listB/look5.gif""style=""height:400px;""></stim_listB>","is looking at","","","","","",""
"null","<div style=""font-size:60px;"">+</div>","","html-keyboard-response","376","1851379","0.0-19.0-0.13","86924","List1B","white","man","","","","null","","","","","","","","",""
"null","<img src=""stim_listB/touch5.gif""style=""height:400px;""></stim_listB>","","html-keyboard-response","377","1853396","0.0-19.0-1.13","86924","List1B","white","man","","","","null","","","","","","","","",""
"null","is touching","","html-keyboard-response","378","1855403","0.0-19.0-2.13","86924","List1B","white","man","","","","null","","","","","","","","",""
"10592","","","survey-text","379","1865998","0.0-19.0-3.13","86924","List1B","white","man","","","","","{""Q0"":""Dave is touching Mike""}","<img src=""stim_listB/touch5.gif""style=""height:400px;""></stim_listB>","is touching","","","","","",""
"null","<div style=""font-size:60px;"">+</div>","","html-keyboard-response","380","1866499","0.0-19.0-0.14","86924","List1B","white","man","","","","null","","","","","","","","",""
"null","<img src=""stim_listB/kiss3.gif""style=""height:400px;""></stim_listB>","","html-keyboard-response","381","1868517","0.0-19.0-1.14","86924","List1B","white","man","","","","null","","","","","","","","",""
"null","is kissing","","html-keyboard-response","382","1870521","0.0-19.0-2.14","86924","List1B","white","man","","","","null","","","","","","","","",""
"9056.79999999702","","","survey-text","383","1879582","0.0-19.0-3.14","86924","List1B","white","man","","","","","{""Q0"":""Ruth is kissing Luke""}","<img src=""stim_listB/kiss3.gif""style=""height:400px;""></stim_listB>","is kissing","","","","","",""
"null","<div style=""font-size:60px;"">+</div>","","html-keyboard-response","384","1880083","0.0-19.0-0.15","86924","List1B","white","man","","","","null","","","","","","","","",""
"null","<img src=""stim_listB/look3.gif""style=""height:400px;""></stim_listB>","","html-keyboard-response","385","1882093","0.0-19.0-1.15","86924","List1B","white","man","","","","null","","","","","","","","",""
"null","is looking at","","html-keyboard-response","386","1884108","0.0-19.0-2.15","86924","List1B","white","man","","","","null","","","","","","","","",""
"13366.29999999702","","","survey-text","387","1897478","0.0-19.0-3.15","86924","List1B","white","man","","","","","{""Q0"":""Ruth is looking at Luke""}","<img src=""stim_listB/look3.gif""style=""height:400px;""></stim_listB>","is looking at","","","","","",""
"null","<div style=""font-size:60px;"">+</div>","","html-keyboard-response","388","1897979","0.0-19.0-0.16","86924","List1B","white","man","","","","null","","","","","","","","",""
"null","<img src=""stim_listB/shout7.gif""style=""height:400px;""></stim_listB>","","html-keyboard-response","389","1899983","0.0-19.0-1.16","86924","List1B","white","man","","","","null","","","","","","","","",""
"null","is shouting at","","html-keyboard-response","390","1901997","0.0-19.0-2.16","86924","List1B","white","man","","","","null","","","","","","","","",""
"16705.60000000149","","","survey-text","391","1918710","0.0-19.0-3.16","86924","List1B","white","man","","","","","{""Q0"":""Beth is shouting at Ruth""}","<img src=""stim_listB/shout7.gif""style=""height:400px;""></stim_listB>","is shouting at","","","","","",""
"null","<div style=""font-size:60px;"">+</div>","","html-keyboard-response","392","1919211","0.0-19.0-0.17","86924","List1B","white","man","","","","null","","","","","","","","",""
"null","<img src=""stim_listB/hug2.gif""style=""height:400px;""></stim_listB>","","html-keyboard-response","393","1921228","0.0-19.0-1.17","86924","List1B","white","man","","","","null","","","","","","","","",""
"null","is being hugged by","","html-keyboard-response","394","1923243","0.0-19.0-2.17","86924","List1B","white","man","","","","null","","","","","","","","",""
"16679.60000000149","","","survey-text","395","1939926","0.0-19.0-3.17","86924","List1B","white","man","","","","","{""Q0"":""Mike is being hugged by Kate""}","<img src=""stim_listB/hug2.gif""style=""height:400px;""></stim_listB>","is being hugged by","","","","","",""
"null","<div style=""font-size:60px;"">+</div>","","html-keyboard-response","396","1940427","0.0-19.0-0.18","86924","List1B","white","man","","","","null","","","","","","","","",""
"null","<img src=""stim_listB/touch8.gif""style=""height:400px;""></stim_listB>","","html-keyboard-response","397","1942446","0.0-19.0-1.18","86924","List1B","white","man","","","","null","","","","","","","","",""
"null","is being touched by","","html-keyboard-response","398","1944458","0.0-19.0-2.18","86924","List1B","white","man","","","","null","","","","","","","","",""
"13400.90000000596","","","survey-text","399","1957862","0.0-19.0-3.18","86924","List1B","white","man","","","","","{""Q0"":""Ruth is is touched by Beth""}","<img src=""stim_listB/touch8.gif""style=""height:400px;""></stim_listB>","is being touched by","","","","","",""
"null","<div style=""font-size:60px;"">+</div>","","html-keyboard-response","400","1958363","0.0-19.0-0.19","86924","List1B","white","man","","","","null","","","","","","","","",""
"null","<img src=""stim_listB/oppose2.gif""style=""height:400px;""></stim_listB>","","html-keyboard-response","401","1960366","0.0-19.0-1.19","86924","List1B","white","man","","","","null","","","","","","","","",""
"null","is being opposed by","","html-keyboard-response","402","1962373","0.0-19.0-2.19","86924","List1B","white","man","","","","null","","","","","","","","",""
"12172.39999999851","","","survey-text","403","1974550","0.0-19.0-3.19","86924","List1B","white","man","","","","","{""Q0"":""Beth is being opposed by Fred""}","<img src=""stim_listB/oppose2.gif""style=""height:400px;""></stim_listB>","is being opposed by","","","","","",""
"5710.89999999851","<p>Thank you for completing that task.</p><p>The final part of this session is a questionnaire that will take about 4 minutes.</p><p>Press Continue.</p>","0","html-button-response","404","1980262","0.0-20.0","86924","List1B","white","man","","","","","","","","","","","","",""
"84460.40000000596","","","survey-text","405","2065757","0.0-21.0","86924","List1B","white","man","","","","","{""Q0"":""38"",""Q1"":""English"",""Q2"":""English"",""Q3"":""America"",""Q4"":""American"",""Q5"":""White "",""Q6"":""Male""}","","","demographics","","","","",""
"4862","<p>Have you lived in the USA for the last 5 years or more?</p>","0","html-button-response","406","2070621","0.0-22.0","86924","List1B","white","man","","","","","","","","fiveyears","","","","",""
"5103.29999999702","<p>Move the slider to show the extent to which you agree with the following statements.</p>","0","html-button-response","407","2076733","0.0-23.0","86924","List1B","white","man","","","","","","","","","","","","",""
"5603.69999999553","","","html-slider-response","408","2083341","0.0-24.0-0.0-0.0","86924","List1B","white","man","","","","","","","","survey_race","69","","","I feel a bond with people the same age as me.","filler"
"4774.5","","","html-slider-response","409","2088117","0.0-24.0-0.0-0.1","86924","List1B","white","man","","","","","","","","survey_race","70","","","It is pleasant to be my race.","pleasant"
"9902.59999999404","","","html-slider-response","410","2098021","0.0-24.0-0.0-0.2","86924","List1B","white","man","","","","","","","","survey_race","71","","","I often think about the fact that I am my race.","often"
"3286.3000000044703","","","html-slider-response","411","2101309","0.0-24.0-0.0-0.3","86924","List1B","white","man","","","","","","","","survey_race","77","","","I am glad to be the age I am.","filler"
"2598.9000000059605","","","html-slider-response","412","2103909","0.0-24.0-0.0-0.4","86924","List1B","white","man","","","","","","","","survey_race","75","","","I feel solidarity with my race.","solidarity"
"3231.2999999970198","","","html-slider-response","413","2107141","0.0-24.0-0.0-0.5","86924","List1B","white","man","","","","","","","","survey_race","82","","","I feel committed to my race.","committed"
"3950.10000000149","","","html-slider-response","414","2111093","0.0-24.0-0.0-0.6","86924","List1B","white","man","","","","","","","","survey_race","68","","","I feel a bond with my race.","bond"
"2670.6999999955297","","","html-slider-response","415","2113765","0.0-24.0-0.0-0.7","86924","List1B","white","man","","","","","","","","survey_race","78","","","I am similar to the average person of my race.","similar"
"3894.60000000149","","","html-slider-response","416","2117661","0.0-24.0-0.0-0.8","86924","List1B","white","man","","","","","","","","survey_race","72","","","Being my age gives me a good feeling.","filler"
"2278.5","","","html-slider-response","417","2119941","0.0-24.0-0.0-0.9","86924","List1B","white","man","","","","","","","","survey_race","75","","","I have a lot in common with the average person of my race.","average"
"4966.39999999851","","","html-slider-response","418","2124909","0.0-24.0-0.0-0.10","86924","List1B","white","man","","","","","","","","survey_race","41","","","I enjoy being in large groups.","filler"
"2110.5","","","html-slider-response","419","2127021","0.0-24.0-0.0-0.11","86924","List1B","white","man","","","","","","","","survey_race","64","","","Being my race gives me a good feeling.","feeling"
"2134.8000000044703","","","html-slider-response","420","2129157","0.0-24.0-0.0-0.12","86924","List1B","white","man","","","","","","","","survey_race","68","","","I feel solidarity with people the same age as me.","filler"
"2167.10000000149","","","html-slider-response","421","2131325","0.0-24.0-0.0-0.13","86924","List1B","white","man","","","","","","","","survey_race","74","","","I often think about the fact that I am my age.","filler"
"2255.10000000149","","","html-slider-response","422","2133581","0.0-24.0-0.0-0.14","86924","List1B","white","man","","","","","","","","survey_race","73","","","I have a lot in common with people of a similar age to me.","filler"
"1990.8999999985099","","","html-slider-response","423","2135573","0.0-24.0-0.0-0.15","86924","List1B","white","man","","","","","","","","survey_race","77","","","My age is not an important part of who I am.","filler"
"3639.10000000149","","","html-slider-response","424","2139213","0.0-24.0-0.0-0.16","86924","List1B","white","man","","","","","","","","survey_race","46","","","I am glad to be my race.","glad"
"2694.2000000029802","","","html-slider-response","425","2141909","0.0-24.0-0.0-0.17","86924","List1B","white","man","","","","","","","","survey_race","67","","","People of my race have a lot in common with each other.","common"
"2887","","","html-slider-response","426","2144797","0.0-24.0-0.0-0.18","86924","List1B","white","man","","","","","","","","survey_race","58","","","I am glad to be my age.","filler"
"1846.5","","","html-slider-response","427","2146645","0.0-24.0-0.0-0.19","86924","List1B","white","man","","","","","","","","survey_race","66","","","I think that my race has a lot to be proud of.","proud"
"1687.1000000014901","","","html-slider-response","428","2148333","0.0-24.0-0.0-0.20","86924","List1B","white","man","","","","","","","","survey_race","69","","","I consider myself an extrovert.","filler"
"1670.7999999970198","","","html-slider-response","429","2150005","0.0-24.0-0.0-0.21","86924","List1B","white","man","","","","","","","","survey_race","73","","","The older I get, the wiser I feel.","filler"
"3431","","","html-slider-response","430","2153437","0.0-24.0-0.0-0.22","86924","List1B","white","man","","","","","","","","survey_race","40","","","Getting older does not worry me.","filler"
"2438.9000000059605","","","html-slider-response","431","2155877","0.0-24.0-0.0-0.23","86924","List1B","white","man","","","","","","","","survey_race","57","","","People my age have a lot in common with each other.","filler"
"1798.6999999955297","","","html-slider-response","432","2157677","0.0-24.0-0.0-0.24","86924","List1B","white","man","","","","","","","","survey_race","66","","","Being my race is an important part of how I see myself.","important"
"1958.7999999970198","","","html-slider-response","433","2159637","0.0-24.0-0.0-0.25","86924","List1B","white","man","","","","","","","","survey_race","73","","","People of my race are very similar to each other.","verysimilar"
"1678.8999999985099","","","html-slider-response","434","2161317","0.0-24.0-0.0-0.26","86924","List1B","white","man","","","","","","","","survey_race","78","","","The fact that I am my race is an important part of my identity.","identity"
"2710.89999999851","","","html-slider-response","435","2164028","0.0-24.0-0.0-0.27","86924","List1B","white","man","","","","","","","","survey_race","44","","","I consider myself an introvert.","filler"
"3326.89999999851","","","html-slider-response","436","2167356","0.0-24.0-1.0-0.0","86924","List1B","white","man","","","","","","","","survey_gender","34","","","I consider myself a highly empathetic person.","filler"
"3486.5","","","html-slider-response","437","2170844","0.0-24.0-1.0-0.1","86924","List1B","white","man","","","","","","","","survey_gender","61","","","People of my gender have a lot in common with each other.","common"
"3710.60000000149","","","html-slider-response","438","2174556","0.0-24.0-1.0-0.2","86924","List1B","white","man","","","","","","","","survey_gender","87","","","I feel solidarity with my friends.","filler"
"3662.5","","","html-slider-response","439","2178220","0.0-24.0-1.0-0.3","86924","List1B","white","man","","","","","","","","survey_gender","75","","","Being my gender is an important part of how I see myself.","important"
"2310.7999999970198","","","html-slider-response","440","2180532","0.0-24.0-1.0-0.4","86924","List1B","white","man","","","","","","","","survey_gender","84","","","I have a lot in common with the average person of my gender.","average"
"1871","","","html-slider-response","441","2182404","0.0-24.0-1.0-0.5","86924","List1B","white","man","","","","","","","","survey_gender","74","","","It is not always easy for people to know what I am thinking.","filler"
"2087.10000000149","","","html-slider-response","442","2184492","0.0-24.0-1.0-0.6","86924","List1B","white","man","","","","","","","","survey_gender","74","","","I am similar to the average person of my gender.","similar"
"1862.6999999955297","","","html-slider-response","443","2186356","0.0-24.0-1.0-0.7","86924","List1B","white","man","","","","","","","","survey_gender","37","","","It is pleasant to be my gender.","pleasant"
"2062.8000000044703","","","html-slider-response","444","2188420","0.0-24.0-1.0-0.8","86924","List1B","white","man","","","","","","","","survey_gender","68","","","I am glad to have the friends that I have.","filler"
"1838.8999999985099","","","html-slider-response","445","2190260","0.0-24.0-1.0-0.9","86924","List1B","white","man","","","","","","","","survey_gender","71","","","The fact that I am my gender is an important part of my identity.","identity"
"1822.7999999970198","","","html-slider-response","446","2192084","0.0-24.0-1.0-0.10","86924","List1B","white","man","","","","","","","","survey_gender","76","","","Most of the friends in my life are very similar to me.","filler"
"1574.5999999940395","","","html-slider-response","447","2193660","0.0-24.0-1.0-0.11","86924","List1B","white","man","","","","","","","","survey_gender","82","","","I think that my gender has a lot to be proud of.","proud"
"1902.8999999985099","","","html-slider-response","448","2195564","0.0-24.0-1.0-0.12","86924","List1B","white","man","","","","","","","","survey_gender","63","","","I feel solidarity with my gender.","solidarity"
"2462.5999999940395","","","html-slider-response","449","2198028","0.0-24.0-1.0-0.13","86924","List1B","white","man","","","","","","","","survey_gender","73","","","I would say I am an animal person.","filler"
"1806.6999999955297","","","html-slider-response","450","2199836","0.0-24.0-1.0-0.14","86924","List1B","white","man","","","","","","","","survey_gender","73","","","I am glad to be my gender.","glad"
"1783","","","html-slider-response","451","2201620","0.0-24.0-1.0-0.15","86924","List1B","white","man","","","","","","","","survey_gender","79","","","People of my gender are very similar to each other.","verysimilar"
"1823.1000000014901","","","html-slider-response","452","2203444","0.0-24.0-1.0-0.16","86924","List1B","white","man","","","","","","","","survey_gender","80","","","Being my gender gives me a good feeling.","feeling"
"2015.1999999955297","","","html-slider-response","453","2205460","0.0-24.0-1.0-0.17","86924","List1B","white","man","","","","","","","","survey_gender","41","","","Being around my friends gives me a good feeling.","filler"
"1607.0999999940395","","","html-slider-response","454","2207068","0.0-24.0-1.0-0.18","86924","List1B","white","man","","","","","","","","survey_gender","69","","","I feel a bond with my gender.","bond"
"2015.0999999940395","","","html-slider-response","455","2209084","0.0-24.0-1.0-0.19","86924","List1B","white","man","","","","","","","","survey_gender","79","","","Family is not more important to me than friendship.","filler"
"1982.9000000059605","","","html-slider-response","456","2211068","0.0-24.0-1.0-0.20","86924","List1B","white","man","","","","","","","","survey_gender","64","","","I often think about the fact that I am my gender.","often"
"2599","","","html-slider-response","457","2213668","0.0-24.0-1.0-0.21","86924","List1B","white","man","","","","","","","","survey_gender","65","","","My friends have a lot in common with each other.","filler"
"2631.0999999940395","","","html-slider-response","458","2216300","0.0-24.0-1.0-0.22","86924","List1B","white","man","","","","","","","","survey_gender","64","","","I have a lot in common with my friends.","filler"
"1702.5","","","html-slider-response","459","2218004","0.0-24.0-1.0-0.23","86924","List1B","white","man","","","","","","","","survey_gender","78","","","Routine is not important to me.","filler"
"1583","","","html-slider-response","460","2219588","0.0-24.0-1.0-0.24","86924","List1B","white","man","","","","","","","","survey_gender","79","","","I feel a bond with my friends.","filler"
"3863","","","html-slider-response","461","2223452","0.0-24.0-1.0-0.25","86924","List1B","white","man","","","","","","","","survey_gender","81","","","My friends understand me.","filler"
"1806.2000000029802","","","html-slider-response","462","2225260","0.0-24.0-1.0-0.26","86924","List1B","white","man","","","","","","","","survey_gender","83","","","I often think about my actions.","filler"
"3814.7000000029802","","","html-slider-response","463","2229076","0.0-24.0-1.0-0.27","86924","List1B","white","man","","","","","","","","survey_gender","89","","","I feel committed to my gender.","committed"
"14461.89999999851","","","survey-text","464","2243541","0.0-25.0","86924","List1B","white","man","","","","","{""Q0"":""6161fdb4e625e78658f69a59""}","","","worker_id","","","","",""
"6000.29999999702","","","external-html","465","2252644","0.0-26.0","86924","List1B","white","man","debrief.html","","","","","","","","","","","",""
