rt,stimulus,button_pressed,trial_type,trial_index,time_elapsed,internal_node_id,subject,list,ppt_race,ppt_gender,url,first_guess,correct,key_press,responses,image_type,phrase_type,test_part,response,stimulus1,stimulus2,question_type,survey_item
9873.3,Welcome to the experiment. Press Continue to begin.,0,html-button-response,0,9877,0.0-0.0,8721,List2B,white,woman,,,,,,,,,,,,,
5814.3,,,external-html,1,17934,0.0-1.0,8721,List2B,white,woman,consent.html,,,,,,,,,,,,
5932,"<p>On the next page, you will see portraits of 8 people and their names.</p><p>Your first task is to take a few minutes to memorise the names of these people.</p><p>You will have to recall their names during the rest of the experiment, so it is</p><p>essential that you try to memorise these people and their names as best as you can.</p><br><p><strong>You will then be tested on your memory of these names and portraits.</strong></p><br><p>The experiment will start after you have completed this memory test.</p><br><p>Ready?</p>",0,html-button-response,2,23868,0.0-2.0,8721,List2B,white,woman,,,,,,,,,,,,,
79572.8,"<img src='img/portrait_matrix_list2.jpg' style='width:900px;height:500px;''></img><p>If you have memorised all the portraits and names and are ready to start, press Continue.</p><p><strong>Please note: Your memory of these faces will be tested 4 times during this experiment.</strong></p>",0,html-button-response,3,104444,0.0-3.0-0.0,8721,List2B,white,woman,,,,,,,,,,,,,
2165.1,"<img src=""portrait/WW2.jpg""style=""height:400px;""></img>",3,html-button-response,4,107612,0.0-3.0-1.0,8721,List2B,white,woman,,TRUE,3,,,,,,,,,,
null,CORRECT,,html-keyboard-response,5,109116,0.0-3.0-2.0-0.0,8721,List2B,white,woman,,,,null,,,,,,,,,
2059.6,"<img src=""portrait/BM2.jpg""style=""height:400px;""></img>",5,html-button-response,6,111178,0.0-3.0-4.0,8721,List2B,white,woman,,TRUE,5,,,,,,,,,,
null,CORRECT,,html-keyboard-response,7,112681,0.0-3.0-5.0-0.0,8721,List2B,white,woman,,,,null,,,,,,,,,
2523.1,"<img src=""portrait/BM1.jpg""style=""height:400px;""></img>",4,html-button-response,8,115206,0.0-3.0-7.0,8721,List2B,white,woman,,TRUE,4,,,,,,,,,,
null,CORRECT,,html-keyboard-response,9,116709,0.0-3.0-8.0-0.0,8721,List2B,white,woman,,,,null,,,,,,,,,
2679.2,"<img src=""portrait/WW1.jpg""style=""height:400px;""></img>",1,html-button-response,10,119390,0.0-3.0-10.0,8721,List2B,white,woman,,TRUE,1,,,,,,,,,,
null,CORRECT,,html-keyboard-response,11,120892,0.0-3.0-11.0-0.0,8721,List2B,white,woman,,,,null,,,,,,,,,
2803.8,"<img src=""portrait/BW1.jpg""style=""height:400px;""></img>",0,html-button-response,12,123698,0.0-3.0-13.0,8721,List2B,white,woman,,TRUE,0,,,,,,,,,,
null,CORRECT,,html-keyboard-response,13,125201,0.0-3.0-14.0-0.0,8721,List2B,white,woman,,,,null,,,,,,,,,
2280.6,"<img src=""portrait/WM1.jpg""style=""height:400px;""></img>",6,html-button-response,14,127483,0.0-3.0-16.0,8721,List2B,white,woman,,TRUE,6,,,,,,,,,,
null,CORRECT,,html-keyboard-response,15,128985,0.0-3.0-17.0-0.0,8721,List2B,white,woman,,,,null,,,,,,,,,
2086.9,"<img src=""portrait/BW2.jpg""style=""height:400px;""></img>",2,html-button-response,16,131073,0.0-3.0-19.0,8721,List2B,white,woman,,TRUE,2,,,,,,,,,,
null,CORRECT,,html-keyboard-response,17,132579,0.0-3.0-20.0-0.0,8721,List2B,white,woman,,,,null,,,,,,,,,
2042.7,"<img src=""portrait/WM2.jpg""style=""height:400px;""></img>",7,html-button-response,18,134624,0.0-3.0-22.0,8721,List2B,white,woman,,TRUE,7,,,,,,,,,,
null,CORRECT,,html-keyboard-response,19,136126,0.0-3.0-23.0-0.0,8721,List2B,white,woman,,,,null,,,,,,,,,
1603.4,<p>You got 8 out of 8 right first time. Press Continue.</p>,0,html-button-response,20,137731,0.0-3.0-25.0,8721,List2B,white,woman,,,,,,,,,,,,,
19050,"<p>In this experiment, you will view photographs of the people from the memory game interacting.</p><p>By using the <strong>exact</strong> phrase given <i>after</i> the photograph appears and recalling the correct names of the people in the photographs, form a sentence describing the interaction. You do not need to capitalise names.</p><p>Type your answer in the space provided. Please complete every sentence before moving onto the next trial.</p><p>You will only have a few seconds to memorise each given photograph and phrase before you can respond, so try your best to focus.</p><p>An example is given below. Press 'Continue' when you are ready.</p><img src='img/speaking_example.jpg' style='width:800px;height:460px;''></img>",0,html-button-response,21,157785,0.0-4.0,8721,List2B,white,woman,,,,,,,,,,,,,
1605.5,"<p>Before the experiment starts, you will watch two example trials. Press 'Continue'.</p>",0,html-button-response,22,160393,0.0-5.0,8721,List2B,white,woman,,,,,,,,,,,,,
null,<img src='img/play_eg.gif' style='height:400px;''></img>,,html-keyboard-response,23,163396,0.0-6.0,8721,List2B,white,woman,,,,null,,,,,,,,,
null,<p>is playing with</p>,,html-keyboard-response,24,165398,0.0-7.0,8721,List2B,white,woman,,,,null,,,,,,,,,
1480.4,<p><b>Answer:</b> jane is playing with ruth</p>,0,html-button-response,25,166879,0.0-8.0,8721,List2B,white,woman,,,,,,,,,,,,,
null,<img src='img/dance_eg.gif' style='height:400px;''></img>,,html-keyboard-response,26,169883,0.0-9.0,8721,List2B,white,woman,,,,null,,,,,,,,,
null,<p>is being entertained by</p>,,html-keyboard-response,27,171884,0.0-10.0,8721,List2B,white,woman,,,,null,,,,,,,,,
1745.4,<p><b>Answer:</b> fred is being entertained by mike</p>,0,html-button-response,28,173631,0.0-11.0,8721,List2B,white,woman,,,,,,,,,,,,,
3524.8,"<p>Ready to start the experiment?</p><br><p><strong>Remember to describe the picture using a full sentence,</strong></p><p><strong>that combines the names of the people with the <i>exact</i> phrase given.</strong></p><p><strong>To receive full payment you must do this correctly.</strong></p><p><strong> You do not need to capitalise names or use punctuation.</strong></p><br><p>Press 'Continue' to begin.</p>",0,html-button-response,29,178157,0.0-12.0,8721,List2B,white,woman,,,,,,,,,,,,,
null,"<div style=""font-size:60px;"">+</div>",,html-keyboard-response,30,179659,0.0-13.0-0.0,8721,List2B,white,woman,,,,null,,,,,,,,,
null,"<img src=""stim_listB/challenge5.gif""style=""height:400px;""></stim_listB>",,html-keyboard-response,31,181661,0.0-13.0-1.0,8721,List2B,white,woman,,,,null,,,,,,,,,
null,is challenging,,html-keyboard-response,32,183663,0.0-13.0-2.0,8721,List2B,white,woman,,,,null,,,,,,,,,
5756.9,,,survey-text,33,189424,0.0-13.0-3.0,8721,List2B,white,woman,,,,,"{""Q0"":""fred is challenging dave""}","<img src=""stim_listB/challenge5.gif""style=""height:400px;""></stim_listB>",is challenging,,,,,,
null,"<div style=""font-size:60px;"">+</div>",,html-keyboard-response,34,189928,0.0-13.0-0.1,8721,List2B,white,woman,,,,null,,,,,,,,,
null,"<img src=""stim_listB/seduce3.gif""style=""height:400px;""></stim_listB>",,html-keyboard-response,35,191929,0.0-13.0-1.1,8721,List2B,white,woman,,,,null,,,,,,,,,
null,is seducing,,html-keyboard-response,36,193931,0.0-13.0-2.1,8721,List2B,white,woman,,,,null,,,,,,,,,
5775.6,,,survey-text,37,199712,0.0-13.0-3.1,8721,List2B,white,woman,,,,,"{""Q0"":""kate is seducing fred""}","<img src=""stim_listB/seduce3.gif""style=""height:400px;""></stim_listB>",is seducing,,,,,,
null,"<div style=""font-size:60px;"">+</div>",,html-keyboard-response,38,200213,0.0-13.0-0.2,8721,List2B,white,woman,,,,null,,,,,,,,,
null,"<img src=""stim_listB/shout7.gif""style=""height:400px;""></stim_listB>",,html-keyboard-response,39,202215,0.0-13.0-1.2,8721,List2B,white,woman,,,,null,,,,,,,,,
null,is shouting at,,html-keyboard-response,40,204217,0.0-13.0-2.2,8721,List2B,white,woman,,,,null,,,,,,,,,
4450.2,,,survey-text,41,208671,0.0-13.0-3.2,8721,List2B,white,woman,,,,,"{""Q0"":""beth is shouting at ruth""}","<img src=""stim_listB/shout7.gif""style=""height:400px;""></stim_listB>",is shouting at,,,,,,
null,"<div style=""font-size:60px;"">+</div>",,html-keyboard-response,42,209172,0.0-13.0-0.3,8721,List2B,white,woman,,,,null,,,,,,,,,
null,"<img src=""stim_listB/hug8.gif""style=""height:400px;""></stim_listB>",,html-keyboard-response,43,211175,0.0-13.0-1.3,8721,List2B,white,woman,,,,null,,,,,,,,,
null,is being hugged by,,html-keyboard-response,44,213176,0.0-13.0-2.3,8721,List2B,white,woman,,,,null,,,,,,,,,
5405.3,,,survey-text,45,218587,0.0-13.0-3.3,8721,List2B,white,woman,,,,,"{""Q0"":""jane is being hugged by kate""}","<img src=""stim_listB/hug8.gif""style=""height:400px;""></stim_listB>",is being hugged by,,,,,,
null,"<div style=""font-size:60px;"">+</div>",,html-keyboard-response,46,219088,0.0-13.0-0.4,8721,List2B,white,woman,,,,null,,,,,,,,,
null,"<img src=""stim_listB/touch2.gif""style=""height:400px;""></stim_listB>",,html-keyboard-response,47,221091,0.0-13.0-1.4,8721,List2B,white,woman,,,,null,,,,,,,,,
null,is being touched by,,html-keyboard-response,48,223093,0.0-13.0-2.4,8721,List2B,white,woman,,,,null,,,,,,,,,
5272.8,,,survey-text,49,228372,0.0-13.0-3.4,8721,List2B,white,woman,,,,,"{""Q0"":""luke is being touched by ruth""}","<img src=""stim_listB/touch2.gif""style=""height:400px;""></stim_listB>",is being touched by,,,,,,
null,"<div style=""font-size:60px;"">+</div>",,html-keyboard-response,50,228873,0.0-13.0-0.5,8721,List2B,white,woman,,,,null,,,,,,,,,
null,"<img src=""stim_listB/touch3.gif""style=""height:400px;""></stim_listB>",,html-keyboard-response,51,230875,0.0-13.0-1.5,8721,List2B,white,woman,,,,null,,,,,,,,,
null,is touching,,html-keyboard-response,52,232877,0.0-13.0-2.5,8721,List2B,white,woman,,,,null,,,,,,,,,
3009.7,,,survey-text,53,235891,0.0-13.0-3.5,8721,List2B,white,woman,,,,,"{""Q0"":""mike is touching kate""}","<img src=""stim_listB/touch3.gif""style=""height:400px;""></stim_listB>",is touching,,,,,,
null,"<div style=""font-size:60px;"">+</div>",,html-keyboard-response,54,236393,0.0-13.0-0.6,8721,List2B,white,woman,,,,null,,,,,,,,,
null,"<img src=""stim_listB/seduce5.gif""style=""height:400px;""></stim_listB>",,html-keyboard-response,55,238396,0.0-13.0-1.6,8721,List2B,white,woman,,,,null,,,,,,,,,
null,is seducing,,html-keyboard-response,56,240397,0.0-13.0-2.6,8721,List2B,white,woman,,,,null,,,,,,,,,
3855.8,,,survey-text,57,244257,0.0-13.0-3.6,8721,List2B,white,woman,,,,,"{""Q0"":""luke is seducing mike""}","<img src=""stim_listB/seduce5.gif""style=""height:400px;""></stim_listB>",is seducing,,,,,,
null,"<div style=""font-size:60px;"">+</div>",,html-keyboard-response,58,244759,0.0-13.0-0.7,8721,List2B,white,woman,,,,null,,,,,,,,,
null,"<img src=""stim_listB/look6.gif""style=""height:400px;""></stim_listB>",,html-keyboard-response,59,246761,0.0-13.0-1.7,8721,List2B,white,woman,,,,null,,,,,,,,,
null,is being looked at by,,html-keyboard-response,60,248763,0.0-13.0-2.7,8721,List2B,white,woman,,,,null,,,,,,,,,
4705.8,,,survey-text,61,253475,0.0-13.0-3.7,8721,List2B,white,woman,,,,,"{""Q0"":""dave is being looked at by mike""}","<img src=""stim_listB/look6.gif""style=""height:400px;""></stim_listB>",is being looked at by,,,,,,
null,"<div style=""font-size:60px;"">+</div>",,html-keyboard-response,62,253977,0.0-13.0-0.8,8721,List2B,white,woman,,,,null,,,,,,,,,
null,"<img src=""stim_listB/seduce7.gif""style=""height:400px;""></stim_listB>",,html-keyboard-response,63,255980,0.0-13.0-1.8,8721,List2B,white,woman,,,,null,,,,,,,,,
null,is seducing,,html-keyboard-response,64,257981,0.0-13.0-2.8,8721,List2B,white,woman,,,,null,,,,,,,,,
3347.6,,,survey-text,65,261333,0.0-13.0-3.8,8721,List2B,white,woman,,,,,"{""Q0"":""ruth is seducing kate""}","<img src=""stim_listB/seduce7.gif""style=""height:400px;""></stim_listB>",is seducing,,,,,,
null,"<div style=""font-size:60px;"">+</div>",,html-keyboard-response,66,261836,0.0-13.0-0.9,8721,List2B,white,woman,,,,null,,,,,,,,,
null,"<img src=""stim_listB/look3.gif""style=""height:400px;""></stim_listB>",,html-keyboard-response,67,263838,0.0-13.0-1.9,8721,List2B,white,woman,,,,null,,,,,,,,,
null,is looking at,,html-keyboard-response,68,265841,0.0-13.0-2.9,8721,List2B,white,woman,,,,null,,,,,,,,,
3255.6,,,survey-text,69,269102,0.0-13.0-3.9,8721,List2B,white,woman,,,,,"{""Q0"":""beth is looking at fred""}","<img src=""stim_listB/look3.gif""style=""height:400px;""></stim_listB>",is looking at,,,,,,
null,"<div style=""font-size:60px;"">+</div>",,html-keyboard-response,70,269604,0.0-13.0-0.10,8721,List2B,white,woman,,,,null,,,,,,,,,
null,"<img src=""stim_listB/touch6.gif""style=""height:400px;""></stim_listB>",,html-keyboard-response,71,271605,0.0-13.0-1.10,8721,List2B,white,woman,,,,null,,,,,,,,,
null,is being touched by,,html-keyboard-response,72,273607,0.0-13.0-2.10,8721,List2B,white,woman,,,,null,,,,,,,,,
5438.2,,,survey-text,73,279050,0.0-13.0-3.10,8721,List2B,white,woman,,,,,"{""Q0"":""luke is being touched by fred""}","<img src=""stim_listB/touch6.gif""style=""height:400px;""></stim_listB>",is being touched by,,,,,,
null,"<div style=""font-size:60px;"">+</div>",,html-keyboard-response,74,279552,0.0-13.0-0.11,8721,List2B,white,woman,,,,null,,,,,,,,,
null,"<img src=""stim_listB/hug4.gif""style=""height:400px;""></stim_listB>",,html-keyboard-response,75,281554,0.0-13.0-1.11,8721,List2B,white,woman,,,,null,,,,,,,,,
null,is being hugged by,,html-keyboard-response,76,283555,0.0-13.0-2.11,8721,List2B,white,woman,,,,null,,,,,,,,,
3540.4,,,survey-text,77,287101,0.0-13.0-3.11,8721,List2B,white,woman,,,,,"{""Q0"":""mike is being hugged by kate""}","<img src=""stim_listB/hug4.gif""style=""height:400px;""></stim_listB>",is being hugged by,,,,,,
null,"<div style=""font-size:60px;"">+</div>",,html-keyboard-response,78,287603,0.0-13.0-0.12,8721,List2B,white,woman,,,,null,,,,,,,,,
null,"<img src=""stim_listB/kiss1.gif""style=""height:400px;""></stim_listB>",,html-keyboard-response,79,289605,0.0-13.0-1.12,8721,List2B,white,woman,,,,null,,,,,,,,,
null,is kissing,,html-keyboard-response,80,291606,0.0-13.0-2.12,8721,List2B,white,woman,,,,null,,,,,,,,,
5268.7,,,survey-text,81,296879,0.0-13.0-3.12,8721,List2B,white,woman,,,,,"{""Q0"":""ruth is kissing luke""}","<img src=""stim_listB/kiss1.gif""style=""height:400px;""></stim_listB>",is kissing,,,,,,
null,"<div style=""font-size:60px;"">+</div>",,html-keyboard-response,82,297381,0.0-13.0-0.13,8721,List2B,white,woman,,,,null,,,,,,,,,
null,"<img src=""stim_listB/kiss6.gif""style=""height:400px;""></stim_listB>",,html-keyboard-response,83,299383,0.0-13.0-1.13,8721,List2B,white,woman,,,,null,,,,,,,,,
null,is being kissed by,,html-keyboard-response,84,301384,0.0-13.0-2.13,8721,List2B,white,woman,,,,null,,,,,,,,,
4335.7,,,survey-text,85,305724,0.0-13.0-3.13,8721,List2B,white,woman,,,,,"{""Q0"":""mike is kissing dave""}","<img src=""stim_listB/kiss6.gif""style=""height:400px;""></stim_listB>",is being kissed by,,,,,,
null,"<div style=""font-size:60px;"">+</div>",,html-keyboard-response,86,306226,0.0-13.0-0.14,8721,List2B,white,woman,,,,null,,,,,,,,,
null,"<img src=""stim_listB/challenge6.gif""style=""height:400px;""></stim_listB>",,html-keyboard-response,87,308228,0.0-13.0-1.14,8721,List2B,white,woman,,,,null,,,,,,,,,
null,is being challenged by,,html-keyboard-response,88,310230,0.0-13.0-2.14,8721,List2B,white,woman,,,,null,,,,,,,,,
6602.1,,,survey-text,89,316837,0.0-13.0-3.14,8721,List2B,white,woman,,,,,"{""Q0"":""luke is being challenged by mike""}","<img src=""stim_listB/challenge6.gif""style=""height:400px;""></stim_listB>",is being challenged by,,,,,,
null,"<div style=""font-size:60px;"">+</div>",,html-keyboard-response,90,317338,0.0-13.0-0.15,8721,List2B,white,woman,,,,null,,,,,,,,,
null,"<img src=""stim_listB/oppose3.gif""style=""height:400px;""></stim_listB>",,html-keyboard-response,91,319341,0.0-13.0-1.15,8721,List2B,white,woman,,,,null,,,,,,,,,
null,is opposing,,html-keyboard-response,92,321341,0.0-13.0-2.15,8721,List2B,white,woman,,,,null,,,,,,,,,
3068.1,,,survey-text,93,324414,0.0-13.0-3.15,8721,List2B,white,woman,,,,,"{""Q0"":""Kate is opposing mike""}","<img src=""stim_listB/oppose3.gif""style=""height:400px;""></stim_listB>",is opposing,,,,,,
null,"<div style=""font-size:60px;"">+</div>",,html-keyboard-response,94,324915,0.0-13.0-0.16,8721,List2B,white,woman,,,,null,,,,,,,,,
null,"<img src=""stim_listB/touch7.gif""style=""height:400px;""></stim_listB>",,html-keyboard-response,95,326918,0.0-13.0-1.16,8721,List2B,white,woman,,,,null,,,,,,,,,
null,is touching,,html-keyboard-response,96,328920,0.0-13.0-2.16,8721,List2B,white,woman,,,,null,,,,,,,,,
3102.7,,,survey-text,97,332026,0.0-13.0-3.16,8721,List2B,white,woman,,,,,"{""Q0"":""jane is touching kate""}","<img src=""stim_listB/touch7.gif""style=""height:400px;""></stim_listB>",is touching,,,,,,
null,"<div style=""font-size:60px;"">+</div>",,html-keyboard-response,98,332530,0.0-13.0-0.17,8721,List2B,white,woman,,,,null,,,,,,,,,
null,"<img src=""stim_listB/greet7.gif""style=""height:400px;""></stim_listB>",,html-keyboard-response,99,334531,0.0-13.0-1.17,8721,List2B,white,woman,,,,null,,,,,,,,,
null,is greeting,,html-keyboard-response,100,336532,0.0-13.0-2.17,8721,List2B,white,woman,,,,null,,,,,,,,,
3289,,,survey-text,101,339826,0.0-13.0-3.17,8721,List2B,white,woman,,,,,"{""Q0"":""jane is greeting beth""}","<img src=""stim_listB/greet7.gif""style=""height:400px;""></stim_listB>",is greeting,,,,,,
null,"<div style=""font-size:60px;"">+</div>",,html-keyboard-response,102,340327,0.0-13.0-0.18,8721,List2B,white,woman,,,,null,,,,,,,,,
null,"<img src=""stim_listB/greet4.gif""style=""height:400px;""></stim_listB>",,html-keyboard-response,103,342329,0.0-13.0-1.18,8721,List2B,white,woman,,,,null,,,,,,,,,
null,is being greeted by,,html-keyboard-response,104,344331,0.0-13.0-2.18,8721,List2B,white,woman,,,,null,,,,,,,,,
3559.7,,,survey-text,105,347895,0.0-13.0-3.18,8721,List2B,white,woman,,,,,"{""Q0"":""fred is being greeted by kate""}","<img src=""stim_listB/greet4.gif""style=""height:400px;""></stim_listB>",is being greeted by,,,,,,
null,"<div style=""font-size:60px;"">+</div>",,html-keyboard-response,106,348396,0.0-13.0-0.19,8721,List2B,white,woman,,,,null,,,,,,,,,
null,"<img src=""stim_listB/hug5.gif""style=""height:400px;""></stim_listB>",,html-keyboard-response,107,350411,0.0-13.0-1.19,8721,List2B,white,woman,,,,null,,,,,,,,,
null,is hugging,,html-keyboard-response,108,352413,0.0-13.0-2.19,8721,List2B,white,woman,,,,null,,,,,,,,,
3639.5,,,survey-text,109,356057,0.0-13.0-3.19,8721,List2B,white,woman,,,,,"{""Q0"":""fred is hugging luke""}","<img src=""stim_listB/hug5.gif""style=""height:400px;""></stim_listB>",is hugging,,,,,,
13300.2,"<img src='img/portrait_matrix_list2.jpg' style='width:900px;height:500px;''></img><p>If you have memorised all the portraits and names and are ready to start, press Continue.</p><p><strong>Please note: Your memory of these faces will be tested 4 times during this experiment.</strong></p>",0,html-button-response,110,369359,0.0-14.0-0.0,8721,List2B,white,woman,,,,,,,,,,,,,
1979.2,"<img src=""portrait/WM2.jpg""style=""height:400px;""></img>",7,html-button-response,111,372341,0.0-14.0-1.0,8721,List2B,white,woman,,TRUE,7,,,,,,,,,,
null,CORRECT,,html-keyboard-response,112,373843,0.0-14.0-2.0-0.0,8721,List2B,white,woman,,,,null,,,,,,,,,
1399.7,"<img src=""portrait/WW2.jpg""style=""height:400px;""></img>",3,html-button-response,113,375245,0.0-14.0-4.0,8721,List2B,white,woman,,TRUE,3,,,,,,,,,,
null,CORRECT,,html-keyboard-response,114,376747,0.0-14.0-5.0-0.0,8721,List2B,white,woman,,,,null,,,,,,,,,
1857.6,"<img src=""portrait/BM2.jpg""style=""height:400px;""></img>",5,html-button-response,115,378607,0.0-14.0-7.0,8721,List2B,white,woman,,TRUE,5,,,,,,,,,,
null,CORRECT,,html-keyboard-response,116,380109,0.0-14.0-8.0-0.0,8721,List2B,white,woman,,,,null,,,,,,,,,
1672.1,"<img src=""portrait/WM1.jpg""style=""height:400px;""></img>",6,html-button-response,117,381783,0.0-14.0-10.0,8721,List2B,white,woman,,TRUE,6,,,,,,,,,,
null,CORRECT,,html-keyboard-response,118,383286,0.0-14.0-11.0-0.0,8721,List2B,white,woman,,,,null,,,,,,,,,
1398.5,"<img src=""portrait/BM1.jpg""style=""height:400px;""></img>",4,html-button-response,119,384687,0.0-14.0-13.0,8721,List2B,white,woman,,TRUE,4,,,,,,,,,,
null,CORRECT,,html-keyboard-response,120,386190,0.0-14.0-14.0-0.0,8721,List2B,white,woman,,,,null,,,,,,,,,
1345.7,"<img src=""portrait/BW2.jpg""style=""height:400px;""></img>",2,html-button-response,121,387537,0.0-14.0-16.0,8721,List2B,white,woman,,TRUE,2,,,,,,,,,,
null,CORRECT,,html-keyboard-response,122,389040,0.0-14.0-17.0-0.0,8721,List2B,white,woman,,,,null,,,,,,,,,
1383.8,"<img src=""portrait/WW1.jpg""style=""height:400px;""></img>",1,html-button-response,123,390425,0.0-14.0-19.0,8721,List2B,white,woman,,TRUE,1,,,,,,,,,,
null,CORRECT,,html-keyboard-response,124,391928,0.0-14.0-20.0-0.0,8721,List2B,white,woman,,,,null,,,,,,,,,
977.5,"<img src=""portrait/BW1.jpg""style=""height:400px;""></img>",0,html-button-response,125,392907,0.0-14.0-22.0,8721,List2B,white,woman,,TRUE,0,,,,,,,,,,
null,CORRECT,,html-keyboard-response,126,394409,0.0-14.0-23.0-0.0,8721,List2B,white,woman,,,,null,,,,,,,,,
1889.5,<p>You got 8 out of 8 right first time. Press Continue.</p>,0,html-button-response,127,396300,0.0-14.0-25.0,8721,List2B,white,woman,,,,,,,,,,,,,
null,"<div style=""font-size:60px;"">+</div>",,html-keyboard-response,128,397802,0.0-15.0-0.0,8721,List2B,white,woman,,,,null,,,,,,,,,
null,"<img src=""stim_listB/shout2.gif""style=""height:400px;""></stim_listB>",,html-keyboard-response,129,399805,0.0-15.0-1.0,8721,List2B,white,woman,,,,null,,,,,,,,,
null,is being shouted at by,,html-keyboard-response,130,401806,0.0-15.0-2.0,8721,List2B,white,woman,,,,null,,,,,,,,,
3538.9,,,survey-text,131,405349,0.0-15.0-3.0,8721,List2B,white,woman,,,,,"{""Q0"":""Dave is being shouted at by jane""}","<img src=""stim_listB/shout2.gif""style=""height:400px;""></stim_listB>",is being shouted at by,,,,,,
null,"<div style=""font-size:60px;"">+</div>",,html-keyboard-response,132,405851,0.0-15.0-0.1,8721,List2B,white,woman,,,,null,,,,,,,,,
null,"<img src=""stim_listB/greet6.gif""style=""height:400px;""></stim_listB>",,html-keyboard-response,133,407853,0.0-15.0-1.1,8721,List2B,white,woman,,,,null,,,,,,,,,
null,is being greeted by,,html-keyboard-response,134,409855,0.0-15.0-2.1,8721,List2B,white,woman,,,,null,,,,,,,,,
4685,,,survey-text,135,414543,0.0-15.0-3.1,8721,List2B,white,woman,,,,,"{""Q0"":""luke is being greeted by mike""}","<img src=""stim_listB/greet6.gif""style=""height:400px;""></stim_listB>",is being greeted by,,,,,,
null,"<div style=""font-size:60px;"">+</div>",,html-keyboard-response,136,415046,0.0-15.0-0.2,8721,List2B,white,woman,,,,null,,,,,,,,,
null,"<img src=""stim_listB/kiss8.gif""style=""height:400px;""></stim_listB>",,html-keyboard-response,137,417049,0.0-15.0-1.2,8721,List2B,white,woman,,,,null,,,,,,,,,
null,is being kissed by,,html-keyboard-response,138,419051,0.0-15.0-2.2,8721,List2B,white,woman,,,,null,,,,,,,,,
3295.3,,,survey-text,139,422350,0.0-15.0-3.2,8721,List2B,white,woman,,,,,"{""Q0"":""jane is being kissed by kate""}","<img src=""stim_listB/kiss8.gif""style=""height:400px;""></stim_listB>",is being kissed by,,,,,,
null,"<div style=""font-size:60px;"">+</div>",,html-keyboard-response,140,422851,0.0-15.0-0.3,8721,List2B,white,woman,,,,null,,,,,,,,,
null,"<img src=""stim_listB/hug1.gif""style=""height:400px;""></stim_listB>",,html-keyboard-response,141,424854,0.0-15.0-1.3,8721,List2B,white,woman,,,,null,,,,,,,,,
null,is hugging,,html-keyboard-response,142,426856,0.0-15.0-2.3,8721,List2B,white,woman,,,,null,,,,,,,,,
2452.6,,,survey-text,143,429312,0.0-15.0-3.3,8721,List2B,white,woman,,,,,"{""Q0"":""ruth is hugging luke""}","<img src=""stim_listB/hug1.gif""style=""height:400px;""></stim_listB>",is hugging,,,,,,
null,"<div style=""font-size:60px;"">+</div>",,html-keyboard-response,144,429814,0.0-15.0-0.4,8721,List2B,white,woman,,,,null,,,,,,,,,
null,"<img src=""stim_listB/greet3.gif""style=""height:400px;""></stim_listB>",,html-keyboard-response,145,431815,0.0-15.0-1.4,8721,List2B,white,woman,,,,null,,,,,,,,,
null,is greeting,,html-keyboard-response,146,433818,0.0-15.0-2.4,8721,List2B,white,woman,,,,null,,,,,,,,,
2395.9,,,survey-text,147,436219,0.0-15.0-3.4,8721,List2B,white,woman,,,,,"{""Q0"":""beth is greeting mike""}","<img src=""stim_listB/greet3.gif""style=""height:400px;""></stim_listB>",is greeting,,,,,,
null,"<div style=""font-size:60px;"">+</div>",,html-keyboard-response,148,436720,0.0-15.0-0.5,8721,List2B,white,woman,,,,null,,,,,,,,,
null,"<img src=""stim_listB/greet2.gif""style=""height:400px;""></stim_listB>",,html-keyboard-response,149,438723,0.0-15.0-1.5,8721,List2B,white,woman,,,,null,,,,,,,,,
null,is being greeted by,,html-keyboard-response,150,440724,0.0-15.0-2.5,8721,List2B,white,woman,,,,null,,,,,,,,,
4700.6,,,survey-text,151,445428,0.0-15.0-3.5,8721,List2B,white,woman,,,,,"{""Q0"":""luke is being greeted by jane""}","<img src=""stim_listB/greet2.gif""style=""height:400px;""></stim_listB>",is being greeted by,,,,,,
null,"<div style=""font-size:60px;"">+</div>",,html-keyboard-response,152,445929,0.0-15.0-0.6,8721,List2B,white,woman,,,,null,,,,,,,,,
null,"<img src=""stim_listB/shout3.gif""style=""height:400px;""></stim_listB>",,html-keyboard-response,153,447932,0.0-15.0-1.6,8721,List2B,white,woman,,,,null,,,,,,,,,
null,is shouting at,,html-keyboard-response,154,449933,0.0-15.0-2.6,8721,List2B,white,woman,,,,null,,,,,,,,,
3493.9,,,survey-text,155,453430,0.0-15.0-3.6,8721,List2B,white,woman,,,,,"{""Q0"":""beth is shouting at fred""}","<img src=""stim_listB/shout3.gif""style=""height:400px;""></stim_listB>",is shouting at,,,,,,
null,"<div style=""font-size:60px;"">+</div>",,html-keyboard-response,156,453932,0.0-15.0-0.7,8721,List2B,white,woman,,,,null,,,,,,,,,
null,"<img src=""stim_listB/greet5.gif""style=""height:400px;""></stim_listB>",,html-keyboard-response,157,455935,0.0-15.0-1.7,8721,List2B,white,woman,,,,null,,,,,,,,,
null,is greeting,,html-keyboard-response,158,457936,0.0-15.0-2.7,8721,List2B,white,woman,,,,null,,,,,,,,,
3059.3,,,survey-text,159,461000,0.0-15.0-3.7,8721,List2B,white,woman,,,,,"{""Q0"":""fred is greeting dave""}","<img src=""stim_listB/greet5.gif""style=""height:400px;""></stim_listB>",is greeting,,,,,,
null,"<div style=""font-size:60px;"">+</div>",,html-keyboard-response,160,461510,0.0-15.0-0.8,8721,List2B,white,woman,,,,null,,,,,,,,,
null,"<img src=""stim_listB/touch8.gif""style=""height:400px;""></stim_listB>",,html-keyboard-response,161,463512,0.0-15.0-1.8,8721,List2B,white,woman,,,,null,,,,,,,,,
null,is being touched by,,html-keyboard-response,162,465514,0.0-15.0-2.8,8721,List2B,white,woman,,,,null,,,,,,,,,
5531.2,,,survey-text,163,471049,0.0-15.0-3.8,8721,List2B,white,woman,,,,,"{""Q0"":""ruth is being touched by beth""}","<img src=""stim_listB/touch8.gif""style=""height:400px;""></stim_listB>",is being touched by,,,,,,
null,"<div style=""font-size:60px;"">+</div>",,html-keyboard-response,164,471551,0.0-15.0-0.9,8721,List2B,white,woman,,,,null,,,,,,,,,
null,"<img src=""stim_listB/oppose1.gif""style=""height:400px;""></stim_listB>",,html-keyboard-response,165,473553,0.0-15.0-1.9,8721,List2B,white,woman,,,,null,,,,,,,,,
null,is opposing,,html-keyboard-response,166,475554,0.0-15.0-2.9,8721,List2B,white,woman,,,,null,,,,,,,,,
2677.2,,,survey-text,167,478237,0.0-15.0-3.9,8721,List2B,white,woman,,,,,"{""Q0"":""dave is opposing jane""}","<img src=""stim_listB/oppose1.gif""style=""height:400px;""></stim_listB>",is opposing,,,,,,
null,"<div style=""font-size:60px;"">+</div>",,html-keyboard-response,168,478740,0.0-15.0-0.10,8721,List2B,white,woman,,,,null,,,,,,,,,
null,"<img src=""stim_listB/challenge2.gif""style=""height:400px;""></stim_listB>",,html-keyboard-response,169,480742,0.0-15.0-1.10,8721,List2B,white,woman,,,,null,,,,,,,,,
null,is being challenged by,,html-keyboard-response,170,482745,0.0-15.0-2.10,8721,List2B,white,woman,,,,null,,,,,,,,,
6398.7,,,survey-text,171,489148,0.0-15.0-3.10,8721,List2B,white,woman,,,,,"{""Q0"":""luke is being challenged by jane""}","<img src=""stim_listB/challenge2.gif""style=""height:400px;""></stim_listB>",is being challenged by,,,,,,
null,"<div style=""font-size:60px;"">+</div>",,html-keyboard-response,172,489651,0.0-15.0-0.11,8721,List2B,white,woman,,,,null,,,,,,,,,
null,"<img src=""stim_listB/seduce1.gif""style=""height:400px;""></stim_listB>",,html-keyboard-response,173,491654,0.0-15.0-1.11,8721,List2B,white,woman,,,,null,,,,,,,,,
null,is seducing,,html-keyboard-response,174,493656,0.0-15.0-2.11,8721,List2B,white,woman,,,,null,,,,,,,,,
3535.6,,,survey-text,175,497196,0.0-15.0-3.11,8721,List2B,white,woman,,,,,"{""Q0"":""jane is seducing luke""}","<img src=""stim_listB/seduce1.gif""style=""height:400px;""></stim_listB>",is seducing,,,,,,
null,"<div style=""font-size:60px;"">+</div>",,html-keyboard-response,176,497698,0.0-15.0-0.12,8721,List2B,white,woman,,,,null,,,,,,,,,
null,"<img src=""stim_listB/oppose5.gif""style=""height:400px;""></stim_listB>",,html-keyboard-response,177,499701,0.0-15.0-1.12,8721,List2B,white,woman,,,,null,,,,,,,,,
null,is opposing,,html-keyboard-response,178,501703,0.0-15.0-2.12,8721,List2B,white,woman,,,,null,,,,,,,,,
2700.2,,,survey-text,179,504408,0.0-15.0-3.12,8721,List2B,white,woman,,,,,"{""Q0"":""mike is opposing dave""}","<img src=""stim_listB/oppose5.gif""style=""height:400px;""></stim_listB>",is opposing,,,,,,
null,"<div style=""font-size:60px;"">+</div>",,html-keyboard-response,180,504911,0.0-15.0-0.13,8721,List2B,white,woman,,,,null,,,,,,,,,
null,"<img src=""stim_listB/shout1.gif""style=""height:400px;""></stim_listB>",,html-keyboard-response,181,506913,0.0-15.0-1.13,8721,List2B,white,woman,,,,null,,,,,,,,,
null,is shouting at,,html-keyboard-response,182,508915,0.0-15.0-2.13,8721,List2B,white,woman,,,,null,,,,,,,,,
3270.7,,,survey-text,183,512189,0.0-15.0-3.13,8721,List2B,white,woman,,,,,"{""Q0"":""ruth is shouting at luke""}","<img src=""stim_listB/shout1.gif""style=""height:400px;""></stim_listB>",is shouting at,,,,,,
null,"<div style=""font-size:60px;"">+</div>",,html-keyboard-response,184,512691,0.0-15.0-0.14,8721,List2B,white,woman,,,,null,,,,,,,,,
null,"<img src=""stim_listB/hug7.gif""style=""height:400px;""></stim_listB>",,html-keyboard-response,185,514697,0.0-15.0-1.14,8721,List2B,white,woman,,,,null,,,,,,,,,
null,is hugging,,html-keyboard-response,186,516699,0.0-15.0-2.14,8721,List2B,white,woman,,,,null,,,,,,,,,
4551.9,,,survey-text,187,521255,0.0-15.0-3.14,8721,List2B,white,woman,,,,,"{""Q0"":""beth is hugging ruth""}","<img src=""stim_listB/hug7.gif""style=""height:400px;""></stim_listB>",is hugging,,,,,,
null,"<div style=""font-size:60px;"">+</div>",,html-keyboard-response,188,521758,0.0-15.0-0.15,8721,List2B,white,woman,,,,null,,,,,,,,,
null,"<img src=""stim_listB/touch5.gif""style=""height:400px;""></stim_listB>",,html-keyboard-response,189,523761,0.0-15.0-1.15,8721,List2B,white,woman,,,,null,,,,,,,,,
null,is touching,,html-keyboard-response,190,525763,0.0-15.0-2.15,8721,List2B,white,woman,,,,null,,,,,,,,,
2395.3,,,survey-text,191,528163,0.0-15.0-3.15,8721,List2B,white,woman,,,,,"{""Q0"":""dave is touching mike""}","<img src=""stim_listB/touch5.gif""style=""height:400px;""></stim_listB>",is touching,,,,,,
null,"<div style=""font-size:60px;"">+</div>",,html-keyboard-response,192,528666,0.0-15.0-0.16,8721,List2B,white,woman,,,,null,,,,,,,,,
null,"<img src=""stim_listB/copy1.gif""style=""height:400px;""></stim_listB>",,html-keyboard-response,193,530668,0.0-15.0-1.16,8721,List2B,white,woman,,,,null,,,,,,,,,
null,is copying,,html-keyboard-response,194,532670,0.0-15.0-2.16,8721,List2B,white,woman,,,,null,,,,,,,,,
3080.5,,,survey-text,195,535754,0.0-15.0-3.16,8721,List2B,white,woman,,,,,"{""Q0"":""ruth is copying dave""}","<img src=""stim_listB/copy1.gif""style=""height:400px;""></stim_listB>",is copying,,,,,,
null,"<div style=""font-size:60px;"">+</div>",,html-keyboard-response,196,536256,0.0-15.0-0.17,8721,List2B,white,woman,,,,null,,,,,,,,,
null,"<img src=""stim_listB/shout8.gif""style=""height:400px;""></stim_listB>",,html-keyboard-response,197,538259,0.0-15.0-1.17,8721,List2B,white,woman,,,,null,,,,,,,,,
null,is being shouted at by,,html-keyboard-response,198,540261,0.0-15.0-2.17,8721,List2B,white,woman,,,,null,,,,,,,,,
3528.9,,,survey-text,199,543792,0.0-15.0-3.17,8721,List2B,white,woman,,,,,"{""Q0"":""kate is being shouted at by jane""}","<img src=""stim_listB/shout8.gif""style=""height:400px;""></stim_listB>",is being shouted at by,,,,,,
null,"<div style=""font-size:60px;"">+</div>",,html-keyboard-response,200,544294,0.0-15.0-0.18,8721,List2B,white,woman,,,,null,,,,,,,,,
null,"<img src=""stim_listB/look1.gif""style=""height:400px;""></stim_listB>",,html-keyboard-response,201,546296,0.0-15.0-1.18,8721,List2B,white,woman,,,,null,,,,,,,,,
null,is looking at,,html-keyboard-response,202,548297,0.0-15.0-2.18,8721,List2B,white,woman,,,,null,,,,,,,,,
3092,,,survey-text,203,551393,0.0-15.0-3.18,8721,List2B,white,woman,,,,,"{""Q0"":""luke is looking at ruth""}","<img src=""stim_listB/look1.gif""style=""height:400px;""></stim_listB>",is looking at,,,,,,
null,"<div style=""font-size:60px;"">+</div>",,html-keyboard-response,204,551895,0.0-15.0-0.19,8721,List2B,white,woman,,,,null,,,,,,,,,
null,"<img src=""stim_listB/copy2.gif""style=""height:400px;""></stim_listB>",,html-keyboard-response,205,553897,0.0-15.0-1.19,8721,List2B,white,woman,,,,null,,,,,,,,,
null,is being copied by,,html-keyboard-response,206,555899,0.0-15.0-2.19,8721,List2B,white,woman,,,,null,,,,,,,,,
2633.8,,,survey-text,207,558536,0.0-15.0-3.19,8721,List2B,white,woman,,,,,"{""Q0"":""jane is being copied by luke""}","<img src=""stim_listB/copy2.gif""style=""height:400px;""></stim_listB>",is being copied by,,,,,,
1724.6,"<img src='img/portrait_matrix_list2.jpg' style='width:900px;height:500px;''></img><p>If you have memorised all the portraits and names and are ready to start, press Continue.</p><p><strong>Please note: Your memory of these faces will be tested 4 times during this experiment.</strong></p>",0,html-button-response,208,560262,0.0-16.0-0.0,8721,List2B,white,woman,,,,,,,,,,,,,
1604.1,"<img src=""portrait/WM1.jpg""style=""height:400px;""></img>",6,html-button-response,209,562870,0.0-16.0-1.0,8721,List2B,white,woman,,TRUE,6,,,,,,,,,,
null,CORRECT,,html-keyboard-response,210,564383,0.0-16.0-2.0-0.0,8721,List2B,white,woman,,,,null,,,,,,,,,
1279.5,"<img src=""portrait/WW2.jpg""style=""height:400px;""></img>",3,html-button-response,211,565664,0.0-16.0-4.0,8721,List2B,white,woman,,TRUE,3,,,,,,,,,,
null,CORRECT,,html-keyboard-response,212,567167,0.0-16.0-5.0-0.0,8721,List2B,white,woman,,,,null,,,,,,,,,
969.9,"<img src=""portrait/BW1.jpg""style=""height:400px;""></img>",0,html-button-response,213,568138,0.0-16.0-7.0,8721,List2B,white,woman,,TRUE,0,,,,,,,,,,
null,CORRECT,,html-keyboard-response,214,569641,0.0-16.0-8.0-0.0,8721,List2B,white,woman,,,,null,,,,,,,,,
1430,"<img src=""portrait/WW1.jpg""style=""height:400px;""></img>",1,html-button-response,215,571072,0.0-16.0-10.0,8721,List2B,white,woman,,TRUE,1,,,,,,,,,,
null,CORRECT,,html-keyboard-response,216,572574,0.0-16.0-11.0-0.0,8721,List2B,white,woman,,,,null,,,,,,,,,
1594.1,"<img src=""portrait/WM2.jpg""style=""height:400px;""></img>",7,html-button-response,217,574171,0.0-16.0-13.0,8721,List2B,white,woman,,TRUE,7,,,,,,,,,,
null,CORRECT,,html-keyboard-response,218,575674,0.0-16.0-14.0-0.0,8721,List2B,white,woman,,,,null,,,,,,,,,
1461.5,"<img src=""portrait/BW2.jpg""style=""height:400px;""></img>",2,html-button-response,219,577137,0.0-16.0-16.0,8721,List2B,white,woman,,TRUE,2,,,,,,,,,,
null,CORRECT,,html-keyboard-response,220,578639,0.0-16.0-17.0-0.0,8721,List2B,white,woman,,,,null,,,,,,,,,
1547.8,"<img src=""portrait/BM2.jpg""style=""height:400px;""></img>",5,html-button-response,221,580188,0.0-16.0-19.0,8721,List2B,white,woman,,TRUE,5,,,,,,,,,,
null,CORRECT,,html-keyboard-response,222,581691,0.0-16.0-20.0-0.0,8721,List2B,white,woman,,,,null,,,,,,,,,
1601.3,"<img src=""portrait/BM1.jpg""style=""height:400px;""></img>",4,html-button-response,223,583294,0.0-16.0-22.0,8721,List2B,white,woman,,TRUE,4,,,,,,,,,,
null,CORRECT,,html-keyboard-response,224,584797,0.0-16.0-23.0-0.0,8721,List2B,white,woman,,,,null,,,,,,,,,
1197.9,<p>You got 8 out of 8 right first time. Press Continue.</p>,0,html-button-response,225,585996,0.0-16.0-25.0,8721,List2B,white,woman,,,,,,,,,,,,,
null,"<div style=""font-size:60px;"">+</div>",,html-keyboard-response,226,587500,0.0-17.0-0.0,8721,List2B,white,woman,,,,null,,,,,,,,,
null,"<img src=""stim_listB/challenge7.gif""style=""height:400px;""></stim_listB>",,html-keyboard-response,227,589516,0.0-17.0-1.0,8721,List2B,white,woman,,,,null,,,,,,,,,
null,is challenging,,html-keyboard-response,228,591518,0.0-17.0-2.0,8721,List2B,white,woman,,,,null,,,,,,,,,
4251.2,,,survey-text,229,595774,0.0-17.0-3.0,8721,List2B,white,woman,,,,,"{""Q0"":""jane is challenging beth""}","<img src=""stim_listB/challenge7.gif""style=""height:400px;""></stim_listB>",is challenging,,,,,,
null,"<div style=""font-size:60px;"">+</div>",,html-keyboard-response,230,596276,0.0-17.0-0.1,8721,List2B,white,woman,,,,null,,,,,,,,,
null,"<img src=""stim_listB/look7.gif""style=""height:400px;""></stim_listB>",,html-keyboard-response,231,598279,0.0-17.0-1.1,8721,List2B,white,woman,,,,null,,,,,,,,,
null,is looking at,,html-keyboard-response,232,600281,0.0-17.0-2.1,8721,List2B,white,woman,,,,null,,,,,,,,,
3796.6,,,survey-text,233,604082,0.0-17.0-3.1,8721,List2B,white,woman,,,,,"{""Q0"":""beth is looking at ruth""}","<img src=""stim_listB/look7.gif""style=""height:400px;""></stim_listB>",is looking at,,,,,,
null,"<div style=""font-size:60px;"">+</div>",,html-keyboard-response,234,604583,0.0-17.0-0.2,8721,List2B,white,woman,,,,null,,,,,,,,,
null,"<img src=""stim_listB/copy5.gif""style=""height:400px;""></stim_listB>",,html-keyboard-response,235,606585,0.0-17.0-1.2,8721,List2B,white,woman,,,,null,,,,,,,,,
null,is copying,,html-keyboard-response,236,608586,0.0-17.0-2.2,8721,List2B,white,woman,,,,null,,,,,,,,,
2284.4,,,survey-text,237,610874,0.0-17.0-3.2,8721,List2B,white,woman,,,,,"{""Q0"":""fred is copying dave""}","<img src=""stim_listB/copy5.gif""style=""height:400px;""></stim_listB>",is copying,,,,,,
null,"<div style=""font-size:60px;"">+</div>",,html-keyboard-response,238,611377,0.0-17.0-0.3,8721,List2B,white,woman,,,,null,,,,,,,,,
null,"<img src=""stim_listB/oppose7.gif""style=""height:400px;""></stim_listB>",,html-keyboard-response,239,613381,0.0-17.0-1.3,8721,List2B,white,woman,,,,null,,,,,,,,,
null,is opposing,,html-keyboard-response,240,615383,0.0-17.0-2.3,8721,List2B,white,woman,,,,null,,,,,,,,,
2986,,,survey-text,241,618372,0.0-17.0-3.3,8721,List2B,white,woman,,,,,"{""Q0"":""kate is opposing jane""}","<img src=""stim_listB/oppose7.gif""style=""height:400px;""></stim_listB>",is opposing,,,,,,
null,"<div style=""font-size:60px;"">+</div>",,html-keyboard-response,242,618875,0.0-17.0-0.4,8721,List2B,white,woman,,,,null,,,,,,,,,
null,"<img src=""stim_listB/copy8.gif""style=""height:400px;""></stim_listB>",,html-keyboard-response,243,620877,0.0-17.0-1.4,8721,List2B,white,woman,,,,null,,,,,,,,,
null,is being copied by,,html-keyboard-response,244,622880,0.0-17.0-2.4,8721,List2B,white,woman,,,,null,,,,,,,,,
4963.1,,,survey-text,245,627848,0.0-17.0-3.4,8721,List2B,white,woman,,,,,"{""Q0"":""ruth is being copied by kate""}","<img src=""stim_listB/copy8.gif""style=""height:400px;""></stim_listB>",is being copied by,,,,,,
null,"<div style=""font-size:60px;"">+</div>",,html-keyboard-response,246,628350,0.0-17.0-0.5,8721,List2B,white,woman,,,,null,,,,,,,,,
null,"<img src=""stim_listB/kiss3.gif""style=""height:400px;""></stim_listB>",,html-keyboard-response,247,630356,0.0-17.0-1.5,8721,List2B,white,woman,,,,null,,,,,,,,,
null,is kissing,,html-keyboard-response,248,632357,0.0-17.0-2.5,8721,List2B,white,woman,,,,null,,,,,,,,,
3360,,,survey-text,249,635721,0.0-17.0-3.5,8721,List2B,white,woman,,,,,"{""Q0"":""fred is kissing beth""}","<img src=""stim_listB/kiss3.gif""style=""height:400px;""></stim_listB>",is kissing,,,,,,
null,"<div style=""font-size:60px;"">+</div>",,html-keyboard-response,250,636223,0.0-17.0-0.6,8721,List2B,white,woman,,,,null,,,,,,,,,
null,"<img src=""stim_listB/look8.gif""style=""height:400px;""></stim_listB>",,html-keyboard-response,251,638225,0.0-17.0-1.6,8721,List2B,white,woman,,,,null,,,,,,,,,
null,is being looked at by,,html-keyboard-response,252,640227,0.0-17.0-2.6,8721,List2B,white,woman,,,,null,,,,,,,,,
3332.4,,,survey-text,253,643563,0.0-17.0-3.6,8721,List2B,white,woman,,,,,"{""Q0"":""kate is being looked at by jane""}","<img src=""stim_listB/look8.gif""style=""height:400px;""></stim_listB>",is being looked at by,,,,,,
null,"<div style=""font-size:60px;"">+</div>",,html-keyboard-response,254,644065,0.0-17.0-0.7,8721,List2B,white,woman,,,,null,,,,,,,,,
null,"<img src=""stim_listB/challenge1.gif""style=""height:400px;""></stim_listB>",,html-keyboard-response,255,646066,0.0-17.0-1.7,8721,List2B,white,woman,,,,null,,,,,,,,,
null,is challenging,,html-keyboard-response,256,648068,0.0-17.0-2.7,8721,List2B,white,woman,,,,null,,,,,,,,,
5714.5,,,survey-text,257,653787,0.0-17.0-3.7,8721,List2B,white,woman,,,,,"{""Q0"":""ruth is challenging dave""}","<img src=""stim_listB/challenge1.gif""style=""height:400px;""></stim_listB>",is challenging,,,,,,
null,"<div style=""font-size:60px;"">+</div>",,html-keyboard-response,258,654288,0.0-17.0-0.8,8721,List2B,white,woman,,,,null,,,,,,,,,
null,"<img src=""stim_listB/hug3.gif""style=""height:400px;""></stim_listB>",,html-keyboard-response,259,656290,0.0-17.0-1.8,8721,List2B,white,woman,,,,null,,,,,,,,,
null,is hugging,,html-keyboard-response,260,658292,0.0-17.0-2.8,8721,List2B,white,woman,,,,null,,,,,,,,,
2573.1,,,survey-text,261,660868,0.0-17.0-3.8,8721,List2B,white,woman,,,,,"{""Q0"":""beth is hugging fred""}","<img src=""stim_listB/hug3.gif""style=""height:400px;""></stim_listB>",is hugging,,,,,,
null,"<div style=""font-size:60px;"">+</div>",,html-keyboard-response,262,661370,0.0-17.0-0.9,8721,List2B,white,woman,,,,null,,,,,,,,,
null,"<img src=""stim_listB/kiss5.gif""style=""height:400px;""></stim_listB>",,html-keyboard-response,263,663372,0.0-17.0-1.9,8721,List2B,white,woman,,,,null,,,,,,,,,
null,is kissing,,html-keyboard-response,264,665373,0.0-17.0-2.9,8721,List2B,white,woman,,,,null,,,,,,,,,
3602,,,survey-text,265,668980,0.0-17.0-3.9,8721,List2B,white,woman,,,,,"{""Q0"":""luke is kissing fred""}","<img src=""stim_listB/kiss5.gif""style=""height:400px;""></stim_listB>",is kissing,,,,,,
null,"<div style=""font-size:60px;"">+</div>",,html-keyboard-response,266,669481,0.0-17.0-0.10,8721,List2B,white,woman,,,,null,,,,,,,,,
null,"<img src=""stim_listB/oppose8.gif""style=""height:400px;""></stim_listB>",,html-keyboard-response,267,671484,0.0-17.0-1.10,8721,List2B,white,woman,,,,null,,,,,,,,,
null,is being opposed by,,html-keyboard-response,268,673486,0.0-17.0-2.10,8721,List2B,white,woman,,,,null,,,,,,,,,
6124.2,,,survey-text,269,679614,0.0-17.0-3.10,8721,List2B,white,woman,,,,,"{""Q0"":""ruth is being opposed by beth""}","<img src=""stim_listB/oppose8.gif""style=""height:400px;""></stim_listB>",is being opposed by,,,,,,
null,"<div style=""font-size:60px;"">+</div>",,html-keyboard-response,270,680116,0.0-17.0-0.11,8721,List2B,white,woman,,,,null,,,,,,,,,
null,"<img src=""stim_listB/look2.gif""style=""height:400px;""></stim_listB>",,html-keyboard-response,271,682118,0.0-17.0-1.11,8721,List2B,white,woman,,,,null,,,,,,,,,
null,is being looked at by,,html-keyboard-response,272,684119,0.0-17.0-2.11,8721,List2B,white,woman,,,,null,,,,,,,,,
3646.4,,,survey-text,273,687771,0.0-17.0-3.11,8721,List2B,white,woman,,,,,"{""Q0"":""jane is being looked at by dave""}","<img src=""stim_listB/look2.gif""style=""height:400px;""></stim_listB>",is being looked at by,,,,,,
null,"<div style=""font-size:60px;"">+</div>",,html-keyboard-response,274,688273,0.0-17.0-0.12,8721,List2B,white,woman,,,,null,,,,,,,,,
null,"<img src=""stim_listB/oppose6.gif""style=""height:400px;""></stim_listB>",,html-keyboard-response,275,690276,0.0-17.0-1.12,8721,List2B,white,woman,,,,null,,,,,,,,,
null,is being opposed by,,html-keyboard-response,276,692277,0.0-17.0-2.12,8721,List2B,white,woman,,,,null,,,,,,,,,
3360.9,,,survey-text,277,695643,0.0-17.0-3.12,8721,List2B,white,woman,,,,,"{""Q0"":""fred is being opposed by luke""}","<img src=""stim_listB/oppose6.gif""style=""height:400px;""></stim_listB>",is being opposed by,,,,,,
null,"<div style=""font-size:60px;"">+</div>",,html-keyboard-response,278,696145,0.0-17.0-0.13,8721,List2B,white,woman,,,,null,,,,,,,,,
null,"<img src=""stim_listB/kiss2.gif""style=""height:400px;""></stim_listB>",,html-keyboard-response,279,698148,0.0-17.0-1.13,8721,List2B,white,woman,,,,null,,,,,,,,,
null,is being kissed by,,html-keyboard-response,280,700150,0.0-17.0-2.13,8721,List2B,white,woman,,,,null,,,,,,,,,
3408.1,,,survey-text,281,703562,0.0-17.0-3.13,8721,List2B,white,woman,,,,,"{""Q0"":""dave is being kissed by jane""}","<img src=""stim_listB/kiss2.gif""style=""height:400px;""></stim_listB>",is being kissed by,,,,,,
null,"<div style=""font-size:60px;"">+</div>",,html-keyboard-response,282,704063,0.0-17.0-0.14,8721,List2B,white,woman,,,,null,,,,,,,,,
null,"<img src=""stim_listB/copy6.gif""style=""height:400px;""></stim_listB>",,html-keyboard-response,283,706065,0.0-17.0-1.14,8721,List2B,white,woman,,,,null,,,,,,,,,
null,is being copied by,,html-keyboard-response,284,708067,0.0-17.0-2.14,8721,List2B,white,woman,,,,null,,,,,,,,,
3509.3,,,survey-text,285,711580,0.0-17.0-3.14,8721,List2B,white,woman,,,,,"{""Q0"":""luke is being copied by mike""}","<img src=""stim_listB/copy6.gif""style=""height:400px;""></stim_listB>",is being copied by,,,,,,
null,"<div style=""font-size:60px;"">+</div>",,html-keyboard-response,286,712082,0.0-17.0-0.15,8721,List2B,white,woman,,,,null,,,,,,,,,
null,"<img src=""stim_listB/look5.gif""style=""height:400px;""></stim_listB>",,html-keyboard-response,287,714085,0.0-17.0-1.15,8721,List2B,white,woman,,,,null,,,,,,,,,
null,is looking at,,html-keyboard-response,288,716087,0.0-17.0-2.15,8721,List2B,white,woman,,,,null,,,,,,,,,
2448.6,,,survey-text,289,718541,0.0-17.0-3.15,8721,List2B,white,woman,,,,,"{""Q0"":""fred is looking at luke""}","<img src=""stim_listB/look5.gif""style=""height:400px;""></stim_listB>",is looking at,,,,,,
null,"<div style=""font-size:60px;"">+</div>",,html-keyboard-response,290,719043,0.0-17.0-0.16,8721,List2B,white,woman,,,,null,,,,,,,,,
null,"<img src=""stim_listB/hug2.gif""style=""height:400px;""></stim_listB>",,html-keyboard-response,291,721051,0.0-17.0-1.16,8721,List2B,white,woman,,,,null,,,,,,,,,
null,is being hugged by,,html-keyboard-response,292,723052,0.0-17.0-2.16,8721,List2B,white,woman,,,,null,,,,,,,,,
2988.8,,,survey-text,293,726046,0.0-17.0-3.16,8721,List2B,white,woman,,,,,"{""Q0"":""dave is being hugged by jane""}","<img src=""stim_listB/hug2.gif""style=""height:400px;""></stim_listB>",is being hugged by,,,,,,
null,"<div style=""font-size:60px;"">+</div>",,html-keyboard-response,294,726547,0.0-17.0-0.17,8721,List2B,white,woman,,,,null,,,,,,,,,
null,"<img src=""stim_listB/shout4.gif""style=""height:400px;""></stim_listB>",,html-keyboard-response,295,728549,0.0-17.0-1.17,8721,List2B,white,woman,,,,null,,,,,,,,,
null,is being shouted at by,,html-keyboard-response,296,730551,0.0-17.0-2.17,8721,List2B,white,woman,,,,null,,,,,,,,,
3973.4,,,survey-text,297,734528,0.0-17.0-3.17,8721,List2B,white,woman,,,,,"{""Q0"":""mike is being shouted at by kate""}","<img src=""stim_listB/shout4.gif""style=""height:400px;""></stim_listB>",is being shouted at by,,,,,,
null,"<div style=""font-size:60px;"">+</div>",,html-keyboard-response,298,735030,0.0-17.0-0.18,8721,List2B,white,woman,,,,null,,,,,,,,,
null,"<img src=""stim_listB/oppose4.gif""style=""height:400px;""></stim_listB>",,html-keyboard-response,299,737032,0.0-17.0-1.18,8721,List2B,white,woman,,,,null,,,,,,,,,
null,is being opposed by,,html-keyboard-response,300,739034,0.0-17.0-2.18,8721,List2B,white,woman,,,,null,,,,,,,,,
3984.8,,,survey-text,301,743025,0.0-17.0-3.18,8721,List2B,white,woman,,,,,"{""Q0"":""beth is being opposed by fred""}","<img src=""stim_listB/oppose4.gif""style=""height:400px;""></stim_listB>",is being opposed by,,,,,,
null,"<div style=""font-size:60px;"">+</div>",,html-keyboard-response,302,743526,0.0-17.0-0.19,8721,List2B,white,woman,,,,null,,,,,,,,,
null,"<img src=""stim_listB/copy3.gif""style=""height:400px;""></stim_listB>",,html-keyboard-response,303,745528,0.0-17.0-1.19,8721,List2B,white,woman,,,,null,,,,,,,,,
null,is copying,,html-keyboard-response,304,747529,0.0-17.0-2.19,8721,List2B,white,woman,,,,null,,,,,,,,,
2772.1,,,survey-text,305,750306,0.0-17.0-3.19,8721,List2B,white,woman,,,,,"{""Q0"":""beth is copying mike""}","<img src=""stim_listB/copy3.gif""style=""height:400px;""></stim_listB>",is copying,,,,,,
1510.8,"<img src='img/portrait_matrix_list2.jpg' style='width:900px;height:500px;''></img><p>If you have memorised all the portraits and names and are ready to start, press Continue.</p><p><strong>Please note: Your memory of these faces will be tested 4 times during this experiment.</strong></p>",0,html-button-response,306,751819,0.0-18.0-0.0,8721,List2B,white,woman,,,,,,,,,,,,,
1687.7,"<img src=""portrait/BM2.jpg""style=""height:400px;""></img>",5,html-button-response,307,754511,0.0-18.0-1.0,8721,List2B,white,woman,,TRUE,5,,,,,,,,,,
null,CORRECT,,html-keyboard-response,308,756014,0.0-18.0-2.0-0.0,8721,List2B,white,woman,,,,null,,,,,,,,,
2458.7,"<img src=""portrait/BW2.jpg""style=""height:400px;""></img>",2,html-button-response,309,758475,0.0-18.0-4.0,8721,List2B,white,woman,,TRUE,2,,,,,,,,,,
null,CORRECT,,html-keyboard-response,310,759977,0.0-18.0-5.0-0.0,8721,List2B,white,woman,,,,null,,,,,,,,,
2227.5,"<img src=""portrait/WM2.jpg""style=""height:400px;""></img>",7,html-button-response,311,762207,0.0-18.0-7.0,8721,List2B,white,woman,,TRUE,7,,,,,,,,,,
null,CORRECT,,html-keyboard-response,312,763708,0.0-18.0-8.0-0.0,8721,List2B,white,woman,,,,null,,,,,,,,,
1408.8,"<img src=""portrait/WW2.jpg""style=""height:400px;""></img>",3,html-button-response,313,765119,0.0-18.0-10.0,8721,List2B,white,woman,,TRUE,3,,,,,,,,,,
null,CORRECT,,html-keyboard-response,314,766621,0.0-18.0-11.0-0.0,8721,List2B,white,woman,,,,null,,,,,,,,,
1382.1,"<img src=""portrait/BM1.jpg""style=""height:400px;""></img>",4,html-button-response,315,768004,0.0-18.0-13.0,8721,List2B,white,woman,,TRUE,4,,,,,,,,,,
null,CORRECT,,html-keyboard-response,316,769508,0.0-18.0-14.0-0.0,8721,List2B,white,woman,,,,null,,,,,,,,,
1524.9,"<img src=""portrait/WM1.jpg""style=""height:400px;""></img>",6,html-button-response,317,771034,0.0-18.0-16.0,8721,List2B,white,woman,,TRUE,6,,,,,,,,,,
null,CORRECT,,html-keyboard-response,318,772536,0.0-18.0-17.0-0.0,8721,List2B,white,woman,,,,null,,,,,,,,,
1398.7,"<img src=""portrait/BW1.jpg""style=""height:400px;""></img>",0,html-button-response,319,773936,0.0-18.0-19.0,8721,List2B,white,woman,,TRUE,0,,,,,,,,,,
null,CORRECT,,html-keyboard-response,320,775438,0.0-18.0-20.0-0.0,8721,List2B,white,woman,,,,null,,,,,,,,,
1134.4,"<img src=""portrait/WW1.jpg""style=""height:400px;""></img>",1,html-button-response,321,776574,0.0-18.0-22.0,8721,List2B,white,woman,,TRUE,1,,,,,,,,,,
null,CORRECT,,html-keyboard-response,322,778075,0.0-18.0-23.0-0.0,8721,List2B,white,woman,,,,null,,,,,,,,,
1065.9,<p>You got 8 out of 8 right first time. Press Continue.</p>,0,html-button-response,323,779143,0.0-18.0-25.0,8721,List2B,white,woman,,,,,,,,,,,,,
null,"<div style=""font-size:60px;"">+</div>",,html-keyboard-response,324,780647,0.0-19.0-0.0,8721,List2B,white,woman,,,,null,,,,,,,,,
null,"<img src=""stim_listB/copy4.gif""style=""height:400px;""></stim_listB>",,html-keyboard-response,325,782649,0.0-19.0-1.0,8721,List2B,white,woman,,,,null,,,,,,,,,
null,is being copied by,,html-keyboard-response,326,784650,0.0-19.0-2.0,8721,List2B,white,woman,,,,null,,,,,,,,,
6254.3,,,survey-text,327,790908,0.0-19.0-3.0,8721,List2B,white,woman,,,,,"{""Q0"":""fred is being copied by kate""}","<img src=""stim_listB/copy4.gif""style=""height:400px;""></stim_listB>",is being copied by,,,,,,
null,"<div style=""font-size:60px;"">+</div>",,html-keyboard-response,328,791409,0.0-19.0-0.1,8721,List2B,white,woman,,,,null,,,,,,,,,
null,"<img src=""stim_listB/look4.gif""style=""height:400px;""></stim_listB>",,html-keyboard-response,329,793411,0.0-19.0-1.1,8721,List2B,white,woman,,,,null,,,,,,,,,
null,is being looked at by,,html-keyboard-response,330,795412,0.0-19.0-2.1,8721,List2B,white,woman,,,,null,,,,,,,,,
4489.2,,,survey-text,331,799904,0.0-19.0-3.1,8721,List2B,white,woman,,,,,"{""Q0"":""mike is being looked at by kate""}","<img src=""stim_listB/look4.gif""style=""height:400px;""></stim_listB>",is being looked at by,,,,,,
null,"<div style=""font-size:60px;"">+</div>",,html-keyboard-response,332,800406,0.0-19.0-0.2,8721,List2B,white,woman,,,,null,,,,,,,,,
null,"<img src=""stim_listB/seduce8.gif""style=""height:400px;""></stim_listB>",,html-keyboard-response,333,802408,0.0-19.0-1.2,8721,List2B,white,woman,,,,null,,,,,,,,,
null,is being seduced by,,html-keyboard-response,334,804409,0.0-19.0-2.2,8721,List2B,white,woman,,,,null,,,,,,,,,
3553.8,,,survey-text,335,807968,0.0-19.0-3.2,8721,List2B,white,woman,,,,,"{""Q0"":""jane is being seduced by beth""}","<img src=""stim_listB/seduce8.gif""style=""height:400px;""></stim_listB>",is being seduced by,,,,,,
null,"<div style=""font-size:60px;"">+</div>",,html-keyboard-response,336,808469,0.0-19.0-0.3,8721,List2B,white,woman,,,,null,,,,,,,,,
null,"<img src=""stim_listB/touch1.gif""style=""height:400px;""></stim_listB>",,html-keyboard-response,337,810471,0.0-19.0-1.3,8721,List2B,white,woman,,,,null,,,,,,,,,
null,is touching,,html-keyboard-response,338,812473,0.0-19.0-2.3,8721,List2B,white,woman,,,,null,,,,,,,,,
6674.6,,,survey-text,339,819151,0.0-19.0-3.3,8721,List2B,white,woman,,,,,"{""Q0"":""jane is touching dave""}","<img src=""stim_listB/touch1.gif""style=""height:400px;""></stim_listB>",is touching,,,,,,
null,"<div style=""font-size:60px;"">+</div>",,html-keyboard-response,340,819653,0.0-19.0-0.4,8721,List2B,white,woman,,,,null,,,,,,,,,
null,"<img src=""stim_listB/seduce6.gif""style=""height:400px;""></stim_listB>",,html-keyboard-response,341,821656,0.0-19.0-1.4,8721,List2B,white,woman,,,,null,,,,,,,,,
null,is being seduced by,,html-keyboard-response,342,823657,0.0-19.0-2.4,8721,List2B,white,woman,,,,null,,,,,,,,,
3487.5,,,survey-text,343,827149,0.0-19.0-3.4,8721,List2B,white,woman,,,,,"{""Q0"":""dave is being seduced by fred""}","<img src=""stim_listB/seduce6.gif""style=""height:400px;""></stim_listB>",is being seduced by,,,,,,
null,"<div style=""font-size:60px;"">+</div>",,html-keyboard-response,344,827650,0.0-19.0-0.5,8721,List2B,white,woman,,,,null,,,,,,,,,
null,"<img src=""stim_listB/kiss7.gif""style=""height:400px;""></stim_listB>",,html-keyboard-response,345,829653,0.0-19.0-1.5,8721,List2B,white,woman,,,,null,,,,,,,,,
null,is kissing,,html-keyboard-response,346,831656,0.0-19.0-2.5,8721,List2B,white,woman,,,,null,,,,,,,,,
2353.4,,,survey-text,347,834013,0.0-19.0-3.5,8721,List2B,white,woman,,,,,"{""Q0"":""beth is kissing ruth""}","<img src=""stim_listB/kiss7.gif""style=""height:400px;""></stim_listB>",is kissing,,,,,,
null,"<div style=""font-size:60px;"">+</div>",,html-keyboard-response,348,834515,0.0-19.0-0.6,8721,List2B,white,woman,,,,null,,,,,,,,,
null,"<img src=""stim_listB/challenge3.gif""style=""height:400px;""></stim_listB>",,html-keyboard-response,349,836518,0.0-19.0-1.6,8721,List2B,white,woman,,,,null,,,,,,,,,
null,is challenging,,html-keyboard-response,350,838520,0.0-19.0-2.6,8721,List2B,white,woman,,,,null,,,,,,,,,
2826.5,,,survey-text,351,841352,0.0-19.0-3.6,8721,List2B,white,woman,,,,,"{""Q0"":""beth is challenging mike""}","<img src=""stim_listB/challenge3.gif""style=""height:400px;""></stim_listB>",is challenging,,,,,,
null,"<div style=""font-size:60px;"">+</div>",,html-keyboard-response,352,841853,0.0-19.0-0.7,8721,List2B,white,woman,,,,null,,,,,,,,,
null,"<img src=""stim_listB/challenge4.gif""style=""height:400px;""></stim_listB>",,html-keyboard-response,353,843856,0.0-19.0-1.7,8721,List2B,white,woman,,,,null,,,,,,,,,
null,is being challenged by,,html-keyboard-response,354,845858,0.0-19.0-2.7,8721,List2B,white,woman,,,,null,,,,,,,,,
3757.3,,,survey-text,355,849619,0.0-19.0-3.7,8721,List2B,white,woman,,,,,"{""Q0"":""fred is being challenged by kate""}","<img src=""stim_listB/challenge4.gif""style=""height:400px;""></stim_listB>",is being challenged by,,,,,,
null,"<div style=""font-size:60px;"">+</div>",,html-keyboard-response,356,850121,0.0-19.0-0.8,8721,List2B,white,woman,,,,null,,,,,,,,,
null,"<img src=""stim_listB/seduce4.gif""style=""height:400px;""></stim_listB>",,html-keyboard-response,357,852124,0.0-19.0-1.8,8721,List2B,white,woman,,,,null,,,,,,,,,
null,is being seduced by,,html-keyboard-response,358,854125,0.0-19.0-2.8,8721,List2B,white,woman,,,,null,,,,,,,,,
3622,,,survey-text,359,857752,0.0-19.0-3.8,8721,List2B,white,woman,,,,,"{""Q0"":""mike is being seduced by beth""}","<img src=""stim_listB/seduce4.gif""style=""height:400px;""></stim_listB>",is being seduced by,,,,,,
null,"<div style=""font-size:60px;"">+</div>",,html-keyboard-response,360,858254,0.0-19.0-0.9,8721,List2B,white,woman,,,,null,,,,,,,,,
null,"<img src=""stim_listB/copy7.gif""style=""height:400px;""></stim_listB>",,html-keyboard-response,361,860258,0.0-19.0-1.9,8721,List2B,white,woman,,,,null,,,,,,,,,
null,is copying,,html-keyboard-response,362,862259,0.0-19.0-2.9,8721,List2B,white,woman,,,,null,,,,,,,,,
2270.2,,,survey-text,363,864535,0.0-19.0-3.9,8721,List2B,white,woman,,,,,"{""Q0"":""beth is copying jane""}","<img src=""stim_listB/copy7.gif""style=""height:400px;""></stim_listB>",is copying,,,,,,
null,"<div style=""font-size:60px;"">+</div>",,html-keyboard-response,364,865038,0.0-19.0-0.10,8721,List2B,white,woman,,,,null,,,,,,,,,
null,"<img src=""stim_listB/greet1.gif""style=""height:400px;""></stim_listB>",,html-keyboard-response,365,867041,0.0-19.0-1.10,8721,List2B,white,woman,,,,null,,,,,,,,,
null,is greeting,,html-keyboard-response,366,869043,0.0-19.0-2.10,8721,List2B,white,woman,,,,null,,,,,,,,,
2144.5,,,survey-text,367,871192,0.0-19.0-3.10,8721,List2B,white,woman,,,,,"{""Q0"":""ruth is greeting dave""}","<img src=""stim_listB/greet1.gif""style=""height:400px;""></stim_listB>",is greeting,,,,,,
null,"<div style=""font-size:60px;"">+</div>",,html-keyboard-response,368,871694,0.0-19.0-0.11,8721,List2B,white,woman,,,,null,,,,,,,,,
null,"<img src=""stim_listB/greet8.gif""style=""height:400px;""></stim_listB>",,html-keyboard-response,369,873696,0.0-19.0-1.11,8721,List2B,white,woman,,,,null,,,,,,,,,
null,is being greeted by,,html-keyboard-response,370,875697,0.0-19.0-2.11,8721,List2B,white,woman,,,,null,,,,,,,,,
5462.3,,,survey-text,371,881164,0.0-19.0-3.11,8721,List2B,white,woman,,,,,"{""Q0"":""ruth is being greeted by kate""}","<img src=""stim_listB/greet8.gif""style=""height:400px;""></stim_listB>",is being greeted by,,,,,,
null,"<div style=""font-size:60px;"">+</div>",,html-keyboard-response,372,881665,0.0-19.0-0.12,8721,List2B,white,woman,,,,null,,,,,,,,,
null,"<img src=""stim_listB/shout6.gif""style=""height:400px;""></stim_listB>",,html-keyboard-response,373,883667,0.0-19.0-1.12,8721,List2B,white,woman,,,,null,,,,,,,,,
null,is being shouted at by,,html-keyboard-response,374,885668,0.0-19.0-2.12,8721,List2B,white,woman,,,,null,,,,,,,,,
2838.6,,,survey-text,375,888510,0.0-19.0-3.12,8721,List2B,white,woman,,,,,"{""Q0"":""dave is being shouted at by mike""}","<img src=""stim_listB/shout6.gif""style=""height:400px;""></stim_listB>",is being shouted at by,,,,,,
null,"<div style=""font-size:60px;"">+</div>",,html-keyboard-response,376,889015,0.0-19.0-0.13,8721,List2B,white,woman,,,,null,,,,,,,,,
null,"<img src=""stim_listB/touch4.gif""style=""height:400px;""></stim_listB>",,html-keyboard-response,377,891017,0.0-19.0-1.13,8721,List2B,white,woman,,,,null,,,,,,,,,
null,is being touched by,,html-keyboard-response,378,893019,0.0-19.0-2.13,8721,List2B,white,woman,,,,null,,,,,,,,,
4130.3,,,survey-text,379,897153,0.0-19.0-3.13,8721,List2B,white,woman,,,,,"{""Q0"":""fred is being touched by beth""}","<img src=""stim_listB/touch4.gif""style=""height:400px;""></stim_listB>",is being touched by,,,,,,
null,"<div style=""font-size:60px;"">+</div>",,html-keyboard-response,380,897654,0.0-19.0-0.14,8721,List2B,white,woman,,,,null,,,,,,,,,
null,"<img src=""stim_listB/seduce2.gif""style=""height:400px;""></stim_listB>",,html-keyboard-response,381,899656,0.0-19.0-1.14,8721,List2B,white,woman,,,,null,,,,,,,,,
null,is being seduced by,,html-keyboard-response,382,901658,0.0-19.0-2.14,8721,List2B,white,woman,,,,null,,,,,,,,,
3605.2,,,survey-text,383,905267,0.0-19.0-3.14,8721,List2B,white,woman,,,,,"{""Q0"":""dave is being seduced by ruth""}","<img src=""stim_listB/seduce2.gif""style=""height:400px;""></stim_listB>",is being seduced by,,,,,,
null,"<div style=""font-size:60px;"">+</div>",,html-keyboard-response,384,905769,0.0-19.0-0.15,8721,List2B,white,woman,,,,null,,,,,,,,,
null,"<img src=""stim_listB/oppose2.gif""style=""height:400px;""></stim_listB>",,html-keyboard-response,385,907772,0.0-19.0-1.15,8721,List2B,white,woman,,,,null,,,,,,,,,
null,is being opposed by,,html-keyboard-response,386,909773,0.0-19.0-2.15,8721,List2B,white,woman,,,,null,,,,,,,,,
3004.2,,,survey-text,387,912782,0.0-19.0-3.15,8721,List2B,white,woman,,,,,"{""Q0"":""luke is being opposed by ruth""}","<img src=""stim_listB/oppose2.gif""style=""height:400px;""></stim_listB>",is being opposed by,,,,,,
null,"<div style=""font-size:60px;"">+</div>",,html-keyboard-response,388,913283,0.0-19.0-0.16,8721,List2B,white,woman,,,,null,,,,,,,,,
null,"<img src=""stim_listB/kiss4.gif""style=""height:400px;""></stim_listB>",,html-keyboard-response,389,915286,0.0-19.0-1.16,8721,List2B,white,woman,,,,null,,,,,,,,,
null,is being kissed by,,html-keyboard-response,390,917287,0.0-19.0-2.16,8721,List2B,white,woman,,,,null,,,,,,,,,
2700.3,,,survey-text,391,919993,0.0-19.0-3.16,8721,List2B,white,woman,,,,,"{""Q0"":""mike is being kissed by kate""}","<img src=""stim_listB/kiss4.gif""style=""height:400px;""></stim_listB>",is being kissed by,,,,,,
null,"<div style=""font-size:60px;"">+</div>",,html-keyboard-response,392,920495,0.0-19.0-0.17,8721,List2B,white,woman,,,,null,,,,,,,,,
null,"<img src=""stim_listB/shout5.gif""style=""height:400px;""></stim_listB>",,html-keyboard-response,393,922506,0.0-19.0-1.17,8721,List2B,white,woman,,,,null,,,,,,,,,
null,is shouting at,,html-keyboard-response,394,924508,0.0-19.0-2.17,8721,List2B,white,woman,,,,null,,,,,,,,,
2357.1,,,survey-text,395,926869,0.0-19.0-3.17,8721,List2B,white,woman,,,,,"{""Q0"":""fred is shouting at luke""}","<img src=""stim_listB/shout5.gif""style=""height:400px;""></stim_listB>",is shouting at,,,,,,
null,"<div style=""font-size:60px;"">+</div>",,html-keyboard-response,396,927370,0.0-19.0-0.18,8721,List2B,white,woman,,,,null,,,,,,,,,
null,"<img src=""stim_listB/hug6.gif""style=""height:400px;""></stim_listB>",,html-keyboard-response,397,929372,0.0-19.0-1.18,8721,List2B,white,woman,,,,null,,,,,,,,,
null,is being hugged by,,html-keyboard-response,398,931374,0.0-19.0-2.18,8721,List2B,white,woman,,,,null,,,,,,,,,
3299.7,,,survey-text,399,934678,0.0-19.0-3.18,8721,List2B,white,woman,,,,,"{""Q0"":""dave is being hugged by mike""}","<img src=""stim_listB/hug6.gif""style=""height:400px;""></stim_listB>",is being hugged by,,,,,,
null,"<div style=""font-size:60px;"">+</div>",,html-keyboard-response,400,935180,0.0-19.0-0.19,8721,List2B,white,woman,,,,null,,,,,,,,,
null,"<img src=""stim_listB/challenge8.gif""style=""height:400px;""></stim_listB>",,html-keyboard-response,401,937183,0.0-19.0-1.19,8721,List2B,white,woman,,,,null,,,,,,,,,
null,is being challenged by,,html-keyboard-response,402,939184,0.0-19.0-2.19,8721,List2B,white,woman,,,,null,,,,,,,,,
5474.6,,,survey-text,403,944662,0.0-19.0-3.19,8721,List2B,white,woman,,,,,"{""Q0"":""ruth is being challenged by kate""}","<img src=""stim_listB/challenge8.gif""style=""height:400px;""></stim_listB>",is being challenged by,,,,,,
2991.6,<p>Thank you for completing that task.</p><p>The final part of this session is a questionnaire that will take about 4 minutes.</p><p>Press Continue.</p>,0,html-button-response,404,947656,0.0-20.0,8721,List2B,white,woman,,,,,,,,,,,,,
12899.1,,,survey-text,405,961580,0.0-21.0,8721,List2B,white,woman,,,,,"{""Q0"":""41"",""Q1"":""english"",""Q2"":""english"",""Q3"":""USA"",""Q4"":""USA"",""Q5"":""white"",""Q6"":""female""}",,,demographics,,,,,
1975.4,<p>Have you lived in the USA for the last 5 years or more?</p>,0,html-button-response,406,963558,0.0-22.0,8721,List2B,white,woman,,,,,,,,fiveyears,,,,,
1815.5,<p>Move the slider to show the extent to which you agree with the following statements.</p>,0,html-button-response,407,966376,0.0-23.0,8721,List2B,white,woman,,,,,,,,,,,,,
6255.3,,,html-slider-response,408,973636,0.0-24.0-0.0-0.0,8721,List2B,white,woman,,,,,,,,survey_race,29,,,I have a lot in common with the average person of my race.,average
4881.2,,,html-slider-response,409,978520,0.0-24.0-0.0-0.1,8721,List2B,white,woman,,,,,,,,survey_race,79,,,It is pleasant to be my race.,pleasant
2933,,,html-slider-response,410,981456,0.0-24.0-0.0-0.2,8721,List2B,white,woman,,,,,,,,survey_race,20,,,I think that my race has a lot to be proud of.,proud
3144.5,,,html-slider-response,411,984602,0.0-24.0-0.0-0.3,8721,List2B,white,woman,,,,,,,,survey_race,25,,,I often think about the fact that I am my race.,often
2837.9,,,html-slider-response,412,987442,0.0-24.0-0.0-0.4,8721,List2B,white,woman,,,,,,,,survey_race,25,,,Being my race is an important part of how I see myself.,important
3440.8,,,html-slider-response,413,990884,0.0-24.0-0.0-0.5,8721,List2B,white,woman,,,,,,,,survey_race,41,,,My age is not an important part of who I am.,filler
2542.1,,,html-slider-response,414,993428,0.0-24.0-0.0-0.6,8721,List2B,white,woman,,,,,,,,survey_race,84,,,I feel solidarity with people the same age as me.,filler
2552,,,html-slider-response,415,995982,0.0-24.0-0.0-0.7,8721,List2B,white,woman,,,,,,,,survey_race,82,,,People my age have a lot in common with each other.,filler
4047.5,,,html-slider-response,416,1000032,0.0-24.0-0.0-0.8,8721,List2B,white,woman,,,,,,,,survey_race,8,,,I am glad to be my race.,glad
2589.4,,,html-slider-response,417,1002624,0.0-24.0-0.0-0.9,8721,List2B,white,woman,,,,,,,,survey_race,0,,,I feel a bond with my race.,bond
1940.5,,,html-slider-response,418,1004566,0.0-24.0-0.0-0.10,8721,List2B,white,woman,,,,,,,,survey_race,0,,,I feel committed to my race.,committed
2294.8,,,html-slider-response,419,1006862,0.0-24.0-0.0-0.11,8721,List2B,white,woman,,,,,,,,survey_race,5,,,I enjoy being in large groups.,filler
2416.3,,,html-slider-response,420,1009280,0.0-24.0-0.0-0.12,8721,List2B,white,woman,,,,,,,,survey_race,77,,,Being my age gives me a good feeling.,filler
2792.3,,,html-slider-response,421,1012074,0.0-24.0-0.0-0.13,8721,List2B,white,woman,,,,,,,,survey_race,5,,,I consider myself an extrovert.,filler
2090,,,html-slider-response,422,1014165,0.0-24.0-0.0-0.14,8721,List2B,white,woman,,,,,,,,survey_race,95,,,I consider myself an introvert.,filler
2723,,,html-slider-response,423,1016890,0.0-24.0-0.0-0.15,8721,List2B,white,woman,,,,,,,,survey_race,68,,,I feel a bond with people the same age as me.,filler
2800.5,,,html-slider-response,424,1019692,0.0-24.0-0.0-0.16,8721,List2B,white,woman,,,,,,,,survey_race,1,,,I feel solidarity with my race.,solidarity
3502.1,,,html-slider-response,425,1023196,0.0-24.0-0.0-0.17,8721,List2B,white,woman,,,,,,,,survey_race,24,,,I often think about the fact that I am my age.,filler
2566.9,,,html-slider-response,426,1025764,0.0-24.0-0.0-0.18,8721,List2B,white,woman,,,,,,,,survey_race,19,,,I am similar to the average person of my race.,similar
2253.6,,,html-slider-response,427,1028020,0.0-24.0-0.0-0.19,8721,List2B,white,woman,,,,,,,,survey_race,78,,,I am glad to be my age.,filler
3838.2,,,html-slider-response,428,1031860,0.0-24.0-0.0-0.20,8721,List2B,white,woman,,,,,,,,survey_race,38,,,Getting older does not worry me.,filler
3144.2,,,html-slider-response,429,1035005,0.0-24.0-0.0-0.21,8721,List2B,white,woman,,,,,,,,survey_race,66,,,I have a lot in common with people of a similar age to me.,filler
1817.3,,,html-slider-response,430,1036824,0.0-24.0-0.0-0.22,8721,List2B,white,woman,,,,,,,,survey_race,62,,,"The older I get, the wiser I feel.",filler
2361.8,,,html-slider-response,431,1039187,0.0-24.0-0.0-0.23,8721,List2B,white,woman,,,,,,,,survey_race,11,,,People of my race have a lot in common with each other.,common
2184.9,,,html-slider-response,432,1041374,0.0-24.0-0.0-0.24,8721,List2B,white,woman,,,,,,,,survey_race,5,,,Being my race gives me a good feeling.,feeling
2262.6,,,html-slider-response,433,1043638,0.0-24.0-0.0-0.25,8721,List2B,white,woman,,,,,,,,survey_race,6,,,People of my race are very similar to each other.,verysimilar
2228.8,,,html-slider-response,434,1045870,0.0-24.0-0.0-0.26,8721,List2B,white,woman,,,,,,,,survey_race,63,,,I am glad to be the age I am.,filler
2542.3,,,html-slider-response,435,1048414,0.0-24.0-0.0-0.27,8721,List2B,white,woman,,,,,,,,survey_race,7,,,The fact that I am my race is an important part of my identity.,identity
2276.5,,,html-slider-response,436,1050692,0.0-24.0-1.0-0.0,8721,List2B,white,woman,,,,,,,,survey_gender,89,,,I often think about my actions.,filler
2668.3,,,html-slider-response,437,1053362,0.0-24.0-1.0-0.1,8721,List2B,white,woman,,,,,,,,survey_gender,96,,,Being my gender is an important part of how I see myself.,important
4734.8,,,html-slider-response,438,1058098,0.0-24.0-1.0-0.2,8721,List2B,white,woman,,,,,,,,survey_gender,18,,,Family is not more important to me than friendship.,filler
2901.8,,,html-slider-response,439,1061001,0.0-24.0-1.0-0.3,8721,List2B,white,woman,,,,,,,,survey_gender,85,,,People of my gender have a lot in common with each other.,common
2316.6,,,html-slider-response,440,1063319,0.0-24.0-1.0-0.4,8721,List2B,white,woman,,,,,,,,survey_gender,100,,,I have a lot in common with my friends.,filler
2028.4,,,html-slider-response,441,1065349,0.0-24.0-1.0-0.5,8721,List2B,white,woman,,,,,,,,survey_gender,67,,,Being my gender gives me a good feeling.,feeling
2136.4,,,html-slider-response,442,1067487,0.0-24.0-1.0-0.6,8721,List2B,white,woman,,,,,,,,survey_gender,83,,,I feel solidarity with my gender.,solidarity
2542.9,,,html-slider-response,443,1070031,0.0-24.0-1.0-0.7,8721,List2B,white,woman,,,,,,,,survey_gender,69,,,I have a lot in common with the average person of my gender.,average
1816.3,,,html-slider-response,444,1071849,0.0-24.0-1.0-0.8,8721,List2B,white,woman,,,,,,,,survey_gender,86,,,I feel a bond with my gender.,bond
2598.6,,,html-slider-response,445,1074449,0.0-24.0-1.0-0.9,8721,List2B,white,woman,,,,,,,,survey_gender,82,,,I consider myself a highly empathetic person.,filler
2010.8,,,html-slider-response,446,1076461,0.0-24.0-1.0-0.10,8721,List2B,white,woman,,,,,,,,survey_gender,100,,,I am glad to have the friends that I have.,filler
2606.8,,,html-slider-response,447,1079070,0.0-24.0-1.0-0.11,8721,List2B,white,woman,,,,,,,,survey_gender,93,,,I am glad to be my gender.,glad
1660.4,,,html-slider-response,448,1080732,0.0-24.0-1.0-0.12,8721,List2B,white,woman,,,,,,,,survey_gender,100,,,Being around my friends gives me a good feeling.,filler
3308,,,html-slider-response,449,1084041,0.0-24.0-1.0-0.13,8721,List2B,white,woman,,,,,,,,survey_gender,59,,,People of my gender are very similar to each other.,verysimilar
2534.1,,,html-slider-response,450,1086577,0.0-24.0-1.0-0.14,8721,List2B,white,woman,,,,,,,,survey_gender,100,,,I think that my gender has a lot to be proud of.,proud
2878.6,,,html-slider-response,451,1089457,0.0-24.0-1.0-0.15,8721,List2B,white,woman,,,,,,,,survey_gender,100,,,My friends have a lot in common with each other.,filler
1886.8,,,html-slider-response,452,1091345,0.0-24.0-1.0-0.16,8721,List2B,white,woman,,,,,,,,survey_gender,34,,,Routine is not important to me.,filler
2372.7,,,html-slider-response,453,1093719,0.0-24.0-1.0-0.17,8721,List2B,white,woman,,,,,,,,survey_gender,70,,,I often think about the fact that I am my gender.,often
2628.1,,,html-slider-response,454,1096349,0.0-24.0-1.0-0.18,8721,List2B,white,woman,,,,,,,,survey_gender,45,,,Most of the friends in my life are very similar to me.,filler
1800.7,,,html-slider-response,455,1098151,0.0-24.0-1.0-0.19,8721,List2B,white,woman,,,,,,,,survey_gender,57,,,I feel committed to my gender.,committed
2527.1,,,html-slider-response,456,1100680,0.0-24.0-1.0-0.20,8721,List2B,white,woman,,,,,,,,survey_gender,100,,,I feel a bond with my friends.,filler
2214.7,,,html-slider-response,457,1102896,0.0-24.0-1.0-0.21,8721,List2B,white,woman,,,,,,,,survey_gender,79,,,I would say I am an animal person.,filler
1848.1,,,html-slider-response,458,1104745,0.0-24.0-1.0-0.22,8721,List2B,white,woman,,,,,,,,survey_gender,99,,,I feel solidarity with my friends.,filler
2074.7,,,html-slider-response,459,1106821,0.0-24.0-1.0-0.23,8721,List2B,white,woman,,,,,,,,survey_gender,39,,,I am similar to the average person of my gender.,similar
2316.6,,,html-slider-response,460,1109139,0.0-24.0-1.0-0.24,8721,List2B,white,woman,,,,,,,,survey_gender,100,,,My friends understand me.,filler
1505.1,,,html-slider-response,461,1110646,0.0-24.0-1.0-0.25,8721,List2B,white,woman,,,,,,,,survey_gender,89,,,It is pleasant to be my gender.,pleasant
3822.6,,,html-slider-response,462,1114470,0.0-24.0-1.0-0.26,8721,List2B,white,woman,,,,,,,,survey_gender,71,,,It is not always easy for people to know what I am thinking.,filler
2985.6,,,html-slider-response,463,1117458,0.0-24.0-1.0-0.27,8721,List2B,white,woman,,,,,,,,survey_gender,95,,,The fact that I am my gender is an important part of my identity.,identity
5138,,,survey-text,464,1122601,0.0-25.0,8721,List2B,white,woman,,,,,"{""Q0"":""ccc""}",,,worker_id,,,,,
12636.4,,,external-html,465,1135540,0.0-26.0,8721,List2B,white,woman,debrief.html,,,,,,,,,,,,
