rt,stimulus,button_pressed,trial_type,trial_index,time_elapsed,internal_node_id,subject,list,ppt_race,ppt_gender,url,first_guess,correct,key_press,responses,image_type,phrase_type,test_part,response,stimulus1,stimulus2,question_type,survey_item
10428.4,Welcome to the experiment. Press Continue to begin.,0,html-button-response,0,10446,0.0-0.0,87401,List2B,white,man,,,,,,,,,,,,,
9845.9,,,external-html,1,21978,0.0-1.0,87401,List2B,white,man,consent.html,,,,,,,,,,,,
16637.1,"<p>On the next page, you will see portraits of 8 people and their names.</p><p>Your first task is to take a few minutes to memorise the names of these people.</p><p>You will have to recall their names during the rest of the experiment, so it is</p><p>essential that you try to memorise these people and their names as best as you can.</p><br><p><strong>You will then be tested on your memory of these names and portraits.</strong></p><br><p>The experiment will start after you have completed this memory test.</p><br><p>Ready?</p>",0,html-button-response,2,38624,0.0-2.0,87401,List2B,white,man,,,,,,,,,,,,,
54017.2,"<img src='img/portrait_matrix_list2.jpg' style='width:900px;height:500px;''></img><p>If you have memorised all the portraits and names and are ready to start, press Continue.</p><p><strong>Please note: Your memory of these faces will be tested 4 times during this experiment.</strong></p>",0,html-button-response,3,93649,0.0-3.0-0.0,87401,List2B,white,man,,,,,,,,,,,,,
15613.8,"<img src=""portrait/BW2.jpg""style=""height:400px;""></img>",2,html-button-response,4,110273,0.0-3.0-1.0,87401,List2B,white,man,,TRUE,2,,,,,,,,,,
null,CORRECT,,html-keyboard-response,5,111789,0.0-3.0-2.0-0.0,87401,List2B,white,man,,,,null,,,,,,,,,
5896.3,"<img src=""portrait/BM1.jpg""style=""height:400px;""></img>",4,html-button-response,6,117692,0.0-3.0-4.0,87401,List2B,white,man,,TRUE,4,,,,,,,,,,
null,CORRECT,,html-keyboard-response,7,119216,0.0-3.0-5.0-0.0,87401,List2B,white,man,,,,null,,,,,,,,,
6733.7,"<img src=""portrait/BW1.jpg""style=""height:400px;""></img>",0,html-button-response,8,125954,0.0-3.0-7.0,87401,List2B,white,man,,TRUE,0,,,,,,,,,,
null,CORRECT,,html-keyboard-response,9,127464,0.0-3.0-8.0-0.0,87401,List2B,white,man,,,,null,,,,,,,,,
6891.5,"<img src=""portrait/WW1.jpg""style=""height:400px;""></img>",1,html-button-response,10,134362,0.0-3.0-10.0,87401,List2B,white,man,,TRUE,1,,,,,,,,,,
null,CORRECT,,html-keyboard-response,11,135878,0.0-3.0-11.0-0.0,87401,List2B,white,man,,,,null,,,,,,,,,
6284.8,"<img src=""portrait/WM2.jpg""style=""height:400px;""></img>",7,html-button-response,12,142170,0.0-3.0-13.0,87401,List2B,white,man,,TRUE,7,,,,,,,,,,
null,CORRECT,,html-keyboard-response,13,143695,0.0-3.0-14.0-0.0,87401,List2B,white,man,,,,null,,,,,,,,,
7095.1,"<img src=""portrait/BM2.jpg""style=""height:400px;""></img>",5,html-button-response,14,150800,0.0-3.0-16.0,87401,List2B,white,man,,TRUE,5,,,,,,,,,,
null,CORRECT,,html-keyboard-response,15,152312,0.0-3.0-17.0-0.0,87401,List2B,white,man,,,,null,,,,,,,,,
8124.7,"<img src=""portrait/WM1.jpg""style=""height:400px;""></img>",6,html-button-response,16,160442,0.0-3.0-19.0,87401,List2B,white,man,,TRUE,6,,,,,,,,,,
null,CORRECT,,html-keyboard-response,17,161960,0.0-3.0-20.0-0.0,87401,List2B,white,man,,,,null,,,,,,,,,
6284.4,"<img src=""portrait/WW2.jpg""style=""height:400px;""></img>",3,html-button-response,18,168251,0.0-3.0-22.0,87401,List2B,white,man,,TRUE,3,,,,,,,,,,
null,CORRECT,,html-keyboard-response,19,169777,0.0-3.0-23.0-0.0,87401,List2B,white,man,,,,null,,,,,,,,,
2535.9,<p>You got 8 out of 8 right first time. Press Continue.</p>,0,html-button-response,20,172321,0.0-3.0-25.0,87401,List2B,white,man,,,,,,,,,,,,,
53777.4,"<p>In this experiment, you will view photographs of the people from the memory game interacting.</p><p>By using the <strong>exact</strong> phrase given <i>after</i> the photograph appears and recalling the correct names of the people in the photographs, form a sentence describing the interaction. You do not need to capitalise names.</p><p>Type your answer in the space provided. Please complete every sentence before moving onto the next trial.</p><p>You will only have a few seconds to memorise each given photograph and phrase before you can respond, so try your best to focus.</p><p>An example is given below. Press 'Continue' when you are ready.</p><img src='img/speaking_example.jpg' style='width:800px;height:460px;''></img>",0,html-button-response,21,227124,0.0-4.0,87401,List2B,white,man,,,,,,,,,,,,,
30641.3,"<p>Before the experiment starts, you will watch two example trials. Press 'Continue'.</p>",0,html-button-response,22,258774,0.0-5.0,87401,List2B,white,man,,,,,,,,,,,,,
null,<img src='img/play_eg.gif' style='height:400px;''></img>,,html-keyboard-response,23,261790,0.0-6.0,87401,List2B,white,man,,,,null,,,,,,,,,
null,<p>is playing with</p>,,html-keyboard-response,24,263807,0.0-7.0,87401,List2B,white,man,,,,null,,,,,,,,,
3072.3,<p><b>Answer:</b> jane is playing with ruth</p>,0,html-button-response,25,266883,0.0-8.0,87401,List2B,white,man,,,,,,,,,,,,,
null,<img src='img/dance_eg.gif' style='height:400px;''></img>,,html-keyboard-response,26,269943,0.0-9.0,87401,List2B,white,man,,,,null,,,,,,,,,
null,<p>is being entertained by</p>,,html-keyboard-response,27,271947,0.0-10.0,87401,List2B,white,man,,,,null,,,,,,,,,
5156.4,<p><b>Answer:</b> fred is being entertained by mike</p>,0,html-button-response,28,277115,0.0-11.0,87401,List2B,white,man,,,,,,,,,,,,,
324848.9,"<p>Ready to start the experiment?</p><br><p><strong>Remember to describe the picture using a full sentence,</strong></p><p><strong>that combines the names of the people with the <i>exact</i> phrase given.</strong></p><p><strong>To receive full payment you must do this correctly.</strong></p><p><strong> You do not need to capitalise names or use punctuation.</strong></p><br><p>Press 'Continue' to begin.</p>",0,html-button-response,29,602975,0.0-12.0,87401,List2B,white,man,,,,,,,,,,,,,
null,"<div style=""font-size:60px;"">+</div>",,html-keyboard-response,30,604484,0.0-13.0-0.0,87401,List2B,white,man,,,,null,,,,,,,,,
null,"<img src=""stim_listB/touch7.gif""style=""height:400px;""></stim_listB>",,html-keyboard-response,31,606504,0.0-13.0-1.0,87401,List2B,white,man,,,,null,,,,,,,,,
null,is touching,,html-keyboard-response,32,608508,0.0-13.0-2.0,87401,List2B,white,man,,,,null,,,,,,,,,
20759.7,,,survey-text,33,629283,0.0-13.0-3.0,87401,List2B,white,man,,,,,"{""Q0"":""jane is touching kate""}","<img src=""stim_listB/touch7.gif""style=""height:400px;""></stim_listB>",is touching,,,,,,
null,"<div style=""font-size:60px;"">+</div>",,html-keyboard-response,34,629792,0.0-13.0-0.1,87401,List2B,white,man,,,,null,,,,,,,,,
null,"<img src=""stim_listB/greet8.gif""style=""height:400px;""></stim_listB>",,html-keyboard-response,35,631821,0.0-13.0-1.1,87401,List2B,white,man,,,,null,,,,,,,,,
null,is being greeted by,,html-keyboard-response,36,633840,0.0-13.0-2.1,87401,List2B,white,man,,,,null,,,,,,,,,
15892.5,,,survey-text,37,649785,0.0-13.0-3.1,87401,List2B,white,man,,,,,"{""Q0"":""ruth is saying hi to kate""}","<img src=""stim_listB/greet8.gif""style=""height:400px;""></stim_listB>",is being greeted by,,,,,,
null,"<div style=""font-size:60px;"">+</div>",,html-keyboard-response,38,650290,0.0-13.0-0.2,87401,List2B,white,man,,,,null,,,,,,,,,
null,"<img src=""stim_listB/copy2.gif""style=""height:400px;""></stim_listB>",,html-keyboard-response,39,652306,0.0-13.0-1.2,87401,List2B,white,man,,,,null,,,,,,,,,
null,is being copied by,,html-keyboard-response,40,654323,0.0-13.0-2.2,87401,List2B,white,man,,,,null,,,,,,,,,
16771,,,survey-text,41,671106,0.0-13.0-3.2,87401,List2B,white,man,,,,,"{""Q0"":""jane is being copied by luke""}","<img src=""stim_listB/copy2.gif""style=""height:400px;""></stim_listB>",is being copied by,,,,,,
null,"<div style=""font-size:60px;"">+</div>",,html-keyboard-response,42,671612,0.0-13.0-0.3,87401,List2B,white,man,,,,null,,,,,,,,,
null,"<img src=""stim_listB/oppose4.gif""style=""height:400px;""></stim_listB>",,html-keyboard-response,43,673626,0.0-13.0-1.3,87401,List2B,white,man,,,,null,,,,,,,,,
null,is being opposed by,,html-keyboard-response,44,675630,0.0-13.0-2.3,87401,List2B,white,man,,,,null,,,,,,,,,
16672.5,,,survey-text,45,692316,0.0-13.0-3.3,87401,List2B,white,man,,,,,"{""Q0"":""beth is being opposed by fred""}","<img src=""stim_listB/oppose4.gif""style=""height:400px;""></stim_listB>",is being opposed by,,,,,,
null,"<div style=""font-size:60px;"">+</div>",,html-keyboard-response,46,692830,0.0-13.0-0.4,87401,List2B,white,man,,,,null,,,,,,,,,
null,"<img src=""stim_listB/kiss2.gif""style=""height:400px;""></stim_listB>",,html-keyboard-response,47,694840,0.0-13.0-1.4,87401,List2B,white,man,,,,null,,,,,,,,,
null,is being kissed by,,html-keyboard-response,48,696843,0.0-13.0-2.4,87401,List2B,white,man,,,,null,,,,,,,,,
14112.7,,,survey-text,49,710966,0.0-13.0-3.4,87401,List2B,white,man,,,,,"{""Q0"":""jane is being kissed by dave""}","<img src=""stim_listB/kiss2.gif""style=""height:400px;""></stim_listB>",is being kissed by,,,,,,
null,"<div style=""font-size:60px;"">+</div>",,html-keyboard-response,50,711471,0.0-13.0-0.5,87401,List2B,white,man,,,,null,,,,,,,,,
null,"<img src=""stim_listB/hug2.gif""style=""height:400px;""></stim_listB>",,html-keyboard-response,51,713483,0.0-13.0-1.5,87401,List2B,white,man,,,,null,,,,,,,,,
null,is being hugged by,,html-keyboard-response,52,715487,0.0-13.0-2.5,87401,List2B,white,man,,,,null,,,,,,,,,
14944.9,,,survey-text,53,730442,0.0-13.0-3.5,87401,List2B,white,man,,,,,"{""Q0"":""jane is being hugged by dave""}","<img src=""stim_listB/hug2.gif""style=""height:400px;""></stim_listB>",is being hugged by,,,,,,
null,"<div style=""font-size:60px;"">+</div>",,html-keyboard-response,54,730947,0.0-13.0-0.6,87401,List2B,white,man,,,,null,,,,,,,,,
null,"<img src=""stim_listB/touch1.gif""style=""height:400px;""></stim_listB>",,html-keyboard-response,55,732960,0.0-13.0-1.6,87401,List2B,white,man,,,,null,,,,,,,,,
null,is touching,,html-keyboard-response,56,734965,0.0-13.0-2.6,87401,List2B,white,man,,,,null,,,,,,,,,
14030,,,survey-text,57,749006,0.0-13.0-3.6,87401,List2B,white,man,,,,,"{""Q0"":""dave is touching jane""}","<img src=""stim_listB/touch1.gif""style=""height:400px;""></stim_listB>",is touching,,,,,,
null,"<div style=""font-size:60px;"">+</div>",,html-keyboard-response,58,749512,0.0-13.0-0.7,87401,List2B,white,man,,,,null,,,,,,,,,
null,"<img src=""stim_listB/oppose3.gif""style=""height:400px;""></stim_listB>",,html-keyboard-response,59,751518,0.0-13.0-1.7,87401,List2B,white,man,,,,null,,,,,,,,,
null,is opposing,,html-keyboard-response,60,753537,0.0-13.0-2.7,87401,List2B,white,man,,,,null,,,,,,,,,
21425.7,,,survey-text,61,774981,0.0-13.0-3.7,87401,List2B,white,man,,,,,"{""Q0"":""kate is opposing mike""}","<img src=""stim_listB/oppose3.gif""style=""height:400px;""></stim_listB>",is opposing,,,,,,
null,"<div style=""font-size:60px;"">+</div>",,html-keyboard-response,62,775497,0.0-13.0-0.8,87401,List2B,white,man,,,,null,,,,,,,,,
null,"<img src=""stim_listB/shout8.gif""style=""height:400px;""></stim_listB>",,html-keyboard-response,63,777521,0.0-13.0-1.8,87401,List2B,white,man,,,,null,,,,,,,,,
null,is being shouted at by,,html-keyboard-response,64,779534,0.0-13.0-2.8,87401,List2B,white,man,,,,null,,,,,,,,,
16815.5,,,survey-text,65,796373,0.0-13.0-3.8,87401,List2B,white,man,,,,,"{""Q0"":""kate is being shouted at by jane""}","<img src=""stim_listB/shout8.gif""style=""height:400px;""></stim_listB>",is being shouted at by,,,,,,
null,"<div style=""font-size:60px;"">+</div>",,html-keyboard-response,66,796882,0.0-13.0-0.9,87401,List2B,white,man,,,,null,,,,,,,,,
null,"<img src=""stim_listB/greet4.gif""style=""height:400px;""></stim_listB>",,html-keyboard-response,67,798900,0.0-13.0-1.9,87401,List2B,white,man,,,,null,,,,,,,,,
null,is being greeted by,,html-keyboard-response,68,800914,0.0-13.0-2.9,87401,List2B,white,man,,,,null,,,,,,,,,
15454.3,,,survey-text,69,816375,0.0-13.0-3.9,87401,List2B,white,man,,,,,"{""Q0"":""kate is being greeted by fred""}","<img src=""stim_listB/greet4.gif""style=""height:400px;""></stim_listB>",is being greeted by,,,,,,
null,"<div style=""font-size:60px;"">+</div>",,html-keyboard-response,70,816886,0.0-13.0-0.10,87401,List2B,white,man,,,,null,,,,,,,,,
null,"<img src=""stim_listB/kiss4.gif""style=""height:400px;""></stim_listB>",,html-keyboard-response,71,818893,0.0-13.0-1.10,87401,List2B,white,man,,,,null,,,,,,,,,
null,is being kissed by,,html-keyboard-response,72,820908,0.0-13.0-2.10,87401,List2B,white,man,,,,null,,,,,,,,,
18040.6,,,survey-text,73,838965,0.0-13.0-3.10,87401,List2B,white,man,,,,,"{""Q0"":""kate is being kissed by mike""}","<img src=""stim_listB/kiss4.gif""style=""height:400px;""></stim_listB>",is being kissed by,,,,,,
null,"<div style=""font-size:60px;"">+</div>",,html-keyboard-response,74,839469,0.0-13.0-0.11,87401,List2B,white,man,,,,null,,,,,,,,,
null,"<img src=""stim_listB/look5.gif""style=""height:400px;""></stim_listB>",,html-keyboard-response,75,841486,0.0-13.0-1.11,87401,List2B,white,man,,,,null,,,,,,,,,
null,is looking at,,html-keyboard-response,76,843489,0.0-13.0-2.11,87401,List2B,white,man,,,,null,,,,,,,,,
13082.7,,,survey-text,77,856585,0.0-13.0-3.11,87401,List2B,white,man,,,,,"{""Q0"":""fred is looking at luke""}","<img src=""stim_listB/look5.gif""style=""height:400px;""></stim_listB>",is looking at,,,,,,
null,"<div style=""font-size:60px;"">+</div>",,html-keyboard-response,78,857091,0.0-13.0-0.12,87401,List2B,white,man,,,,null,,,,,,,,,
null,"<img src=""stim_listB/challenge8.gif""style=""height:400px;""></stim_listB>",,html-keyboard-response,79,859109,0.0-13.0-1.12,87401,List2B,white,man,,,,null,,,,,,,,,
null,is being challenged by,,html-keyboard-response,80,861132,0.0-13.0-2.12,87401,List2B,white,man,,,,null,,,,,,,,,
11824,,,survey-text,81,872985,0.0-13.0-3.12,87401,List2B,white,man,,,,,"{""Q0"":""kate is touching ruth""}","<img src=""stim_listB/challenge8.gif""style=""height:400px;""></stim_listB>",is being challenged by,,,,,,
null,"<div style=""font-size:60px;"">+</div>",,html-keyboard-response,82,873496,0.0-13.0-0.13,87401,List2B,white,man,,,,null,,,,,,,,,
null,"<img src=""stim_listB/challenge4.gif""style=""height:400px;""></stim_listB>",,html-keyboard-response,83,875512,0.0-13.0-1.13,87401,List2B,white,man,,,,null,,,,,,,,,
null,is being challenged by,,html-keyboard-response,84,877517,0.0-13.0-2.13,87401,List2B,white,man,,,,null,,,,,,,,,
19359.5,,,survey-text,85,896919,0.0-13.0-3.13,87401,List2B,white,man,,,,,"{""Q0"":""kate is being challenged by dave""}","<img src=""stim_listB/challenge4.gif""style=""height:400px;""></stim_listB>",is being challenged by,,,,,,
null,"<div style=""font-size:60px;"">+</div>",,html-keyboard-response,86,897424,0.0-13.0-0.14,87401,List2B,white,man,,,,null,,,,,,,,,
null,"<img src=""stim_listB/copy3.gif""style=""height:400px;""></stim_listB>",,html-keyboard-response,87,899436,0.0-13.0-1.14,87401,List2B,white,man,,,,null,,,,,,,,,
null,is copying,,html-keyboard-response,88,901440,0.0-13.0-2.14,87401,List2B,white,man,,,,null,,,,,,,,,
13565.5,,,survey-text,89,915016,0.0-13.0-3.14,87401,List2B,white,man,,,,,"{""Q0"":""beth is copying mike""}","<img src=""stim_listB/copy3.gif""style=""height:400px;""></stim_listB>",is copying,,,,,,
null,"<div style=""font-size:60px;"">+</div>",,html-keyboard-response,90,915534,0.0-13.0-0.15,87401,List2B,white,man,,,,null,,,,,,,,,
null,"<img src=""stim_listB/challenge5.gif""style=""height:400px;""></stim_listB>",,html-keyboard-response,91,917552,0.0-13.0-1.15,87401,List2B,white,man,,,,null,,,,,,,,,
null,is challenging,,html-keyboard-response,92,919563,0.0-13.0-2.15,87401,List2B,white,man,,,,null,,,,,,,,,
11619.1,,,survey-text,93,931254,0.0-13.0-3.15,87401,List2B,white,man,,,,,"{""Q0"":""dave is challenging fred""}","<img src=""stim_listB/challenge5.gif""style=""height:400px;""></stim_listB>",is challenging,,,,,,
null,"<div style=""font-size:60px;"">+</div>",,html-keyboard-response,94,931758,0.0-13.0-0.16,87401,List2B,white,man,,,,null,,,,,,,,,
null,"<img src=""stim_listB/seduce7.gif""style=""height:400px;""></stim_listB>",,html-keyboard-response,95,933775,0.0-13.0-1.16,87401,List2B,white,man,,,,null,,,,,,,,,
null,is seducing,,html-keyboard-response,96,935779,0.0-13.0-2.16,87401,List2B,white,man,,,,null,,,,,,,,,
9526.7,,,survey-text,97,945317,0.0-13.0-3.16,87401,List2B,white,man,,,,,"{""Q0"":""kate is seducing ruth""}","<img src=""stim_listB/seduce7.gif""style=""height:400px;""></stim_listB>",is seducing,,,,,,
null,"<div style=""font-size:60px;"">+</div>",,html-keyboard-response,98,945832,0.0-13.0-0.17,87401,List2B,white,man,,,,null,,,,,,,,,
null,"<img src=""stim_listB/look4.gif""style=""height:400px;""></stim_listB>",,html-keyboard-response,99,947850,0.0-13.0-1.17,87401,List2B,white,man,,,,null,,,,,,,,,
null,is being looked at by,,html-keyboard-response,100,949853,0.0-13.0-2.17,87401,List2B,white,man,,,,null,,,,,,,,,
11271,,,survey-text,101,961134,0.0-13.0-3.17,87401,List2B,white,man,,,,,"{""Q0"":""kate is being looked at by mike""}","<img src=""stim_listB/look4.gif""style=""height:400px;""></stim_listB>",is being looked at by,,,,,,
null,"<div style=""font-size:60px;"">+</div>",,html-keyboard-response,102,961649,0.0-13.0-0.18,87401,List2B,white,man,,,,null,,,,,,,,,
null,"<img src=""stim_listB/kiss6.gif""style=""height:400px;""></stim_listB>",,html-keyboard-response,103,963663,0.0-13.0-1.18,87401,List2B,white,man,,,,null,,,,,,,,,
null,is being kissed by,,html-keyboard-response,104,965668,0.0-13.0-2.18,87401,List2B,white,man,,,,null,,,,,,,,,
17592.5,,,survey-text,105,983296,0.0-13.0-3.18,87401,List2B,white,man,,,,,"{""Q0"":""mike is being kissed by dave""}","<img src=""stim_listB/kiss6.gif""style=""height:400px;""></stim_listB>",is being kissed by,,,,,,
null,"<div style=""font-size:60px;"">+</div>",,html-keyboard-response,106,983824,0.0-13.0-0.19,87401,List2B,white,man,,,,null,,,,,,,,,
null,"<img src=""stim_listB/look6.gif""style=""height:400px;""></stim_listB>",,html-keyboard-response,107,985837,0.0-13.0-1.19,87401,List2B,white,man,,,,null,,,,,,,,,
null,is being looked at by,,html-keyboard-response,108,987854,0.0-13.0-2.19,87401,List2B,white,man,,,,null,,,,,,,,,
15603.9,,,survey-text,109,1003466,0.0-13.0-3.19,87401,List2B,white,man,,,,,"{""Q0"":""mike is being looked at by dave""}","<img src=""stim_listB/look6.gif""style=""height:400px;""></stim_listB>",is being looked at by,,,,,,
8391.9,"<img src='img/portrait_matrix_list2.jpg' style='width:900px;height:500px;''></img><p>If you have memorised all the portraits and names and are ready to start, press Continue.</p><p><strong>Please note: Your memory of these faces will be tested 4 times during this experiment.</strong></p>",0,html-button-response,110,1011863,0.0-14.0-0.0,87401,List2B,white,man,,,,,,,,,,,,,
2479.3,"<img src=""portrait/WW1.jpg""style=""height:400px;""></img>",1,html-button-response,111,1015353,0.0-14.0-1.0,87401,List2B,white,man,,TRUE,1,,,,,,,,,,
null,CORRECT,,html-keyboard-response,112,1016865,0.0-14.0-2.0-0.0,87401,List2B,white,man,,,,null,,,,,,,,,
4657.3,"<img src=""portrait/WM1.jpg""style=""height:400px;""></img>",6,html-button-response,113,1021529,0.0-14.0-4.0,87401,List2B,white,man,,TRUE,6,,,,,,,,,,
null,CORRECT,,html-keyboard-response,114,1023048,0.0-14.0-5.0-0.0,87401,List2B,white,man,,,,null,,,,,,,,,
1866.7,"<img src=""portrait/BW2.jpg""style=""height:400px;""></img>",2,html-button-response,115,1024921,0.0-14.0-7.0,87401,List2B,white,man,,TRUE,2,,,,,,,,,,
null,CORRECT,,html-keyboard-response,116,1026428,0.0-14.0-8.0-0.0,87401,List2B,white,man,,,,null,,,,,,,,,
3843.8,"<img src=""portrait/WM2.jpg""style=""height:400px;""></img>",7,html-button-response,117,1030279,0.0-14.0-10.0,87401,List2B,white,man,,TRUE,7,,,,,,,,,,
null,CORRECT,,html-keyboard-response,118,1031810,0.0-14.0-11.0-0.0,87401,List2B,white,man,,,,null,,,,,,,,,
3616.3,"<img src=""portrait/BW1.jpg""style=""height:400px;""></img>",0,html-button-response,119,1035431,0.0-14.0-13.0,87401,List2B,white,man,,TRUE,0,,,,,,,,,,
null,CORRECT,,html-keyboard-response,120,1036941,0.0-14.0-14.0-0.0,87401,List2B,white,man,,,,null,,,,,,,,,
2388.5,"<img src=""portrait/BM2.jpg""style=""height:400px;""></img>",5,html-button-response,121,1039338,0.0-14.0-16.0,87401,List2B,white,man,,TRUE,5,,,,,,,,,,
null,CORRECT,,html-keyboard-response,122,1040858,0.0-14.0-17.0-0.0,87401,List2B,white,man,,,,null,,,,,,,,,
2145.4,"<img src=""portrait/BM1.jpg""style=""height:400px;""></img>",4,html-button-response,123,1043011,0.0-14.0-19.0,87401,List2B,white,man,,TRUE,4,,,,,,,,,,
null,CORRECT,,html-keyboard-response,124,1044535,0.0-14.0-20.0-0.0,87401,List2B,white,man,,,,null,,,,,,,,,
1916.5,"<img src=""portrait/WW2.jpg""style=""height:400px;""></img>",3,html-button-response,125,1046459,0.0-14.0-22.0,87401,List2B,white,man,,TRUE,3,,,,,,,,,,
null,CORRECT,,html-keyboard-response,126,1047984,0.0-14.0-23.0-0.0,87401,List2B,white,man,,,,null,,,,,,,,,
1665,<p>You got 8 out of 8 right first time. Press Continue.</p>,0,html-button-response,127,1049656,0.0-14.0-25.0,87401,List2B,white,man,,,,,,,,,,,,,
null,"<div style=""font-size:60px;"">+</div>",,html-keyboard-response,128,1051187,0.0-15.0-0.0,87401,List2B,white,man,,,,null,,,,,,,,,
null,"<img src=""stim_listB/hug4.gif""style=""height:400px;""></stim_listB>",,html-keyboard-response,129,1053204,0.0-15.0-1.0,87401,List2B,white,man,,,,null,,,,,,,,,
null,is being hugged by,,html-keyboard-response,130,1055215,0.0-15.0-2.0,87401,List2B,white,man,,,,null,,,,,,,,,
19497.3,,,survey-text,131,1074720,0.0-15.0-3.0,87401,List2B,white,man,,,,,"{""Q0"":""mike is being hugged by kate""}","<img src=""stim_listB/hug4.gif""style=""height:400px;""></stim_listB>",is being hugged by,,,,,,
null,"<div style=""font-size:60px;"">+</div>",,html-keyboard-response,132,1075267,0.0-15.0-0.1,87401,List2B,white,man,,,,null,,,,,,,,,
null,"<img src=""stim_listB/shout3.gif""style=""height:400px;""></stim_listB>",,html-keyboard-response,133,1077271,0.0-15.0-1.1,87401,List2B,white,man,,,,null,,,,,,,,,
null,is shouting at,,html-keyboard-response,134,1079273,0.0-15.0-2.1,87401,List2B,white,man,,,,null,,,,,,,,,
11752,,,survey-text,135,1091035,0.0-15.0-3.1,87401,List2B,white,man,,,,,"{""Q0"":""fred is shouting at beth""}","<img src=""stim_listB/shout3.gif""style=""height:400px;""></stim_listB>",is shouting at,,,,,,
null,"<div style=""font-size:60px;"">+</div>",,html-keyboard-response,136,1091548,0.0-15.0-0.2,87401,List2B,white,man,,,,null,,,,,,,,,
null,"<img src=""stim_listB/seduce4.gif""style=""height:400px;""></stim_listB>",,html-keyboard-response,137,1093560,0.0-15.0-1.2,87401,List2B,white,man,,,,null,,,,,,,,,
null,is being seduced by,,html-keyboard-response,138,1095562,0.0-15.0-2.2,87401,List2B,white,man,,,,null,,,,,,,,,
9815.9,,,survey-text,139,1105386,0.0-15.0-3.2,87401,List2B,white,man,,,,,"{""Q0"":""mike is being seduced by beth""}","<img src=""stim_listB/seduce4.gif""style=""height:400px;""></stim_listB>",is being seduced by,,,,,,
null,"<div style=""font-size:60px;"">+</div>",,html-keyboard-response,140,1105895,0.0-15.0-0.3,87401,List2B,white,man,,,,null,,,,,,,,,
null,"<img src=""stim_listB/touch5.gif""style=""height:400px;""></stim_listB>",,html-keyboard-response,141,1107902,0.0-15.0-1.3,87401,List2B,white,man,,,,null,,,,,,,,,
null,is touching,,html-keyboard-response,142,1109910,0.0-15.0-2.3,87401,List2B,white,man,,,,null,,,,,,,,,
8035.2,,,survey-text,143,1117955,0.0-15.0-3.3,87401,List2B,white,man,,,,,"{""Q0"":""mike is touching dave""}","<img src=""stim_listB/touch5.gif""style=""height:400px;""></stim_listB>",is touching,,,,,,
null,"<div style=""font-size:60px;"">+</div>",,html-keyboard-response,144,1118471,0.0-15.0-0.4,87401,List2B,white,man,,,,null,,,,,,,,,
null,"<img src=""stim_listB/touch3.gif""style=""height:400px;""></stim_listB>",,html-keyboard-response,145,1120490,0.0-15.0-1.4,87401,List2B,white,man,,,,null,,,,,,,,,
null,is touching,,html-keyboard-response,146,1122500,0.0-15.0-2.4,87401,List2B,white,man,,,,null,,,,,,,,,
10290.8,,,survey-text,147,1132825,0.0-15.0-3.4,87401,List2B,white,man,,,,,"{""Q0"":""mike is touching kate""}","<img src=""stim_listB/touch3.gif""style=""height:400px;""></stim_listB>",is touching,,,,,,
null,"<div style=""font-size:60px;"">+</div>",,html-keyboard-response,148,1133336,0.0-15.0-0.5,87401,List2B,white,man,,,,null,,,,,,,,,
null,"<img src=""stim_listB/copy5.gif""style=""height:400px;""></stim_listB>",,html-keyboard-response,149,1135352,0.0-15.0-1.5,87401,List2B,white,man,,,,null,,,,,,,,,
null,is copying,,html-keyboard-response,150,1137360,0.0-15.0-2.5,87401,List2B,white,man,,,,null,,,,,,,,,
9397.6,,,survey-text,151,1146817,0.0-15.0-3.5,87401,List2B,white,man,,,,,"{""Q0"":""fred is copying dave""}","<img src=""stim_listB/copy5.gif""style=""height:400px;""></stim_listB>",is copying,,,,,,
null,"<div style=""font-size:60px;"">+</div>",,html-keyboard-response,152,1147332,0.0-15.0-0.6,87401,List2B,white,man,,,,null,,,,,,,,,
null,"<img src=""stim_listB/oppose2.gif""style=""height:400px;""></stim_listB>",,html-keyboard-response,153,1149347,0.0-15.0-1.6,87401,List2B,white,man,,,,null,,,,,,,,,
null,is being opposed by,,html-keyboard-response,154,1151353,0.0-15.0-2.6,87401,List2B,white,man,,,,null,,,,,,,,,
13137.3,,,survey-text,155,1164518,0.0-15.0-3.6,87401,List2B,white,man,,,,,"{""Q0"":""luke is being opposed by ruth""}","<img src=""stim_listB/oppose2.gif""style=""height:400px;""></stim_listB>",is being opposed by,,,,,,
null,"<div style=""font-size:60px;"">+</div>",,html-keyboard-response,156,1165025,0.0-15.0-0.7,87401,List2B,white,man,,,,null,,,,,,,,,
null,"<img src=""stim_listB/oppose1.gif""style=""height:400px;""></stim_listB>",,html-keyboard-response,157,1167031,0.0-15.0-1.7,87401,List2B,white,man,,,,null,,,,,,,,,
null,is opposing,,html-keyboard-response,158,1169035,0.0-15.0-2.7,87401,List2B,white,man,,,,null,,,,,,,,,
7925.1,,,survey-text,159,1176974,0.0-15.0-3.7,87401,List2B,white,man,,,,,"{""Q0"":""jane is opposing dave""}","<img src=""stim_listB/oppose1.gif""style=""height:400px;""></stim_listB>",is opposing,,,,,,
null,"<div style=""font-size:60px;"">+</div>",,html-keyboard-response,160,1177482,0.0-15.0-0.8,87401,List2B,white,man,,,,null,,,,,,,,,
null,"<img src=""stim_listB/hug6.gif""style=""height:400px;""></stim_listB>",,html-keyboard-response,161,1179496,0.0-15.0-1.8,87401,List2B,white,man,,,,null,,,,,,,,,
null,is being hugged by,,html-keyboard-response,162,1181499,0.0-15.0-2.8,87401,List2B,white,man,,,,null,,,,,,,,,
11165.2,,,survey-text,163,1192677,0.0-15.0-3.8,87401,List2B,white,man,,,,,"{""Q0"":""mike is being hugged by dave""}","<img src=""stim_listB/hug6.gif""style=""height:400px;""></stim_listB>",is being hugged by,,,,,,
null,"<div style=""font-size:60px;"">+</div>",,html-keyboard-response,164,1193182,0.0-15.0-0.9,87401,List2B,white,man,,,,null,,,,,,,,,
null,"<img src=""stim_listB/shout2.gif""style=""height:400px;""></stim_listB>",,html-keyboard-response,165,1195190,0.0-15.0-1.9,87401,List2B,white,man,,,,null,,,,,,,,,
null,is being shouted at by,,html-keyboard-response,166,1197197,0.0-15.0-2.9,87401,List2B,white,man,,,,null,,,,,,,,,
19887.9,,,survey-text,167,1217095,0.0-15.0-3.9,87401,List2B,white,man,,,,,"{""Q0"":""jane is being shouted at by dave""}","<img src=""stim_listB/shout2.gif""style=""height:400px;""></stim_listB>",is being shouted at by,,,,,,
null,"<div style=""font-size:60px;"">+</div>",,html-keyboard-response,168,1217602,0.0-15.0-0.10,87401,List2B,white,man,,,,null,,,,,,,,,
null,"<img src=""stim_listB/kiss7.gif""style=""height:400px;""></stim_listB>",,html-keyboard-response,169,1219620,0.0-15.0-1.10,87401,List2B,white,man,,,,null,,,,,,,,,
null,is kissing,,html-keyboard-response,170,1221624,0.0-15.0-2.10,87401,List2B,white,man,,,,null,,,,,,,,,
9432.5,,,survey-text,171,1231072,0.0-15.0-3.10,87401,List2B,white,man,,,,,"{""Q0"":""ruth is kissing beth""}","<img src=""stim_listB/kiss7.gif""style=""height:400px;""></stim_listB>",is kissing,,,,,,
null,"<div style=""font-size:60px;"">+</div>",,html-keyboard-response,172,1231597,0.0-15.0-0.11,87401,List2B,white,man,,,,null,,,,,,,,,
null,"<img src=""stim_listB/touch2.gif""style=""height:400px;""></stim_listB>",,html-keyboard-response,173,1233612,0.0-15.0-1.11,87401,List2B,white,man,,,,null,,,,,,,,,
null,is being touched by,,html-keyboard-response,174,1235616,0.0-15.0-2.11,87401,List2B,white,man,,,,null,,,,,,,,,
11470.9,,,survey-text,175,1247101,0.0-15.0-3.11,87401,List2B,white,man,,,,,"{""Q0"":""ruth is being touched by luke""}","<img src=""stim_listB/touch2.gif""style=""height:400px;""></stim_listB>",is being touched by,,,,,,
null,"<div style=""font-size:60px;"">+</div>",,html-keyboard-response,176,1247619,0.0-15.0-0.12,87401,List2B,white,man,,,,null,,,,,,,,,
null,"<img src=""stim_listB/challenge7.gif""style=""height:400px;""></stim_listB>",,html-keyboard-response,177,1249651,0.0-15.0-1.12,87401,List2B,white,man,,,,null,,,,,,,,,
null,is challenging,,html-keyboard-response,178,1251663,0.0-15.0-2.12,87401,List2B,white,man,,,,null,,,,,,,,,
11204.2,,,survey-text,179,1262884,0.0-15.0-3.12,87401,List2B,white,man,,,,,"{""Q0"":""beth is challenging jane""}","<img src=""stim_listB/challenge7.gif""style=""height:400px;""></stim_listB>",is challenging,,,,,,
null,"<div style=""font-size:60px;"">+</div>",,html-keyboard-response,180,1263395,0.0-15.0-0.13,87401,List2B,white,man,,,,null,,,,,,,,,
null,"<img src=""stim_listB/copy6.gif""style=""height:400px;""></stim_listB>",,html-keyboard-response,181,1265403,0.0-15.0-1.13,87401,List2B,white,man,,,,null,,,,,,,,,
null,is being copied by,,html-keyboard-response,182,1267410,0.0-15.0-2.13,87401,List2B,white,man,,,,null,,,,,,,,,
10360,,,survey-text,183,1277786,0.0-15.0-3.13,87401,List2B,white,man,,,,,"{""Q0"":""mike is being copied by luke""}","<img src=""stim_listB/copy6.gif""style=""height:400px;""></stim_listB>",is being copied by,,,,,,
null,"<div style=""font-size:60px;"">+</div>",,html-keyboard-response,184,1278300,0.0-15.0-0.14,87401,List2B,white,man,,,,null,,,,,,,,,
null,"<img src=""stim_listB/touch8.gif""style=""height:400px;""></stim_listB>",,html-keyboard-response,185,1280308,0.0-15.0-1.14,87401,List2B,white,man,,,,null,,,,,,,,,
null,is being touched by,,html-keyboard-response,186,1282324,0.0-15.0-2.14,87401,List2B,white,man,,,,null,,,,,,,,,
12833.4,,,survey-text,187,1295198,0.0-15.0-3.14,87401,List2B,white,man,,,,,"{""Q0"":""beth is being touched by ruth""}","<img src=""stim_listB/touch8.gif""style=""height:400px;""></stim_listB>",is being touched by,,,,,,
null,"<div style=""font-size:60px;"">+</div>",,html-keyboard-response,188,1295716,0.0-15.0-0.15,87401,List2B,white,man,,,,null,,,,,,,,,
null,"<img src=""stim_listB/shout7.gif""style=""height:400px;""></stim_listB>",,html-keyboard-response,189,1297735,0.0-15.0-1.15,87401,List2B,white,man,,,,null,,,,,,,,,
null,is shouting at,,html-keyboard-response,190,1299737,0.0-15.0-2.15,87401,List2B,white,man,,,,null,,,,,,,,,
8098.8,,,survey-text,191,1307847,0.0-15.0-3.15,87401,List2B,white,man,,,,,"{""Q0"":""beth is shouting at ruth""}","<img src=""stim_listB/shout7.gif""style=""height:400px;""></stim_listB>",is shouting at,,,,,,
null,"<div style=""font-size:60px;"">+</div>",,html-keyboard-response,192,1308356,0.0-15.0-0.16,87401,List2B,white,man,,,,null,,,,,,,,,
null,"<img src=""stim_listB/greet3.gif""style=""height:400px;""></stim_listB>",,html-keyboard-response,193,1310365,0.0-15.0-1.16,87401,List2B,white,man,,,,null,,,,,,,,,
null,is greeting,,html-keyboard-response,194,1312367,0.0-15.0-2.16,87401,List2B,white,man,,,,null,,,,,,,,,
8613.9,,,survey-text,195,1320991,0.0-15.0-3.16,87401,List2B,white,man,,,,,"{""Q0"":""mike is greeting beth""}","<img src=""stim_listB/greet3.gif""style=""height:400px;""></stim_listB>",is greeting,,,,,,
null,"<div style=""font-size:60px;"">+</div>",,html-keyboard-response,196,1321495,0.0-15.0-0.17,87401,List2B,white,man,,,,null,,,,,,,,,
null,"<img src=""stim_listB/hug3.gif""style=""height:400px;""></stim_listB>",,html-keyboard-response,197,1323510,0.0-15.0-1.17,87401,List2B,white,man,,,,null,,,,,,,,,
null,is hugging,,html-keyboard-response,198,1325514,0.0-15.0-2.17,87401,List2B,white,man,,,,null,,,,,,,,,
10071.9,,,survey-text,199,1335599,0.0-15.0-3.17,87401,List2B,white,man,,,,,"{""Q0"":""fred is hugging beth""}","<img src=""stim_listB/hug3.gif""style=""height:400px;""></stim_listB>",is hugging,,,,,,
null,"<div style=""font-size:60px;"">+</div>",,html-keyboard-response,200,1336111,0.0-15.0-0.18,87401,List2B,white,man,,,,null,,,,,,,,,
null,"<img src=""stim_listB/copy4.gif""style=""height:400px;""></stim_listB>",,html-keyboard-response,201,1338116,0.0-15.0-1.18,87401,List2B,white,man,,,,null,,,,,,,,,
null,is being copied by,,html-keyboard-response,202,1340122,0.0-15.0-2.18,87401,List2B,white,man,,,,null,,,,,,,,,
10426.7,,,survey-text,203,1350558,0.0-15.0-3.18,87401,List2B,white,man,,,,,"{""Q0"":""kate is being copied by fred""}","<img src=""stim_listB/copy4.gif""style=""height:400px;""></stim_listB>",is being copied by,,,,,,
null,"<div style=""font-size:60px;"">+</div>",,html-keyboard-response,204,1351071,0.0-15.0-0.19,87401,List2B,white,man,,,,null,,,,,,,,,
null,"<img src=""stim_listB/shout6.gif""style=""height:400px;""></stim_listB>",,html-keyboard-response,205,1353088,0.0-15.0-1.19,87401,List2B,white,man,,,,null,,,,,,,,,
null,is being shouted at by,,html-keyboard-response,206,1355091,0.0-15.0-2.19,87401,List2B,white,man,,,,null,,,,,,,,,
17469.4,,,survey-text,207,1372575,0.0-15.0-3.19,87401,List2B,white,man,,,,,"{""Q0"":""mike is being shouted at by dave""}","<img src=""stim_listB/shout6.gif""style=""height:400px;""></stim_listB>",is being shouted at by,,,,,,
990403.5,"<img src='img/portrait_matrix_list2.jpg' style='width:900px;height:500px;''></img><p>If you have memorised all the portraits and names and are ready to start, press Continue.</p><p><strong>Please note: Your memory of these faces will be tested 4 times during this experiment.</strong></p>",0,html-button-response,208,2362986,0.0-16.0-0.0,87401,List2B,white,man,,,,,,,,,,,,,
1778.9,"<img src=""portrait/WW2.jpg""style=""height:400px;""></img>",3,html-button-response,209,2365774,0.0-16.0-1.0,87401,List2B,white,man,,TRUE,3,,,,,,,,,,
null,CORRECT,,html-keyboard-response,210,2367288,0.0-16.0-2.0-0.0,87401,List2B,white,man,,,,null,,,,,,,,,
2741.6,"<img src=""portrait/WM1.jpg""style=""height:400px;""></img>",6,html-button-response,211,2370035,0.0-16.0-4.0,87401,List2B,white,man,,TRUE,6,,,,,,,,,,
null,CORRECT,,html-keyboard-response,212,2371557,0.0-16.0-5.0-0.0,87401,List2B,white,man,,,,null,,,,,,,,,
1756.1,"<img src=""portrait/BM2.jpg""style=""height:400px;""></img>",5,html-button-response,213,2373319,0.0-16.0-7.0,87401,List2B,white,man,,TRUE,5,,,,,,,,,,
null,CORRECT,,html-keyboard-response,214,2374847,0.0-16.0-8.0-0.0,87401,List2B,white,man,,,,null,,,,,,,,,
1867.1,"<img src=""portrait/WM2.jpg""style=""height:400px;""></img>",7,html-button-response,215,2376719,0.0-16.0-10.0,87401,List2B,white,man,,TRUE,7,,,,,,,,,,
null,CORRECT,,html-keyboard-response,216,2378234,0.0-16.0-11.0-0.0,87401,List2B,white,man,,,,null,,,,,,,,,
1667.4,"<img src=""portrait/BW2.jpg""style=""height:400px;""></img>",2,html-button-response,217,2379907,0.0-16.0-13.0,87401,List2B,white,man,,TRUE,2,,,,,,,,,,
null,CORRECT,,html-keyboard-response,218,2381433,0.0-16.0-14.0-0.0,87401,List2B,white,man,,,,null,,,,,,,,,
2295.6,"<img src=""portrait/BW1.jpg""style=""height:400px;""></img>",0,html-button-response,219,2383735,0.0-16.0-16.0,87401,List2B,white,man,,TRUE,0,,,,,,,,,,
null,CORRECT,,html-keyboard-response,220,2385248,0.0-16.0-17.0-0.0,87401,List2B,white,man,,,,null,,,,,,,,,
2197.8,"<img src=""portrait/BM1.jpg""style=""height:400px;""></img>",4,html-button-response,221,2387450,0.0-16.0-19.0,87401,List2B,white,man,,TRUE,4,,,,,,,,,,
null,CORRECT,,html-keyboard-response,222,2388966,0.0-16.0-20.0-0.0,87401,List2B,white,man,,,,null,,,,,,,,,
2432.1,"<img src=""portrait/WW1.jpg""style=""height:400px;""></img>",1,html-button-response,223,2391403,0.0-16.0-22.0,87401,List2B,white,man,,TRUE,1,,,,,,,,,,
null,CORRECT,,html-keyboard-response,224,2392911,0.0-16.0-23.0-0.0,87401,List2B,white,man,,,,null,,,,,,,,,
5861.1,<p>You got 8 out of 8 right first time. Press Continue.</p>,0,html-button-response,225,2398777,0.0-16.0-25.0,87401,List2B,white,man,,,,,,,,,,,,,
null,"<div style=""font-size:60px;"">+</div>",,html-keyboard-response,226,2400301,0.0-17.0-0.0,87401,List2B,white,man,,,,null,,,,,,,,,
null,"<img src=""stim_listB/greet1.gif""style=""height:400px;""></stim_listB>",,html-keyboard-response,227,2402315,0.0-17.0-1.0,87401,List2B,white,man,,,,null,,,,,,,,,
null,is greeting,,html-keyboard-response,228,2404323,0.0-17.0-2.0,87401,List2B,white,man,,,,null,,,,,,,,,
9333,,,survey-text,229,2413667,0.0-17.0-3.0,87401,List2B,white,man,,,,,"{""Q0"":""dave is greeting ruth""}","<img src=""stim_listB/greet1.gif""style=""height:400px;""></stim_listB>",is greeting,,,,,,
null,"<div style=""font-size:60px;"">+</div>",,html-keyboard-response,230,2414192,0.0-17.0-0.1,87401,List2B,white,man,,,,null,,,,,,,,,
null,"<img src=""stim_listB/seduce8.gif""style=""height:400px;""></stim_listB>",,html-keyboard-response,231,2416210,0.0-17.0-1.1,87401,List2B,white,man,,,,null,,,,,,,,,
null,is being seduced by,,html-keyboard-response,232,2418213,0.0-17.0-2.1,87401,List2B,white,man,,,,null,,,,,,,,,
13239.8,,,survey-text,233,2431464,0.0-17.0-3.1,87401,List2B,white,man,,,,,"{""Q0"":""jane is being seduced by beth""}","<img src=""stim_listB/seduce8.gif""style=""height:400px;""></stim_listB>",is being seduced by,,,,,,
null,"<div style=""font-size:60px;"">+</div>",,html-keyboard-response,234,2431992,0.0-17.0-0.2,87401,List2B,white,man,,,,null,,,,,,,,,
null,"<img src=""stim_listB/seduce2.gif""style=""height:400px;""></stim_listB>",,html-keyboard-response,235,2434007,0.0-17.0-1.2,87401,List2B,white,man,,,,null,,,,,,,,,
null,is being seduced by,,html-keyboard-response,236,2436017,0.0-17.0-2.2,87401,List2B,white,man,,,,null,,,,,,,,,
10266.5,,,survey-text,237,2446293,0.0-17.0-3.2,87401,List2B,white,man,,,,,"{""Q0"":""ruth is being seduced by dave""}","<img src=""stim_listB/seduce2.gif""style=""height:400px;""></stim_listB>",is being seduced by,,,,,,
null,"<div style=""font-size:60px;"">+</div>",,html-keyboard-response,238,2446800,0.0-17.0-0.3,87401,List2B,white,man,,,,null,,,,,,,,,
null,"<img src=""stim_listB/look8.gif""style=""height:400px;""></stim_listB>",,html-keyboard-response,239,2448817,0.0-17.0-1.3,87401,List2B,white,man,,,,null,,,,,,,,,
null,is being looked at by,,html-keyboard-response,240,2450822,0.0-17.0-2.3,87401,List2B,white,man,,,,null,,,,,,,,,
15354.8,,,survey-text,241,2466187,0.0-17.0-3.3,87401,List2B,white,man,,,,,"{""Q0"":""jane is being looked at by kate""}","<img src=""stim_listB/look8.gif""style=""height:400px;""></stim_listB>",is being looked at by,,,,,,
null,"<div style=""font-size:60px;"">+</div>",,html-keyboard-response,242,2466695,0.0-17.0-0.4,87401,List2B,white,man,,,,null,,,,,,,,,
null,"<img src=""stim_listB/look1.gif""style=""height:400px;""></stim_listB>",,html-keyboard-response,243,2468703,0.0-17.0-1.4,87401,List2B,white,man,,,,null,,,,,,,,,
null,is looking at,,html-keyboard-response,244,2470716,0.0-17.0-2.4,87401,List2B,white,man,,,,null,,,,,,,,,
10222.7,,,survey-text,245,2480949,0.0-17.0-3.4,87401,List2B,white,man,,,,,"{""Q0"":""ruth is looking at luke""}","<img src=""stim_listB/look1.gif""style=""height:400px;""></stim_listB>",is looking at,,,,,,
null,"<div style=""font-size:60px;"">+</div>",,html-keyboard-response,246,2481468,0.0-17.0-0.5,87401,List2B,white,man,,,,null,,,,,,,,,
null,"<img src=""stim_listB/touch6.gif""style=""height:400px;""></stim_listB>",,html-keyboard-response,247,2483479,0.0-17.0-1.5,87401,List2B,white,man,,,,null,,,,,,,,,
null,is being touched by,,html-keyboard-response,248,2485485,0.0-17.0-2.5,87401,List2B,white,man,,,,null,,,,,,,,,
13259.4,,,survey-text,249,2498813,0.0-17.0-3.5,87401,List2B,white,man,,,,,"{""Q0"":""luke is being touched by fred""}","<img src=""stim_listB/touch6.gif""style=""height:400px;""></stim_listB>",is being touched by,,,,,,
null,"<div style=""font-size:60px;"">+</div>",,html-keyboard-response,250,2499319,0.0-17.0-0.6,87401,List2B,white,man,,,,null,,,,,,,,,
null,"<img src=""stim_listB/shout1.gif""style=""height:400px;""></stim_listB>",,html-keyboard-response,251,2501338,0.0-17.0-1.6,87401,List2B,white,man,,,,null,,,,,,,,,
null,is shouting at,,html-keyboard-response,252,2503344,0.0-17.0-2.6,87401,List2B,white,man,,,,null,,,,,,,,,
10067.8,,,survey-text,253,2513439,0.0-17.0-3.6,87401,List2B,white,man,,,,,"{""Q0"":""ruth is shouting at luke""}","<img src=""stim_listB/shout1.gif""style=""height:400px;""></stim_listB>",is shouting at,,,,,,
null,"<div style=""font-size:60px;"">+</div>",,html-keyboard-response,254,2513945,0.0-17.0-0.7,87401,List2B,white,man,,,,null,,,,,,,,,
null,"<img src=""stim_listB/copy8.gif""style=""height:400px;""></stim_listB>",,html-keyboard-response,255,2515985,0.0-17.0-1.7,87401,List2B,white,man,,,,null,,,,,,,,,
null,is being copied by,,html-keyboard-response,256,2518005,0.0-17.0-2.7,87401,List2B,white,man,,,,null,,,,,,,,,
11283.9,,,survey-text,257,2529355,0.0-17.0-3.7,87401,List2B,white,man,,,,,"{""Q0"":""kate is being copied by ruth""}","<img src=""stim_listB/copy8.gif""style=""height:400px;""></stim_listB>",is being copied by,,,,,,
null,"<div style=""font-size:60px;"">+</div>",,html-keyboard-response,258,2529876,0.0-17.0-0.8,87401,List2B,white,man,,,,null,,,,,,,,,
null,"<img src=""stim_listB/hug7.gif""style=""height:400px;""></stim_listB>",,html-keyboard-response,259,2531885,0.0-17.0-1.8,87401,List2B,white,man,,,,null,,,,,,,,,
null,is hugging,,html-keyboard-response,260,2533899,0.0-17.0-2.8,87401,List2B,white,man,,,,null,,,,,,,,,
7434.2,,,survey-text,261,2541342,0.0-17.0-3.8,87401,List2B,white,man,,,,,"{""Q0"":""beth is hugging ruth""}","<img src=""stim_listB/hug7.gif""style=""height:400px;""></stim_listB>",is hugging,,,,,,
null,"<div style=""font-size:60px;"">+</div>",,html-keyboard-response,262,2541847,0.0-17.0-0.9,87401,List2B,white,man,,,,null,,,,,,,,,
null,"<img src=""stim_listB/shout5.gif""style=""height:400px;""></stim_listB>",,html-keyboard-response,263,2543851,0.0-17.0-1.9,87401,List2B,white,man,,,,null,,,,,,,,,
null,is shouting at,,html-keyboard-response,264,2545867,0.0-17.0-2.9,87401,List2B,white,man,,,,null,,,,,,,,,
7398.8,,,survey-text,265,2553278,0.0-17.0-3.9,87401,List2B,white,man,,,,,"{""Q0"":""fred is shouting at luke""}","<img src=""stim_listB/shout5.gif""style=""height:400px;""></stim_listB>",is shouting at,,,,,,
null,"<div style=""font-size:60px;"">+</div>",,html-keyboard-response,266,2553795,0.0-17.0-0.10,87401,List2B,white,man,,,,null,,,,,,,,,
null,"<img src=""stim_listB/challenge3.gif""style=""height:400px;""></stim_listB>",,html-keyboard-response,267,2555817,0.0-17.0-1.10,87401,List2B,white,man,,,,null,,,,,,,,,
null,is challenging,,html-keyboard-response,268,2557822,0.0-17.0-2.10,87401,List2B,white,man,,,,null,,,,,,,,,
10337.5,,,survey-text,269,2568174,0.0-17.0-3.10,87401,List2B,white,man,,,,,"{""Q0"":""beth is challenging mike""}","<img src=""stim_listB/challenge3.gif""style=""height:400px;""></stim_listB>",is challenging,,,,,,
null,"<div style=""font-size:60px;"">+</div>",,html-keyboard-response,270,2568690,0.0-17.0-0.11,87401,List2B,white,man,,,,null,,,,,,,,,
null,"<img src=""stim_listB/oppose8.gif""style=""height:400px;""></stim_listB>",,html-keyboard-response,271,2570706,0.0-17.0-1.11,87401,List2B,white,man,,,,null,,,,,,,,,
null,is being opposed by,,html-keyboard-response,272,2572715,0.0-17.0-2.11,87401,List2B,white,man,,,,null,,,,,,,,,
10521.9,,,survey-text,273,2583246,0.0-17.0-3.11,87401,List2B,white,man,,,,,"{""Q0"":""beth is being opposed by ruth""}","<img src=""stim_listB/oppose8.gif""style=""height:400px;""></stim_listB>",is being opposed by,,,,,,
null,"<div style=""font-size:60px;"">+</div>",,html-keyboard-response,274,2583764,0.0-17.0-0.12,87401,List2B,white,man,,,,null,,,,,,,,,
null,"<img src=""stim_listB/greet2.gif""style=""height:400px;""></stim_listB>",,html-keyboard-response,275,2585782,0.0-17.0-1.12,87401,List2B,white,man,,,,null,,,,,,,,,
null,is being greeted by,,html-keyboard-response,276,2587785,0.0-17.0-2.12,87401,List2B,white,man,,,,null,,,,,,,,,
11785.2,,,survey-text,277,2599583,0.0-17.0-3.12,87401,List2B,white,man,,,,,"{""Q0"":""luke is being greeted by jane""}","<img src=""stim_listB/greet2.gif""style=""height:400px;""></stim_listB>",is being greeted by,,,,,,
null,"<div style=""font-size:60px;"">+</div>",,html-keyboard-response,278,2600088,0.0-17.0-0.13,87401,List2B,white,man,,,,null,,,,,,,,,
null,"<img src=""stim_listB/oppose7.gif""style=""height:400px;""></stim_listB>",,html-keyboard-response,279,2602100,0.0-17.0-1.13,87401,List2B,white,man,,,,null,,,,,,,,,
null,is opposing,,html-keyboard-response,280,2604141,0.0-17.0-2.13,87401,List2B,white,man,,,,null,,,,,,,,,
8389.9,,,survey-text,281,2612545,0.0-17.0-3.13,87401,List2B,white,man,,,,,"{""Q0"":""kate is opposing jane""}","<img src=""stim_listB/oppose7.gif""style=""height:400px;""></stim_listB>",is opposing,,,,,,
null,"<div style=""font-size:60px;"">+</div>",,html-keyboard-response,282,2613055,0.0-17.0-0.14,87401,List2B,white,man,,,,null,,,,,,,,,
null,"<img src=""stim_listB/greet6.gif""style=""height:400px;""></stim_listB>",,html-keyboard-response,283,2615070,0.0-17.0-1.14,87401,List2B,white,man,,,,null,,,,,,,,,
null,is being greeted by,,html-keyboard-response,284,2617084,0.0-17.0-2.14,87401,List2B,white,man,,,,null,,,,,,,,,
8048.9,,,survey-text,285,2625146,0.0-17.0-3.14,87401,List2B,white,man,,,,,"{""Q0"":""luke is being greeted by mike""}","<img src=""stim_listB/greet6.gif""style=""height:400px;""></stim_listB>",is being greeted by,,,,,,
null,"<div style=""font-size:60px;"">+</div>",,html-keyboard-response,286,2625662,0.0-17.0-0.15,87401,List2B,white,man,,,,null,,,,,,,,,
null,"<img src=""stim_listB/greet5.gif""style=""height:400px;""></stim_listB>",,html-keyboard-response,287,2627678,0.0-17.0-1.15,87401,List2B,white,man,,,,null,,,,,,,,,
null,is greeting,,html-keyboard-response,288,2629695,0.0-17.0-2.15,87401,List2B,white,man,,,,null,,,,,,,,,
10735.4,,,survey-text,289,2640442,0.0-17.0-3.15,87401,List2B,white,man,,,,,"{""Q0"":""fred is greeting dave""}","<img src=""stim_listB/greet5.gif""style=""height:400px;""></stim_listB>",is greeting,,,,,,
null,"<div style=""font-size:60px;"">+</div>",,html-keyboard-response,290,2640947,0.0-17.0-0.16,87401,List2B,white,man,,,,null,,,,,,,,,
null,"<img src=""stim_listB/challenge2.gif""style=""height:400px;""></stim_listB>",,html-keyboard-response,291,2642967,0.0-17.0-1.16,87401,List2B,white,man,,,,null,,,,,,,,,
null,is being challenged by,,html-keyboard-response,292,2644979,0.0-17.0-2.16,87401,List2B,white,man,,,,null,,,,,,,,,
10348.6,,,survey-text,293,2655337,0.0-17.0-3.16,87401,List2B,white,man,,,,,"{""Q0"":""luke is being challenged by jane""}","<img src=""stim_listB/challenge2.gif""style=""height:400px;""></stim_listB>",is being challenged by,,,,,,
null,"<div style=""font-size:60px;"">+</div>",,html-keyboard-response,294,2655844,0.0-17.0-0.17,87401,List2B,white,man,,,,null,,,,,,,,,
null,"<img src=""stim_listB/oppose6.gif""style=""height:400px;""></stim_listB>",,html-keyboard-response,295,2657854,0.0-17.0-1.17,87401,List2B,white,man,,,,null,,,,,,,,,
null,is being opposed by,,html-keyboard-response,296,2659868,0.0-17.0-2.17,87401,List2B,white,man,,,,null,,,,,,,,,
9932.9,,,survey-text,297,2669808,0.0-17.0-3.17,87401,List2B,white,man,,,,,"{""Q0"":""luke is being opposed by fred""}","<img src=""stim_listB/oppose6.gif""style=""height:400px;""></stim_listB>",is being opposed by,,,,,,
null,"<div style=""font-size:60px;"">+</div>",,html-keyboard-response,298,2670326,0.0-17.0-0.18,87401,List2B,white,man,,,,null,,,,,,,,,
null,"<img src=""stim_listB/copy1.gif""style=""height:400px;""></stim_listB>",,html-keyboard-response,299,2672335,0.0-17.0-1.18,87401,List2B,white,man,,,,null,,,,,,,,,
null,is copying,,html-keyboard-response,300,2674343,0.0-17.0-2.18,87401,List2B,white,man,,,,null,,,,,,,,,
10216.2,,,survey-text,301,2684574,0.0-17.0-3.18,87401,List2B,white,man,,,,,"{""Q0"":""ruth is copying dave""}","<img src=""stim_listB/copy1.gif""style=""height:400px;""></stim_listB>",is copying,,,,,,
null,"<div style=""font-size:60px;"">+</div>",,html-keyboard-response,302,2685099,0.0-17.0-0.19,87401,List2B,white,man,,,,null,,,,,,,,,
null,"<img src=""stim_listB/kiss5.gif""style=""height:400px;""></stim_listB>",,html-keyboard-response,303,2687108,0.0-17.0-1.19,87401,List2B,white,man,,,,null,,,,,,,,,
null,is kissing,,html-keyboard-response,304,2689115,0.0-17.0-2.19,87401,List2B,white,man,,,,null,,,,,,,,,
8625.6,,,survey-text,305,2697761,0.0-17.0-3.19,87401,List2B,white,man,,,,,"{""Q0"":""fred is kissing luke""}","<img src=""stim_listB/kiss5.gif""style=""height:400px;""></stim_listB>",is kissing,,,,,,
2189,"<img src='img/portrait_matrix_list2.jpg' style='width:900px;height:500px;''></img><p>If you have memorised all the portraits and names and are ready to start, press Continue.</p><p><strong>Please note: Your memory of these faces will be tested 4 times during this experiment.</strong></p>",0,html-button-response,306,2699960,0.0-18.0-0.0,87401,List2B,white,man,,,,,,,,,,,,,
1935.4,"<img src=""portrait/BM2.jpg""style=""height:400px;""></img>",5,html-button-response,307,2702904,0.0-18.0-1.0,87401,List2B,white,man,,TRUE,5,,,,,,,,,,
null,CORRECT,,html-keyboard-response,308,2704410,0.0-18.0-2.0-0.0,87401,List2B,white,man,,,,null,,,,,,,,,
3000.9,"<img src=""portrait/BW1.jpg""style=""height:400px;""></img>",0,html-button-response,309,2707419,0.0-18.0-4.0,87401,List2B,white,man,,TRUE,0,,,,,,,,,,
null,CORRECT,,html-keyboard-response,310,2708941,0.0-18.0-5.0-0.0,87401,List2B,white,man,,,,null,,,,,,,,,
2037.1,"<img src=""portrait/BW2.jpg""style=""height:400px;""></img>",2,html-button-response,311,2710987,0.0-18.0-7.0,87401,List2B,white,man,,TRUE,2,,,,,,,,,,
null,CORRECT,,html-keyboard-response,312,2712508,0.0-18.0-8.0-0.0,87401,List2B,white,man,,,,null,,,,,,,,,
2800,"<img src=""portrait/WM1.jpg""style=""height:400px;""></img>",6,html-button-response,313,2715316,0.0-18.0-10.0,87401,List2B,white,man,,TRUE,6,,,,,,,,,,
null,CORRECT,,html-keyboard-response,314,2716841,0.0-18.0-11.0-0.0,87401,List2B,white,man,,,,null,,,,,,,,,
2354.7,"<img src=""portrait/WW1.jpg""style=""height:400px;""></img>",1,html-button-response,315,2719202,0.0-18.0-13.0,87401,List2B,white,man,,TRUE,1,,,,,,,,,,
null,CORRECT,,html-keyboard-response,316,2720724,0.0-18.0-14.0-0.0,87401,List2B,white,man,,,,null,,,,,,,,,
1783.2,"<img src=""portrait/WW2.jpg""style=""height:400px;""></img>",3,html-button-response,317,2722513,0.0-18.0-16.0,87401,List2B,white,man,,TRUE,3,,,,,,,,,,
null,CORRECT,,html-keyboard-response,318,2724039,0.0-18.0-17.0-0.0,87401,List2B,white,man,,,,null,,,,,,,,,
1851.3,"<img src=""portrait/BM1.jpg""style=""height:400px;""></img>",4,html-button-response,319,2725897,0.0-18.0-19.0,87401,List2B,white,man,,TRUE,4,,,,,,,,,,
null,CORRECT,,html-keyboard-response,320,2727422,0.0-18.0-20.0-0.0,87401,List2B,white,man,,,,null,,,,,,,,,
1672.4,"<img src=""portrait/WM2.jpg""style=""height:400px;""></img>",7,html-button-response,321,2729106,0.0-18.0-22.0,87401,List2B,white,man,,TRUE,7,,,,,,,,,,
null,CORRECT,,html-keyboard-response,322,2730621,0.0-18.0-23.0-0.0,87401,List2B,white,man,,,,null,,,,,,,,,
1781.7,<p>You got 8 out of 8 right first time. Press Continue.</p>,0,html-button-response,323,2732409,0.0-18.0-25.0,87401,List2B,white,man,,,,,,,,,,,,,
null,"<div style=""font-size:60px;"">+</div>",,html-keyboard-response,324,2733936,0.0-19.0-0.0,87401,List2B,white,man,,,,null,,,,,,,,,
null,"<img src=""stim_listB/challenge6.gif""style=""height:400px;""></stim_listB>",,html-keyboard-response,325,2735943,0.0-19.0-1.0,87401,List2B,white,man,,,,null,,,,,,,,,
null,is being challenged by,,html-keyboard-response,326,2737946,0.0-19.0-2.0,87401,List2B,white,man,,,,null,,,,,,,,,
12911.8,,,survey-text,327,2750872,0.0-19.0-3.0,87401,List2B,white,man,,,,,"{""Q0"":""mike is challenging luke""}","<img src=""stim_listB/challenge6.gif""style=""height:400px;""></stim_listB>",is being challenged by,,,,,,
null,"<div style=""font-size:60px;"">+</div>",,html-keyboard-response,328,2751389,0.0-19.0-0.1,87401,List2B,white,man,,,,null,,,,,,,,,
null,"<img src=""stim_listB/seduce6.gif""style=""height:400px;""></stim_listB>",,html-keyboard-response,329,2753397,0.0-19.0-1.1,87401,List2B,white,man,,,,null,,,,,,,,,
null,is being seduced by,,html-keyboard-response,330,2755412,0.0-19.0-2.1,87401,List2B,white,man,,,,null,,,,,,,,,
9416.8,,,survey-text,331,2764854,0.0-19.0-3.1,87401,List2B,white,man,,,,,"{""Q0"":""dave is being seduced by fred""}","<img src=""stim_listB/seduce6.gif""style=""height:400px;""></stim_listB>",is being seduced by,,,,,,
null,"<div style=""font-size:60px;"">+</div>",,html-keyboard-response,332,2765380,0.0-19.0-0.2,87401,List2B,white,man,,,,null,,,,,,,,,
null,"<img src=""stim_listB/hug8.gif""style=""height:400px;""></stim_listB>",,html-keyboard-response,333,2767395,0.0-19.0-1.2,87401,List2B,white,man,,,,null,,,,,,,,,
null,is being hugged by,,html-keyboard-response,334,2769411,0.0-19.0-2.2,87401,List2B,white,man,,,,null,,,,,,,,,
8834.2,,,survey-text,335,2778255,0.0-19.0-3.2,87401,List2B,white,man,,,,,"{""Q0"":""jane is being hugged by kate""}","<img src=""stim_listB/hug8.gif""style=""height:400px;""></stim_listB>",is being hugged by,,,,,,
null,"<div style=""font-size:60px;"">+</div>",,html-keyboard-response,336,2778763,0.0-19.0-0.3,87401,List2B,white,man,,,,null,,,,,,,,,
null,"<img src=""stim_listB/seduce3.gif""style=""height:400px;""></stim_listB>",,html-keyboard-response,337,2780777,0.0-19.0-1.3,87401,List2B,white,man,,,,null,,,,,,,,,
null,is seducing,,html-keyboard-response,338,2782789,0.0-19.0-2.3,87401,List2B,white,man,,,,null,,,,,,,,,
7393.4,,,survey-text,339,2790192,0.0-19.0-3.3,87401,List2B,white,man,,,,,"{""Q0"":""kate is seducing fred""}","<img src=""stim_listB/seduce3.gif""style=""height:400px;""></stim_listB>",is seducing,,,,,,
null,"<div style=""font-size:60px;"">+</div>",,html-keyboard-response,340,2790708,0.0-19.0-0.4,87401,List2B,white,man,,,,null,,,,,,,,,
null,"<img src=""stim_listB/oppose5.gif""style=""height:400px;""></stim_listB>",,html-keyboard-response,341,2792727,0.0-19.0-1.4,87401,List2B,white,man,,,,null,,,,,,,,,
null,is opposing,,html-keyboard-response,342,2794742,0.0-19.0-2.4,87401,List2B,white,man,,,,null,,,,,,,,,
5825.4,,,survey-text,343,2800581,0.0-19.0-3.4,87401,List2B,white,man,,,,,"{""Q0"":""dave is opposing mike""}","<img src=""stim_listB/oppose5.gif""style=""height:400px;""></stim_listB>",is opposing,,,,,,
null,"<div style=""font-size:60px;"">+</div>",,html-keyboard-response,344,2801105,0.0-19.0-0.5,87401,List2B,white,man,,,,null,,,,,,,,,
null,"<img src=""stim_listB/kiss8.gif""style=""height:400px;""></stim_listB>",,html-keyboard-response,345,2803121,0.0-19.0-1.5,87401,List2B,white,man,,,,null,,,,,,,,,
null,is being kissed by,,html-keyboard-response,346,2805136,0.0-19.0-2.5,87401,List2B,white,man,,,,null,,,,,,,,,
7354.4,,,survey-text,347,2812551,0.0-19.0-3.5,87401,List2B,white,man,,,,,"{""Q0"":""kate is being kissed by jane""}","<img src=""stim_listB/kiss8.gif""style=""height:400px;""></stim_listB>",is being kissed by,,,,,,
null,"<div style=""font-size:60px;"">+</div>",,html-keyboard-response,348,2813069,0.0-19.0-0.6,87401,List2B,white,man,,,,null,,,,,,,,,
null,"<img src=""stim_listB/copy7.gif""style=""height:400px;""></stim_listB>",,html-keyboard-response,349,2815085,0.0-19.0-1.6,87401,List2B,white,man,,,,null,,,,,,,,,
null,is copying,,html-keyboard-response,350,2817101,0.0-19.0-2.6,87401,List2B,white,man,,,,null,,,,,,,,,
9514,,,survey-text,351,2826625,0.0-19.0-3.6,87401,List2B,white,man,,,,,"{""Q0"":""beth is copying jane""}","<img src=""stim_listB/copy7.gif""style=""height:400px;""></stim_listB>",is copying,,,,,,
null,"<div style=""font-size:60px;"">+</div>",,html-keyboard-response,352,2827147,0.0-19.0-0.7,87401,List2B,white,man,,,,null,,,,,,,,,
null,"<img src=""stim_listB/seduce5.gif""style=""height:400px;""></stim_listB>",,html-keyboard-response,353,2829165,0.0-19.0-1.7,87401,List2B,white,man,,,,null,,,,,,,,,
null,is seducing,,html-keyboard-response,354,2831170,0.0-19.0-2.7,87401,List2B,white,man,,,,null,,,,,,,,,
11765.3,,,survey-text,355,2842971,0.0-19.0-3.7,87401,List2B,white,man,,,,,"{""Q0"":""mike is seducing luke""}","<img src=""stim_listB/seduce5.gif""style=""height:400px;""></stim_listB>",is seducing,,,,,,
null,"<div style=""font-size:60px;"">+</div>",,html-keyboard-response,356,2843491,0.0-19.0-0.8,87401,List2B,white,man,,,,null,,,,,,,,,
null,"<img src=""stim_listB/challenge1.gif""style=""height:400px;""></stim_listB>",,html-keyboard-response,357,2845495,0.0-19.0-1.8,87401,List2B,white,man,,,,null,,,,,,,,,
null,is challenging,,html-keyboard-response,358,2847506,0.0-19.0-2.8,87401,List2B,white,man,,,,null,,,,,,,,,
9230.1,,,survey-text,359,2856746,0.0-19.0-3.8,87401,List2B,white,man,,,,,"{""Q0"":""ruth is challenging dave""}","<img src=""stim_listB/challenge1.gif""style=""height:400px;""></stim_listB>",is challenging,,,,,,
null,"<div style=""font-size:60px;"">+</div>",,html-keyboard-response,360,2857261,0.0-19.0-0.9,87401,List2B,white,man,,,,null,,,,,,,,,
null,"<img src=""stim_listB/touch4.gif""style=""height:400px;""></stim_listB>",,html-keyboard-response,361,2859276,0.0-19.0-1.9,87401,List2B,white,man,,,,null,,,,,,,,,
null,is being touched by,,html-keyboard-response,362,2861295,0.0-19.0-2.9,87401,List2B,white,man,,,,null,,,,,,,,,
10215.6,,,survey-text,363,2871521,0.0-19.0-3.9,87401,List2B,white,man,,,,,"{""Q0"":""beth is being touched by fred""}","<img src=""stim_listB/touch4.gif""style=""height:400px;""></stim_listB>",is being touched by,,,,,,
null,"<div style=""font-size:60px;"">+</div>",,html-keyboard-response,364,2872037,0.0-19.0-0.10,87401,List2B,white,man,,,,null,,,,,,,,,
null,"<img src=""stim_listB/look3.gif""style=""height:400px;""></stim_listB>",,html-keyboard-response,365,2874055,0.0-19.0-1.10,87401,List2B,white,man,,,,null,,,,,,,,,
null,is looking at,,html-keyboard-response,366,2876071,0.0-19.0-2.10,87401,List2B,white,man,,,,null,,,,,,,,,
7986.7,,,survey-text,367,2884071,0.0-19.0-3.10,87401,List2B,white,man,,,,,"{""Q0"":""fred is looking at beth""}","<img src=""stim_listB/look3.gif""style=""height:400px;""></stim_listB>",is looking at,,,,,,
null,"<div style=""font-size:60px;"">+</div>",,html-keyboard-response,368,2884604,0.0-19.0-0.11,87401,List2B,white,man,,,,null,,,,,,,,,
null,"<img src=""stim_listB/kiss1.gif""style=""height:400px;""></stim_listB>",,html-keyboard-response,369,2886618,0.0-19.0-1.11,87401,List2B,white,man,,,,null,,,,,,,,,
null,is kissing,,html-keyboard-response,370,2888634,0.0-19.0-2.11,87401,List2B,white,man,,,,null,,,,,,,,,
10168.1,,,survey-text,371,2898812,0.0-19.0-3.11,87401,List2B,white,man,,,,,"{""Q0"":""ruth is kissing luke""}","<img src=""stim_listB/kiss1.gif""style=""height:400px;""></stim_listB>",is kissing,,,,,,
null,"<div style=""font-size:60px;"">+</div>",,html-keyboard-response,372,2899322,0.0-19.0-0.12,87401,List2B,white,man,,,,null,,,,,,,,,
null,"<img src=""stim_listB/greet7.gif""style=""height:400px;""></stim_listB>",,html-keyboard-response,373,2901334,0.0-19.0-1.12,87401,List2B,white,man,,,,null,,,,,,,,,
null,is greeting,,html-keyboard-response,374,2903350,0.0-19.0-2.12,87401,List2B,white,man,,,,null,,,,,,,,,
10201.5,,,survey-text,375,2913567,0.0-19.0-3.12,87401,List2B,white,man,,,,,"{""Q0"":""jane is greeting beth""}","<img src=""stim_listB/greet7.gif""style=""height:400px;""></stim_listB>",is greeting,,,,,,
null,"<div style=""font-size:60px;"">+</div>",,html-keyboard-response,376,2914079,0.0-19.0-0.13,87401,List2B,white,man,,,,null,,,,,,,,,
null,"<img src=""stim_listB/seduce1.gif""style=""height:400px;""></stim_listB>",,html-keyboard-response,377,2916087,0.0-19.0-1.13,87401,List2B,white,man,,,,null,,,,,,,,,
null,is seducing,,html-keyboard-response,378,2918097,0.0-19.0-2.13,87401,List2B,white,man,,,,null,,,,,,,,,
9582.6,,,survey-text,379,2927690,0.0-19.0-3.13,87401,List2B,white,man,,,,,"{""Q0"":""jane is seducing luke""}","<img src=""stim_listB/seduce1.gif""style=""height:400px;""></stim_listB>",is seducing,,,,,,
null,"<div style=""font-size:60px;"">+</div>",,html-keyboard-response,380,2928207,0.0-19.0-0.14,87401,List2B,white,man,,,,null,,,,,,,,,
null,"<img src=""stim_listB/look7.gif""style=""height:400px;""></stim_listB>",,html-keyboard-response,381,2930226,0.0-19.0-1.14,87401,List2B,white,man,,,,null,,,,,,,,,
null,is looking at,,html-keyboard-response,382,2932243,0.0-19.0-2.14,87401,List2B,white,man,,,,null,,,,,,,,,
6865,,,survey-text,383,2939163,0.0-19.0-3.14,87401,List2B,white,man,,,,,"{""Q0"":""beth is looking at ruth""}","<img src=""stim_listB/look7.gif""style=""height:400px;""></stim_listB>",is looking at,,,,,,
null,"<div style=""font-size:60px;"">+</div>",,html-keyboard-response,384,2939674,0.0-19.0-0.15,87401,List2B,white,man,,,,null,,,,,,,,,
null,"<img src=""stim_listB/hug5.gif""style=""height:400px;""></stim_listB>",,html-keyboard-response,385,2941690,0.0-19.0-1.15,87401,List2B,white,man,,,,null,,,,,,,,,
null,is hugging,,html-keyboard-response,386,2943696,0.0-19.0-2.15,87401,List2B,white,man,,,,null,,,,,,,,,
5745.5,,,survey-text,387,2949456,0.0-19.0-3.15,87401,List2B,white,man,,,,,"{""Q0"":""fred is hugging luke""}","<img src=""stim_listB/hug5.gif""style=""height:400px;""></stim_listB>",is hugging,,,,,,
null,"<div style=""font-size:60px;"">+</div>",,html-keyboard-response,388,2949972,0.0-19.0-0.16,87401,List2B,white,man,,,,null,,,,,,,,,
null,"<img src=""stim_listB/hug1.gif""style=""height:400px;""></stim_listB>",,html-keyboard-response,389,2951989,0.0-19.0-1.16,87401,List2B,white,man,,,,null,,,,,,,,,
null,is hugging,,html-keyboard-response,390,2954003,0.0-19.0-2.16,87401,List2B,white,man,,,,null,,,,,,,,,
7222.8,,,survey-text,391,2961268,0.0-19.0-3.16,87401,List2B,white,man,,,,,"{""Q0"":""beth is hugging luke""}","<img src=""stim_listB/hug1.gif""style=""height:400px;""></stim_listB>",is hugging,,,,,,
null,"<div style=""font-size:60px;"">+</div>",,html-keyboard-response,392,2961785,0.0-19.0-0.17,87401,List2B,white,man,,,,null,,,,,,,,,
null,"<img src=""stim_listB/look2.gif""style=""height:400px;""></stim_listB>",,html-keyboard-response,393,2963803,0.0-19.0-1.17,87401,List2B,white,man,,,,null,,,,,,,,,
null,is being looked at by,,html-keyboard-response,394,2965817,0.0-19.0-2.17,87401,List2B,white,man,,,,null,,,,,,,,,
10204.3,,,survey-text,395,2976050,0.0-19.0-3.17,87401,List2B,white,man,,,,,"{""Q0"":""dave is being looked at by jane""}","<img src=""stim_listB/look2.gif""style=""height:400px;""></stim_listB>",is being looked at by,,,,,,
null,"<div style=""font-size:60px;"">+</div>",,html-keyboard-response,396,2976566,0.0-19.0-0.18,87401,List2B,white,man,,,,null,,,,,,,,,
null,"<img src=""stim_listB/shout4.gif""style=""height:400px;""></stim_listB>",,html-keyboard-response,397,2978585,0.0-19.0-1.18,87401,List2B,white,man,,,,null,,,,,,,,,
null,is being shouted at by,,html-keyboard-response,398,2980598,0.0-19.0-2.18,87401,List2B,white,man,,,,null,,,,,,,,,
11218.3,,,survey-text,399,2991826,0.0-19.0-3.18,87401,List2B,white,man,,,,,"{""Q0"":""mike is being shouted at by kate""}","<img src=""stim_listB/shout4.gif""style=""height:400px;""></stim_listB>",is being shouted at by,,,,,,
null,"<div style=""font-size:60px;"">+</div>",,html-keyboard-response,400,2992343,0.0-19.0-0.19,87401,List2B,white,man,,,,null,,,,,,,,,
null,"<img src=""stim_listB/kiss3.gif""style=""height:400px;""></stim_listB>",,html-keyboard-response,401,2994360,0.0-19.0-1.19,87401,List2B,white,man,,,,null,,,,,,,,,
null,is kissing,,html-keyboard-response,402,2996375,0.0-19.0-2.19,87401,List2B,white,man,,,,null,,,,,,,,,
8449.1,,,survey-text,403,3004836,0.0-19.0-3.19,87401,List2B,white,man,,,,,"{""Q0"":""beth is kissing fred""}","<img src=""stim_listB/kiss3.gif""style=""height:400px;""></stim_listB>",is kissing,,,,,,
3393.3,<p>Thank you for completing that task.</p><p>The final part of this session is a questionnaire that will take about 4 minutes.</p><p>Press Continue.</p>,0,html-button-response,404,3008244,0.0-20.0,87401,List2B,white,man,,,,,,,,,,,,,
48086.4,,,survey-text,405,3057368,0.0-21.0,87401,List2B,white,man,,,,,"{""Q0"":""35"",""Q1"":""english"",""Q2"":""english"",""Q3"":""united states"",""Q4"":""american"",""Q5"":""white"",""Q6"":""male""}",,,demographics,,,,,
4262.7,<p>Have you lived in the USA for the last 5 years or more?</p>,0,html-button-response,406,3061646,0.0-22.0,87401,List2B,white,man,,,,,,,,fiveyears,,,,,
2769.8,<p>Move the slider to show the extent to which you agree with the following statements.</p>,0,html-button-response,407,3065432,0.0-23.0,87401,List2B,white,man,,,,,,,,,,,,,
6934.9,,,html-slider-response,408,3073394,0.0-24.0-0.0-0.0,87401,List2B,white,man,,,,,,,,survey_gender,78,,,Most of the friends in my life are very similar to me.,filler
4750.4,,,html-slider-response,409,3078160,0.0-24.0-0.0-0.1,87401,List2B,white,man,,,,,,,,survey_gender,78,,,The fact that I am my gender is an important part of my identity.,identity
5187.3,,,html-slider-response,410,3083357,0.0-24.0-0.0-0.2,87401,List2B,white,man,,,,,,,,survey_gender,70,,,People of my gender are very similar to each other.,verysimilar
5410,,,html-slider-response,411,3088774,0.0-24.0-0.0-0.3,87401,List2B,white,man,,,,,,,,survey_gender,100,,,It is not always easy for people to know what I am thinking.,filler
5249.5,,,html-slider-response,412,3094039,0.0-24.0-0.0-0.4,87401,List2B,white,man,,,,,,,,survey_gender,100,,,I am glad to be my gender.,glad
4157.5,,,html-slider-response,413,3098205,0.0-24.0-0.0-0.5,87401,List2B,white,man,,,,,,,,survey_gender,77,,,Being around my friends gives me a good feeling.,filler
4042.7,,,html-slider-response,414,3102259,0.0-24.0-0.0-0.6,87401,List2B,white,man,,,,,,,,survey_gender,83,,,People of my gender have a lot in common with each other.,common
2320,,,html-slider-response,415,3104589,0.0-24.0-0.0-0.7,87401,List2B,white,man,,,,,,,,survey_gender,79,,,My friends understand me.,filler
2820.5,,,html-slider-response,416,3107416,0.0-24.0-0.0-0.8,87401,List2B,white,man,,,,,,,,survey_gender,100,,,I often think about my actions.,filler
3247.9,,,html-slider-response,417,3110671,0.0-24.0-0.0-0.9,87401,List2B,white,man,,,,,,,,survey_gender,86,,,I have a lot in common with my friends.,filler
2569.2,,,html-slider-response,418,3113249,0.0-24.0-0.0-0.10,87401,List2B,white,man,,,,,,,,survey_gender,80,,,I feel committed to my gender.,committed
5071.2,,,html-slider-response,419,3118326,0.0-24.0-0.0-0.11,87401,List2B,white,man,,,,,,,,survey_gender,100,,,I often think about the fact that I am my gender.,often
3219.1,,,html-slider-response,420,3121553,0.0-24.0-0.0-0.12,87401,List2B,white,man,,,,,,,,survey_gender,100,,,I think that my gender has a lot to be proud of.,proud
2845.6,,,html-slider-response,421,3124410,0.0-24.0-0.0-0.13,87401,List2B,white,man,,,,,,,,survey_gender,100,,,I am similar to the average person of my gender.,similar
2530.1,,,html-slider-response,422,3126945,0.0-24.0-0.0-0.14,87401,List2B,white,man,,,,,,,,survey_gender,100,,,It is pleasant to be my gender.,pleasant
3116.1,,,html-slider-response,423,3130075,0.0-24.0-0.0-0.15,87401,List2B,white,man,,,,,,,,survey_gender,100,,,Family is not more important to me than friendship.,filler
3374.9,,,html-slider-response,424,3133460,0.0-24.0-0.0-0.16,87401,List2B,white,man,,,,,,,,survey_gender,100,,,Being my gender is an important part of how I see myself.,important
2871,,,html-slider-response,425,3136345,0.0-24.0-0.0-0.17,87401,List2B,white,man,,,,,,,,survey_gender,73,,,I feel solidarity with my friends.,filler
2770.6,,,html-slider-response,426,3139121,0.0-24.0-0.0-0.18,87401,List2B,white,man,,,,,,,,survey_gender,61,,,I feel solidarity with my gender.,solidarity
4032.6,,,html-slider-response,427,3143163,0.0-24.0-0.0-0.19,87401,List2B,white,man,,,,,,,,survey_gender,77,,,I have a lot in common with the average person of my gender.,average
2988.5,,,html-slider-response,428,3146161,0.0-24.0-0.0-0.20,87401,List2B,white,man,,,,,,,,survey_gender,73,,,Being my gender gives me a good feeling.,feeling
2627.6,,,html-slider-response,429,3148794,0.0-24.0-0.0-0.21,87401,List2B,white,man,,,,,,,,survey_gender,83,,,I feel a bond with my gender.,bond
2459.7,,,html-slider-response,430,3151263,0.0-24.0-0.0-0.22,87401,List2B,white,man,,,,,,,,survey_gender,81,,,I am glad to have the friends that I have.,filler
7477.7,,,html-slider-response,431,3158754,0.0-24.0-0.0-0.23,87401,List2B,white,man,,,,,,,,survey_gender,40,,,I consider myself a highly empathetic person.,filler
2523.2,,,html-slider-response,432,3161287,0.0-24.0-0.0-0.24,87401,List2B,white,man,,,,,,,,survey_gender,80,,,My friends have a lot in common with each other.,filler
3176.8,,,html-slider-response,433,3164474,0.0-24.0-0.0-0.25,87401,List2B,white,man,,,,,,,,survey_gender,85,,,I would say I am an animal person.,filler
3620.2,,,html-slider-response,434,3168101,0.0-24.0-0.0-0.26,87401,List2B,white,man,,,,,,,,survey_gender,12,,,Routine is not important to me.,filler
4230.2,,,html-slider-response,435,3172350,0.0-24.0-0.0-0.27,87401,List2B,white,man,,,,,,,,survey_gender,77,,,I feel a bond with my friends.,filler
3681.4,,,html-slider-response,436,3176046,0.0-24.0-1.0-0.0,87401,List2B,white,man,,,,,,,,survey_race,74,,,Being my race gives me a good feeling.,feeling
3243,,,html-slider-response,437,3179299,0.0-24.0-1.0-0.1,87401,List2B,white,man,,,,,,,,survey_race,82,,,I often think about the fact that I am my age.,filler
2856.8,,,html-slider-response,438,3182167,0.0-24.0-1.0-0.2,87401,List2B,white,man,,,,,,,,survey_race,75,,,"The older I get, the wiser I feel.",filler
2258.9,,,html-slider-response,439,3184432,0.0-24.0-1.0-0.3,87401,List2B,white,man,,,,,,,,survey_race,72,,,I feel solidarity with people the same age as me.,filler
2389.5,,,html-slider-response,440,3186833,0.0-24.0-1.0-0.4,87401,List2B,white,man,,,,,,,,survey_race,69,,,It is pleasant to be my race.,pleasant
2192.6,,,html-slider-response,441,3189033,0.0-24.0-1.0-0.5,87401,List2B,white,man,,,,,,,,survey_race,77,,,I am similar to the average person of my race.,similar
3501.2,,,html-slider-response,442,3192543,0.0-24.0-1.0-0.6,87401,List2B,white,man,,,,,,,,survey_race,69,,,The fact that I am my race is an important part of my identity.,identity
2567.8,,,html-slider-response,443,3195119,0.0-24.0-1.0-0.7,87401,List2B,white,man,,,,,,,,survey_race,68,,,I enjoy being in large groups.,filler
2360.8,,,html-slider-response,444,3197497,0.0-24.0-1.0-0.8,87401,List2B,white,man,,,,,,,,survey_race,69,,,I feel a bond with people the same age as me.,filler
4278.6,,,html-slider-response,445,3201783,0.0-24.0-1.0-0.9,87401,List2B,white,man,,,,,,,,survey_race,68,,,Getting older does not worry me.,filler
2417.7,,,html-slider-response,446,3204207,0.0-24.0-1.0-0.10,87401,List2B,white,man,,,,,,,,survey_race,71,,,My age is not an important part of who I am.,filler
3074.9,,,html-slider-response,447,3207304,0.0-24.0-1.0-0.11,87401,List2B,white,man,,,,,,,,survey_race,55,,,Being my age gives me a good feeling.,filler
2744.4,,,html-slider-response,448,3210079,0.0-24.0-1.0-0.12,87401,List2B,white,man,,,,,,,,survey_race,60,,,I am glad to be the age I am.,filler
2634.2,,,html-slider-response,449,3212718,0.0-24.0-1.0-0.13,87401,List2B,white,man,,,,,,,,survey_race,33,,,People of my race are very similar to each other.,verysimilar
2602.9,,,html-slider-response,450,3215327,0.0-24.0-1.0-0.14,87401,List2B,white,man,,,,,,,,survey_race,41,,,People of my race have a lot in common with each other.,common
2171.4,,,html-slider-response,451,3217510,0.0-24.0-1.0-0.15,87401,List2B,white,man,,,,,,,,survey_race,71,,,Being my race is an important part of how I see myself.,important
2408,,,html-slider-response,452,3219929,0.0-24.0-1.0-0.16,87401,List2B,white,man,,,,,,,,survey_race,65,,,I have a lot in common with the average person of my race.,average
2711.3,,,html-slider-response,453,3222648,0.0-24.0-1.0-0.17,87401,List2B,white,man,,,,,,,,survey_race,80,,,I consider myself an extrovert.,filler
1874.2,,,html-slider-response,454,3224527,0.0-24.0-1.0-0.18,87401,List2B,white,man,,,,,,,,survey_race,74,,,I feel solidarity with my race.,solidarity
2146.9,,,html-slider-response,455,3226680,0.0-24.0-1.0-0.19,87401,List2B,white,man,,,,,,,,survey_race,75,,,I have a lot in common with people of a similar age to me.,filler
1799.3,,,html-slider-response,456,3228489,0.0-24.0-1.0-0.20,87401,List2B,white,man,,,,,,,,survey_race,78,,,I often think about the fact that I am my race.,often
3461.1,,,html-slider-response,457,3231958,0.0-24.0-1.0-0.21,87401,List2B,white,man,,,,,,,,survey_race,78,,,I feel committed to my race.,committed
2064.7,,,html-slider-response,458,3234039,0.0-24.0-1.0-0.22,87401,List2B,white,man,,,,,,,,survey_race,79,,,People my age have a lot in common with each other.,filler
2394.3,,,html-slider-response,459,3236440,0.0-24.0-1.0-0.23,87401,List2B,white,man,,,,,,,,survey_race,75,,,I feel a bond with my race.,bond
11129.4,,,html-slider-response,460,3247576,0.0-24.0-1.0-0.24,87401,List2B,white,man,,,,,,,,survey_race,73,,,I am glad to be my race.,glad
2220.7,,,html-slider-response,461,3249807,0.0-24.0-1.0-0.25,87401,List2B,white,man,,,,,,,,survey_race,67,,,I think that my race has a lot to be proud of.,proud
1628.3,,,html-slider-response,462,3251441,0.0-24.0-1.0-0.26,87401,List2B,white,man,,,,,,,,survey_race,70,,,I am glad to be my age.,filler
2249.9,,,html-slider-response,463,3253698,0.0-24.0-1.0-0.27,87401,List2B,white,man,,,,,,,,survey_race,25,,,I consider myself an introvert.,filler
10364.7,,,survey-text,464,3264088,0.0-25.0,87401,List2B,white,man,,,,,"{""Q0"":""ccc""}",,,worker_id,,,,,
5347.7,,,external-html,465,3283531,0.0-26.0,87401,List2B,white,man,debrief.html,,,,,,,,,,,,
