"rt","stimulus","button_pressed","trial_type","trial_index","time_elapsed","internal_node_id","subject","list","ppt_race","ppt_gender","url","first_guess","correct","key_press","responses","image_type","phrase_type","test_part","response","stimulus1","stimulus2","question_type","survey_item"
"4619","Welcome to the experiment. Press Continue to begin.","0","html-button-response","0","4625","0.0-0.0","88182","List2B","white","woman","","","","","","","","","","","","",""
"31459.80000001192","","","external-html","1","38641","0.0-1.0","88182","List2B","white","woman","consent.html","","","","","","","","","","","",""
"8558.800000011921","<p>On the next page, you will see portraits of 8 people and their names.</p><p>Your first task is to take a few minutes to memorise the names of these people.</p><p>You will have to recall their names during the rest of the experiment, so it is</p><p>essential that you try to memorise these people and their names as best as you can.</p><br><p><strong>You will then be tested on your memory of these names and portraits.</strong></p><br><p>The experiment will start after you have completed this memory test.</p><br><p>Ready?</p>","0","html-button-response","2","47201","0.0-2.0","88182","List2B","white","woman","","","","","","","","","","","","",""
"11139.5","<img src='img/portrait_matrix_list2.jpg' style='width:900px;height:500px;''></img><p>If you have memorised all the portraits and names and are ready to start, press Continue.</p><p><strong>Please note: Your memory of these faces will be tested 4 times during this experiment.</strong></p>","0","html-button-response","3","59344","0.0-3.0-0.0","88182","List2B","white","woman","","","","","","","","","","","","",""
"8375.299999952316","<img src=""portrait/BW1.jpg""style=""height:400px;""></img>","0","html-button-response","4","68731","0.0-3.0-1.0","88182","List2B","white","woman","","true","0","","","","","","","","","",""
"null","CORRECT","","html-keyboard-response","5","70243","0.0-3.0-2.0-0.0","88182","List2B","white","woman","","","","null","","","","","","","","",""
"9422.800000011921","<img src=""portrait/WM2.jpg""style=""height:400px;""></img>","7","html-button-response","6","79669","0.0-3.0-4.0","88182","List2B","white","woman","","true","7","","","","","","","","","",""
"null","CORRECT","","html-keyboard-response","7","81184","0.0-3.0-5.0-0.0","88182","List2B","white","woman","","","","null","","","","","","","","",""
"4925.100000023842","<img src=""portrait/WW2.jpg""style=""height:400px;""></img>","3","html-button-response","8","86111","0.0-3.0-7.0","88182","List2B","white","woman","","true","3","","","","","","","","","",""
"null","CORRECT","","html-keyboard-response","9","87629","0.0-3.0-8.0-0.0","88182","List2B","white","woman","","","","null","","","","","","","","",""
"6103.599999964237","<img src=""portrait/BM1.jpg""style=""height:400px;""></img>","4","html-button-response","10","93735","0.0-3.0-10.0","88182","List2B","white","woman","","true","4","","","","","","","","","",""
"null","CORRECT","","html-keyboard-response","11","95254","0.0-3.0-11.0-0.0","88182","List2B","white","woman","","","","null","","","","","","","","",""
"6374.5","<img src=""portrait/WM1.jpg""style=""height:400px;""></img>","6","html-button-response","12","101630","0.0-3.0-13.0","88182","List2B","white","woman","","true","6","","","","","","","","","",""
"null","CORRECT","","html-keyboard-response","13","103147","0.0-3.0-14.0-0.0","88182","List2B","white","woman","","","","null","","","","","","","","",""
"13433.699999988079","<img src=""portrait/WW1.jpg""style=""height:400px;""></img>","1","html-button-response","14","116583","0.0-3.0-16.0","88182","List2B","white","woman","","true","1","","","","","","","","","",""
"null","CORRECT","","html-keyboard-response","15","118098","0.0-3.0-17.0-0.0","88182","List2B","white","woman","","","","null","","","","","","","","",""
"5282.5","<img src=""portrait/BW2.jpg""style=""height:400px;""></img>","2","html-button-response","16","123382","0.0-3.0-19.0","88182","List2B","white","woman","","true","2","","","","","","","","","",""
"null","CORRECT","","html-keyboard-response","17","124903","0.0-3.0-20.0-0.0","88182","List2B","white","woman","","","","null","","","","","","","","",""
"6223.900000035763","<img src=""portrait/BM2.jpg""style=""height:400px;""></img>","5","html-button-response","18","131129","0.0-3.0-22.0","88182","List2B","white","woman","","true","5","","","","","","","","","",""
"null","CORRECT","","html-keyboard-response","19","132658","0.0-3.0-23.0-0.0","88182","List2B","white","woman","","","","null","","","","","","","","",""
"2779.699999988079","<p>You got 8 out of 8 right first time. Press Continue.</p>","0","html-button-response","20","135440","0.0-3.0-25.0","88182","List2B","white","woman","","","","","","","","","","","","",""
"48571.30000001192","<p>In this experiment, you will view photographs of the people from the memory game interacting.</p><p>By using the <strong>exact</strong> phrase given <i>after</i> the photograph appears and recalling the correct names of the people in the photographs, form a sentence describing the interaction. You do not need to capitalise names.</p><p>Type your answer in the space provided. Please complete every sentence before moving onto the next trial.</p><p>You will only have a few seconds to memorise each given photograph and phrase before you can respond, so try your best to focus.</p><p>An example is given below. Press 'Continue' when you are ready.</p><img src='img/speaking_example.jpg' style='width:800px;height:460px;''></img>","0","html-button-response","21","185029","0.0-4.0","88182","List2B","white","woman","","","","","","","","","","","","",""
"3181.600000023842","<p>Before the experiment starts, you will watch two example trials. Press 'Continue'.</p>","0","html-button-response","22","189216","0.0-5.0","88182","List2B","white","woman","","","","","","","","","","","","",""
"null","<img src='img/play_eg.gif' style='height:400px;''></img>","","html-keyboard-response","23","192231","0.0-6.0","88182","List2B","white","woman","","","","null","","","","","","","","",""
"null","<p>is playing with</p>","","html-keyboard-response","24","194243","0.0-7.0","88182","List2B","white","woman","","","","null","","","","","","","","",""
"3114.699999988079","<p><b>Answer:</b> jane is playing with ruth</p>","0","html-button-response","25","197360","0.0-8.0","88182","List2B","white","woman","","","","","","","","","","","","",""
"null","<img src='img/dance_eg.gif' style='height:400px;''></img>","","html-keyboard-response","26","200365","0.0-9.0","88182","List2B","white","woman","","","","null","","","","","","","","",""
"null","<p>is being entertained by</p>","","html-keyboard-response","27","202376","0.0-10.0","88182","List2B","white","woman","","","","null","","","","","","","","",""
"6511.199999988079","<p><b>Answer:</b> fred is being entertained by mike</p>","0","html-button-response","28","208888","0.0-11.0","88182","List2B","white","woman","","","","","","","","","","","","",""
"2570.300000011921","<p>Ready to start the experiment?</p><br><p><strong>Remember to describe the picture using a full sentence,</strong></p><p><strong>that combines the names of the people with the <i>exact</i> phrase given.</strong></p><p><strong>To receive full payment you must do this correctly.</strong></p><p><strong> You do not need to capitalise names or use punctuation.</strong></p><br><p>Press 'Continue' to begin.</p>","0","html-button-response","29","212473","0.0-12.0","88182","List2B","white","woman","","","","","","","","","","","","",""
"null","<div style=""font-size:60px;"">+</div>","","html-keyboard-response","30","213999","0.0-13.0-0.0","88182","List2B","white","woman","","","","null","","","","","","","","",""
"null","<img src=""stim_listB/seduce7.gif""style=""height:400px;""></stim_listB>","","html-keyboard-response","31","216012","0.0-13.0-1.0","88182","List2B","white","woman","","","","null","","","","","","","","",""
"null","is seducing","","html-keyboard-response","32","218018","0.0-13.0-2.0","88182","List2B","white","woman","","","","null","","","","","","","","",""
"38869","","","survey-text","33","256892","0.0-13.0-3.0","88182","List2B","white","woman","","","","","{""Q0"":""ruth is interacting with jane""}","<img src=""stim_listB/seduce7.gif""style=""height:400px;""></stim_listB>","is seducing","","","","","",""
"null","<div style=""font-size:60px;"">+</div>","","html-keyboard-response","34","257397","0.0-13.0-0.1","88182","List2B","white","woman","","","","null","","","","","","","","",""
"null","<img src=""stim_listB/hug4.gif""style=""height:400px;""></stim_listB>","","html-keyboard-response","35","259406","0.0-13.0-1.1","88182","List2B","white","woman","","","","null","","","","","","","","",""
"null","is being hugged by","","html-keyboard-response","36","261421","0.0-13.0-2.1","88182","List2B","white","woman","","","","null","","","","","","","","",""
"29108.799999952316","","","survey-text","37","290533","0.0-13.0-3.1","88182","List2B","white","woman","","","","","{""Q0"":""kate is interacting with mike""}","<img src=""stim_listB/hug4.gif""style=""height:400px;""></stim_listB>","is being hugged by","","","","","",""
"null","<div style=""font-size:60px;"">+</div>","","html-keyboard-response","38","291046","0.0-13.0-0.2","88182","List2B","white","woman","","","","null","","","","","","","","",""
"null","<img src=""stim_listB/kiss4.gif""style=""height:400px;""></stim_listB>","","html-keyboard-response","39","293048","0.0-13.0-1.2","88182","List2B","white","woman","","","","null","","","","","","","","",""
"null","is being kissed by","","html-keyboard-response","40","295053","0.0-13.0-2.2","88182","List2B","white","woman","","","","null","","","","","","","","",""
"65950.59999996424","","","survey-text","41","361007","0.0-13.0-3.2","88182","List2B","white","woman","","","","","{""Q0"":""kate is being kissed by mike""}","<img src=""stim_listB/kiss4.gif""style=""height:400px;""></stim_listB>","is being kissed by","","","","","",""
"null","<div style=""font-size:60px;"">+</div>","","html-keyboard-response","42","361520","0.0-13.0-0.3","88182","List2B","white","woman","","","","null","","","","","","","","",""
"null","<img src=""stim_listB/touch5.gif""style=""height:400px;""></stim_listB>","","html-keyboard-response","43","363525","0.0-13.0-1.3","88182","List2B","white","woman","","","","null","","","","","","","","",""
"null","is touching","","html-keyboard-response","44","365535","0.0-13.0-2.3","88182","List2B","white","woman","","","","null","","","","","","","","",""
"23615.899999976158","","","survey-text","45","389153","0.0-13.0-3.3","88182","List2B","white","woman","","","","","{""Q0"":""mike is touching dave""}","<img src=""stim_listB/touch5.gif""style=""height:400px;""></stim_listB>","is touching","","","","","",""
"null","<div style=""font-size:60px;"">+</div>","","html-keyboard-response","46","389656","0.0-13.0-0.4","88182","List2B","white","woman","","","","null","","","","","","","","",""
"null","<img src=""stim_listB/hug3.gif""style=""height:400px;""></stim_listB>","","html-keyboard-response","47","391658","0.0-13.0-1.4","88182","List2B","white","woman","","","","null","","","","","","","","",""
"null","is hugging","","html-keyboard-response","48","393663","0.0-13.0-2.4","88182","List2B","white","woman","","","","null","","","","","","","","",""
"19482.899999976158","","","survey-text","49","413149","0.0-13.0-3.4","88182","List2B","white","woman","","","","","{""Q0"":""fred and beth""}","<img src=""stim_listB/hug3.gif""style=""height:400px;""></stim_listB>","is hugging","","","","","",""
"null","<div style=""font-size:60px;"">+</div>","","html-keyboard-response","50","413662","0.0-13.0-0.5","88182","List2B","white","woman","","","","null","","","","","","","","",""
"null","<img src=""stim_listB/greet3.gif""style=""height:400px;""></stim_listB>","","html-keyboard-response","51","415672","0.0-13.0-1.5","88182","List2B","white","woman","","","","null","","","","","","","","",""
"null","is greeting","","html-keyboard-response","52","417682","0.0-13.0-2.5","88182","List2B","white","woman","","","","null","","","","","","","","",""
"27072","","","survey-text","53","444757","0.0-13.0-3.5","88182","List2B","white","woman","","","","","{""Q0"":""mike is greeting beth""}","<img src=""stim_listB/greet3.gif""style=""height:400px;""></stim_listB>","is greeting","","","","","",""
"null","<div style=""font-size:60px;"">+</div>","","html-keyboard-response","54","445271","0.0-13.0-0.6","88182","List2B","white","woman","","","","null","","","","","","","","",""
"null","<img src=""stim_listB/oppose8.gif""style=""height:400px;""></stim_listB>","","html-keyboard-response","55","447274","0.0-13.0-1.6","88182","List2B","white","woman","","","","null","","","","","","","","",""
"null","is being opposed by","","html-keyboard-response","56","449287","0.0-13.0-2.6","88182","List2B","white","woman","","","","null","","","","","","","","",""
"54594.90000003576","","","survey-text","57","503885","0.0-13.0-3.6","88182","List2B","white","woman","","","","","{""Q0"":""mike and jane""}","<img src=""stim_listB/oppose8.gif""style=""height:400px;""></stim_listB>","is being opposed by","","","","","",""
"null","<div style=""font-size:60px;"">+</div>","","html-keyboard-response","58","504398","0.0-13.0-0.7","88182","List2B","white","woman","","","","null","","","","","","","","",""
"null","<img src=""stim_listB/kiss5.gif""style=""height:400px;""></stim_listB>","","html-keyboard-response","59","506400","0.0-13.0-1.7","88182","List2B","white","woman","","","","null","","","","","","","","",""
"null","is kissing","","html-keyboard-response","60","508414","0.0-13.0-2.7","88182","List2B","white","woman","","","","null","","","","","","","","",""
"33974.60000002384","","","survey-text","61","542392","0.0-13.0-3.7","88182","List2B","white","woman","","","","","{""Q0"":""fred is kissing luke""}","<img src=""stim_listB/kiss5.gif""style=""height:400px;""></stim_listB>","is kissing","","","","","",""
"null","<div style=""font-size:60px;"">+</div>","","html-keyboard-response","62","542894","0.0-13.0-0.8","88182","List2B","white","woman","","","","null","","","","","","","","",""
"null","<img src=""stim_listB/kiss7.gif""style=""height:400px;""></stim_listB>","","html-keyboard-response","63","544896","0.0-13.0-1.8","88182","List2B","white","woman","","","","null","","","","","","","","",""
"null","is kissing","","html-keyboard-response","64","546900","0.0-13.0-2.8","88182","List2B","white","woman","","","","null","","","","","","","","",""
"30258.900000035763","","","survey-text","65","577162","0.0-13.0-3.8","88182","List2B","white","woman","","","","","{""Q0"":""ruth is kissing beth""}","<img src=""stim_listB/kiss7.gif""style=""height:400px;""></stim_listB>","is kissing","","","","","",""
"null","<div style=""font-size:60px;"">+</div>","","html-keyboard-response","66","577671","0.0-13.0-0.9","88182","List2B","white","woman","","","","null","","","","","","","","",""
"null","<img src=""stim_listB/shout7.gif""style=""height:400px;""></stim_listB>","","html-keyboard-response","67","579674","0.0-13.0-1.9","88182","List2B","white","woman","","","","null","","","","","","","","",""
"null","is shouting at","","html-keyboard-response","68","581693","0.0-13.0-2.9","88182","List2B","white","woman","","","","null","","","","","","","","",""
"33511.89999997616","","","survey-text","69","615208","0.0-13.0-3.9","88182","List2B","white","woman","","","","","{""Q0"":""ruth is shouting at beth""}","<img src=""stim_listB/shout7.gif""style=""height:400px;""></stim_listB>","is shouting at","","","","","",""
"null","<div style=""font-size:60px;"">+</div>","","html-keyboard-response","70","615714","0.0-13.0-0.10","88182","List2B","white","woman","","","","null","","","","","","","","",""
"null","<img src=""stim_listB/kiss2.gif""style=""height:400px;""></stim_listB>","","html-keyboard-response","71","617728","0.0-13.0-1.10","88182","List2B","white","woman","","","","null","","","","","","","","",""
"null","is being kissed by","","html-keyboard-response","72","619744","0.0-13.0-2.10","88182","List2B","white","woman","","","","null","","","","","","","","",""
"46234.19999998808","","","survey-text","73","665982","0.0-13.0-3.10","88182","List2B","white","woman","","","","","{""Q0"":""jane is being kissed by Dave""}","<img src=""stim_listB/kiss2.gif""style=""height:400px;""></stim_listB>","is being kissed by","","","","","",""
"null","<div style=""font-size:60px;"">+</div>","","html-keyboard-response","74","666490","0.0-13.0-0.11","88182","List2B","white","woman","","","","null","","","","","","","","",""
"null","<img src=""stim_listB/challenge1.gif""style=""height:400px;""></stim_listB>","","html-keyboard-response","75","668493","0.0-13.0-1.11","88182","List2B","white","woman","","","","null","","","","","","","","",""
"null","is challenging","","html-keyboard-response","76","670509","0.0-13.0-2.11","88182","List2B","white","woman","","","","null","","","","","","","","",""
"31847.399999976158","","","survey-text","77","702360","0.0-13.0-3.11","88182","List2B","white","woman","","","","","{""Q0"":""Dave is challenging Ruth""}","<img src=""stim_listB/challenge1.gif""style=""height:400px;""></stim_listB>","is challenging","","","","","",""
"null","<div style=""font-size:60px;"">+</div>","","html-keyboard-response","78","702874","0.0-13.0-0.12","88182","List2B","white","woman","","","","null","","","","","","","","",""
"null","<img src=""stim_listB/oppose3.gif""style=""height:400px;""></stim_listB>","","html-keyboard-response","79","704890","0.0-13.0-1.12","88182","List2B","white","woman","","","","null","","","","","","","","",""
"null","is opposing","","html-keyboard-response","80","706898","0.0-13.0-2.12","88182","List2B","white","woman","","","","null","","","","","","","","",""
"35914.799999952316","","","survey-text","81","742815","0.0-13.0-3.12","88182","List2B","white","woman","","","","","{""Q0"":""Kate is opposing Mike""}","<img src=""stim_listB/oppose3.gif""style=""height:400px;""></stim_listB>","is opposing","","","","","",""
"null","<div style=""font-size:60px;"">+</div>","","html-keyboard-response","82","743320","0.0-13.0-0.13","88182","List2B","white","woman","","","","null","","","","","","","","",""
"null","<img src=""stim_listB/copy5.gif""style=""height:400px;""></stim_listB>","","html-keyboard-response","83","745335","0.0-13.0-1.13","88182","List2B","white","woman","","","","null","","","","","","","","",""
"null","is copying","","html-keyboard-response","84","747350","0.0-13.0-2.13","88182","List2B","white","woman","","","","null","","","","","","","","",""
"32168.900000035763","","","survey-text","85","779522","0.0-13.0-3.13","88182","List2B","white","woman","","","","","{""Q0"":""Fred is copying Dave""}","<img src=""stim_listB/copy5.gif""style=""height:400px;""></stim_listB>","is copying","","","","","",""
"null","<div style=""font-size:60px;"">+</div>","","html-keyboard-response","86","780029","0.0-13.0-0.14","88182","List2B","white","woman","","","","null","","","","","","","","",""
"null","<img src=""stim_listB/challenge4.gif""style=""height:400px;""></stim_listB>","","html-keyboard-response","87","782047","0.0-13.0-1.14","88182","List2B","white","woman","","","","null","","","","","","","","",""
"null","is being challenged by","","html-keyboard-response","88","784061","0.0-13.0-2.14","88182","List2B","white","woman","","","","null","","","","","","","","",""
"39154.30000001192","","","survey-text","89","823220","0.0-13.0-3.14","88182","List2B","white","woman","","","","","{""Q0"":""kate is being challenged by Fred""}","<img src=""stim_listB/challenge4.gif""style=""height:400px;""></stim_listB>","is being challenged by","","","","","",""
"null","<div style=""font-size:60px;"">+</div>","","html-keyboard-response","90","823737","0.0-13.0-0.15","88182","List2B","white","woman","","","","null","","","","","","","","",""
"null","<img src=""stim_listB/look5.gif""style=""height:400px;""></stim_listB>","","html-keyboard-response","91","825747","0.0-13.0-1.15","88182","List2B","white","woman","","","","null","","","","","","","","",""
"null","is looking at","","html-keyboard-response","92","827755","0.0-13.0-2.15","88182","List2B","white","woman","","","","null","","","","","","","","",""
"26397.19999998808","","","survey-text","93","854155","0.0-13.0-3.15","88182","List2B","white","woman","","","","","{""Q0"":""Luke is looking at Fred""}","<img src=""stim_listB/look5.gif""style=""height:400px;""></stim_listB>","is looking at","","","","","",""
"null","<div style=""font-size:60px;"">+</div>","","html-keyboard-response","94","854658","0.0-13.0-0.16","88182","List2B","white","woman","","","","null","","","","","","","","",""
"null","<img src=""stim_listB/look1.gif""style=""height:400px;""></stim_listB>","","html-keyboard-response","95","856666","0.0-13.0-1.16","88182","List2B","white","woman","","","","null","","","","","","","","",""
"null","is looking at","","html-keyboard-response","96","858680","0.0-13.0-2.16","88182","List2B","white","woman","","","","null","","","","","","","","",""
"38159.19999998808","","","survey-text","97","896843","0.0-13.0-3.16","88182","List2B","white","woman","","","","","{""Q0"":""Luke is looking at Ruth""}","<img src=""stim_listB/look1.gif""style=""height:400px;""></stim_listB>","is looking at","","","","","",""
"null","<div style=""font-size:60px;"">+</div>","","html-keyboard-response","98","897355","0.0-13.0-0.17","88182","List2B","white","woman","","","","null","","","","","","","","",""
"null","<img src=""stim_listB/greet7.gif""style=""height:400px;""></stim_listB>","","html-keyboard-response","99","899363","0.0-13.0-1.17","88182","List2B","white","woman","","","","null","","","","","","","","",""
"null","is greeting","","html-keyboard-response","100","901371","0.0-13.0-2.17","88182","List2B","white","woman","","","","null","","","","","","","","",""
"31332.5","","","survey-text","101","932708","0.0-13.0-3.17","88182","List2B","white","woman","","","","","{""Q0"":""Beth is greeting Jane""}","<img src=""stim_listB/greet7.gif""style=""height:400px;""></stim_listB>","is greeting","","","","","",""
"null","<div style=""font-size:60px;"">+</div>","","html-keyboard-response","102","933221","0.0-13.0-0.18","88182","List2B","white","woman","","","","null","","","","","","","","",""
"null","<img src=""stim_listB/challenge8.gif""style=""height:400px;""></stim_listB>","","html-keyboard-response","103","935233","0.0-13.0-1.18","88182","List2B","white","woman","","","","null","","","","","","","","",""
"null","is being challenged by","","html-keyboard-response","104","937239","0.0-13.0-2.18","88182","List2B","white","woman","","","","null","","","","","","","","",""
"50350.19999998808","","","survey-text","105","987592","0.0-13.0-3.18","88182","List2B","white","woman","","","","","{""Q0"":""Ruth is being challenged by Kate""}","<img src=""stim_listB/challenge8.gif""style=""height:400px;""></stim_listB>","is being challenged by","","","","","",""
"null","<div style=""font-size:60px;"">+</div>","","html-keyboard-response","106","988105","0.0-13.0-0.19","88182","List2B","white","woman","","","","null","","","","","","","","",""
"null","<img src=""stim_listB/look7.gif""style=""height:400px;""></stim_listB>","","html-keyboard-response","107","990115","0.0-13.0-1.19","88182","List2B","white","woman","","","","null","","","","","","","","",""
"null","is looking at","","html-keyboard-response","108","992124","0.0-13.0-2.19","88182","List2B","white","woman","","","","null","","","","","","","","",""
"28911","","","survey-text","109","1021039","0.0-13.0-3.19","88182","List2B","white","woman","","","","","{""Q0"":""Ruth is looking at beth""}","<img src=""stim_listB/look7.gif""style=""height:400px;""></stim_listB>","is looking at","","","","","",""
"14450.299999952316","<img src='img/portrait_matrix_list2.jpg' style='width:900px;height:500px;''></img><p>If you have memorised all the portraits and names and are ready to start, press Continue.</p><p><strong>Please note: Your memory of these faces will be tested 4 times during this experiment.</strong></p>","0","html-button-response","110","1035492","0.0-14.0-0.0","88182","List2B","white","woman","","","","","","","","","","","","",""
"10451","<img src=""portrait/WM2.jpg""style=""height:400px;""></img>","7","html-button-response","111","1046950","0.0-14.0-1.0","88182","List2B","white","woman","","true","7","","","","","","","","","",""
"null","CORRECT","","html-keyboard-response","112","1048452","0.0-14.0-2.0-0.0","88182","List2B","white","woman","","","","null","","","","","","","","",""
"3683.7000000476837","<img src=""portrait/WM1.jpg""style=""height:400px;""></img>","6","html-button-response","113","1052137","0.0-14.0-4.0","88182","List2B","white","woman","","true","6","","","","","","","","","",""
"null","CORRECT","","html-keyboard-response","114","1053651","0.0-14.0-5.0-0.0","88182","List2B","white","woman","","","","null","","","","","","","","",""
"3495.899999976158","<img src=""portrait/BM1.jpg""style=""height:400px;""></img>","4","html-button-response","115","1057149","0.0-14.0-7.0","88182","List2B","white","woman","","true","4","","","","","","","","","",""
"null","CORRECT","","html-keyboard-response","116","1058661","0.0-14.0-8.0-0.0","88182","List2B","white","woman","","","","null","","","","","","","","",""
"4756.699999988079","<img src=""portrait/BM2.jpg""style=""height:400px;""></img>","5","html-button-response","117","1063420","0.0-14.0-10.0","88182","List2B","white","woman","","true","5","","","","","","","","","",""
"null","CORRECT","","html-keyboard-response","118","1064925","0.0-14.0-11.0-0.0","88182","List2B","white","woman","","","","null","","","","","","","","",""
"3285.5","<img src=""portrait/BW2.jpg""style=""height:400px;""></img>","2","html-button-response","119","1068212","0.0-14.0-13.0","88182","List2B","white","woman","","true","2","","","","","","","","","",""
"null","CORRECT","","html-keyboard-response","120","1069729","0.0-14.0-14.0-0.0","88182","List2B","white","woman","","","","null","","","","","","","","",""
"3250.600000023842","<img src=""portrait/WW2.jpg""style=""height:400px;""></img>","3","html-button-response","121","1072981","0.0-14.0-16.0","88182","List2B","white","woman","","true","3","","","","","","","","","",""
"null","CORRECT","","html-keyboard-response","122","1074504","0.0-14.0-17.0-0.0","88182","List2B","white","woman","","","","null","","","","","","","","",""
"7715.400000035763","<img src=""portrait/BW1.jpg""style=""height:400px;""></img>","0","html-button-response","123","1082221","0.0-14.0-19.0","88182","List2B","white","woman","","true","0","","","","","","","","","",""
"null","CORRECT","","html-keyboard-response","124","1083729","0.0-14.0-20.0-0.0","88182","List2B","white","woman","","","","null","","","","","","","","",""
"3836.199999988079","<img src=""portrait/WW1.jpg""style=""height:400px;""></img>","1","html-button-response","125","1087567","0.0-14.0-22.0","88182","List2B","white","woman","","true","1","","","","","","","","","",""
"null","CORRECT","","html-keyboard-response","126","1089085","0.0-14.0-23.0-0.0","88182","List2B","white","woman","","","","null","","","","","","","","",""
"3432.400000035763","<p>You got 8 out of 8 right first time. Press Continue.</p>","0","html-button-response","127","1092519","0.0-14.0-25.0","88182","List2B","white","woman","","","","","","","","","","","","",""
"null","<div style=""font-size:60px;"">+</div>","","html-keyboard-response","128","1094041","0.0-15.0-0.0","88182","List2B","white","woman","","","","null","","","","","","","","",""
"null","<img src=""stim_listB/challenge6.gif""style=""height:400px;""></stim_listB>","","html-keyboard-response","129","1096053","0.0-15.0-1.0","88182","List2B","white","woman","","","","null","","","","","","","","",""
"null","is being challenged by","","html-keyboard-response","130","1098065","0.0-15.0-2.0","88182","List2B","white","woman","","","","null","","","","","","","","",""
"35973.5","","","survey-text","131","1134041","0.0-15.0-3.0","88182","List2B","white","woman","","","","","{""Q0"":""Mike is being challenged by Luke""}","<img src=""stim_listB/challenge6.gif""style=""height:400px;""></stim_listB>","is being challenged by","","","","","",""
"null","<div style=""font-size:60px;"">+</div>","","html-keyboard-response","132","1134548","0.0-15.0-0.1","88182","List2B","white","woman","","","","null","","","","","","","","",""
"null","<img src=""stim_listB/greet1.gif""style=""height:400px;""></stim_listB>","","html-keyboard-response","133","1136551","0.0-15.0-1.1","88182","List2B","white","woman","","","","null","","","","","","","","",""
"null","is greeting","","html-keyboard-response","134","1138565","0.0-15.0-2.1","88182","List2B","white","woman","","","","null","","","","","","","","",""
"48365.5","","","survey-text","135","1186934","0.0-15.0-3.1","88182","List2B","white","woman","","","","","{""Q0"":""Ruth is greeting Beth""}","<img src=""stim_listB/greet1.gif""style=""height:400px;""></stim_listB>","is greeting","","","","","",""
"null","<div style=""font-size:60px;"">+</div>","","html-keyboard-response","136","1187442","0.0-15.0-0.2","88182","List2B","white","woman","","","","null","","","","","","","","",""
"null","<img src=""stim_listB/touch6.gif""style=""height:400px;""></stim_listB>","","html-keyboard-response","137","1189453","0.0-15.0-1.2","88182","List2B","white","woman","","","","null","","","","","","","","",""
"null","is being touched by","","html-keyboard-response","138","1191466","0.0-15.0-2.2","88182","List2B","white","woman","","","","null","","","","","","","","",""
"35828.09999996424","","","survey-text","139","1227297","0.0-15.0-3.2","88182","List2B","white","woman","","","","","{""Q0"":""Fred is being touched by luke""}","<img src=""stim_listB/touch6.gif""style=""height:400px;""></stim_listB>","is being touched by","","","","","",""
"null","<div style=""font-size:60px;"">+</div>","","html-keyboard-response","140","1227807","0.0-15.0-0.3","88182","List2B","white","woman","","","","null","","","","","","","","",""
"null","<img src=""stim_listB/oppose7.gif""style=""height:400px;""></stim_listB>","","html-keyboard-response","141","1229814","0.0-15.0-1.3","88182","List2B","white","woman","","","","null","","","","","","","","",""
"null","is opposing","","html-keyboard-response","142","1231824","0.0-15.0-2.3","88182","List2B","white","woman","","","","null","","","","","","","","",""
"30499.399999976158","","","survey-text","143","1262327","0.0-15.0-3.3","88182","List2B","white","woman","","","","","{""Q0"":""Kate is opposing Jane""}","<img src=""stim_listB/oppose7.gif""style=""height:400px;""></stim_listB>","is opposing","","","","","",""
"null","<div style=""font-size:60px;"">+</div>","","html-keyboard-response","144","1262834","0.0-15.0-0.4","88182","List2B","white","woman","","","","null","","","","","","","","",""
"null","<img src=""stim_listB/shout4.gif""style=""height:400px;""></stim_listB>","","html-keyboard-response","145","1264845","0.0-15.0-1.4","88182","List2B","white","woman","","","","null","","","","","","","","",""
"null","is being shouted at by","","html-keyboard-response","146","1266858","0.0-15.0-2.4","88182","List2B","white","woman","","","","null","","","","","","","","",""
"39379.09999996424","","","survey-text","147","1306241","0.0-15.0-3.4","88182","List2B","white","woman","","","","","{""Q0"":""kate is shouting at Mike""}","<img src=""stim_listB/shout4.gif""style=""height:400px;""></stim_listB>","is being shouted at by","","","","","",""
"null","<div style=""font-size:60px;"">+</div>","","html-keyboard-response","148","1306751","0.0-15.0-0.5","88182","List2B","white","woman","","","","null","","","","","","","","",""
"null","<img src=""stim_listB/seduce1.gif""style=""height:400px;""></stim_listB>","","html-keyboard-response","149","1308763","0.0-15.0-1.5","88182","List2B","white","woman","","","","null","","","","","","","","",""
"null","is seducing","","html-keyboard-response","150","1310773","0.0-15.0-2.5","88182","List2B","white","woman","","","","null","","","","","","","","",""
"29130.899999976158","","","survey-text","151","1339906","0.0-15.0-3.5","88182","List2B","white","woman","","","","","{""Q0"":""Jane is seducing Luke""}","<img src=""stim_listB/seduce1.gif""style=""height:400px;""></stim_listB>","is seducing","","","","","",""
"null","<div style=""font-size:60px;"">+</div>","","html-keyboard-response","152","1340419","0.0-15.0-0.6","88182","List2B","white","woman","","","","null","","","","","","","","",""
"null","<img src=""stim_listB/shout2.gif""style=""height:400px;""></stim_listB>","","html-keyboard-response","153","1342431","0.0-15.0-1.6","88182","List2B","white","woman","","","","null","","","","","","","","",""
"null","is being shouted at by","","html-keyboard-response","154","1344441","0.0-15.0-2.6","88182","List2B","white","woman","","","","null","","","","","","","","",""
"47744.40000003576","","","survey-text","155","1392189","0.0-15.0-3.6","88182","List2B","white","woman","","","","","{""Q0"":""Jane is being shouted at by dave""}","<img src=""stim_listB/shout2.gif""style=""height:400px;""></stim_listB>","is being shouted at by","","","","","",""
"null","<div style=""font-size:60px;"">+</div>","","html-keyboard-response","156","1392707","0.0-15.0-0.7","88182","List2B","white","woman","","","","null","","","","","","","","",""
"null","<img src=""stim_listB/copy7.gif""style=""height:400px;""></stim_listB>","","html-keyboard-response","157","1394717","0.0-15.0-1.7","88182","List2B","white","woman","","","","null","","","","","","","","",""
"null","is copying","","html-keyboard-response","158","1396723","0.0-15.0-2.7","88182","List2B","white","woman","","","","null","","","","","","","","",""
"25739.700000047684","","","survey-text","159","1422466","0.0-15.0-3.7","88182","List2B","white","woman","","","","","{""Q0"":""Jane is copying beth""}","<img src=""stim_listB/copy7.gif""style=""height:400px;""></stim_listB>","is copying","","","","","",""
"null","<div style=""font-size:60px;"">+</div>","","html-keyboard-response","160","1422973","0.0-15.0-0.8","88182","List2B","white","woman","","","","null","","","","","","","","",""
"null","<img src=""stim_listB/challenge5.gif""style=""height:400px;""></stim_listB>","","html-keyboard-response","161","1424979","0.0-15.0-1.8","88182","List2B","white","woman","","","","null","","","","","","","","",""
"null","is challenging","","html-keyboard-response","162","1426983","0.0-15.0-2.8","88182","List2B","white","woman","","","","null","","","","","","","","",""
"29379.600000023842","","","survey-text","163","1456366","0.0-15.0-3.8","88182","List2B","white","woman","","","","","{""Q0"":""Dave is challenging Fred""}","<img src=""stim_listB/challenge5.gif""style=""height:400px;""></stim_listB>","is challenging","","","","","",""
"null","<div style=""font-size:60px;"">+</div>","","html-keyboard-response","164","1456874","0.0-15.0-0.9","88182","List2B","white","woman","","","","null","","","","","","","","",""
"null","<img src=""stim_listB/challenge3.gif""style=""height:400px;""></stim_listB>","","html-keyboard-response","165","1458877","0.0-15.0-1.9","88182","List2B","white","woman","","","","null","","","","","","","","",""
"null","is challenging","","html-keyboard-response","166","1460884","0.0-15.0-2.9","88182","List2B","white","woman","","","","null","","","","","","","","",""
"20111.5","","","survey-text","167","1480999","0.0-15.0-3.9","88182","List2B","white","woman","","","","","{""Q0"":""Beth is challenging Mike""}","<img src=""stim_listB/challenge3.gif""style=""height:400px;""></stim_listB>","is challenging","","","","","",""
"null","<div style=""font-size:60px;"">+</div>","","html-keyboard-response","168","1481514","0.0-15.0-0.10","88182","List2B","white","woman","","","","null","","","","","","","","",""
"null","<img src=""stim_listB/hug6.gif""style=""height:400px;""></stim_listB>","","html-keyboard-response","169","1483518","0.0-15.0-1.10","88182","List2B","white","woman","","","","null","","","","","","","","",""
"null","is being hugged by","","html-keyboard-response","170","1485524","0.0-15.0-2.10","88182","List2B","white","woman","","","","null","","","","","","","","",""
"27448.900000035763","","","survey-text","171","1512977","0.0-15.0-3.10","88182","List2B","white","woman","","","","","{""Q0"":""Dave is being hugged by Mike""}","<img src=""stim_listB/hug6.gif""style=""height:400px;""></stim_listB>","is being hugged by","","","","","",""
"null","<div style=""font-size:60px;"">+</div>","","html-keyboard-response","172","1513492","0.0-15.0-0.11","88182","List2B","white","woman","","","","null","","","","","","","","",""
"null","<img src=""stim_listB/copy6.gif""style=""height:400px;""></stim_listB>","","html-keyboard-response","173","1515509","0.0-15.0-1.11","88182","List2B","white","woman","","","","null","","","","","","","","",""
"null","is being copied by","","html-keyboard-response","174","1517523","0.0-15.0-2.11","88182","List2B","white","woman","","","","null","","","","","","","","",""
"43068.39999997616","","","survey-text","175","1560595","0.0-15.0-3.11","88182","List2B","white","woman","","","","","{""Q0"":""Mike is being copied by Luke""}","<img src=""stim_listB/copy6.gif""style=""height:400px;""></stim_listB>","is being copied by","","","","","",""
"null","<div style=""font-size:60px;"">+</div>","","html-keyboard-response","176","1561103","0.0-15.0-0.12","88182","List2B","white","woman","","","","null","","","","","","","","",""
"null","<img src=""stim_listB/hug2.gif""style=""height:400px;""></stim_listB>","","html-keyboard-response","177","1563121","0.0-15.0-1.12","88182","List2B","white","woman","","","","null","","","","","","","","",""
"null","is being hugged by","","html-keyboard-response","178","1565131","0.0-15.0-2.12","88182","List2B","white","woman","","","","null","","","","","","","","",""
"24492.69999998808","","","survey-text","179","1589627","0.0-15.0-3.12","88182","List2B","white","woman","","","","","{""Q0"":""Jane is being hugged by Dave""}","<img src=""stim_listB/hug2.gif""style=""height:400px;""></stim_listB>","is being hugged by","","","","","",""
"null","<div style=""font-size:60px;"">+</div>","","html-keyboard-response","180","1590134","0.0-15.0-0.13","88182","List2B","white","woman","","","","null","","","","","","","","",""
"null","<img src=""stim_listB/shout3.gif""style=""height:400px;""></stim_listB>","","html-keyboard-response","181","1592148","0.0-15.0-1.13","88182","List2B","white","woman","","","","null","","","","","","","","",""
"null","is shouting at","","html-keyboard-response","182","1594161","0.0-15.0-2.13","88182","List2B","white","woman","","","","null","","","","","","","","",""
"46385.59999996424","","","survey-text","183","1640550","0.0-15.0-3.13","88182","List2B","white","woman","","","","","{""Q0"":""Fred is being shouted at by Beth""}","<img src=""stim_listB/shout3.gif""style=""height:400px;""></stim_listB>","is shouting at","","","","","",""
"null","<div style=""font-size:60px;"">+</div>","","html-keyboard-response","184","1641067","0.0-15.0-0.14","88182","List2B","white","woman","","","","null","","","","","","","","",""
"null","<img src=""stim_listB/oppose2.gif""style=""height:400px;""></stim_listB>","","html-keyboard-response","185","1643077","0.0-15.0-1.14","88182","List2B","white","woman","","","","null","","","","","","","","",""
"null","is being opposed by","","html-keyboard-response","186","1645085","0.0-15.0-2.14","88182","List2B","white","woman","","","","null","","","","","","","","",""
"38855.30000001192","","","survey-text","187","1683943","0.0-15.0-3.14","88182","List2B","white","woman","","","","","{""Q0"":""Ruth is being opposed by Luke""}","<img src=""stim_listB/oppose2.gif""style=""height:400px;""></stim_listB>","is being opposed by","","","","","",""
"null","<div style=""font-size:60px;"">+</div>","","html-keyboard-response","188","1684450","0.0-15.0-0.15","88182","List2B","white","woman","","","","null","","","","","","","","",""
"null","<img src=""stim_listB/seduce4.gif""style=""height:400px;""></stim_listB>","","html-keyboard-response","189","1686455","0.0-15.0-1.15","88182","List2B","white","woman","","","","null","","","","","","","","",""
"null","is being seduced by","","html-keyboard-response","190","1688461","0.0-15.0-2.15","88182","List2B","white","woman","","","","null","","","","","","","","",""
"29606","","","survey-text","191","1718070","0.0-15.0-3.15","88182","List2B","white","woman","","","","","{""Q0"":""Mike is being seduced by Beth""}","<img src=""stim_listB/seduce4.gif""style=""height:400px;""></stim_listB>","is being seduced by","","","","","",""
"null","<div style=""font-size:60px;"">+</div>","","html-keyboard-response","192","1718575","0.0-15.0-0.16","88182","List2B","white","woman","","","","null","","","","","","","","",""
"null","<img src=""stim_listB/touch1.gif""style=""height:400px;""></stim_listB>","","html-keyboard-response","193","1720587","0.0-15.0-1.16","88182","List2B","white","woman","","","","null","","","","","","","","",""
"null","is touching","","html-keyboard-response","194","1722599","0.0-15.0-2.16","88182","List2B","white","woman","","","","null","","","","","","","","",""
"26994.80000001192","","","survey-text","195","1749598","0.0-15.0-3.16","88182","List2B","white","woman","","","","","{""Q0"":""Jane is touching Dave""}","<img src=""stim_listB/touch1.gif""style=""height:400px;""></stim_listB>","is touching","","","","","",""
"null","<div style=""font-size:60px;"">+</div>","","html-keyboard-response","196","1750103","0.0-15.0-0.17","88182","List2B","white","woman","","","","null","","","","","","","","",""
"null","<img src=""stim_listB/seduce3.gif""style=""height:400px;""></stim_listB>","","html-keyboard-response","197","1752114","0.0-15.0-1.17","88182","List2B","white","woman","","","","null","","","","","","","","",""
"null","is seducing","","html-keyboard-response","198","1754122","0.0-15.0-2.17","88182","List2B","white","woman","","","","null","","","","","","","","",""
"37435.69999998808","","","survey-text","199","1791561","0.0-15.0-3.17","88182","List2B","white","woman","","","","","{""Q0"":""Kate is seducing Fred""}","<img src=""stim_listB/seduce3.gif""style=""height:400px;""></stim_listB>","is seducing","","","","","",""
"null","<div style=""font-size:60px;"">+</div>","","html-keyboard-response","200","1792064","0.0-15.0-0.18","88182","List2B","white","woman","","","","null","","","","","","","","",""
"null","<img src=""stim_listB/touch7.gif""style=""height:400px;""></stim_listB>","","html-keyboard-response","201","1794069","0.0-15.0-1.18","88182","List2B","white","woman","","","","null","","","","","","","","",""
"null","is touching","","html-keyboard-response","202","1796075","0.0-15.0-2.18","88182","List2B","white","woman","","","","null","","","","","","","","",""
"21381","","","survey-text","203","1817459","0.0-15.0-3.18","88182","List2B","white","woman","","","","","{""Q0"":""Jane is touching Kate""}","<img src=""stim_listB/touch7.gif""style=""height:400px;""></stim_listB>","is touching","","","","","",""
"null","<div style=""font-size:60px;"">+</div>","","html-keyboard-response","204","1817962","0.0-15.0-0.19","88182","List2B","white","woman","","","","null","","","","","","","","",""
"null","<img src=""stim_listB/greet4.gif""style=""height:400px;""></stim_listB>","","html-keyboard-response","205","1819965","0.0-15.0-1.19","88182","List2B","white","woman","","","","null","","","","","","","","",""
"null","is being greeted by","","html-keyboard-response","206","1821968","0.0-15.0-2.19","88182","List2B","white","woman","","","","null","","","","","","","","",""
"35955.19999998808","","","survey-text","207","1857927","0.0-15.0-3.19","88182","List2B","white","woman","","","","","{""Q0"":""Fred is being rejected by Kate""}","<img src=""stim_listB/greet4.gif""style=""height:400px;""></stim_listB>","is being greeted by","","","","","",""
"4262.199999988079","<img src='img/portrait_matrix_list2.jpg' style='width:900px;height:500px;''></img><p>If you have memorised all the portraits and names and are ready to start, press Continue.</p><p><strong>Please note: Your memory of these faces will be tested 4 times during this experiment.</strong></p>","0","html-button-response","208","1862191","0.0-16.0-0.0","88182","List2B","white","woman","","","","","","","","","","","","",""
"3734.5","<img src=""portrait/WW2.jpg""style=""height:400px;""></img>","3","html-button-response","209","1866938","0.0-16.0-1.0","88182","List2B","white","woman","","true","3","","","","","","","","","",""
"null","CORRECT","","html-keyboard-response","210","1868457","0.0-16.0-2.0-0.0","88182","List2B","white","woman","","","","null","","","","","","","","",""
"4061.800000011921","<img src=""portrait/WW1.jpg""style=""height:400px;""></img>","1","html-button-response","211","1872521","0.0-16.0-4.0","88182","List2B","white","woman","","true","1","","","","","","","","","",""
"null","CORRECT","","html-keyboard-response","212","1874043","0.0-16.0-5.0-0.0","88182","List2B","white","woman","","","","null","","","","","","","","",""
"4084.100000023842","<img src=""portrait/BM2.jpg""style=""height:400px;""></img>","5","html-button-response","213","1878129","0.0-16.0-7.0","88182","List2B","white","woman","","true","5","","","","","","","","","",""
"null","CORRECT","","html-keyboard-response","214","1879639","0.0-16.0-8.0-0.0","88182","List2B","white","woman","","","","null","","","","","","","","",""
"4047.899999976158","<img src=""portrait/WM2.jpg""style=""height:400px;""></img>","7","html-button-response","215","1883688","0.0-16.0-10.0","88182","List2B","white","woman","","true","7","","","","","","","","","",""
"null","CORRECT","","html-keyboard-response","216","1885192","0.0-16.0-11.0-0.0","88182","List2B","white","woman","","","","null","","","","","","","","",""
"2857.800000011921","<img src=""portrait/BM1.jpg""style=""height:400px;""></img>","4","html-button-response","217","1888052","0.0-16.0-13.0","88182","List2B","white","woman","","true","4","","","","","","","","","",""
"null","CORRECT","","html-keyboard-response","218","1889564","0.0-16.0-14.0-0.0","88182","List2B","white","woman","","","","null","","","","","","","","",""
"3650.2999999523163","<img src=""portrait/WM1.jpg""style=""height:400px;""></img>","6","html-button-response","219","1893217","0.0-16.0-16.0","88182","List2B","white","woman","","true","6","","","","","","","","","",""
"null","CORRECT","","html-keyboard-response","220","1894721","0.0-16.0-17.0-0.0","88182","List2B","white","woman","","","","null","","","","","","","","",""
"3436.899999976158","<img src=""portrait/BW1.jpg""style=""height:400px;""></img>","0","html-button-response","221","1898159","0.0-16.0-19.0","88182","List2B","white","woman","","true","0","","","","","","","","","",""
"null","CORRECT","","html-keyboard-response","222","1899679","0.0-16.0-20.0-0.0","88182","List2B","white","woman","","","","null","","","","","","","","",""
"3347.300000011921","<img src=""portrait/BW2.jpg""style=""height:400px;""></img>","2","html-button-response","223","1903029","0.0-16.0-22.0","88182","List2B","white","woman","","true","2","","","","","","","","","",""
"null","CORRECT","","html-keyboard-response","224","1904547","0.0-16.0-23.0-0.0","88182","List2B","white","woman","","","","null","","","","","","","","",""
"2311.600000023842","<p>You got 8 out of 8 right first time. Press Continue.</p>","0","html-button-response","225","1906861","0.0-16.0-25.0","88182","List2B","white","woman","","","","","","","","","","","","",""
"null","<div style=""font-size:60px;"">+</div>","","html-keyboard-response","226","1908379","0.0-17.0-0.0","88182","List2B","white","woman","","","","null","","","","","","","","",""
"null","<img src=""stim_listB/shout8.gif""style=""height:400px;""></stim_listB>","","html-keyboard-response","227","1910384","0.0-17.0-1.0","88182","List2B","white","woman","","","","null","","","","","","","","",""
"null","is being shouted at by","","html-keyboard-response","228","1912399","0.0-17.0-2.0","88182","List2B","white","woman","","","","null","","","","","","","","",""
"29006","","","survey-text","229","1941408","0.0-17.0-3.0","88182","List2B","white","woman","","","","","{""Q0"":""Kate is being shouted at by Jane""}","<img src=""stim_listB/shout8.gif""style=""height:400px;""></stim_listB>","is being shouted at by","","","","","",""
"null","<div style=""font-size:60px;"">+</div>","","html-keyboard-response","230","1941913","0.0-17.0-0.1","88182","List2B","white","woman","","","","null","","","","","","","","",""
"null","<img src=""stim_listB/copy4.gif""style=""height:400px;""></stim_listB>","","html-keyboard-response","231","1943925","0.0-17.0-1.1","88182","List2B","white","woman","","","","null","","","","","","","","",""
"null","is being copied by","","html-keyboard-response","232","1945940","0.0-17.0-2.1","88182","List2B","white","woman","","","","null","","","","","","","","",""
"46145.09999996424","","","survey-text","233","1992088","0.0-17.0-3.1","88182","List2B","white","woman","","","","","{""Q0"":""Kate is being copied by fred""}","<img src=""stim_listB/copy4.gif""style=""height:400px;""></stim_listB>","is being copied by","","","","","",""
"null","<div style=""font-size:60px;"">+</div>","","html-keyboard-response","234","1992603","0.0-17.0-0.2","88182","List2B","white","woman","","","","null","","","","","","","","",""
"null","<img src=""stim_listB/oppose1.gif""style=""height:400px;""></stim_listB>","","html-keyboard-response","235","1994607","0.0-17.0-1.2","88182","List2B","white","woman","","","","null","","","","","","","","",""
"null","is opposing","","html-keyboard-response","236","1996609","0.0-17.0-2.2","88182","List2B","white","woman","","","","null","","","","","","","","",""
"19201.5","","","survey-text","237","2015814","0.0-17.0-3.2","88182","List2B","white","woman","","","","","{""Q0"":""Dave is opposing Jane""}","<img src=""stim_listB/oppose1.gif""style=""height:400px;""></stim_listB>","is opposing","","","","","",""
"null","<div style=""font-size:60px;"">+</div>","","html-keyboard-response","238","2016320","0.0-17.0-0.3","88182","List2B","white","woman","","","","null","","","","","","","","",""
"null","<img src=""stim_listB/touch8.gif""style=""height:400px;""></stim_listB>","","html-keyboard-response","239","2018336","0.0-17.0-1.3","88182","List2B","white","woman","","","","null","","","","","","","","",""
"null","is being touched by","","html-keyboard-response","240","2020340","0.0-17.0-2.3","88182","List2B","white","woman","","","","null","","","","","","","","",""
"32812.60000002384","","","survey-text","241","2053156","0.0-17.0-3.3","88182","List2B","white","woman","","","","","{""Q0"":""Beth is being touched by Ruth""}","<img src=""stim_listB/touch8.gif""style=""height:400px;""></stim_listB>","is being touched by","","","","","",""
"null","<div style=""font-size:60px;"">+</div>","","html-keyboard-response","242","2053667","0.0-17.0-0.4","88182","List2B","white","woman","","","","null","","","","","","","","",""
"null","<img src=""stim_listB/copy3.gif""style=""height:400px;""></stim_listB>","","html-keyboard-response","243","2055685","0.0-17.0-1.4","88182","List2B","white","woman","","","","null","","","","","","","","",""
"null","is copying","","html-keyboard-response","244","2057700","0.0-17.0-2.4","88182","List2B","white","woman","","","","null","","","","","","","","",""
"24577.19999998808","","","survey-text","245","2082281","0.0-17.0-3.4","88182","List2B","white","woman","","","","","{""Q0"":""Mike is copying Beth""}","<img src=""stim_listB/copy3.gif""style=""height:400px;""></stim_listB>","is copying","","","","","",""
"null","<div style=""font-size:60px;"">+</div>","","html-keyboard-response","246","2082798","0.0-17.0-0.5","88182","List2B","white","woman","","","","null","","","","","","","","",""
"null","<img src=""stim_listB/look3.gif""style=""height:400px;""></stim_listB>","","html-keyboard-response","247","2084804","0.0-17.0-1.5","88182","List2B","white","woman","","","","null","","","","","","","","",""
"null","is looking at","","html-keyboard-response","248","2086820","0.0-17.0-2.5","88182","List2B","white","woman","","","","null","","","","","","","","",""
"29559.5","","","survey-text","249","2116385","0.0-17.0-3.5","88182","List2B","white","woman","","","","","{""Q0"":""Beth is looking at Fred""}","<img src=""stim_listB/look3.gif""style=""height:400px;""></stim_listB>","is looking at","","","","","",""
"null","<div style=""font-size:60px;"">+</div>","","html-keyboard-response","250","2116894","0.0-17.0-0.6","88182","List2B","white","woman","","","","null","","","","","","","","",""
"null","<img src=""stim_listB/oppose4.gif""style=""height:400px;""></stim_listB>","","html-keyboard-response","251","2118910","0.0-17.0-1.6","88182","List2B","white","woman","","","","null","","","","","","","","",""
"null","is being opposed by","","html-keyboard-response","252","2120926","0.0-17.0-2.6","88182","List2B","white","woman","","","","null","","","","","","","","",""
"35623.59999996424","","","survey-text","253","2156553","0.0-17.0-3.6","88182","List2B","white","woman","","","","","{""Q0"":""Beth is being opposed by Fred""}","<img src=""stim_listB/oppose4.gif""style=""height:400px;""></stim_listB>","is being opposed by","","","","","",""
"null","<div style=""font-size:60px;"">+</div>","","html-keyboard-response","254","2157060","0.0-17.0-0.7","88182","List2B","white","woman","","","","null","","","","","","","","",""
"null","<img src=""stim_listB/look2.gif""style=""height:400px;""></stim_listB>","","html-keyboard-response","255","2159077","0.0-17.0-1.7","88182","List2B","white","woman","","","","null","","","","","","","","",""
"null","is being looked at by","","html-keyboard-response","256","2161089","0.0-17.0-2.7","88182","List2B","white","woman","","","","null","","","","","","","","",""
"55074.89999997616","","","survey-text","257","2216167","0.0-17.0-3.7","88182","List2B","white","woman","","","","","{""Q0"":""Jane is being looked at by Dave""}","<img src=""stim_listB/look2.gif""style=""height:400px;""></stim_listB>","is being looked at by","","","","","",""
"null","<div style=""font-size:60px;"">+</div>","","html-keyboard-response","258","2216679","0.0-17.0-0.8","88182","List2B","white","woman","","","","null","","","","","","","","",""
"null","<img src=""stim_listB/hug7.gif""style=""height:400px;""></stim_listB>","","html-keyboard-response","259","2218682","0.0-17.0-1.8","88182","List2B","white","woman","","","","null","","","","","","","","",""
"null","is hugging","","html-keyboard-response","260","2220693","0.0-17.0-2.8","88182","List2B","white","woman","","","","null","","","","","","","","",""
"26443.299999952316","","","survey-text","261","2247140","0.0-17.0-3.8","88182","List2B","white","woman","","","","","{""Q0"":""Ruth is hugging Beth""}","<img src=""stim_listB/hug7.gif""style=""height:400px;""></stim_listB>","is hugging","","","","","",""
"null","<div style=""font-size:60px;"">+</div>","","html-keyboard-response","262","2247652","0.0-17.0-0.9","88182","List2B","white","woman","","","","null","","","","","","","","",""
"null","<img src=""stim_listB/challenge2.gif""style=""height:400px;""></stim_listB>","","html-keyboard-response","263","2249655","0.0-17.0-1.9","88182","List2B","white","woman","","","","null","","","","","","","","",""
"null","is being challenged by","","html-keyboard-response","264","2251657","0.0-17.0-2.9","88182","List2B","white","woman","","","","null","","","","","","","","",""
"29421.400000035763","","","survey-text","265","2281082","0.0-17.0-3.9","88182","List2B","white","woman","","","","","{""Q0"":""Jane is being challenged by Luke""}","<img src=""stim_listB/challenge2.gif""style=""height:400px;""></stim_listB>","is being challenged by","","","","","",""
"null","<div style=""font-size:60px;"">+</div>","","html-keyboard-response","266","2281598","0.0-17.0-0.10","88182","List2B","white","woman","","","","null","","","","","","","","",""
"null","<img src=""stim_listB/copy1.gif""style=""height:400px;""></stim_listB>","","html-keyboard-response","267","2283616","0.0-17.0-1.10","88182","List2B","white","woman","","","","null","","","","","","","","",""
"null","is copying","","html-keyboard-response","268","2285631","0.0-17.0-2.10","88182","List2B","white","woman","","","","null","","","","","","","","",""
"26764.600000023842","","","survey-text","269","2312398","0.0-17.0-3.10","88182","List2B","white","woman","","","","","{""Q0"":""Dave is copying Ruth""}","<img src=""stim_listB/copy1.gif""style=""height:400px;""></stim_listB>","is copying","","","","","",""
"null","<div style=""font-size:60px;"">+</div>","","html-keyboard-response","270","2312910","0.0-17.0-0.11","88182","List2B","white","woman","","","","null","","","","","","","","",""
"null","<img src=""stim_listB/greet2.gif""style=""height:400px;""></stim_listB>","","html-keyboard-response","271","2314912","0.0-17.0-1.11","88182","List2B","white","woman","","","","null","","","","","","","","",""
"null","is being greeted by","","html-keyboard-response","272","2316923","0.0-17.0-2.11","88182","List2B","white","woman","","","","null","","","","","","","","",""
"44994.40000003576","","","survey-text","273","2361922","0.0-17.0-3.11","88182","List2B","white","woman","","","","","{""Q0"":""Jane is being greeted by Luke""}","<img src=""stim_listB/greet2.gif""style=""height:400px;""></stim_listB>","is being greeted by","","","","","",""
"null","<div style=""font-size:60px;"">+</div>","","html-keyboard-response","274","2362431","0.0-17.0-0.12","88182","List2B","white","woman","","","","null","","","","","","","","",""
"null","<img src=""stim_listB/kiss8.gif""style=""height:400px;""></stim_listB>","","html-keyboard-response","275","2364434","0.0-17.0-1.12","88182","List2B","white","woman","","","","null","","","","","","","","",""
"null","is being kissed by","","html-keyboard-response","276","2366441","0.0-17.0-2.12","88182","List2B","white","woman","","","","null","","","","","","","","",""
"29471.5","","","survey-text","277","2395915","0.0-17.0-3.12","88182","List2B","white","woman","","","","","{""Q0"":""Kate is being kissed by Jane""}","<img src=""stim_listB/kiss8.gif""style=""height:400px;""></stim_listB>","is being kissed by","","","","","",""
"null","<div style=""font-size:60px;"">+</div>","","html-keyboard-response","278","2396425","0.0-17.0-0.13","88182","List2B","white","woman","","","","null","","","","","","","","",""
"null","<img src=""stim_listB/look8.gif""style=""height:400px;""></stim_listB>","","html-keyboard-response","279","2398428","0.0-17.0-1.13","88182","List2B","white","woman","","","","null","","","","","","","","",""
"null","is being looked at by","","html-keyboard-response","280","2400435","0.0-17.0-2.13","88182","List2B","white","woman","","","","null","","","","","","","","",""
"38050.5","","","survey-text","281","2438488","0.0-17.0-3.13","88182","List2B","white","woman","","","","","{""Q0"":""jane is being looked at by kate""}","<img src=""stim_listB/look8.gif""style=""height:400px;""></stim_listB>","is being looked at by","","","","","",""
"null","<div style=""font-size:60px;"">+</div>","","html-keyboard-response","282","2439005","0.0-17.0-0.14","88182","List2B","white","woman","","","","null","","","","","","","","",""
"null","<img src=""stim_listB/greet6.gif""style=""height:400px;""></stim_listB>","","html-keyboard-response","283","2441007","0.0-17.0-1.14","88182","List2B","white","woman","","","","null","","","","","","","","",""
"null","is being greeted by","","html-keyboard-response","284","2443010","0.0-17.0-2.14","88182","List2B","white","woman","","","","null","","","","","","","","",""
"23009.399999976158","","","survey-text","285","2466024","0.0-17.0-3.14","88182","List2B","white","woman","","","","","{""Q0"":""Mike is being greeted by Luke""}","<img src=""stim_listB/greet6.gif""style=""height:400px;""></stim_listB>","is being greeted by","","","","","",""
"null","<div style=""font-size:60px;"">+</div>","","html-keyboard-response","286","2466527","0.0-17.0-0.15","88182","List2B","white","woman","","","","null","","","","","","","","",""
"null","<img src=""stim_listB/seduce8.gif""style=""height:400px;""></stim_listB>","","html-keyboard-response","287","2468537","0.0-17.0-1.15","88182","List2B","white","woman","","","","null","","","","","","","","",""
"null","is being seduced by","","html-keyboard-response","288","2470539","0.0-17.0-2.15","88182","List2B","white","woman","","","","null","","","","","","","","",""
"25493.100000023842","","","survey-text","289","2496036","0.0-17.0-3.15","88182","List2B","white","woman","","","","","{""Q0"":""Jane is being seduced by Beth""}","<img src=""stim_listB/seduce8.gif""style=""height:400px;""></stim_listB>","is being seduced by","","","","","",""
"null","<div style=""font-size:60px;"">+</div>","","html-keyboard-response","290","2496548","0.0-17.0-0.16","88182","List2B","white","woman","","","","null","","","","","","","","",""
"null","<img src=""stim_listB/touch4.gif""style=""height:400px;""></stim_listB>","","html-keyboard-response","291","2498560","0.0-17.0-1.16","88182","List2B","white","woman","","","","null","","","","","","","","",""
"null","is being touched by","","html-keyboard-response","292","2500574","0.0-17.0-2.16","88182","List2B","white","woman","","","","null","","","","","","","","",""
"29576.69999998808","","","survey-text","293","2530154","0.0-17.0-3.16","88182","List2B","white","woman","","","","","{""Q0"":""Beth is being touched by fred""}","<img src=""stim_listB/touch4.gif""style=""height:400px;""></stim_listB>","is being touched by","","","","","",""
"null","<div style=""font-size:60px;"">+</div>","","html-keyboard-response","294","2530663","0.0-17.0-0.17","88182","List2B","white","woman","","","","null","","","","","","","","",""
"null","<img src=""stim_listB/copy2.gif""style=""height:400px;""></stim_listB>","","html-keyboard-response","295","2532673","0.0-17.0-1.17","88182","List2B","white","woman","","","","null","","","","","","","","",""
"null","is being copied by","","html-keyboard-response","296","2534676","0.0-17.0-2.17","88182","List2B","white","woman","","","","null","","","","","","","","",""
"20718.899999976158","","","survey-text","297","2555398","0.0-17.0-3.17","88182","List2B","white","woman","","","","","{""Q0"":""Jane is being copied by Luke""}","<img src=""stim_listB/copy2.gif""style=""height:400px;""></stim_listB>","is being copied by","","","","","",""
"null","<div style=""font-size:60px;"">+</div>","","html-keyboard-response","298","2555913","0.0-17.0-0.18","88182","List2B","white","woman","","","","null","","","","","","","","",""
"null","<img src=""stim_listB/kiss1.gif""style=""height:400px;""></stim_listB>","","html-keyboard-response","299","2557927","0.0-17.0-1.18","88182","List2B","white","woman","","","","null","","","","","","","","",""
"null","is kissing","","html-keyboard-response","300","2559938","0.0-17.0-2.18","88182","List2B","white","woman","","","","null","","","","","","","","",""
"33593.200000047684","","","survey-text","301","2593535","0.0-17.0-3.18","88182","List2B","white","woman","","","","","{""Q0"":""Luke is kissing Ruth""}","<img src=""stim_listB/kiss1.gif""style=""height:400px;""></stim_listB>","is kissing","","","","","",""
"null","<div style=""font-size:60px;"">+</div>","","html-keyboard-response","302","2594040","0.0-17.0-0.19","88182","List2B","white","woman","","","","null","","","","","","","","",""
"null","<img src=""stim_listB/oppose6.gif""style=""height:400px;""></stim_listB>","","html-keyboard-response","303","2596052","0.0-17.0-1.19","88182","List2B","white","woman","","","","null","","","","","","","","",""
"null","is being opposed by","","html-keyboard-response","304","2598067","0.0-17.0-2.19","88182","List2B","white","woman","","","","null","","","","","","","","",""
"28214.30000001192","","","survey-text","305","2626285","0.0-17.0-3.19","88182","List2B","white","woman","","","","","{""Q0"":""Fred is being opposed by Luke""}","<img src=""stim_listB/oppose6.gif""style=""height:400px;""></stim_listB>","is being opposed by","","","","","",""
"5311","<img src='img/portrait_matrix_list2.jpg' style='width:900px;height:500px;''></img><p>If you have memorised all the portraits and names and are ready to start, press Continue.</p><p><strong>Please note: Your memory of these faces will be tested 4 times during this experiment.</strong></p>","0","html-button-response","306","2631598","0.0-18.0-0.0","88182","List2B","white","woman","","","","","","","","","","","","",""
"5276.199999988079","<img src=""portrait/WW2.jpg""style=""height:400px;""></img>","3","html-button-response","307","2637886","0.0-18.0-1.0","88182","List2B","white","woman","","true","3","","","","","","","","","",""
"null","CORRECT","","html-keyboard-response","308","2639407","0.0-18.0-2.0-0.0","88182","List2B","white","woman","","","","null","","","","","","","","",""
"3727.099999964237","<img src=""portrait/WM2.jpg""style=""height:400px;""></img>","7","html-button-response","309","2643136","0.0-18.0-4.0","88182","List2B","white","woman","","true","7","","","","","","","","","",""
"null","CORRECT","","html-keyboard-response","310","2644649","0.0-18.0-5.0-0.0","88182","List2B","white","woman","","","","null","","","","","","","","",""
"2898.699999988079","<img src=""portrait/BM2.jpg""style=""height:400px;""></img>","5","html-button-response","311","2647550","0.0-18.0-7.0","88182","List2B","white","woman","","true","5","","","","","","","","","",""
"null","CORRECT","","html-keyboard-response","312","2649053","0.0-18.0-8.0-0.0","88182","List2B","white","woman","","","","null","","","","","","","","",""
"4593.899999976158","<img src=""portrait/WM1.jpg""style=""height:400px;""></img>","6","html-button-response","313","2653650","0.0-18.0-10.0","88182","List2B","white","woman","","true","6","","","","","","","","","",""
"null","CORRECT","","html-keyboard-response","314","2655171","0.0-18.0-11.0-0.0","88182","List2B","white","woman","","","","null","","","","","","","","",""
"3445.099999964237","<img src=""portrait/BM1.jpg""style=""height:400px;""></img>","4","html-button-response","315","2658618","0.0-18.0-13.0","88182","List2B","white","woman","","true","4","","","","","","","","","",""
"null","CORRECT","","html-keyboard-response","316","2660144","0.0-18.0-14.0-0.0","88182","List2B","white","woman","","","","null","","","","","","","","",""
"6409.199999988079","<img src=""portrait/WW1.jpg""style=""height:400px;""></img>","1","html-button-response","317","2666556","0.0-18.0-16.0","88182","List2B","white","woman","","true","1","","","","","","","","","",""
"null","CORRECT","","html-keyboard-response","318","2668079","0.0-18.0-17.0-0.0","88182","List2B","white","woman","","","","null","","","","","","","","",""
"6487.899999976158","<img src=""portrait/BW2.jpg""style=""height:400px;""></img>","2","html-button-response","319","2674569","0.0-18.0-19.0","88182","List2B","white","woman","","true","2","","","","","","","","","",""
"null","CORRECT","","html-keyboard-response","320","2676089","0.0-18.0-20.0-0.0","88182","List2B","white","woman","","","","null","","","","","","","","",""
"8659.5","<img src=""portrait/BW1.jpg""style=""height:400px;""></img>","0","html-button-response","321","2684750","0.0-18.0-22.0","88182","List2B","white","woman","","true","0","","","","","","","","","",""
"null","CORRECT","","html-keyboard-response","322","2686266","0.0-18.0-23.0-0.0","88182","List2B","white","woman","","","","null","","","","","","","","",""
"4533.5","<p>You got 8 out of 8 right first time. Press Continue.</p>","0","html-button-response","323","2690802","0.0-18.0-25.0","88182","List2B","white","woman","","","","","","","","","","","","",""
"null","<div style=""font-size:60px;"">+</div>","","html-keyboard-response","324","2692321","0.0-19.0-0.0","88182","List2B","white","woman","","","","null","","","","","","","","",""
"null","<img src=""stim_listB/kiss3.gif""style=""height:400px;""></stim_listB>","","html-keyboard-response","325","2694335","0.0-19.0-1.0","88182","List2B","white","woman","","","","null","","","","","","","","",""
"null","is kissing","","html-keyboard-response","326","2696338","0.0-19.0-2.0","88182","List2B","white","woman","","","","null","","","","","","","","",""
"23887.099999964237","","","survey-text","327","2720228","0.0-19.0-3.0","88182","List2B","white","woman","","","","","{""Q0"":""Fred is kissing Beth""}","<img src=""stim_listB/kiss3.gif""style=""height:400px;""></stim_listB>","is kissing","","","","","",""
"null","<div style=""font-size:60px;"">+</div>","","html-keyboard-response","328","2720736","0.0-19.0-0.1","88182","List2B","white","woman","","","","null","","","","","","","","",""
"null","<img src=""stim_listB/touch2.gif""style=""height:400px;""></stim_listB>","","html-keyboard-response","329","2722739","0.0-19.0-1.1","88182","List2B","white","woman","","","","null","","","","","","","","",""
"null","is being touched by","","html-keyboard-response","330","2724742","0.0-19.0-2.1","88182","List2B","white","woman","","","","null","","","","","","","","",""
"23597.19999998808","","","survey-text","331","2748342","0.0-19.0-3.1","88182","List2B","white","woman","","","","","{""Q0"":""Ruth is being touched by Luke""}","<img src=""stim_listB/touch2.gif""style=""height:400px;""></stim_listB>","is being touched by","","","","","",""
"null","<div style=""font-size:60px;"">+</div>","","html-keyboard-response","332","2748850","0.0-19.0-0.2","88182","List2B","white","woman","","","","null","","","","","","","","",""
"null","<img src=""stim_listB/shout1.gif""style=""height:400px;""></stim_listB>","","html-keyboard-response","333","2750862","0.0-19.0-1.2","88182","List2B","white","woman","","","","null","","","","","","","","",""
"null","is shouting at","","html-keyboard-response","334","2752876","0.0-19.0-2.2","88182","List2B","white","woman","","","","null","","","","","","","","",""
"23010.700000047684","","","survey-text","335","2775891","0.0-19.0-3.2","88182","List2B","white","woman","","","","","{""Q0"":""Luke is shouting at Ruth""}","<img src=""stim_listB/shout1.gif""style=""height:400px;""></stim_listB>","is shouting at","","","","","",""
"null","<div style=""font-size:60px;"">+</div>","","html-keyboard-response","336","2776403","0.0-19.0-0.3","88182","List2B","white","woman","","","","null","","","","","","","","",""
"null","<img src=""stim_listB/touch3.gif""style=""height:400px;""></stim_listB>","","html-keyboard-response","337","2778409","0.0-19.0-1.3","88182","List2B","white","woman","","","","null","","","","","","","","",""
"null","is touching","","html-keyboard-response","338","2780417","0.0-19.0-2.3","88182","List2B","white","woman","","","","null","","","","","","","","",""
"25817.899999976158","","","survey-text","339","2806237","0.0-19.0-3.3","88182","List2B","white","woman","","","","","{""Q0"":""Mike is touching Kate""}","<img src=""stim_listB/touch3.gif""style=""height:400px;""></stim_listB>","is touching","","","","","",""
"null","<div style=""font-size:60px;"">+</div>","","html-keyboard-response","340","2806750","0.0-19.0-0.4","88182","List2B","white","woman","","","","null","","","","","","","","",""
"null","<img src=""stim_listB/seduce6.gif""style=""height:400px;""></stim_listB>","","html-keyboard-response","341","2808755","0.0-19.0-1.4","88182","List2B","white","woman","","","","null","","","","","","","","",""
"null","is being seduced by","","html-keyboard-response","342","2810770","0.0-19.0-2.4","88182","List2B","white","woman","","","","null","","","","","","","","",""
"27067.900000035763","","","survey-text","343","2837841","0.0-19.0-3.4","88182","List2B","white","woman","","","","","{""Q0"":""Fred is being seduced by dave""}","<img src=""stim_listB/seduce6.gif""style=""height:400px;""></stim_listB>","is being seduced by","","","","","",""
"null","<div style=""font-size:60px;"">+</div>","","html-keyboard-response","344","2838354","0.0-19.0-0.5","88182","List2B","white","woman","","","","null","","","","","","","","",""
"null","<img src=""stim_listB/hug1.gif""style=""height:400px;""></stim_listB>","","html-keyboard-response","345","2840368","0.0-19.0-1.5","88182","List2B","white","woman","","","","null","","","","","","","","",""
"null","is hugging","","html-keyboard-response","346","2842384","0.0-19.0-2.5","88182","List2B","white","woman","","","","null","","","","","","","","",""
"22309","","","survey-text","347","2864696","0.0-19.0-3.5","88182","List2B","white","woman","","","","","{""Q0"":""MIke is hugging Ruth""}","<img src=""stim_listB/hug1.gif""style=""height:400px;""></stim_listB>","is hugging","","","","","",""
"null","<div style=""font-size:60px;"">+</div>","","html-keyboard-response","348","2865212","0.0-19.0-0.6","88182","List2B","white","woman","","","","null","","","","","","","","",""
"null","<img src=""stim_listB/greet5.gif""style=""height:400px;""></stim_listB>","","html-keyboard-response","349","2867218","0.0-19.0-1.6","88182","List2B","white","woman","","","","null","","","","","","","","",""
"null","is greeting","","html-keyboard-response","350","2869230","0.0-19.0-2.6","88182","List2B","white","woman","","","","null","","","","","","","","",""
"28100.5","","","survey-text","351","2897334","0.0-19.0-3.6","88182","List2B","white","woman","","","","","{""Q0"":""Dave is greeting Fred""}","<img src=""stim_listB/greet5.gif""style=""height:400px;""></stim_listB>","is greeting","","","","","",""
"null","<div style=""font-size:60px;"">+</div>","","html-keyboard-response","352","2897842","0.0-19.0-0.7","88182","List2B","white","woman","","","","null","","","","","","","","",""
"null","<img src=""stim_listB/greet8.gif""style=""height:400px;""></stim_listB>","","html-keyboard-response","353","2899845","0.0-19.0-1.7","88182","List2B","white","woman","","","","null","","","","","","","","",""
"null","is being greeted by","","html-keyboard-response","354","2901861","0.0-19.0-2.7","88182","List2B","white","woman","","","","null","","","","","","","","",""
"29857.5","","","survey-text","355","2931722","0.0-19.0-3.7","88182","List2B","white","woman","","","","","{""Q0"":""Kate is being greeted by Ruth""}","<img src=""stim_listB/greet8.gif""style=""height:400px;""></stim_listB>","is being greeted by","","","","","",""
"null","<div style=""font-size:60px;"">+</div>","","html-keyboard-response","356","2932229","0.0-19.0-0.8","88182","List2B","white","woman","","","","null","","","","","","","","",""
"null","<img src=""stim_listB/look4.gif""style=""height:400px;""></stim_listB>","","html-keyboard-response","357","2934233","0.0-19.0-1.8","88182","List2B","white","woman","","","","null","","","","","","","","",""
"null","is being looked at by","","html-keyboard-response","358","2936248","0.0-19.0-2.8","88182","List2B","white","woman","","","","null","","","","","","","","",""
"23658.899999976158","","","survey-text","359","2959911","0.0-19.0-3.8","88182","List2B","white","woman","","","","","{""Q0"":""Kate is being looked at by Mike""}","<img src=""stim_listB/look4.gif""style=""height:400px;""></stim_listB>","is being looked at by","","","","","",""
"null","<div style=""font-size:60px;"">+</div>","","html-keyboard-response","360","2960413","0.0-19.0-0.9","88182","List2B","white","woman","","","","null","","","","","","","","",""
"null","<img src=""stim_listB/shout5.gif""style=""height:400px;""></stim_listB>","","html-keyboard-response","361","2962425","0.0-19.0-1.9","88182","List2B","white","woman","","","","null","","","","","","","","",""
"null","is shouting at","","html-keyboard-response","362","2964438","0.0-19.0-2.9","88182","List2B","white","woman","","","","null","","","","","","","","",""
"36379.30000001192","","","survey-text","363","3000820","0.0-19.0-3.9","88182","List2B","white","woman","","","","","{""Q0"":""Luke is shouting at Fred""}","<img src=""stim_listB/shout5.gif""style=""height:400px;""></stim_listB>","is shouting at","","","","","",""
"null","<div style=""font-size:60px;"">+</div>","","html-keyboard-response","364","3001335","0.0-19.0-0.10","88182","List2B","white","woman","","","","null","","","","","","","","",""
"null","<img src=""stim_listB/seduce5.gif""style=""height:400px;""></stim_listB>","","html-keyboard-response","365","3003337","0.0-19.0-1.10","88182","List2B","white","woman","","","","null","","","","","","","","",""
"null","is seducing","","html-keyboard-response","366","3005342","0.0-19.0-2.10","88182","List2B","white","woman","","","","null","","","","","","","","",""
"15198.399999976158","","","survey-text","367","3020544","0.0-19.0-3.10","88182","List2B","white","woman","","","","","{""Q0"":""Luke is seducing Mike""}","<img src=""stim_listB/seduce5.gif""style=""height:400px;""></stim_listB>","is seducing","","","","","",""
"null","<div style=""font-size:60px;"">+</div>","","html-keyboard-response","368","3021061","0.0-19.0-0.11","88182","List2B","white","woman","","","","null","","","","","","","","",""
"null","<img src=""stim_listB/copy8.gif""style=""height:400px;""></stim_listB>","","html-keyboard-response","369","3023076","0.0-19.0-1.11","88182","List2B","white","woman","","","","null","","","","","","","","",""
"null","is being copied by","","html-keyboard-response","370","3025079","0.0-19.0-2.11","88182","List2B","white","woman","","","","null","","","","","","","","",""
"48306.09999996424","","","survey-text","371","3073388","0.0-19.0-3.11","88182","List2B","white","woman","","","","","{""Q0"":""Kate is being copied by Ruth""}","<img src=""stim_listB/copy8.gif""style=""height:400px;""></stim_listB>","is being copied by","","","","","",""
"null","<div style=""font-size:60px;"">+</div>","","html-keyboard-response","372","3073892","0.0-19.0-0.12","88182","List2B","white","woman","","","","null","","","","","","","","",""
"null","<img src=""stim_listB/seduce2.gif""style=""height:400px;""></stim_listB>","","html-keyboard-response","373","3075901","0.0-19.0-1.12","88182","List2B","white","woman","","","","null","","","","","","","","",""
"null","is being seduced by","","html-keyboard-response","374","3077903","0.0-19.0-2.12","88182","List2B","white","woman","","","","null","","","","","","","","",""
"33889.69999998808","","","survey-text","375","3111796","0.0-19.0-3.12","88182","List2B","white","woman","","","","","{""Q0"":""Dave is being seduced by Ruth""}","<img src=""stim_listB/seduce2.gif""style=""height:400px;""></stim_listB>","is being seduced by","","","","","",""
"null","<div style=""font-size:60px;"">+</div>","","html-keyboard-response","376","3112316","0.0-19.0-0.13","88182","List2B","white","woman","","","","null","","","","","","","","",""
"null","<img src=""stim_listB/look6.gif""style=""height:400px;""></stim_listB>","","html-keyboard-response","377","3114319","0.0-19.0-1.13","88182","List2B","white","woman","","","","null","","","","","","","","",""
"null","is being looked at by","","html-keyboard-response","378","3116330","0.0-19.0-2.13","88182","List2B","white","woman","","","","null","","","","","","","","",""
"49836","","","survey-text","379","3166170","0.0-19.0-3.13","88182","List2B","white","woman","","","","","{""Q0"":""MIke is being looked at by Dave""}","<img src=""stim_listB/look6.gif""style=""height:400px;""></stim_listB>","is being looked at by","","","","","",""
"null","<div style=""font-size:60px;"">+</div>","","html-keyboard-response","380","3166683","0.0-19.0-0.14","88182","List2B","white","woman","","","","null","","","","","","","","",""
"null","<img src=""stim_listB/kiss6.gif""style=""height:400px;""></stim_listB>","","html-keyboard-response","381","3168699","0.0-19.0-1.14","88182","List2B","white","woman","","","","null","","","","","","","","",""
"null","is being kissed by","","html-keyboard-response","382","3170718","0.0-19.0-2.14","88182","List2B","white","woman","","","","null","","","","","","","","",""
"29902.69999998808","","","survey-text","383","3200624","0.0-19.0-3.14","88182","List2B","white","woman","","","","","{""Q0"":""Mike is being kissed by Dave""}","<img src=""stim_listB/kiss6.gif""style=""height:400px;""></stim_listB>","is being kissed by","","","","","",""
"null","<div style=""font-size:60px;"">+</div>","","html-keyboard-response","384","3201138","0.0-19.0-0.15","88182","List2B","white","woman","","","","null","","","","","","","","",""
"null","<img src=""stim_listB/shout6.gif""style=""height:400px;""></stim_listB>","","html-keyboard-response","385","3203148","0.0-19.0-1.15","88182","List2B","white","woman","","","","null","","","","","","","","",""
"null","is being shouted at by","","html-keyboard-response","386","3205156","0.0-19.0-2.15","88182","List2B","white","woman","","","","null","","","","","","","","",""
"25316.19999998808","","","survey-text","387","3230477","0.0-19.0-3.15","88182","List2B","white","woman","","","","","{""Q0"":""Mike is being shouted at by dave""}","<img src=""stim_listB/shout6.gif""style=""height:400px;""></stim_listB>","is being shouted at by","","","","","",""
"null","<div style=""font-size:60px;"">+</div>","","html-keyboard-response","388","3230990","0.0-19.0-0.16","88182","List2B","white","woman","","","","null","","","","","","","","",""
"null","<img src=""stim_listB/hug8.gif""style=""height:400px;""></stim_listB>","","html-keyboard-response","389","3233002","0.0-19.0-1.16","88182","List2B","white","woman","","","","null","","","","","","","","",""
"null","is being hugged by","","html-keyboard-response","390","3235016","0.0-19.0-2.16","88182","List2B","white","woman","","","","null","","","","","","","","",""
"30130.69999998808","","","survey-text","391","3265153","0.0-19.0-3.16","88182","List2B","white","woman","","","","","{""Q0"":""Kate is being hugged by Jane""}","<img src=""stim_listB/hug8.gif""style=""height:400px;""></stim_listB>","is being hugged by","","","","","",""
"null","<div style=""font-size:60px;"">+</div>","","html-keyboard-response","392","3265661","0.0-19.0-0.17","88182","List2B","white","woman","","","","null","","","","","","","","",""
"null","<img src=""stim_listB/hug5.gif""style=""height:400px;""></stim_listB>","","html-keyboard-response","393","3267675","0.0-19.0-1.17","88182","List2B","white","woman","","","","null","","","","","","","","",""
"null","is hugging","","html-keyboard-response","394","3269677","0.0-19.0-2.17","88182","List2B","white","woman","","","","null","","","","","","","","",""
"30132.5","","","survey-text","395","3299813","0.0-19.0-3.17","88182","List2B","white","woman","","","","","{""Q0"":""Luke is hugging Fred""}","<img src=""stim_listB/hug5.gif""style=""height:400px;""></stim_listB>","is hugging","","","","","",""
"null","<div style=""font-size:60px;"">+</div>","","html-keyboard-response","396","3300320","0.0-19.0-0.18","88182","List2B","white","woman","","","","null","","","","","","","","",""
"null","<img src=""stim_listB/oppose5.gif""style=""height:400px;""></stim_listB>","","html-keyboard-response","397","3302329","0.0-19.0-1.18","88182","List2B","white","woman","","","","null","","","","","","","","",""
"null","is opposing","","html-keyboard-response","398","3304333","0.0-19.0-2.18","88182","List2B","white","woman","","","","null","","","","","","","","",""
"17320","","","survey-text","399","3321655","0.0-19.0-3.18","88182","List2B","white","woman","","","","","{""Q0"":""MIke is opposing Dave ""}","<img src=""stim_listB/oppose5.gif""style=""height:400px;""></stim_listB>","is opposing","","","","","",""
"null","<div style=""font-size:60px;"">+</div>","","html-keyboard-response","400","3322168","0.0-19.0-0.19","88182","List2B","white","woman","","","","null","","","","","","","","",""
"null","<img src=""stim_listB/challenge7.gif""style=""height:400px;""></stim_listB>","","html-keyboard-response","401","3324173","0.0-19.0-1.19","88182","List2B","white","woman","","","","null","","","","","","","","",""
"null","is challenging","","html-keyboard-response","402","3326178","0.0-19.0-2.19","88182","List2B","white","woman","","","","null","","","","","","","","",""
"31366.600000023842","","","survey-text","403","3357547","0.0-19.0-3.19","88182","List2B","white","woman","","","","","{""Q0"":""Beth is challenging Jane""}","<img src=""stim_listB/challenge7.gif""style=""height:400px;""></stim_listB>","is challenging","","","","","",""
"11352.100000023842","<p>Thank you for completing that task.</p><p>The final part of this session is a questionnaire that will take about 4 minutes.</p><p>Press Continue.</p>","0","html-button-response","404","3368901","0.0-20.0","88182","List2B","white","woman","","","","","","","","","","","","",""
"354786.8000000119","","","survey-text","405","3724709","0.0-21.0","88182","List2B","white","woman","","","","","{""Q0"":""37"",""Q1"":""English"",""Q2"":""English"",""Q3"":""United States"",""Q4"":""United States"",""Q5"":""White"",""Q6"":""Female""}","","","demographics","","","","",""
"35712.799999952316","<p>Have you lived in the USA for the last 5 years or more?</p>","0","html-button-response","406","3760425","0.0-22.0","88182","List2B","white","woman","","","","","","","","fiveyears","","","","",""
"5640.900000035763","<p>Move the slider to show the extent to which you agree with the following statements.</p>","0","html-button-response","407","3767070","0.0-23.0","88182","List2B","white","woman","","","","","","","","","","","","",""
"12814.699999988079","","","html-slider-response","408","3780903","0.0-24.0-0.0-0.0","88182","List2B","white","woman","","","","","","","","survey_gender","69","","","Most of the friends in my life are very similar to me.","filler"
"4040.699999988079","","","html-slider-response","409","3784946","0.0-24.0-0.0-0.1","88182","List2B","white","woman","","","","","","","","survey_gender","67","","","My friends understand me.","filler"
"6064.5","","","html-slider-response","410","3791013","0.0-24.0-0.0-0.2","88182","List2B","white","woman","","","","","","","","survey_gender","66","","","Routine is not important to me.","filler"
"5015.300000011921","","","html-slider-response","411","3796031","0.0-24.0-0.0-0.3","88182","List2B","white","woman","","","","","","","","survey_gender","75","","","I feel committed to my gender.","committed"
"13014.399999976158","","","html-slider-response","412","3809048","0.0-24.0-0.0-0.4","88182","List2B","white","woman","","","","","","","","survey_gender","63","","","People of my gender have a lot in common with each other.","common"
"5125.399999976158","","","html-slider-response","413","3814176","0.0-24.0-0.0-0.5","88182","List2B","white","woman","","","","","","","","survey_gender","70","","","Being around my friends gives me a good feeling.","filler"
"3326.899999976158","","","html-slider-response","414","3817506","0.0-24.0-0.0-0.6","88182","List2B","white","woman","","","","","","","","survey_gender","70","","","I feel solidarity with my friends.","filler"
"4681.899999976158","","","html-slider-response","415","3822190","0.0-24.0-0.0-0.7","88182","List2B","white","woman","","","","","","","","survey_gender","70","","","I have a lot in common with the average person of my gender.","average"
"4830.699999988079","","","html-slider-response","416","3827023","0.0-24.0-0.0-0.8","88182","List2B","white","woman","","","","","","","","survey_gender","72","","","The fact that I am my gender is an important part of my identity.","identity"
"3313.399999976158","","","html-slider-response","417","3830339","0.0-24.0-0.0-0.9","88182","List2B","white","woman","","","","","","","","survey_gender","71","","","It is pleasant to be my gender.","pleasant"
"3733","","","html-slider-response","418","3834075","0.0-24.0-0.0-0.10","88182","List2B","white","woman","","","","","","","","survey_gender","68","","","Being my gender gives me a good feeling.","feeling"
"4040.699999988079","","","html-slider-response","419","3838118","0.0-24.0-0.0-0.11","88182","List2B","white","woman","","","","","","","","survey_gender","71","","","I have a lot in common with my friends.","filler"
"9589.900000035763","","","html-slider-response","420","3847710","0.0-24.0-0.0-0.12","88182","List2B","white","woman","","","","","","","","survey_gender","69","","","I often think about my actions.","filler"
"3303","","","html-slider-response","421","3851015","0.0-24.0-0.0-0.13","88182","List2B","white","woman","","","","","","","","survey_gender","74","","","My friends have a lot in common with each other.","filler"
"3721.5","","","html-slider-response","422","3854738","0.0-24.0-0.0-0.14","88182","List2B","white","woman","","","","","","","","survey_gender","74","","","I am glad to have the friends that I have.","filler"
"21574","","","html-slider-response","423","3876314","0.0-24.0-0.0-0.15","88182","List2B","white","woman","","","","","","","","survey_gender","70","","","I consider myself a highly empathetic person.","filler"
"15212.800000011921","","","html-slider-response","424","3891529","0.0-24.0-0.0-0.16","88182","List2B","white","woman","","","","","","","","survey_gender","26","","","Family is not more important to me than friendship.","filler"
"6776.300000011921","","","html-slider-response","425","3898308","0.0-24.0-0.0-0.17","88182","List2B","white","woman","","","","","","","","survey_gender","19","","","I would say I am an animal person.","filler"
"5792.699999988079","","","html-slider-response","426","3904103","0.0-24.0-0.0-0.18","88182","List2B","white","woman","","","","","","","","survey_gender","60","","","It is not always easy for people to know what I am thinking.","filler"
"5558.800000011921","","","html-slider-response","427","3909664","0.0-24.0-0.0-0.19","88182","List2B","white","woman","","","","","","","","survey_gender","68","","","I am similar to the average person of my gender.","similar"
"3153.699999988079","","","html-slider-response","428","3912820","0.0-24.0-0.0-0.20","88182","List2B","white","woman","","","","","","","","survey_gender","72","","","I am glad to be my gender.","glad"
"2489.099999964237","","","html-slider-response","429","3915311","0.0-24.0-0.0-0.21","88182","List2B","white","woman","","","","","","","","survey_gender","72","","","I feel solidarity with my gender.","solidarity"
"6472.5","","","html-slider-response","430","3921785","0.0-24.0-0.0-0.22","88182","List2B","white","woman","","","","","","","","survey_gender","74","","","I often think about the fact that I am my gender.","often"
"3030","","","html-slider-response","431","3924817","0.0-24.0-0.0-0.23","88182","List2B","white","woman","","","","","","","","survey_gender","77","","","I feel a bond with my friends.","filler"
"3684.399999976158","","","html-slider-response","432","3928503","0.0-24.0-0.0-0.24","88182","List2B","white","woman","","","","","","","","survey_gender","76","","","I think that my gender has a lot to be proud of.","proud"
"3227.800000011921","","","html-slider-response","433","3931734","0.0-24.0-0.0-0.25","88182","List2B","white","woman","","","","","","","","survey_gender","74","","","People of my gender are very similar to each other.","verysimilar"
"3080.800000011921","","","html-slider-response","434","3934817","0.0-24.0-0.0-0.26","88182","List2B","white","woman","","","","","","","","survey_gender","74","","","I feel a bond with my gender.","bond"
"3794.699999988079","","","html-slider-response","435","3938615","0.0-24.0-0.0-0.27","88182","List2B","white","woman","","","","","","","","survey_gender","76","","","Being my gender is an important part of how I see myself.","important"
"4016.699999988079","","","html-slider-response","436","3942634","0.0-24.0-1.0-0.0","88182","List2B","white","woman","","","","","","","","survey_race","74","","","The older I get, the wiser I feel.","filler"
"7851","","","html-slider-response","437","3950488","0.0-24.0-1.0-0.1","88182","List2B","white","woman","","","","","","","","survey_race","76","","","The fact that I am my race is an important part of my identity.","identity"
"3708.900000035763","","","html-slider-response","438","3954199","0.0-24.0-1.0-0.2","88182","List2B","white","woman","","","","","","","","survey_race","75","","","Being my race is an important part of how I see myself.","important"
"24891.399999976158","","","html-slider-response","439","3979092","0.0-24.0-1.0-0.3","88182","List2B","white","woman","","","","","","","","survey_race","45","","","I consider myself an introvert.","filler"
"7692.199999988079","","","html-slider-response","440","3986787","0.0-24.0-1.0-0.4","88182","List2B","white","woman","","","","","","","","survey_race","68","","","I enjoy being in large groups.","filler"
"2981.5","","","html-slider-response","441","3989770","0.0-24.0-1.0-0.5","88182","List2B","white","woman","","","","","","","","survey_race","68","","","Being my age gives me a good feeling.","filler"
"3167.300000011921","","","html-slider-response","442","3992940","0.0-24.0-1.0-0.6","88182","List2B","white","woman","","","","","","","","survey_race","74","","","I think that my race has a lot to be proud of.","proud"
"2771.599999964237","","","html-slider-response","443","3995713","0.0-24.0-1.0-0.7","88182","List2B","white","woman","","","","","","","","survey_race","72","","","I often think about the fact that I am my race.","often"
"2463.899999976158","","","html-slider-response","444","3998178","0.0-24.0-1.0-0.8","88182","List2B","white","woman","","","","","","","","survey_race","75","","","I feel committed to my race.","committed"
"3118.199999988079","","","html-slider-response","445","4001298","0.0-24.0-1.0-0.9","88182","List2B","white","woman","","","","","","","","survey_race","75","","","I am glad to be the age I am.","filler"
"2537.600000023842","","","html-slider-response","446","4003838","0.0-24.0-1.0-0.10","88182","List2B","white","woman","","","","","","","","survey_race","75","","","I feel a bond with my race.","bond"
"4584.699999988079","","","html-slider-response","447","4008424","0.0-24.0-1.0-0.11","88182","List2B","white","woman","","","","","","","","survey_race","76","","","People my age have a lot in common with each other.","filler"
"2686.300000011921","","","html-slider-response","448","4011113","0.0-24.0-1.0-0.12","88182","List2B","white","woman","","","","","","","","survey_race","74","","","I often think about the fact that I am my age.","filler"
"5830.5","","","html-slider-response","449","4016945","0.0-24.0-1.0-0.13","88182","List2B","white","woman","","","","","","","","survey_race","72","","","I consider myself an extrovert.","filler"
"3475","","","html-slider-response","450","4020423","0.0-24.0-1.0-0.14","88182","List2B","white","woman","","","","","","","","survey_race","77","","","Being my race gives me a good feeling.","feeling"
"2635.800000011921","","","html-slider-response","451","4023060","0.0-24.0-1.0-0.15","88182","List2B","white","woman","","","","","","","","survey_race","75","","","I have a lot in common with the average person of my race.","average"
"2563","","","html-slider-response","452","4025625","0.0-24.0-1.0-0.16","88182","List2B","white","woman","","","","","","","","survey_race","78","","","It is pleasant to be my race.","pleasant"
"3351.399999976158","","","html-slider-response","453","4028979","0.0-24.0-1.0-0.17","88182","List2B","white","woman","","","","","","","","survey_race","76","","","People of my race have a lot in common with each other.","common"
"17285.69999998808","","","html-slider-response","454","4046267","0.0-24.0-1.0-0.18","88182","List2B","white","woman","","","","","","","","survey_race","72","","","I feel solidarity with my race.","solidarity"
"9244.100000023842","","","html-slider-response","455","4055514","0.0-24.0-1.0-0.19","88182","List2B","white","woman","","","","","","","","survey_race","61","","","My age is not an important part of who I am.","filler"
"4213.399999976158","","","html-slider-response","456","4059730","0.0-24.0-1.0-0.20","88182","List2B","white","woman","","","","","","","","survey_race","73","","","I am similar to the average person of my race.","similar"
"3992.199999988079","","","html-slider-response","457","4063725","0.0-24.0-1.0-0.21","88182","List2B","white","woman","","","","","","","","survey_race","71","","","I feel solidarity with people the same age as me.","filler"
"3955.400000035763","","","html-slider-response","458","4067682","0.0-24.0-1.0-0.22","88182","List2B","white","woman","","","","","","","","survey_race","67","","","Getting older does not worry me.","filler"
"2414.699999988079","","","html-slider-response","459","4070099","0.0-24.0-1.0-0.23","88182","List2B","white","woman","","","","","","","","survey_race","73","","","I am glad to be my age.","filler"
"2859.400000035763","","","html-slider-response","460","4072960","0.0-24.0-1.0-0.24","88182","List2B","white","woman","","","","","","","","survey_race","74","","","People of my race are very similar to each other.","verysimilar"
"3387.899999976158","","","html-slider-response","461","4076349","0.0-24.0-1.0-0.25","88182","List2B","white","woman","","","","","","","","survey_race","74","","","I have a lot in common with people of a similar age to me.","filler"
"2156.300000011921","","","html-slider-response","462","4078507","0.0-24.0-1.0-0.26","88182","List2B","white","woman","","","","","","","","survey_race","71","","","I feel a bond with people the same age as me.","filler"
"2377.900000035763","","","html-slider-response","463","4080887","0.0-24.0-1.0-0.27","88182","List2B","white","woman","","","","","","","","survey_race","74","","","I am glad to be my race.","glad"
"16603.5","","","survey-text","464","4097495","0.0-25.0","88182","List2B","white","woman","","","","","{""Q0"":""615ac23a588c95d1158757b5""}","","","worker_id","","","","",""
"64865","","","external-html","465","4163529","0.0-26.0","88182","List2B","white","woman","debrief.html","","","","","","","","","","","",""
