rt,stimulus,button_pressed,trial_type,trial_index,time_elapsed,internal_node_id,subject,list,ppt_race,ppt_gender,url,first_guess,correct,key_press,responses,image_type,phrase_type,test_part,response,stimulus1,stimulus2,question_type,survey_item
3186.8,Welcome to the experiment. Press Continue to begin.,0,html-button-response,0,3192,0.0-0.0,88354,List2B,black,woman,,,,,,,,,,,,,
7932.9,,,external-html,1,12142,0.0-1.0,88354,List2B,black,woman,consent.html,,,,,,,,,,,,
3412.1,"<p>On the next page, you will see portraits of 8 people and their names.</p><p>Your first task is to take a few minutes to memorise the names of these people.</p><p>You will have to recall their names during the rest of the experiment, so it is</p><p>essential that you try to memorise these people and their names as best as you can.</p><br><p><strong>You will then be tested on your memory of these names and portraits.</strong></p><br><p>The experiment will start after you have completed this memory test.</p><br><p>Ready?</p>",0,html-button-response,2,15557,0.0-2.0,88354,List2B,black,woman,,,,,,,,,,,,,
6341,"<img src='img/portrait_matrix_list2.jpg' style='width:900px;height:500px;''></img><p>If you have memorised all the portraits and names and are ready to start, press Continue.</p><p><strong>Please note: Your memory of these faces will be tested 4 times during this experiment.</strong></p>",0,html-button-response,3,22915,0.0-3.0-0.0,88354,List2B,black,woman,,,,,,,,,,,,,
2323.5,"<img src=""portrait/BM1.jpg""style=""height:400px;""></img>",4,html-button-response,4,26254,0.0-3.0-1.0,88354,List2B,black,woman,,TRUE,4,,,,,,,,,,
null,CORRECT,,html-keyboard-response,5,27775,0.0-3.0-2.0-0.0,88354,List2B,black,woman,,,,null,,,,,,,,,
1692.1,"<img src=""portrait/WW2.jpg""style=""height:400px;""></img>",3,html-button-response,6,29470,0.0-3.0-4.0,88354,List2B,black,woman,,TRUE,3,,,,,,,,,,
null,CORRECT,,html-keyboard-response,7,30984,0.0-3.0-5.0-0.0,88354,List2B,black,woman,,,,null,,,,,,,,,
2339.5,"<img src=""portrait/BW1.jpg""style=""height:400px;""></img>",0,html-button-response,8,33326,0.0-3.0-7.0,88354,List2B,black,woman,,TRUE,0,,,,,,,,,,
null,CORRECT,,html-keyboard-response,9,34847,0.0-3.0-8.0-0.0,88354,List2B,black,woman,,,,null,,,,,,,,,
1196.2,"<img src=""portrait/BW2.jpg""style=""height:400px;""></img>",3,html-button-response,10,36046,0.0-3.0-10.0,88354,List2B,black,woman,,TRUE,2,,,,,,,,,,
3934.9,"<img src=""portrait/BW2.jpg""style=""height:400px;""></img>",2,html-button-response,11,40990,0.0-3.0-12.0-0.0,88354,List2B,black,woman,,FALSE,2,,,,,,,,,,
null,CORRECT,,html-keyboard-response,12,42497,0.0-3.0-12.0-1.0-0.0,88354,List2B,black,woman,,,,null,,,,,,,,,
1697.7,"<img src=""portrait/WW1.jpg""style=""height:400px;""></img>",1,html-button-response,13,44198,0.0-3.0-13.0,88354,List2B,black,woman,,TRUE,1,,,,,,,,,,
null,CORRECT,,html-keyboard-response,14,45701,0.0-3.0-14.0-0.0,88354,List2B,black,woman,,,,null,,,,,,,,,
2143.2,"<img src=""portrait/BM2.jpg""style=""height:400px;""></img>",5,html-button-response,15,47847,0.0-3.0-16.0,88354,List2B,black,woman,,TRUE,5,,,,,,,,,,
null,CORRECT,,html-keyboard-response,16,49360,0.0-3.0-17.0-0.0,88354,List2B,black,woman,,,,null,,,,,,,,,
4171.1,"<img src=""portrait/WM1.jpg""style=""height:400px;""></img>",6,html-button-response,17,53533,0.0-3.0-19.0,88354,List2B,black,woman,,TRUE,6,,,,,,,,,,
null,CORRECT,,html-keyboard-response,18,55047,0.0-3.0-20.0-0.0,88354,List2B,black,woman,,,,null,,,,,,,,,
2619.9,"<img src=""portrait/WM2.jpg""style=""height:400px;""></img>",7,html-button-response,19,57669,0.0-3.0-22.0,88354,List2B,black,woman,,TRUE,7,,,,,,,,,,
null,CORRECT,,html-keyboard-response,20,59188,0.0-3.0-23.0-0.0,88354,List2B,black,woman,,,,null,,,,,,,,,
2885.6,<p>You got 7 out of 8 right first time. Press Continue.</p>,0,html-button-response,21,62077,0.0-3.0-25.0,88354,List2B,black,woman,,,,,,,,,,,,,
4321.7,"As you did not score 100%, the memory game will repeat. Press Continue.",0,html-button-response,22,67405,0.0-3.0-26.0-0.0,88354,List2B,black,woman,,,,,,,,,,,,,
1267.4,"<img src='img/portrait_matrix_list2.jpg' style='width:900px;height:500px;''></img><p>If you have memorised all the portraits and names and are ready to start, press Continue.</p><p><strong>Please note: Your memory of these faces will be tested 4 times during this experiment.</strong></p>",0,html-button-response,23,69677,0.0-3.1-0.1,88354,List2B,black,woman,,,,,,,,,,,,,
3161.9,"<img src=""portrait/BM1.jpg""style=""height:400px;""></img>",4,html-button-response,24,73854,0.0-3.1-1.1,88354,List2B,black,woman,,TRUE,4,,,,,,,,,,
null,CORRECT,,html-keyboard-response,25,75368,0.0-3.1-2.1-0.1,88354,List2B,black,woman,,,,null,,,,,,,,,
3170.5,"<img src=""portrait/WW2.jpg""style=""height:400px;""></img>",3,html-button-response,26,78541,0.0-3.1-4.1,88354,List2B,black,woman,,TRUE,3,,,,,,,,,,
null,CORRECT,,html-keyboard-response,27,80057,0.0-3.1-5.1-0.1,88354,List2B,black,woman,,,,null,,,,,,,,,
2937.3,"<img src=""portrait/BW1.jpg""style=""height:400px;""></img>",0,html-button-response,28,82997,0.0-3.1-7.1,88354,List2B,black,woman,,TRUE,0,,,,,,,,,,
null,CORRECT,,html-keyboard-response,29,84518,0.0-3.1-8.1-0.1,88354,List2B,black,woman,,,,null,,,,,,,,,
3379.9,"<img src=""portrait/BW2.jpg""style=""height:400px;""></img>",2,html-button-response,30,87900,0.0-3.1-10.1,88354,List2B,black,woman,,TRUE,2,,,,,,,,,,
null,CORRECT,,html-keyboard-response,31,89402,0.0-3.1-11.1-0.1,88354,List2B,black,woman,,,,null,,,,,,,,,
1831.8,"<img src=""portrait/WW1.jpg""style=""height:400px;""></img>",1,html-button-response,32,91236,0.0-3.1-13.1,88354,List2B,black,woman,,TRUE,1,,,,,,,,,,
null,CORRECT,,html-keyboard-response,33,92740,0.0-3.1-14.1-0.1,88354,List2B,black,woman,,,,null,,,,,,,,,
2015,"<img src=""portrait/BM2.jpg""style=""height:400px;""></img>",5,html-button-response,34,94757,0.0-3.1-16.1,88354,List2B,black,woman,,TRUE,5,,,,,,,,,,
null,CORRECT,,html-keyboard-response,35,96261,0.0-3.1-17.1-0.1,88354,List2B,black,woman,,,,null,,,,,,,,,
3230,"<img src=""portrait/WM1.jpg""style=""height:400px;""></img>",6,html-button-response,36,99493,0.0-3.1-19.1,88354,List2B,black,woman,,TRUE,6,,,,,,,,,,
null,CORRECT,,html-keyboard-response,37,101028,0.0-3.1-20.1-0.1,88354,List2B,black,woman,,,,null,,,,,,,,,
1558.6,"<img src=""portrait/WM2.jpg""style=""height:400px;""></img>",7,html-button-response,38,102589,0.0-3.1-22.1,88354,List2B,black,woman,,TRUE,7,,,,,,,,,,
null,CORRECT,,html-keyboard-response,39,104111,0.0-3.1-23.1-0.1,88354,List2B,black,woman,,,,null,,,,,,,,,
1339.2,<p>You got 8 out of 8 right first time. Press Continue.</p>,0,html-button-response,40,105453,0.0-3.1-25.1,88354,List2B,black,woman,,,,,,,,,,,,,
1445.9,"<p>In this experiment, you will view photographs of the people from the memory game interacting.</p><p>By using the <strong>exact</strong> phrase given <i>after</i> the photograph appears and recalling the correct names of the people in the photographs, form a sentence describing the interaction. You do not need to capitalise names.</p><p>Type your answer in the space provided. Please complete every sentence before moving onto the next trial.</p><p>You will only have a few seconds to memorise each given photograph and phrase before you can respond, so try your best to focus.</p><p>An example is given below. Press 'Continue' when you are ready.</p><img src='img/speaking_example.jpg' style='width:800px;height:460px;''></img>",0,html-button-response,41,107917,0.0-4.0,88354,List2B,black,woman,,,,,,,,,,,,,
1181.1,"<p>Before the experiment starts, you will watch two example trials. Press 'Continue'.</p>",0,html-button-response,42,110101,0.0-5.0,88354,List2B,black,woman,,,,,,,,,,,,,
null,<img src='img/play_eg.gif' style='height:400px;''></img>,,html-keyboard-response,43,113115,0.0-6.0,88354,List2B,black,woman,,,,null,,,,,,,,,
null,<p>is playing with</p>,,html-keyboard-response,44,115122,0.0-7.0,88354,List2B,black,woman,,,,null,,,,,,,,,
1065.1,<p><b>Answer:</b> jane is playing with ruth</p>,0,html-button-response,45,116189,0.0-8.0,88354,List2B,black,woman,,,,,,,,,,,,,
null,<img src='img/dance_eg.gif' style='height:400px;''></img>,,html-keyboard-response,46,119196,0.0-9.0,88354,List2B,black,woman,,,,null,,,,,,,,,
null,<p>is being entertained by</p>,,html-keyboard-response,47,121198,0.0-10.0,88354,List2B,black,woman,,,,null,,,,,,,,,
814.1,<p><b>Answer:</b> fred is being entertained by mike</p>,0,html-button-response,48,122014,0.0-11.0,88354,List2B,black,woman,,,,,,,,,,,,,
907.6,"<p>Ready to start the experiment?</p><br><p><strong>Remember to describe the picture using a full sentence,</strong></p><p><strong>that combines the names of the people with the <i>exact</i> phrase given.</strong></p><p><strong>To receive full payment you must do this correctly.</strong></p><p><strong> You do not need to capitalise names or use punctuation.</strong></p><br><p>Press 'Continue' to begin.</p>",0,html-button-response,49,123926,0.0-12.0,88354,List2B,black,woman,,,,,,,,,,,,,
null,"<div style=""font-size:60px;"">+</div>",,html-keyboard-response,50,125453,0.0-13.0-0.0,88354,List2B,black,woman,,,,null,,,,,,,,,
null,"<img src=""stim_listB/shout2.gif""style=""height:400px;""></stim_listB>",,html-keyboard-response,51,127457,0.0-13.0-1.0,88354,List2B,black,woman,,,,null,,,,,,,,,
null,is being shouted at by,,html-keyboard-response,52,129459,0.0-13.0-2.0,88354,List2B,black,woman,,,,null,,,,,,,,,
12256.3,,,survey-text,53,141721,0.0-13.0-3.0,88354,List2B,black,woman,,,,,"{""Q0"":""dave is being shouted at by jane""}","<img src=""stim_listB/shout2.gif""style=""height:400px;""></stim_listB>",is being shouted at by,,,,,,
null,"<div style=""font-size:60px;"">+</div>",,html-keyboard-response,54,142238,0.0-13.0-0.1,88354,List2B,black,woman,,,,null,,,,,,,,,
null,"<img src=""stim_listB/oppose7.gif""style=""height:400px;""></stim_listB>",,html-keyboard-response,55,144246,0.0-13.0-1.1,88354,List2B,black,woman,,,,null,,,,,,,,,
null,is opposing,,html-keyboard-response,56,146253,0.0-13.0-2.1,88354,List2B,black,woman,,,,null,,,,,,,,,
4798,,,survey-text,57,151056,0.0-13.0-3.1,88354,List2B,black,woman,,,,,"{""Q0"":""kate is opposing jane""}","<img src=""stim_listB/oppose7.gif""style=""height:400px;""></stim_listB>",is opposing,,,,,,
null,"<div style=""font-size:60px;"">+</div>",,html-keyboard-response,58,151567,0.0-13.0-0.2,88354,List2B,black,woman,,,,null,,,,,,,,,
null,"<img src=""stim_listB/kiss1.gif""style=""height:400px;""></stim_listB>",,html-keyboard-response,59,153574,0.0-13.0-1.2,88354,List2B,black,woman,,,,null,,,,,,,,,
null,is kissing,,html-keyboard-response,60,155581,0.0-13.0-2.2,88354,List2B,black,woman,,,,null,,,,,,,,,
26715.8,,,survey-text,61,182304,0.0-13.0-3.2,88354,List2B,black,woman,,,,,"{""Q0"":""ruth is kissing luke""}","<img src=""stim_listB/kiss1.gif""style=""height:400px;""></stim_listB>",is kissing,,,,,,
null,"<div style=""font-size:60px;"">+</div>",,html-keyboard-response,62,182815,0.0-13.0-0.3,88354,List2B,black,woman,,,,null,,,,,,,,,
null,"<img src=""stim_listB/look7.gif""style=""height:400px;""></stim_listB>",,html-keyboard-response,63,184822,0.0-13.0-1.3,88354,List2B,black,woman,,,,null,,,,,,,,,
null,is looking at,,html-keyboard-response,64,186830,0.0-13.0-2.3,88354,List2B,black,woman,,,,null,,,,,,,,,
5836.7,,,survey-text,65,192672,0.0-13.0-3.3,88354,List2B,black,woman,,,,,"{""Q0"":""beth is looking at ruth""}","<img src=""stim_listB/look7.gif""style=""height:400px;""></stim_listB>",is looking at,,,,,,
null,"<div style=""font-size:60px;"">+</div>",,html-keyboard-response,66,193188,0.0-13.0-0.4,88354,List2B,black,woman,,,,null,,,,,,,,,
null,"<img src=""stim_listB/kiss8.gif""style=""height:400px;""></stim_listB>",,html-keyboard-response,67,195199,0.0-13.0-1.4,88354,List2B,black,woman,,,,null,,,,,,,,,
null,is being kissed by,,html-keyboard-response,68,197207,0.0-13.0-2.4,88354,List2B,black,woman,,,,null,,,,,,,,,
8124.3,,,survey-text,69,205335,0.0-13.0-3.4,88354,List2B,black,woman,,,,,"{""Q0"":""jane is being kissed by kate""}","<img src=""stim_listB/kiss8.gif""style=""height:400px;""></stim_listB>",is being kissed by,,,,,,
null,"<div style=""font-size:60px;"">+</div>",,html-keyboard-response,70,205848,0.0-13.0-0.5,88354,List2B,black,woman,,,,null,,,,,,,,,
null,"<img src=""stim_listB/copy5.gif""style=""height:400px;""></stim_listB>",,html-keyboard-response,71,207854,0.0-13.0-1.5,88354,List2B,black,woman,,,,null,,,,,,,,,
null,is copying,,html-keyboard-response,72,209862,0.0-13.0-2.5,88354,List2B,black,woman,,,,null,,,,,,,,,
5885.6,,,survey-text,73,215751,0.0-13.0-3.5,88354,List2B,black,woman,,,,,"{""Q0"":""fred is copying dave""}","<img src=""stim_listB/copy5.gif""style=""height:400px;""></stim_listB>",is copying,,,,,,
null,"<div style=""font-size:60px;"">+</div>",,html-keyboard-response,74,216264,0.0-13.0-0.6,88354,List2B,black,woman,,,,null,,,,,,,,,
null,"<img src=""stim_listB/kiss4.gif""style=""height:400px;""></stim_listB>",,html-keyboard-response,75,218271,0.0-13.0-1.6,88354,List2B,black,woman,,,,null,,,,,,,,,
null,is being kissed by,,html-keyboard-response,76,220278,0.0-13.0-2.6,88354,List2B,black,woman,,,,null,,,,,,,,,
6501.9,,,survey-text,77,226783,0.0-13.0-3.6,88354,List2B,black,woman,,,,,"{""Q0"":""mike is being kissed by kate""}","<img src=""stim_listB/kiss4.gif""style=""height:400px;""></stim_listB>",is being kissed by,,,,,,
null,"<div style=""font-size:60px;"">+</div>",,html-keyboard-response,78,227299,0.0-13.0-0.7,88354,List2B,black,woman,,,,null,,,,,,,,,
null,"<img src=""stim_listB/seduce4.gif""style=""height:400px;""></stim_listB>",,html-keyboard-response,79,229312,0.0-13.0-1.7,88354,List2B,black,woman,,,,null,,,,,,,,,
null,is being seduced by,,html-keyboard-response,80,231320,0.0-13.0-2.7,88354,List2B,black,woman,,,,null,,,,,,,,,
10299,,,survey-text,81,241623,0.0-13.0-3.7,88354,List2B,black,woman,,,,,"{""Q0"":""mike is being seduced by beth""}","<img src=""stim_listB/seduce4.gif""style=""height:400px;""></stim_listB>",is being seduced by,,,,,,
null,"<div style=""font-size:60px;"">+</div>",,html-keyboard-response,82,242127,0.0-13.0-0.8,88354,List2B,black,woman,,,,null,,,,,,,,,
null,"<img src=""stim_listB/touch1.gif""style=""height:400px;""></stim_listB>",,html-keyboard-response,83,244132,0.0-13.0-1.8,88354,List2B,black,woman,,,,null,,,,,,,,,
null,is touching,,html-keyboard-response,84,246138,0.0-13.0-2.8,88354,List2B,black,woman,,,,null,,,,,,,,,
7729.6,,,survey-text,85,253872,0.0-13.0-3.8,88354,List2B,black,woman,,,,,"{""Q0"":""jane is touching dave""}","<img src=""stim_listB/touch1.gif""style=""height:400px;""></stim_listB>",is touching,,,,,,
null,"<div style=""font-size:60px;"">+</div>",,html-keyboard-response,86,254379,0.0-13.0-0.9,88354,List2B,black,woman,,,,null,,,,,,,,,
null,"<img src=""stim_listB/challenge5.gif""style=""height:400px;""></stim_listB>",,html-keyboard-response,87,256386,0.0-13.0-1.9,88354,List2B,black,woman,,,,null,,,,,,,,,
null,is challenging,,html-keyboard-response,88,258393,0.0-13.0-2.9,88354,List2B,black,woman,,,,null,,,,,,,,,
6586.1,,,survey-text,89,264983,0.0-13.0-3.9,88354,List2B,black,woman,,,,,"{""Q0"":""fred is challenging dave""}","<img src=""stim_listB/challenge5.gif""style=""height:400px;""></stim_listB>",is challenging,,,,,,
null,"<div style=""font-size:60px;"">+</div>",,html-keyboard-response,90,265486,0.0-13.0-0.10,88354,List2B,black,woman,,,,null,,,,,,,,,
null,"<img src=""stim_listB/hug7.gif""style=""height:400px;""></stim_listB>",,html-keyboard-response,91,267496,0.0-13.0-1.10,88354,List2B,black,woman,,,,null,,,,,,,,,
null,is hugging,,html-keyboard-response,92,269499,0.0-13.0-2.10,88354,List2B,black,woman,,,,null,,,,,,,,,
8304.7,,,survey-text,93,277807,0.0-13.0-3.10,88354,List2B,black,woman,,,,,"{""Q0"":""beth is hugging ruth""}","<img src=""stim_listB/hug7.gif""style=""height:400px;""></stim_listB>",is hugging,,,,,,
null,"<div style=""font-size:60px;"">+</div>",,html-keyboard-response,94,278311,0.0-13.0-0.11,88354,List2B,black,woman,,,,null,,,,,,,,,
null,"<img src=""stim_listB/touch3.gif""style=""height:400px;""></stim_listB>",,html-keyboard-response,95,280318,0.0-13.0-1.11,88354,List2B,black,woman,,,,null,,,,,,,,,
null,is touching,,html-keyboard-response,96,282325,0.0-13.0-2.11,88354,List2B,black,woman,,,,null,,,,,,,,,
4805.8,,,survey-text,97,287135,0.0-13.0-3.11,88354,List2B,black,woman,,,,,"{""Q0"":""mike is touching kate""}","<img src=""stim_listB/touch3.gif""style=""height:400px;""></stim_listB>",is touching,,,,,,
null,"<div style=""font-size:60px;"">+</div>",,html-keyboard-response,98,287642,0.0-13.0-0.12,88354,List2B,black,woman,,,,null,,,,,,,,,
null,"<img src=""stim_listB/greet8.gif""style=""height:400px;""></stim_listB>",,html-keyboard-response,99,289648,0.0-13.0-1.12,88354,List2B,black,woman,,,,null,,,,,,,,,
null,is being greeted by,,html-keyboard-response,100,291656,0.0-13.0-2.12,88354,List2B,black,woman,,,,null,,,,,,,,,
11019.8,,,survey-text,101,302680,0.0-13.0-3.12,88354,List2B,black,woman,,,,,"{""Q0"":""ruth is being greeted by kate""}","<img src=""stim_listB/greet8.gif""style=""height:400px;""></stim_listB>",is being greeted by,,,,,,
null,"<div style=""font-size:60px;"">+</div>",,html-keyboard-response,102,303190,0.0-13.0-0.13,88354,List2B,black,woman,,,,null,,,,,,,,,
null,"<img src=""stim_listB/greet5.gif""style=""height:400px;""></stim_listB>",,html-keyboard-response,103,305197,0.0-13.0-1.13,88354,List2B,black,woman,,,,null,,,,,,,,,
null,is greeting,,html-keyboard-response,104,307204,0.0-13.0-2.13,88354,List2B,black,woman,,,,null,,,,,,,,,
5168.2,,,survey-text,105,312376,0.0-13.0-3.13,88354,List2B,black,woman,,,,,"{""Q0"":""fred is greeting dave""}","<img src=""stim_listB/greet5.gif""style=""height:400px;""></stim_listB>",is greeting,,,,,,
null,"<div style=""font-size:60px;"">+</div>",,html-keyboard-response,106,312888,0.0-13.0-0.14,88354,List2B,black,woman,,,,null,,,,,,,,,
null,"<img src=""stim_listB/challenge3.gif""style=""height:400px;""></stim_listB>",,html-keyboard-response,107,314903,0.0-13.0-1.14,88354,List2B,black,woman,,,,null,,,,,,,,,
null,is challenging,,html-keyboard-response,108,316918,0.0-13.0-2.14,88354,List2B,black,woman,,,,null,,,,,,,,,
6550,,,survey-text,109,323472,0.0-13.0-3.14,88354,List2B,black,woman,,,,,"{""Q0"":""beth is challenging mike""}","<img src=""stim_listB/challenge3.gif""style=""height:400px;""></stim_listB>",is challenging,,,,,,
null,"<div style=""font-size:60px;"">+</div>",,html-keyboard-response,110,323995,0.0-13.0-0.15,88354,List2B,black,woman,,,,null,,,,,,,,,
null,"<img src=""stim_listB/greet3.gif""style=""height:400px;""></stim_listB>",,html-keyboard-response,111,326003,0.0-13.0-1.15,88354,List2B,black,woman,,,,null,,,,,,,,,
null,is greeting,,html-keyboard-response,112,328008,0.0-13.0-2.15,88354,List2B,black,woman,,,,null,,,,,,,,,
11124.2,,,survey-text,113,339136,0.0-13.0-3.15,88354,List2B,black,woman,,,,,"{""Q0"":""beth is greeting mike""}","<img src=""stim_listB/greet3.gif""style=""height:400px;""></stim_listB>",is greeting,,,,,,
null,"<div style=""font-size:60px;"">+</div>",,html-keyboard-response,114,339645,0.0-13.0-0.16,88354,List2B,black,woman,,,,null,,,,,,,,,
null,"<img src=""stim_listB/copy2.gif""style=""height:400px;""></stim_listB>",,html-keyboard-response,115,341653,0.0-13.0-1.16,88354,List2B,black,woman,,,,null,,,,,,,,,
null,is being copied by,,html-keyboard-response,116,343661,0.0-13.0-2.16,88354,List2B,black,woman,,,,null,,,,,,,,,
7854.8,,,survey-text,117,351520,0.0-13.0-3.16,88354,List2B,black,woman,,,,,"{""Q0"":""luke is being copied by jane""}","<img src=""stim_listB/copy2.gif""style=""height:400px;""></stim_listB>",is being copied by,,,,,,
null,"<div style=""font-size:60px;"">+</div>",,html-keyboard-response,118,352029,0.0-13.0-0.17,88354,List2B,black,woman,,,,null,,,,,,,,,
null,"<img src=""stim_listB/oppose3.gif""style=""height:400px;""></stim_listB>",,html-keyboard-response,119,354044,0.0-13.0-1.17,88354,List2B,black,woman,,,,null,,,,,,,,,
null,is opposing,,html-keyboard-response,120,356051,0.0-13.0-2.17,88354,List2B,black,woman,,,,null,,,,,,,,,
4992.5,,,survey-text,121,361048,0.0-13.0-3.17,88354,List2B,black,woman,,,,,"{""Q0"":""kate is opposing mike""}","<img src=""stim_listB/oppose3.gif""style=""height:400px;""></stim_listB>",is opposing,,,,,,
null,"<div style=""font-size:60px;"">+</div>",,html-keyboard-response,122,361556,0.0-13.0-0.18,88354,List2B,black,woman,,,,null,,,,,,,,,
null,"<img src=""stim_listB/look8.gif""style=""height:400px;""></stim_listB>",,html-keyboard-response,123,363563,0.0-13.0-1.18,88354,List2B,black,woman,,,,null,,,,,,,,,
null,is being looked at by,,html-keyboard-response,124,365570,0.0-13.0-2.18,88354,List2B,black,woman,,,,null,,,,,,,,,
6346.2,,,survey-text,125,371920,0.0-13.0-3.18,88354,List2B,black,woman,,,,,"{""Q0"":""jane is being looked by kate""}","<img src=""stim_listB/look8.gif""style=""height:400px;""></stim_listB>",is being looked at by,,,,,,
null,"<div style=""font-size:60px;"">+</div>",,html-keyboard-response,126,372438,0.0-13.0-0.19,88354,List2B,black,woman,,,,null,,,,,,,,,
null,"<img src=""stim_listB/seduce7.gif""style=""height:400px;""></stim_listB>",,html-keyboard-response,127,374444,0.0-13.0-1.19,88354,List2B,black,woman,,,,null,,,,,,,,,
null,is seducing,,html-keyboard-response,128,376451,0.0-13.0-2.19,88354,List2B,black,woman,,,,null,,,,,,,,,
8424.1,,,survey-text,129,384880,0.0-13.0-3.19,88354,List2B,black,woman,,,,,"{""Q0"":""kate is seducing ruth""}","<img src=""stim_listB/seduce7.gif""style=""height:400px;""></stim_listB>",is seducing,,,,,,
3401.9,"<img src='img/portrait_matrix_list2.jpg' style='width:900px;height:500px;''></img><p>If you have memorised all the portraits and names and are ready to start, press Continue.</p><p><strong>Please note: Your memory of these faces will be tested 4 times during this experiment.</strong></p>",0,html-button-response,130,388285,0.0-14.0-0.0,88354,List2B,black,woman,,,,,,,,,,,,,
3724.9,"<img src=""portrait/BM1.jpg""style=""height:400px;""></img>",4,html-button-response,131,393013,0.0-14.0-1.0,88354,List2B,black,woman,,TRUE,4,,,,,,,,,,
null,CORRECT,,html-keyboard-response,132,394517,0.0-14.0-2.0-0.0,88354,List2B,black,woman,,,,null,,,,,,,,,
1510,"<img src=""portrait/BW2.jpg""style=""height:400px;""></img>",2,html-button-response,133,396029,0.0-14.0-4.0,88354,List2B,black,woman,,TRUE,2,,,,,,,,,,
null,CORRECT,,html-keyboard-response,134,397538,0.0-14.0-5.0-0.0,88354,List2B,black,woman,,,,null,,,,,,,,,
1496.4,"<img src=""portrait/WM2.jpg""style=""height:400px;""></img>",7,html-button-response,135,399037,0.0-14.0-7.0,88354,List2B,black,woman,,TRUE,7,,,,,,,,,,
null,CORRECT,,html-keyboard-response,136,400541,0.0-14.0-8.0-0.0,88354,List2B,black,woman,,,,null,,,,,,,,,
1213.4,"<img src=""portrait/WW1.jpg""style=""height:400px;""></img>",1,html-button-response,137,401757,0.0-14.0-10.0,88354,List2B,black,woman,,TRUE,1,,,,,,,,,,
null,CORRECT,,html-keyboard-response,138,403286,0.0-14.0-11.0-0.0,88354,List2B,black,woman,,,,null,,,,,,,,,
1948.9,"<img src=""portrait/WM1.jpg""style=""height:400px;""></img>",6,html-button-response,139,405238,0.0-14.0-13.0,88354,List2B,black,woman,,TRUE,6,,,,,,,,,,
null,CORRECT,,html-keyboard-response,140,406748,0.0-14.0-14.0-0.0,88354,List2B,black,woman,,,,null,,,,,,,,,
1534.2,"<img src=""portrait/BM2.jpg""style=""height:400px;""></img>",5,html-button-response,141,408286,0.0-14.0-16.0,88354,List2B,black,woman,,TRUE,5,,,,,,,,,,
null,CORRECT,,html-keyboard-response,142,409800,0.0-14.0-17.0-0.0,88354,List2B,black,woman,,,,null,,,,,,,,,
1514.7,"<img src=""portrait/WW2.jpg""style=""height:400px;""></img>",3,html-button-response,143,411317,0.0-14.0-19.0,88354,List2B,black,woman,,TRUE,3,,,,,,,,,,
null,CORRECT,,html-keyboard-response,144,412852,0.0-14.0-20.0-0.0,88354,List2B,black,woman,,,,null,,,,,,,,,
1582.5,"<img src=""portrait/BW1.jpg""style=""height:400px;""></img>",0,html-button-response,145,414437,0.0-14.0-22.0,88354,List2B,black,woman,,TRUE,0,,,,,,,,,,
null,CORRECT,,html-keyboard-response,146,415957,0.0-14.0-23.0-0.0,88354,List2B,black,woman,,,,null,,,,,,,,,
1166.1,<p>You got 8 out of 8 right first time. Press Continue.</p>,0,html-button-response,147,417125,0.0-14.0-25.0,88354,List2B,black,woman,,,,,,,,,,,,,
null,"<div style=""font-size:60px;"">+</div>",,html-keyboard-response,148,418632,0.0-15.0-0.0,88354,List2B,black,woman,,,,null,,,,,,,,,
null,"<img src=""stim_listB/seduce3.gif""style=""height:400px;""></stim_listB>",,html-keyboard-response,149,420650,0.0-15.0-1.0,88354,List2B,black,woman,,,,null,,,,,,,,,
null,is seducing,,html-keyboard-response,150,422656,0.0-15.0-2.0,88354,List2B,black,woman,,,,null,,,,,,,,,
5228.5,,,survey-text,151,427889,0.0-15.0-3.0,88354,List2B,black,woman,,,,,"{""Q0"":""kate is seducing fred""}","<img src=""stim_listB/seduce3.gif""style=""height:400px;""></stim_listB>",is seducing,,,,,,
null,"<div style=""font-size:60px;"">+</div>",,html-keyboard-response,152,428409,0.0-15.0-0.1,88354,List2B,black,woman,,,,null,,,,,,,,,
null,"<img src=""stim_listB/challenge7.gif""style=""height:400px;""></stim_listB>",,html-keyboard-response,153,430417,0.0-15.0-1.1,88354,List2B,black,woman,,,,null,,,,,,,,,
null,is challenging,,html-keyboard-response,154,432425,0.0-15.0-2.1,88354,List2B,black,woman,,,,null,,,,,,,,,
6083.6,,,survey-text,155,438512,0.0-15.0-3.1,88354,List2B,black,woman,,,,,"{""Q0"":""beth is challenging jane""}","<img src=""stim_listB/challenge7.gif""style=""height:400px;""></stim_listB>",is challenging,,,,,,
null,"<div style=""font-size:60px;"">+</div>",,html-keyboard-response,156,439022,0.0-15.0-0.2,88354,List2B,black,woman,,,,null,,,,,,,,,
null,"<img src=""stim_listB/copy4.gif""style=""height:400px;""></stim_listB>",,html-keyboard-response,157,441030,0.0-15.0-1.2,88354,List2B,black,woman,,,,null,,,,,,,,,
null,is being copied by,,html-keyboard-response,158,443038,0.0-15.0-2.2,88354,List2B,black,woman,,,,null,,,,,,,,,
6062.3,,,survey-text,159,449104,0.0-15.0-3.2,88354,List2B,black,woman,,,,,"{""Q0"":""fred is being copied by kate""}","<img src=""stim_listB/copy4.gif""style=""height:400px;""></stim_listB>",is being copied by,,,,,,
null,"<div style=""font-size:60px;"">+</div>",,html-keyboard-response,160,449608,0.0-15.0-0.3,88354,List2B,black,woman,,,,null,,,,,,,,,
null,"<img src=""stim_listB/kiss3.gif""style=""height:400px;""></stim_listB>",,html-keyboard-response,161,451613,0.0-15.0-1.3,88354,List2B,black,woman,,,,null,,,,,,,,,
null,is kissing,,html-keyboard-response,162,453621,0.0-15.0-2.3,88354,List2B,black,woman,,,,null,,,,,,,,,
5022.7,,,survey-text,163,458648,0.0-15.0-3.3,88354,List2B,black,woman,,,,,"{""Q0"":""beth is kissing fred""}","<img src=""stim_listB/kiss3.gif""style=""height:400px;""></stim_listB>",is kissing,,,,,,
null,"<div style=""font-size:60px;"">+</div>",,html-keyboard-response,164,459155,0.0-15.0-0.4,88354,List2B,black,woman,,,,null,,,,,,,,,
null,"<img src=""stim_listB/look1.gif""style=""height:400px;""></stim_listB>",,html-keyboard-response,165,461163,0.0-15.0-1.4,88354,List2B,black,woman,,,,null,,,,,,,,,
null,is looking at,,html-keyboard-response,166,463169,0.0-15.0-2.4,88354,List2B,black,woman,,,,null,,,,,,,,,
7299,,,survey-text,167,470472,0.0-15.0-3.4,88354,List2B,black,woman,,,,,"{""Q0"":""ruth is looking at ruth""}","<img src=""stim_listB/look1.gif""style=""height:400px;""></stim_listB>",is looking at,,,,,,
null,"<div style=""font-size:60px;"">+</div>",,html-keyboard-response,168,470979,0.0-15.0-0.5,88354,List2B,black,woman,,,,null,,,,,,,,,
null,"<img src=""stim_listB/oppose5.gif""style=""height:400px;""></stim_listB>",,html-keyboard-response,169,472984,0.0-15.0-1.5,88354,List2B,black,woman,,,,null,,,,,,,,,
null,is opposing,,html-keyboard-response,170,474992,0.0-15.0-2.5,88354,List2B,black,woman,,,,null,,,,,,,,,
8500.2,,,survey-text,171,483496,0.0-15.0-3.5,88354,List2B,black,woman,,,,,"{""Q0"":""mike is opposing dave""}","<img src=""stim_listB/oppose5.gif""style=""height:400px;""></stim_listB>",is opposing,,,,,,
null,"<div style=""font-size:60px;"">+</div>",,html-keyboard-response,172,484006,0.0-15.0-0.6,88354,List2B,black,woman,,,,null,,,,,,,,,
null,"<img src=""stim_listB/hug2.gif""style=""height:400px;""></stim_listB>",,html-keyboard-response,173,486014,0.0-15.0-1.6,88354,List2B,black,woman,,,,null,,,,,,,,,
null,is being hugged by,,html-keyboard-response,174,488021,0.0-15.0-2.6,88354,List2B,black,woman,,,,null,,,,,,,,,
8343.4,,,survey-text,175,496368,0.0-15.0-3.6,88354,List2B,black,woman,,,,,"{""Q0"":""dave is being hugged by jane""}","<img src=""stim_listB/hug2.gif""style=""height:400px;""></stim_listB>",is being hugged by,,,,,,
null,"<div style=""font-size:60px;"">+</div>",,html-keyboard-response,176,496879,0.0-15.0-0.7,88354,List2B,black,woman,,,,null,,,,,,,,,
null,"<img src=""stim_listB/touch2.gif""style=""height:400px;""></stim_listB>",,html-keyboard-response,177,498886,0.0-15.0-1.7,88354,List2B,black,woman,,,,null,,,,,,,,,
null,is being touched by,,html-keyboard-response,178,500894,0.0-15.0-2.7,88354,List2B,black,woman,,,,null,,,,,,,,,
11189.9,,,survey-text,179,512088,0.0-15.0-3.7,88354,List2B,black,woman,,,,,"{""Q0"":""ruth is being touched by luke""}","<img src=""stim_listB/touch2.gif""style=""height:400px;""></stim_listB>",is being touched by,,,,,,
null,"<div style=""font-size:60px;"">+</div>",,html-keyboard-response,180,512601,0.0-15.0-0.8,88354,List2B,black,woman,,,,null,,,,,,,,,
null,"<img src=""stim_listB/seduce6.gif""style=""height:400px;""></stim_listB>",,html-keyboard-response,181,514607,0.0-15.0-1.8,88354,List2B,black,woman,,,,null,,,,,,,,,
null,is being seduced by,,html-keyboard-response,182,516615,0.0-15.0-2.8,88354,List2B,black,woman,,,,null,,,,,,,,,
9264.2,,,survey-text,183,525883,0.0-15.0-3.8,88354,List2B,black,woman,,,,,"{""Q0"":""dave is being seduced by fred\\""}","<img src=""stim_listB/seduce6.gif""style=""height:400px;""></stim_listB>",is being seduced by,,,,,,
null,"<div style=""font-size:60px;"">+</div>",,html-keyboard-response,184,526394,0.0-15.0-0.9,88354,List2B,black,woman,,,,null,,,,,,,,,
null,"<img src=""stim_listB/shout5.gif""style=""height:400px;""></stim_listB>",,html-keyboard-response,185,528400,0.0-15.0-1.9,88354,List2B,black,woman,,,,null,,,,,,,,,
null,is shouting at,,html-keyboard-response,186,530409,0.0-15.0-2.9,88354,List2B,black,woman,,,,null,,,,,,,,,
10523.5,,,survey-text,187,540936,0.0-15.0-3.9,88354,List2B,black,woman,,,,,"{""Q0"":""fred is shouting at luke""}","<img src=""stim_listB/shout5.gif""style=""height:400px;""></stim_listB>",is shouting at,,,,,,
null,"<div style=""font-size:60px;"">+</div>",,html-keyboard-response,188,541441,0.0-15.0-0.10,88354,List2B,black,woman,,,,null,,,,,,,,,
null,"<img src=""stim_listB/look3.gif""style=""height:400px;""></stim_listB>",,html-keyboard-response,189,543450,0.0-15.0-1.10,88354,List2B,black,woman,,,,null,,,,,,,,,
null,is looking at,,html-keyboard-response,190,545456,0.0-15.0-2.10,88354,List2B,black,woman,,,,null,,,,,,,,,
5347.7,,,survey-text,191,550808,0.0-15.0-3.10,88354,List2B,black,woman,,,,,"{""Q0"":""beth is looking at fred""}","<img src=""stim_listB/look3.gif""style=""height:400px;""></stim_listB>",is looking at,,,,,,
null,"<div style=""font-size:60px;"">+</div>",,html-keyboard-response,192,551312,0.0-15.0-0.11,88354,List2B,black,woman,,,,null,,,,,,,,,
null,"<img src=""stim_listB/copy1.gif""style=""height:400px;""></stim_listB>",,html-keyboard-response,193,553317,0.0-15.0-1.11,88354,List2B,black,woman,,,,null,,,,,,,,,
null,is copying,,html-keyboard-response,194,555325,0.0-15.0-2.11,88354,List2B,black,woman,,,,null,,,,,,,,,
5487,,,survey-text,195,560816,0.0-15.0-3.11,88354,List2B,black,woman,,,,,"{""Q0"":""ruth is copying dave""}","<img src=""stim_listB/copy1.gif""style=""height:400px;""></stim_listB>",is copying,,,,,,
null,"<div style=""font-size:60px;"">+</div>",,html-keyboard-response,196,561328,0.0-15.0-0.12,88354,List2B,black,woman,,,,null,,,,,,,,,
null,"<img src=""stim_listB/copy3.gif""style=""height:400px;""></stim_listB>",,html-keyboard-response,197,563333,0.0-15.0-1.12,88354,List2B,black,woman,,,,null,,,,,,,,,
null,is copying,,html-keyboard-response,198,565340,0.0-15.0-2.12,88354,List2B,black,woman,,,,null,,,,,,,,,
5662.8,,,survey-text,199,571008,0.0-15.0-3.12,88354,List2B,black,woman,,,,,"{""Q0"":""beth is copying mike""}","<img src=""stim_listB/copy3.gif""style=""height:400px;""></stim_listB>",is copying,,,,,,
null,"<div style=""font-size:60px;"">+</div>",,html-keyboard-response,200,571511,0.0-15.0-0.13,88354,List2B,black,woman,,,,null,,,,,,,,,
null,"<img src=""stim_listB/copy8.gif""style=""height:400px;""></stim_listB>",,html-keyboard-response,201,573522,0.0-15.0-1.13,88354,List2B,black,woman,,,,null,,,,,,,,,
null,is being copied by,,html-keyboard-response,202,575525,0.0-15.0-2.13,88354,List2B,black,woman,,,,null,,,,,,,,,
15695,,,survey-text,203,591224,0.0-15.0-3.13,88354,List2B,black,woman,,,,,"{""Q0"":""ruth is being copied by kate""}","<img src=""stim_listB/copy8.gif""style=""height:400px;""></stim_listB>",is being copied by,,,,,,
null,"<div style=""font-size:60px;"">+</div>",,html-keyboard-response,204,591741,0.0-15.0-0.14,88354,List2B,black,woman,,,,null,,,,,,,,,
null,"<img src=""stim_listB/oppose1.gif""style=""height:400px;""></stim_listB>",,html-keyboard-response,205,593749,0.0-15.0-1.14,88354,List2B,black,woman,,,,null,,,,,,,,,
null,is opposing,,html-keyboard-response,206,595757,0.0-15.0-2.14,88354,List2B,black,woman,,,,null,,,,,,,,,
8295.1,,,survey-text,207,604055,0.0-15.0-3.14,88354,List2B,black,woman,,,,,"{""Q0"":""kate is opposing dave""}","<img src=""stim_listB/oppose1.gif""style=""height:400px;""></stim_listB>",is opposing,,,,,,
null,"<div style=""font-size:60px;"">+</div>",,html-keyboard-response,208,604568,0.0-15.0-0.15,88354,List2B,black,woman,,,,null,,,,,,,,,
null,"<img src=""stim_listB/challenge2.gif""style=""height:400px;""></stim_listB>",,html-keyboard-response,209,606578,0.0-15.0-1.15,88354,List2B,black,woman,,,,null,,,,,,,,,
null,is being challenged by,,html-keyboard-response,210,608586,0.0-15.0-2.15,88354,List2B,black,woman,,,,null,,,,,,,,,
8609.9,,,survey-text,211,617200,0.0-15.0-3.15,88354,List2B,black,woman,,,,,"{""Q0"":""luke is being challenged by jane""}","<img src=""stim_listB/challenge2.gif""style=""height:400px;""></stim_listB>",is being challenged by,,,,,,
null,"<div style=""font-size:60px;"">+</div>",,html-keyboard-response,212,617715,0.0-15.0-0.16,88354,List2B,black,woman,,,,null,,,,,,,,,
null,"<img src=""stim_listB/copy6.gif""style=""height:400px;""></stim_listB>",,html-keyboard-response,213,619722,0.0-15.0-1.16,88354,List2B,black,woman,,,,null,,,,,,,,,
null,is being copied by,,html-keyboard-response,214,621730,0.0-15.0-2.16,88354,List2B,black,woman,,,,null,,,,,,,,,
7969.4,,,survey-text,215,629704,0.0-15.0-3.16,88354,List2B,black,woman,,,,,"{""Q0"":""luke is being copied by mike""}","<img src=""stim_listB/copy6.gif""style=""height:400px;""></stim_listB>",is being copied by,,,,,,
null,"<div style=""font-size:60px;"">+</div>",,html-keyboard-response,216,630221,0.0-15.0-0.17,88354,List2B,black,woman,,,,null,,,,,,,,,
null,"<img src=""stim_listB/greet7.gif""style=""height:400px;""></stim_listB>",,html-keyboard-response,217,632227,0.0-15.0-1.17,88354,List2B,black,woman,,,,null,,,,,,,,,
null,is greeting,,html-keyboard-response,218,634235,0.0-15.0-2.17,88354,List2B,black,woman,,,,null,,,,,,,,,
6632,,,survey-text,219,640872,0.0-15.0-3.17,88354,List2B,black,woman,,,,,"{""Q0"":""beth is greeting mike""}","<img src=""stim_listB/greet7.gif""style=""height:400px;""></stim_listB>",is greeting,,,,,,
null,"<div style=""font-size:60px;"">+</div>",,html-keyboard-response,220,641394,0.0-15.0-0.18,88354,List2B,black,woman,,,,null,,,,,,,,,
null,"<img src=""stim_listB/greet1.gif""style=""height:400px;""></stim_listB>",,html-keyboard-response,221,643400,0.0-15.0-1.18,88354,List2B,black,woman,,,,null,,,,,,,,,
null,is greeting,,html-keyboard-response,222,645406,0.0-15.0-2.18,88354,List2B,black,woman,,,,null,,,,,,,,,
8468.5,,,survey-text,223,653880,0.0-15.0-3.18,88354,List2B,black,woman,,,,,"{""Q0"":""ruth is greeting dave""}","<img src=""stim_listB/greet1.gif""style=""height:400px;""></stim_listB>",is greeting,,,,,,
null,"<div style=""font-size:60px;"">+</div>",,html-keyboard-response,224,654384,0.0-15.0-0.19,88354,List2B,black,woman,,,,null,,,,,,,,,
null,"<img src=""stim_listB/oppose2.gif""style=""height:400px;""></stim_listB>",,html-keyboard-response,225,656390,0.0-15.0-1.19,88354,List2B,black,woman,,,,null,,,,,,,,,
null,is being opposed by,,html-keyboard-response,226,658398,0.0-15.0-2.19,88354,List2B,black,woman,,,,null,,,,,,,,,
6973.2,,,survey-text,227,665375,0.0-15.0-3.19,88354,List2B,black,woman,,,,,"{""Q0"":""luke is being opposed by ruth""}","<img src=""stim_listB/oppose2.gif""style=""height:400px;""></stim_listB>",is being opposed by,,,,,,
4753.7,"<img src='img/portrait_matrix_list2.jpg' style='width:900px;height:500px;''></img><p>If you have memorised all the portraits and names and are ready to start, press Continue.</p><p><strong>Please note: Your memory of these faces will be tested 4 times during this experiment.</strong></p>",0,html-button-response,228,670133,0.0-16.0-0.0,88354,List2B,black,woman,,,,,,,,,,,,,
1581,"<img src=""portrait/BW1.jpg""style=""height:400px;""></img>",0,html-button-response,229,672717,0.0-16.0-1.0,88354,List2B,black,woman,,TRUE,0,,,,,,,,,,
null,CORRECT,,html-keyboard-response,230,674228,0.0-16.0-2.0-0.0,88354,List2B,black,woman,,,,null,,,,,,,,,
1846.4,"<img src=""portrait/BM1.jpg""style=""height:400px;""></img>",4,html-button-response,231,676077,0.0-16.0-4.0,88354,List2B,black,woman,,TRUE,4,,,,,,,,,,
null,CORRECT,,html-keyboard-response,232,677603,0.0-16.0-5.0-0.0,88354,List2B,black,woman,,,,null,,,,,,,,,
1544,"<img src=""portrait/WM2.jpg""style=""height:400px;""></img>",7,html-button-response,233,679149,0.0-16.0-7.0,88354,List2B,black,woman,,TRUE,7,,,,,,,,,,
null,CORRECT,,html-keyboard-response,234,680651,0.0-16.0-8.0-0.0,88354,List2B,black,woman,,,,null,,,,,,,,,
1647.8,"<img src=""portrait/BW2.jpg""style=""height:400px;""></img>",2,html-button-response,235,682301,0.0-16.0-10.0,88354,List2B,black,woman,,TRUE,2,,,,,,,,,,
null,CORRECT,,html-keyboard-response,236,683806,0.0-16.0-11.0-0.0,88354,List2B,black,woman,,,,null,,,,,,,,,
1365,"<img src=""portrait/WW1.jpg""style=""height:400px;""></img>",1,html-button-response,237,685173,0.0-16.0-13.0,88354,List2B,black,woman,,TRUE,1,,,,,,,,,,
null,CORRECT,,html-keyboard-response,238,686687,0.0-16.0-14.0-0.0,88354,List2B,black,woman,,,,null,,,,,,,,,
1947.8,"<img src=""portrait/WM1.jpg""style=""height:400px;""></img>",6,html-button-response,239,688638,0.0-16.0-16.0,88354,List2B,black,woman,,TRUE,6,,,,,,,,,,
null,CORRECT,,html-keyboard-response,240,690142,0.0-16.0-17.0-0.0,88354,List2B,black,woman,,,,null,,,,,,,,,
1268.7,"<img src=""portrait/BM2.jpg""style=""height:400px;""></img>",5,html-button-response,241,691413,0.0-16.0-19.0,88354,List2B,black,woman,,TRUE,5,,,,,,,,,,
null,CORRECT,,html-keyboard-response,242,692929,0.0-16.0-20.0-0.0,88354,List2B,black,woman,,,,null,,,,,,,,,
1201.5,"<img src=""portrait/WW2.jpg""style=""height:400px;""></img>",3,html-button-response,243,694133,0.0-16.0-22.0,88354,List2B,black,woman,,TRUE,3,,,,,,,,,,
null,CORRECT,,html-keyboard-response,244,695635,0.0-16.0-23.0-0.0,88354,List2B,black,woman,,,,null,,,,,,,,,
2446.7,<p>You got 8 out of 8 right first time. Press Continue.</p>,0,html-button-response,245,698085,0.0-16.0-25.0,88354,List2B,black,woman,,,,,,,,,,,,,
null,"<div style=""font-size:60px;"">+</div>",,html-keyboard-response,246,699866,0.0-17.0-0.0,88354,List2B,black,woman,,,,null,,,,,,,,,
null,"<img src=""stim_listB/hug8.gif""style=""height:400px;""></stim_listB>",,html-keyboard-response,247,701876,0.0-17.0-1.0,88354,List2B,black,woman,,,,null,,,,,,,,,
null,is being hugged by,,html-keyboard-response,248,703892,0.0-17.0-2.0,88354,List2B,black,woman,,,,null,,,,,,,,,
9871.4,,,survey-text,249,713767,0.0-17.0-3.0,88354,List2B,black,woman,,,,,"{""Q0"":""jane is being hugged by kate""}","<img src=""stim_listB/hug8.gif""style=""height:400px;""></stim_listB>",is being hugged by,,,,,,
null,"<div style=""font-size:60px;"">+</div>",,html-keyboard-response,250,714270,0.0-17.0-0.1,88354,List2B,black,woman,,,,null,,,,,,,,,
null,"<img src=""stim_listB/oppose4.gif""style=""height:400px;""></stim_listB>",,html-keyboard-response,251,716276,0.0-17.0-1.1,88354,List2B,black,woman,,,,null,,,,,,,,,
null,is being opposed by,,html-keyboard-response,252,718282,0.0-17.0-2.1,88354,List2B,black,woman,,,,null,,,,,,,,,
8689.9,,,survey-text,253,726975,0.0-17.0-3.1,88354,List2B,black,woman,,,,,"{""Q0"":""fred is being opposed by beth""}","<img src=""stim_listB/oppose4.gif""style=""height:400px;""></stim_listB>",is being opposed by,,,,,,
null,"<div style=""font-size:60px;"">+</div>",,html-keyboard-response,254,727479,0.0-17.0-0.2,88354,List2B,black,woman,,,,null,,,,,,,,,
null,"<img src=""stim_listB/greet6.gif""style=""height:400px;""></stim_listB>",,html-keyboard-response,255,729486,0.0-17.0-1.2,88354,List2B,black,woman,,,,null,,,,,,,,,
null,is being greeted by,,html-keyboard-response,256,731492,0.0-17.0-2.2,88354,List2B,black,woman,,,,null,,,,,,,,,
7167,,,survey-text,257,738664,0.0-17.0-3.2,88354,List2B,black,woman,,,,,"{""Q0"":""luke is being greeted by mike""}","<img src=""stim_listB/greet6.gif""style=""height:400px;""></stim_listB>",is being greeted by,,,,,,
null,"<div style=""font-size:60px;"">+</div>",,html-keyboard-response,258,739181,0.0-17.0-0.3,88354,List2B,black,woman,,,,null,,,,,,,,,
null,"<img src=""stim_listB/challenge4.gif""style=""height:400px;""></stim_listB>",,html-keyboard-response,259,741201,0.0-17.0-1.3,88354,List2B,black,woman,,,,null,,,,,,,,,
null,is being challenged by,,html-keyboard-response,260,743208,0.0-17.0-2.3,88354,List2B,black,woman,,,,null,,,,,,,,,
8947,,,survey-text,261,752159,0.0-17.0-3.3,88354,List2B,black,woman,,,,,"{""Q0"":""fred is being challenged by kate""}","<img src=""stim_listB/challenge4.gif""style=""height:400px;""></stim_listB>",is being challenged by,,,,,,
null,"<div style=""font-size:60px;"">+</div>",,html-keyboard-response,262,752668,0.0-17.0-0.4,88354,List2B,black,woman,,,,null,,,,,,,,,
null,"<img src=""stim_listB/seduce1.gif""style=""height:400px;""></stim_listB>",,html-keyboard-response,263,754674,0.0-17.0-1.4,88354,List2B,black,woman,,,,null,,,,,,,,,
null,is seducing,,html-keyboard-response,264,756682,0.0-17.0-2.4,88354,List2B,black,woman,,,,null,,,,,,,,,
6504.9,,,survey-text,265,763192,0.0-17.0-3.4,88354,List2B,black,woman,,,,,"{""Q0"":""jane is seducing luke""}","<img src=""stim_listB/seduce1.gif""style=""height:400px;""></stim_listB>",is seducing,,,,,,
null,"<div style=""font-size:60px;"">+</div>",,html-keyboard-response,266,763703,0.0-17.0-0.5,88354,List2B,black,woman,,,,null,,,,,,,,,
null,"<img src=""stim_listB/hug6.gif""style=""height:400px;""></stim_listB>",,html-keyboard-response,267,765707,0.0-17.0-1.5,88354,List2B,black,woman,,,,null,,,,,,,,,
null,is being hugged by,,html-keyboard-response,268,767714,0.0-17.0-2.5,88354,List2B,black,woman,,,,null,,,,,,,,,
8225.2,,,survey-text,269,775943,0.0-17.0-3.5,88354,List2B,black,woman,,,,,"{""Q0"":""dave is being hugged by mike""}","<img src=""stim_listB/hug6.gif""style=""height:400px;""></stim_listB>",is being hugged by,,,,,,
null,"<div style=""font-size:60px;"">+</div>",,html-keyboard-response,270,776457,0.0-17.0-0.6,88354,List2B,black,woman,,,,null,,,,,,,,,
null,"<img src=""stim_listB/look4.gif""style=""height:400px;""></stim_listB>",,html-keyboard-response,271,778463,0.0-17.0-1.6,88354,List2B,black,woman,,,,null,,,,,,,,,
null,is being looked at by,,html-keyboard-response,272,780471,0.0-17.0-2.6,88354,List2B,black,woman,,,,null,,,,,,,,,
12060.2,,,survey-text,273,792536,0.0-17.0-3.6,88354,List2B,black,woman,,,,,"{""Q0"":""mike is being looked at by kate""}","<img src=""stim_listB/look4.gif""style=""height:400px;""></stim_listB>",is being looked at by,,,,,,
null,"<div style=""font-size:60px;"">+</div>",,html-keyboard-response,274,793038,0.0-17.0-0.7,88354,List2B,black,woman,,,,null,,,,,,,,,
null,"<img src=""stim_listB/oppose8.gif""style=""height:400px;""></stim_listB>",,html-keyboard-response,275,795046,0.0-17.0-1.7,88354,List2B,black,woman,,,,null,,,,,,,,,
null,is being opposed by,,html-keyboard-response,276,797052,0.0-17.0-2.7,88354,List2B,black,woman,,,,null,,,,,,,,,
8071,,,survey-text,277,805127,0.0-17.0-3.7,88354,List2B,black,woman,,,,,"{""Q0"":""ruth is being opposed by beth""}","<img src=""stim_listB/oppose8.gif""style=""height:400px;""></stim_listB>",is being opposed by,,,,,,
null,"<div style=""font-size:60px;"">+</div>",,html-keyboard-response,278,805633,0.0-17.0-0.8,88354,List2B,black,woman,,,,null,,,,,,,,,
null,"<img src=""stim_listB/look5.gif""style=""height:400px;""></stim_listB>",,html-keyboard-response,279,807644,0.0-17.0-1.8,88354,List2B,black,woman,,,,null,,,,,,,,,
null,is looking at,,html-keyboard-response,280,809661,0.0-17.0-2.8,88354,List2B,black,woman,,,,null,,,,,,,,,
6597.9,,,survey-text,281,816264,0.0-17.0-3.8,88354,List2B,black,woman,,,,,"{""Q0"":""fred is looking at luke""}","<img src=""stim_listB/look5.gif""style=""height:400px;""></stim_listB>",is looking at,,,,,,
null,"<div style=""font-size:60px;"">+</div>",,html-keyboard-response,282,816766,0.0-17.0-0.9,88354,List2B,black,woman,,,,null,,,,,,,,,
null,"<img src=""stim_listB/seduce8.gif""style=""height:400px;""></stim_listB>",,html-keyboard-response,283,818771,0.0-17.0-1.9,88354,List2B,black,woman,,,,null,,,,,,,,,
null,is being seduced by,,html-keyboard-response,284,820778,0.0-17.0-2.9,88354,List2B,black,woman,,,,null,,,,,,,,,
8784.9,,,survey-text,285,829568,0.0-17.0-3.9,88354,List2B,black,woman,,,,,"{""Q0"":""jane is being seduced by beth""}","<img src=""stim_listB/seduce8.gif""style=""height:400px;""></stim_listB>",is being seduced by,,,,,,
null,"<div style=""font-size:60px;"">+</div>",,html-keyboard-response,286,830074,0.0-17.0-0.10,88354,List2B,black,woman,,,,null,,,,,,,,,
null,"<img src=""stim_listB/shout7.gif""style=""height:400px;""></stim_listB>",,html-keyboard-response,287,832087,0.0-17.0-1.10,88354,List2B,black,woman,,,,null,,,,,,,,,
null,is shouting at,,html-keyboard-response,288,834095,0.0-17.0-2.10,88354,List2B,black,woman,,,,null,,,,,,,,,
7851.7,,,survey-text,289,841951,0.0-17.0-3.10,88354,List2B,black,woman,,,,,"{""Q0"":""beth is shouting at ruth""}","<img src=""stim_listB/shout7.gif""style=""height:400px;""></stim_listB>",is shouting at,,,,,,
null,"<div style=""font-size:60px;"">+</div>",,html-keyboard-response,290,842460,0.0-17.0-0.11,88354,List2B,black,woman,,,,null,,,,,,,,,
null,"<img src=""stim_listB/look6.gif""style=""height:400px;""></stim_listB>",,html-keyboard-response,291,844474,0.0-17.0-1.11,88354,List2B,black,woman,,,,null,,,,,,,,,
null,is being looked at by,,html-keyboard-response,292,846486,0.0-17.0-2.11,88354,List2B,black,woman,,,,null,,,,,,,,,
9107.8,,,survey-text,293,855599,0.0-17.0-3.11,88354,List2B,black,woman,,,,,"{""Q0"":""dave is being looked at by mike""}","<img src=""stim_listB/look6.gif""style=""height:400px;""></stim_listB>",is being looked at by,,,,,,
null,"<div style=""font-size:60px;"">+</div>",,html-keyboard-response,294,856114,0.0-17.0-0.12,88354,List2B,black,woman,,,,null,,,,,,,,,
null,"<img src=""stim_listB/shout3.gif""style=""height:400px;""></stim_listB>",,html-keyboard-response,295,858130,0.0-17.0-1.12,88354,List2B,black,woman,,,,null,,,,,,,,,
null,is shouting at,,html-keyboard-response,296,860137,0.0-17.0-2.12,88354,List2B,black,woman,,,,null,,,,,,,,,
6738.3,,,survey-text,297,866880,0.0-17.0-3.12,88354,List2B,black,woman,,,,,"{""Q0"":""beth is shouting at fred""}","<img src=""stim_listB/shout3.gif""style=""height:400px;""></stim_listB>",is shouting at,,,,,,
null,"<div style=""font-size:60px;"">+</div>",,html-keyboard-response,298,867393,0.0-17.0-0.13,88354,List2B,black,woman,,,,null,,,,,,,,,
null,"<img src=""stim_listB/oppose6.gif""style=""height:400px;""></stim_listB>",,html-keyboard-response,299,869403,0.0-17.0-1.13,88354,List2B,black,woman,,,,null,,,,,,,,,
null,is being opposed by,,html-keyboard-response,300,871410,0.0-17.0-2.13,88354,List2B,black,woman,,,,null,,,,,,,,,
8912.8,,,survey-text,301,880327,0.0-17.0-3.13,88354,List2B,black,woman,,,,,"{""Q0"":""luke is being opposed by fred""}","<img src=""stim_listB/oppose6.gif""style=""height:400px;""></stim_listB>",is being opposed by,,,,,,
null,"<div style=""font-size:60px;"">+</div>",,html-keyboard-response,302,880837,0.0-17.0-0.14,88354,List2B,black,woman,,,,null,,,,,,,,,
null,"<img src=""stim_listB/seduce2.gif""style=""height:400px;""></stim_listB>",,html-keyboard-response,303,882845,0.0-17.0-1.14,88354,List2B,black,woman,,,,null,,,,,,,,,
null,is being seduced by,,html-keyboard-response,304,884853,0.0-17.0-2.14,88354,List2B,black,woman,,,,null,,,,,,,,,
11853.2,,,survey-text,305,896711,0.0-17.0-3.14,88354,List2B,black,woman,,,,,"{""Q0"":""dave is being seduced by ruth""}","<img src=""stim_listB/seduce2.gif""style=""height:400px;""></stim_listB>",is being seduced by,,,,,,
null,"<div style=""font-size:60px;"">+</div>",,html-keyboard-response,306,897220,0.0-17.0-0.15,88354,List2B,black,woman,,,,null,,,,,,,,,
null,"<img src=""stim_listB/touch8.gif""style=""height:400px;""></stim_listB>",,html-keyboard-response,307,899225,0.0-17.0-1.15,88354,List2B,black,woman,,,,null,,,,,,,,,
null,is being touched by,,html-keyboard-response,308,901232,0.0-17.0-2.15,88354,List2B,black,woman,,,,null,,,,,,,,,
10322.9,,,survey-text,309,911559,0.0-17.0-3.15,88354,List2B,black,woman,,,,,"{""Q0"":""ruth is being touched by beth""}","<img src=""stim_listB/touch8.gif""style=""height:400px;""></stim_listB>",is being touched by,,,,,,
null,"<div style=""font-size:60px;"">+</div>",,html-keyboard-response,310,912067,0.0-17.0-0.16,88354,List2B,black,woman,,,,null,,,,,,,,,
null,"<img src=""stim_listB/greet2.gif""style=""height:400px;""></stim_listB>",,html-keyboard-response,311,914072,0.0-17.0-1.16,88354,List2B,black,woman,,,,null,,,,,,,,,
null,is being greeted by,,html-keyboard-response,312,916080,0.0-17.0-2.16,88354,List2B,black,woman,,,,null,,,,,,,,,
10260.1,,,survey-text,313,926343,0.0-17.0-3.16,88354,List2B,black,woman,,,,,"{""Q0"":""luke is being greeted by jane""}","<img src=""stim_listB/greet2.gif""style=""height:400px;""></stim_listB>",is being greeted by,,,,,,
null,"<div style=""font-size:60px;"">+</div>",,html-keyboard-response,314,926847,0.0-17.0-0.17,88354,List2B,black,woman,,,,null,,,,,,,,,
null,"<img src=""stim_listB/shout4.gif""style=""height:400px;""></stim_listB>",,html-keyboard-response,315,928854,0.0-17.0-1.17,88354,List2B,black,woman,,,,null,,,,,,,,,
null,is being shouted at by,,html-keyboard-response,316,930862,0.0-17.0-2.17,88354,List2B,black,woman,,,,null,,,,,,,,,
12629.3,,,survey-text,317,943496,0.0-17.0-3.17,88354,List2B,black,woman,,,,,"{""Q0"":""kate is being shouted at by mike""}","<img src=""stim_listB/shout4.gif""style=""height:400px;""></stim_listB>",is being shouted at by,,,,,,
null,"<div style=""font-size:60px;"">+</div>",,html-keyboard-response,318,943999,0.0-17.0-0.18,88354,List2B,black,woman,,,,null,,,,,,,,,
null,"<img src=""stim_listB/seduce5.gif""style=""height:400px;""></stim_listB>",,html-keyboard-response,319,946015,0.0-17.0-1.18,88354,List2B,black,woman,,,,null,,,,,,,,,
null,is seducing,,html-keyboard-response,320,948023,0.0-17.0-2.18,88354,List2B,black,woman,,,,null,,,,,,,,,
7524.7,,,survey-text,321,955551,0.0-17.0-3.18,88354,List2B,black,woman,,,,,"{""Q0"":""mike is seducing luke""}","<img src=""stim_listB/seduce5.gif""style=""height:400px;""></stim_listB>",is seducing,,,,,,
null,"<div style=""font-size:60px;"">+</div>",,html-keyboard-response,322,956061,0.0-17.0-0.19,88354,List2B,black,woman,,,,null,,,,,,,,,
null,"<img src=""stim_listB/challenge8.gif""style=""height:400px;""></stim_listB>",,html-keyboard-response,323,958065,0.0-17.0-1.19,88354,List2B,black,woman,,,,null,,,,,,,,,
null,is being challenged by,,html-keyboard-response,324,960072,0.0-17.0-2.19,88354,List2B,black,woman,,,,null,,,,,,,,,
11987.2,,,survey-text,325,972063,0.0-17.0-3.19,88354,List2B,black,woman,,,,,"{""Q0"":""ruth is being challenged by kate""}","<img src=""stim_listB/challenge8.gif""style=""height:400px;""></stim_listB>",is being challenged by,,,,,,
3234.6,"<img src='img/portrait_matrix_list2.jpg' style='width:900px;height:500px;''></img><p>If you have memorised all the portraits and names and are ready to start, press Continue.</p><p><strong>Please note: Your memory of these faces will be tested 4 times during this experiment.</strong></p>",0,html-button-response,326,975301,0.0-18.0-0.0,88354,List2B,black,woman,,,,,,,,,,,,,
3093.6,"<img src=""portrait/WW2.jpg""style=""height:400px;""></img>",3,html-button-response,327,979397,0.0-18.0-1.0,88354,List2B,black,woman,,TRUE,3,,,,,,,,,,
null,CORRECT,,html-keyboard-response,328,980912,0.0-18.0-2.0-0.0,88354,List2B,black,woman,,,,null,,,,,,,,,
1626,"<img src=""portrait/WW1.jpg""style=""height:400px;""></img>",1,html-button-response,329,982541,0.0-18.0-4.0,88354,List2B,black,woman,,TRUE,1,,,,,,,,,,
null,CORRECT,,html-keyboard-response,330,984073,0.0-18.0-5.0-0.0,88354,List2B,black,woman,,,,null,,,,,,,,,
1089.2,"<img src=""portrait/BW2.jpg""style=""height:400px;""></img>",2,html-button-response,331,985165,0.0-18.0-7.0,88354,List2B,black,woman,,TRUE,2,,,,,,,,,,
null,CORRECT,,html-keyboard-response,332,986679,0.0-18.0-8.0-0.0,88354,List2B,black,woman,,,,null,,,,,,,,,
3387.2,"<img src=""portrait/WM1.jpg""style=""height:400px;""></img>",6,html-button-response,333,990069,0.0-18.0-10.0,88354,List2B,black,woman,,TRUE,6,,,,,,,,,,
null,CORRECT,,html-keyboard-response,334,991582,0.0-18.0-11.0-0.0,88354,List2B,black,woman,,,,null,,,,,,,,,
1476,"<img src=""portrait/WM2.jpg""style=""height:400px;""></img>",7,html-button-response,335,993061,0.0-18.0-13.0,88354,List2B,black,woman,,TRUE,7,,,,,,,,,,
null,CORRECT,,html-keyboard-response,336,994583,0.0-18.0-14.0-0.0,88354,List2B,black,woman,,,,null,,,,,,,,,
2131.3,"<img src=""portrait/BM2.jpg""style=""height:400px;""></img>",5,html-button-response,337,996717,0.0-18.0-16.0,88354,List2B,black,woman,,TRUE,5,,,,,,,,,,
null,CORRECT,,html-keyboard-response,338,998244,0.0-18.0-17.0-0.0,88354,List2B,black,woman,,,,null,,,,,,,,,
2478.2,"<img src=""portrait/BM1.jpg""style=""height:400px;""></img>",4,html-button-response,339,1000725,0.0-18.0-19.0,88354,List2B,black,woman,,TRUE,4,,,,,,,,,,
null,CORRECT,,html-keyboard-response,340,1002250,0.0-18.0-20.0-0.0,88354,List2B,black,woman,,,,null,,,,,,,,,
1688.4,"<img src=""portrait/BW1.jpg""style=""height:400px;""></img>",0,html-button-response,341,1003941,0.0-18.0-22.0,88354,List2B,black,woman,,TRUE,0,,,,,,,,,,
null,CORRECT,,html-keyboard-response,342,1005460,0.0-18.0-23.0-0.0,88354,List2B,black,woman,,,,null,,,,,,,,,
1509.9,<p>You got 8 out of 8 right first time. Press Continue.</p>,0,html-button-response,343,1006973,0.0-18.0-25.0,88354,List2B,black,woman,,,,,,,,,,,,,
null,"<div style=""font-size:60px;"">+</div>",,html-keyboard-response,344,1008498,0.0-19.0-0.0,88354,List2B,black,woman,,,,null,,,,,,,,,
null,"<img src=""stim_listB/greet4.gif""style=""height:400px;""></stim_listB>",,html-keyboard-response,345,1010504,0.0-19.0-1.0,88354,List2B,black,woman,,,,null,,,,,,,,,
null,is being greeted by,,html-keyboard-response,346,1012512,0.0-19.0-2.0,88354,List2B,black,woman,,,,null,,,,,,,,,
14035,,,survey-text,347,1026552,0.0-19.0-3.0,88354,List2B,black,woman,,,,,"{""Q0"":""fred is being greeted by kate""}","<img src=""stim_listB/greet4.gif""style=""height:400px;""></stim_listB>",is being greeted by,,,,,,
null,"<div style=""font-size:60px;"">+</div>",,html-keyboard-response,348,1027060,0.0-19.0-0.1,88354,List2B,black,woman,,,,null,,,,,,,,,
null,"<img src=""stim_listB/kiss6.gif""style=""height:400px;""></stim_listB>",,html-keyboard-response,349,1029066,0.0-19.0-1.1,88354,List2B,black,woman,,,,null,,,,,,,,,
null,is being kissed by,,html-keyboard-response,350,1031074,0.0-19.0-2.1,88354,List2B,black,woman,,,,null,,,,,,,,,
9305.8,,,survey-text,351,1040384,0.0-19.0-3.1,88354,List2B,black,woman,,,,,"{""Q0"":""dave is being kissed by mike""}","<img src=""stim_listB/kiss6.gif""style=""height:400px;""></stim_listB>",is being kissed by,,,,,,
null,"<div style=""font-size:60px;"">+</div>",,html-keyboard-response,352,1040888,0.0-19.0-0.2,88354,List2B,black,woman,,,,null,,,,,,,,,
null,"<img src=""stim_listB/touch7.gif""style=""height:400px;""></stim_listB>",,html-keyboard-response,353,1042894,0.0-19.0-1.2,88354,List2B,black,woman,,,,null,,,,,,,,,
null,is touching,,html-keyboard-response,354,1044902,0.0-19.0-2.2,88354,List2B,black,woman,,,,null,,,,,,,,,
8111.2,,,survey-text,355,1053017,0.0-19.0-3.2,88354,List2B,black,woman,,,,,"{""Q0"":""kate is touching jane""}","<img src=""stim_listB/touch7.gif""style=""height:400px;""></stim_listB>",is touching,,,,,,
null,"<div style=""font-size:60px;"">+</div>",,html-keyboard-response,356,1053531,0.0-19.0-0.3,88354,List2B,black,woman,,,,null,,,,,,,,,
null,"<img src=""stim_listB/kiss2.gif""style=""height:400px;""></stim_listB>",,html-keyboard-response,357,1055537,0.0-19.0-1.3,88354,List2B,black,woman,,,,null,,,,,,,,,
null,is being kissed by,,html-keyboard-response,358,1057545,0.0-19.0-2.3,88354,List2B,black,woman,,,,null,,,,,,,,,
8419.1,,,survey-text,359,1065968,0.0-19.0-3.3,88354,List2B,black,woman,,,,,"{""Q0"":""dave is being kissed by jane""}","<img src=""stim_listB/kiss2.gif""style=""height:400px;""></stim_listB>",is being kissed by,,,,,,
null,"<div style=""font-size:60px;"">+</div>",,html-keyboard-response,360,1066485,0.0-19.0-0.4,88354,List2B,black,woman,,,,null,,,,,,,,,
null,"<img src=""stim_listB/shout1.gif""style=""height:400px;""></stim_listB>",,html-keyboard-response,361,1068493,0.0-19.0-1.4,88354,List2B,black,woman,,,,null,,,,,,,,,
null,is shouting at,,html-keyboard-response,362,1070501,0.0-19.0-2.4,88354,List2B,black,woman,,,,null,,,,,,,,,
8742.6,,,survey-text,363,1079248,0.0-19.0-3.4,88354,List2B,black,woman,,,,,"{""Q0"":""ruth is shouting at luke""}","<img src=""stim_listB/shout1.gif""style=""height:400px;""></stim_listB>",is shouting at,,,,,,
null,"<div style=""font-size:60px;"">+</div>",,html-keyboard-response,364,1079750,0.0-19.0-0.5,88354,List2B,black,woman,,,,null,,,,,,,,,
null,"<img src=""stim_listB/hug4.gif""style=""height:400px;""></stim_listB>",,html-keyboard-response,365,1081758,0.0-19.0-1.5,88354,List2B,black,woman,,,,null,,,,,,,,,
null,is being hugged by,,html-keyboard-response,366,1083766,0.0-19.0-2.5,88354,List2B,black,woman,,,,null,,,,,,,,,
8093.9,,,survey-text,367,1091864,0.0-19.0-3.5,88354,List2B,black,woman,,,,,"{""Q0"":""mike is being hugged by kate""}","<img src=""stim_listB/hug4.gif""style=""height:400px;""></stim_listB>",is being hugged by,,,,,,
null,"<div style=""font-size:60px;"">+</div>",,html-keyboard-response,368,1092371,0.0-19.0-0.6,88354,List2B,black,woman,,,,null,,,,,,,,,
null,"<img src=""stim_listB/touch6.gif""style=""height:400px;""></stim_listB>",,html-keyboard-response,369,1094376,0.0-19.0-1.6,88354,List2B,black,woman,,,,null,,,,,,,,,
null,is being touched by,,html-keyboard-response,370,1096383,0.0-19.0-2.6,88354,List2B,black,woman,,,,null,,,,,,,,,
7644.4,,,survey-text,371,1104032,0.0-19.0-3.6,88354,List2B,black,woman,,,,,"{""Q0"":""luke is being touched by fred""}","<img src=""stim_listB/touch6.gif""style=""height:400px;""></stim_listB>",is being touched by,,,,,,
null,"<div style=""font-size:60px;"">+</div>",,html-keyboard-response,372,1104538,0.0-19.0-0.7,88354,List2B,black,woman,,,,null,,,,,,,,,
null,"<img src=""stim_listB/copy7.gif""style=""height:400px;""></stim_listB>",,html-keyboard-response,373,1106544,0.0-19.0-1.7,88354,List2B,black,woman,,,,null,,,,,,,,,
null,is copying,,html-keyboard-response,374,1108552,0.0-19.0-2.7,88354,List2B,black,woman,,,,null,,,,,,,,,
6099.6,,,survey-text,375,1114655,0.0-19.0-3.7,88354,List2B,black,woman,,,,,"{""Q0"":""beth is copying jane""}","<img src=""stim_listB/copy7.gif""style=""height:400px;""></stim_listB>",is copying,,,,,,
null,"<div style=""font-size:60px;"">+</div>",,html-keyboard-response,376,1115157,0.0-19.0-0.8,88354,List2B,black,woman,,,,null,,,,,,,,,
null,"<img src=""stim_listB/challenge6.gif""style=""height:400px;""></stim_listB>",,html-keyboard-response,377,1117162,0.0-19.0-1.8,88354,List2B,black,woman,,,,null,,,,,,,,,
null,is being challenged by,,html-keyboard-response,378,1119170,0.0-19.0-2.8,88354,List2B,black,woman,,,,null,,,,,,,,,
11562.7,,,survey-text,379,1130736,0.0-19.0-3.8,88354,List2B,black,woman,,,,,"{""Q0"":""luke is being challenged by mike""}","<img src=""stim_listB/challenge6.gif""style=""height:400px;""></stim_listB>",is being challenged by,,,,,,
null,"<div style=""font-size:60px;"">+</div>",,html-keyboard-response,380,1131239,0.0-19.0-0.9,88354,List2B,black,woman,,,,null,,,,,,,,,
null,"<img src=""stim_listB/hug1.gif""style=""height:400px;""></stim_listB>",,html-keyboard-response,381,1133246,0.0-19.0-1.9,88354,List2B,black,woman,,,,null,,,,,,,,,
null,is hugging,,html-keyboard-response,382,1135254,0.0-19.0-2.9,88354,List2B,black,woman,,,,null,,,,,,,,,
6062.1,,,survey-text,383,1141320,0.0-19.0-3.9,88354,List2B,black,woman,,,,,"{""Q0"":""luke is hugging ruth""}","<img src=""stim_listB/hug1.gif""style=""height:400px;""></stim_listB>",is hugging,,,,,,
null,"<div style=""font-size:60px;"">+</div>",,html-keyboard-response,384,1141828,0.0-19.0-0.10,88354,List2B,black,woman,,,,null,,,,,,,,,
null,"<img src=""stim_listB/shout6.gif""style=""height:400px;""></stim_listB>",,html-keyboard-response,385,1143835,0.0-19.0-1.10,88354,List2B,black,woman,,,,null,,,,,,,,,
null,is being shouted at by,,html-keyboard-response,386,1145843,0.0-19.0-2.10,88354,List2B,black,woman,,,,null,,,,,,,,,
12923.4,,,survey-text,387,1158776,0.0-19.0-3.10,88354,List2B,black,woman,,,,,"{""Q0"":""dave is being shout at by mike""}","<img src=""stim_listB/shout6.gif""style=""height:400px;""></stim_listB>",is being shouted at by,,,,,,
null,"<div style=""font-size:60px;"">+</div>",,html-keyboard-response,388,1159284,0.0-19.0-0.11,88354,List2B,black,woman,,,,null,,,,,,,,,
null,"<img src=""stim_listB/hug3.gif""style=""height:400px;""></stim_listB>",,html-keyboard-response,389,1161291,0.0-19.0-1.11,88354,List2B,black,woman,,,,null,,,,,,,,,
null,is hugging,,html-keyboard-response,390,1163299,0.0-19.0-2.11,88354,List2B,black,woman,,,,null,,,,,,,,,
6672.7,,,survey-text,391,1169976,0.0-19.0-3.11,88354,List2B,black,woman,,,,,"{""Q0"":""fred is hugging beth""}","<img src=""stim_listB/hug3.gif""style=""height:400px;""></stim_listB>",is hugging,,,,,,
null,"<div style=""font-size:60px;"">+</div>",,html-keyboard-response,392,1170482,0.0-19.0-0.12,88354,List2B,black,woman,,,,null,,,,,,,,,
null,"<img src=""stim_listB/challenge1.gif""style=""height:400px;""></stim_listB>",,html-keyboard-response,393,1172486,0.0-19.0-1.12,88354,List2B,black,woman,,,,null,,,,,,,,,
null,is challenging,,html-keyboard-response,394,1174492,0.0-19.0-2.12,88354,List2B,black,woman,,,,null,,,,,,,,,
9599.7,,,survey-text,395,1184096,0.0-19.0-3.12,88354,List2B,black,woman,,,,,"{""Q0"":""ruth is challenging dave""}","<img src=""stim_listB/challenge1.gif""style=""height:400px;""></stim_listB>",is challenging,,,,,,
null,"<div style=""font-size:60px;"">+</div>",,html-keyboard-response,396,1184607,0.0-19.0-0.13,88354,List2B,black,woman,,,,null,,,,,,,,,
null,"<img src=""stim_listB/kiss5.gif""style=""height:400px;""></stim_listB>",,html-keyboard-response,397,1186615,0.0-19.0-1.13,88354,List2B,black,woman,,,,null,,,,,,,,,
null,is kissing,,html-keyboard-response,398,1188622,0.0-19.0-2.13,88354,List2B,black,woman,,,,null,,,,,,,,,
9405.6,,,survey-text,399,1198032,0.0-19.0-3.13,88354,List2B,black,woman,,,,,"{""Q0"":""fred is kissing luke""}","<img src=""stim_listB/kiss5.gif""style=""height:400px;""></stim_listB>",is kissing,,,,,,
null,"<div style=""font-size:60px;"">+</div>",,html-keyboard-response,400,1198552,0.0-19.0-0.14,88354,List2B,black,woman,,,,null,,,,,,,,,
null,"<img src=""stim_listB/kiss7.gif""style=""height:400px;""></stim_listB>",,html-keyboard-response,401,1200559,0.0-19.0-1.14,88354,List2B,black,woman,,,,null,,,,,,,,,
null,is kissing,,html-keyboard-response,402,1202567,0.0-19.0-2.14,88354,List2B,black,woman,,,,null,,,,,,,,,
7684.3,,,survey-text,403,1210255,0.0-19.0-3.14,88354,List2B,black,woman,,,,,"{""Q0"":""beth is kissing ruth""}","<img src=""stim_listB/kiss7.gif""style=""height:400px;""></stim_listB>",is kissing,,,,,,
null,"<div style=""font-size:60px;"">+</div>",,html-keyboard-response,404,1210757,0.0-19.0-0.15,88354,List2B,black,woman,,,,null,,,,,,,,,
null,"<img src=""stim_listB/hug5.gif""style=""height:400px;""></stim_listB>",,html-keyboard-response,405,1212770,0.0-19.0-1.15,88354,List2B,black,woman,,,,null,,,,,,,,,
null,is hugging,,html-keyboard-response,406,1214786,0.0-19.0-2.15,88354,List2B,black,woman,,,,null,,,,,,,,,
6448.8,,,survey-text,407,1221240,0.0-19.0-3.15,88354,List2B,black,woman,,,,,"{""Q0"":""fred is hugging luke""}","<img src=""stim_listB/hug5.gif""style=""height:400px;""></stim_listB>",is hugging,,,,,,
null,"<div style=""font-size:60px;"">+</div>",,html-keyboard-response,408,1221746,0.0-19.0-0.16,88354,List2B,black,woman,,,,null,,,,,,,,,
null,"<img src=""stim_listB/touch4.gif""style=""height:400px;""></stim_listB>",,html-keyboard-response,409,1223752,0.0-19.0-1.16,88354,List2B,black,woman,,,,null,,,,,,,,,
null,is being touched by,,html-keyboard-response,410,1225759,0.0-19.0-2.16,88354,List2B,black,woman,,,,null,,,,,,,,,
12588.4,,,survey-text,411,1238352,0.0-19.0-3.16,88354,List2B,black,woman,,,,,"{""Q0"":""fred is being touched by beth""}","<img src=""stim_listB/touch4.gif""style=""height:400px;""></stim_listB>",is being touched by,,,,,,
null,"<div style=""font-size:60px;"">+</div>",,html-keyboard-response,412,1238862,0.0-19.0-0.17,88354,List2B,black,woman,,,,null,,,,,,,,,
null,"<img src=""stim_listB/touch5.gif""style=""height:400px;""></stim_listB>",,html-keyboard-response,413,1240867,0.0-19.0-1.17,88354,List2B,black,woman,,,,null,,,,,,,,,
null,is touching,,html-keyboard-response,414,1242875,0.0-19.0-2.17,88354,List2B,black,woman,,,,null,,,,,,,,,
9873,,,survey-text,415,1252752,0.0-19.0-3.17,88354,List2B,black,woman,,,,,"{""Q0"":""mike is touching dave""}","<img src=""stim_listB/touch5.gif""style=""height:400px;""></stim_listB>",is touching,,,,,,
null,"<div style=""font-size:60px;"">+</div>",,html-keyboard-response,416,1253258,0.0-19.0-0.18,88354,List2B,black,woman,,,,null,,,,,,,,,
null,"<img src=""stim_listB/shout8.gif""style=""height:400px;""></stim_listB>",,html-keyboard-response,417,1255265,0.0-19.0-1.18,88354,List2B,black,woman,,,,null,,,,,,,,,
null,is being shouted at by,,html-keyboard-response,418,1257272,0.0-19.0-2.18,88354,List2B,black,woman,,,,null,,,,,,,,,
11403.1,,,survey-text,419,1268680,0.0-19.0-3.18,88354,List2B,black,woman,,,,,"{""Q0"":""jane is being shouted at by kate""}","<img src=""stim_listB/shout8.gif""style=""height:400px;""></stim_listB>",is being shouted at by,,,,,,
null,"<div style=""font-size:60px;"">+</div>",,html-keyboard-response,420,1269192,0.0-19.0-0.19,88354,List2B,black,woman,,,,null,,,,,,,,,
null,"<img src=""stim_listB/look2.gif""style=""height:400px;""></stim_listB>",,html-keyboard-response,421,1271199,0.0-19.0-1.19,88354,List2B,black,woman,,,,null,,,,,,,,,
null,is being looked at by,,html-keyboard-response,422,1273206,0.0-19.0-2.19,88354,List2B,black,woman,,,,null,,,,,,,,,
9677.2,,,survey-text,423,1282888,0.0-19.0-3.19,88354,List2B,black,woman,,,,,"{""Q0"":""dave is being looked at by jane""}","<img src=""stim_listB/look2.gif""style=""height:400px;""></stim_listB>",is being looked at by,,,,,,
3243.2,<p>Thank you for completing that task.</p><p>The final part of this session is a questionnaire that will take about 4 minutes.</p><p>Press Continue.</p>,0,html-button-response,424,1286133,0.0-20.0,88354,List2B,black,woman,,,,,,,,,,,,,
43830.4,,,survey-text,425,1330983,0.0-21.0,88354,List2B,black,woman,,,,,"{""Q0"":""45"",""Q1"":""English"",""Q2"":""English"",""Q3"":""United States Of America"",""Q4"":""Ghanaian"",""Q5"":""Black"",""Q6"":""Female""}",,,demographics,,,,,
1673.8,<p>Have you lived in the USA for the last 5 years or more?</p>,0,html-button-response,426,1332662,0.0-22.0,88354,List2B,black,woman,,,,,,,,fiveyears,,,,,
1339.6,<p>Move the slider to show the extent to which you agree with the following statements.</p>,0,html-button-response,427,1335006,0.0-23.0,88354,List2B,black,woman,,,,,,,,,,,,,
2490.8,,,html-slider-response,428,1338503,0.0-24.0-0.0-0.0,88354,List2B,black,woman,,,,,,,,survey_gender,100,,,I often think about the fact that I am my gender.,often
1731.3,,,html-slider-response,429,1340237,0.0-24.0-0.0-0.1,88354,List2B,black,woman,,,,,,,,survey_gender,100,,,I am glad to have the friends that I have.,filler
1805.7,,,html-slider-response,430,1342046,0.0-24.0-0.0-0.2,88354,List2B,black,woman,,,,,,,,survey_gender,100,,,I feel a bond with my friends.,filler
1822.3,,,html-slider-response,431,1343870,0.0-24.0-0.0-0.3,88354,List2B,black,woman,,,,,,,,survey_gender,100,,,I have a lot in common with the average person of my gender.,average
1788.3,,,html-slider-response,432,1345661,0.0-24.0-0.0-0.4,88354,List2B,black,woman,,,,,,,,survey_gender,100,,,Being my gender is an important part of how I see myself.,important
1902.1,,,html-slider-response,433,1347565,0.0-24.0-0.0-0.5,88354,List2B,black,woman,,,,,,,,survey_gender,100,,,I have a lot in common with my friends.,filler
2061.4,,,html-slider-response,434,1349630,0.0-24.0-0.0-0.6,88354,List2B,black,woman,,,,,,,,survey_gender,100,,,Being around my friends gives me a good feeling.,filler
2612.1,,,html-slider-response,435,1352246,0.0-24.0-0.0-0.7,88354,List2B,black,woman,,,,,,,,survey_gender,100,,,The fact that I am my gender is an important part of my identity.,identity
3054.1,,,html-slider-response,436,1355302,0.0-24.0-0.0-0.8,88354,List2B,black,woman,,,,,,,,survey_gender,99,,,I think that my gender has a lot to be proud of.,proud
5083.5,,,html-slider-response,437,1360390,0.0-24.0-0.0-0.9,88354,List2B,black,woman,,,,,,,,survey_gender,25,,,Routine is not important to me.,filler
2380.5,,,html-slider-response,438,1362774,0.0-24.0-0.0-0.10,88354,List2B,black,woman,,,,,,,,survey_gender,100,,,I feel committed to my gender.,committed
2253.4,,,html-slider-response,439,1365030,0.0-24.0-0.0-0.11,88354,List2B,black,woman,,,,,,,,survey_gender,99,,,I am glad to be my gender.,glad
4446,,,html-slider-response,440,1369478,0.0-24.0-0.0-0.12,88354,List2B,black,woman,,,,,,,,survey_gender,99,,,I feel solidarity with my friends.,filler
2643.8,,,html-slider-response,441,1372125,0.0-24.0-0.0-0.13,88354,List2B,black,woman,,,,,,,,survey_gender,100,,,Most of the friends in my life are very similar to me.,filler
2685.5,,,html-slider-response,442,1374814,0.0-24.0-0.0-0.14,88354,List2B,black,woman,,,,,,,,survey_gender,100,,,I am similar to the average person of my gender.,similar
4453.5,,,html-slider-response,443,1379269,0.0-24.0-0.0-0.15,88354,List2B,black,woman,,,,,,,,survey_gender,59,,,I would say I am an animal person.,filler
2325.3,,,html-slider-response,444,1381598,0.0-24.0-0.0-0.16,88354,List2B,black,woman,,,,,,,,survey_gender,100,,,It is pleasant to be my gender.,pleasant
2301.4,,,html-slider-response,445,1383901,0.0-24.0-0.0-0.17,88354,List2B,black,woman,,,,,,,,survey_gender,100,,,I consider myself a highly empathetic person.,filler
4677.9,,,html-slider-response,446,1388581,0.0-24.0-0.0-0.18,88354,List2B,black,woman,,,,,,,,survey_gender,85,,,It is not always easy for people to know what I am thinking.,filler
2956.3,,,html-slider-response,447,1391541,0.0-24.0-0.0-0.19,88354,List2B,black,woman,,,,,,,,survey_gender,100,,,I feel a bond with my gender.,bond
2212.4,,,html-slider-response,448,1393758,0.0-24.0-0.0-0.20,88354,List2B,black,woman,,,,,,,,survey_gender,100,,,My friends have a lot in common with each other.,filler
2716.7,,,html-slider-response,449,1396478,0.0-24.0-0.0-0.21,88354,List2B,black,woman,,,,,,,,survey_gender,100,,,People of my gender are very similar to each other.,verysimilar
2164.6,,,html-slider-response,450,1398645,0.0-24.0-0.0-0.22,88354,List2B,black,woman,,,,,,,,survey_gender,100,,,I feel solidarity with my gender.,solidarity
1797.6,,,html-slider-response,451,1400446,0.0-24.0-0.0-0.23,88354,List2B,black,woman,,,,,,,,survey_gender,100,,,My friends understand me.,filler
2565,,,html-slider-response,452,1403013,0.0-24.0-0.0-0.24,88354,List2B,black,woman,,,,,,,,survey_gender,11,,,Family is not more important to me than friendship.,filler
2429.2,,,html-slider-response,453,1405445,0.0-24.0-0.0-0.25,88354,List2B,black,woman,,,,,,,,survey_gender,98,,,I often think about my actions.,filler
4268.5,,,html-slider-response,454,1409717,0.0-24.0-0.0-0.26,88354,List2B,black,woman,,,,,,,,survey_gender,99,,,People of my gender have a lot in common with each other.,common
2852.9,,,html-slider-response,455,1412573,0.0-24.0-0.0-0.27,88354,List2B,black,woman,,,,,,,,survey_gender,99,,,Being my gender gives me a good feeling.,feeling
3614.4,,,html-slider-response,456,1416190,0.0-24.0-1.0-0.0,88354,List2B,black,woman,,,,,,,,survey_race,10,,,My age is not an important part of who I am.,filler
3363.8,,,html-slider-response,457,1419557,0.0-24.0-1.0-0.1,88354,List2B,black,woman,,,,,,,,survey_race,100,,,I think that my race has a lot to be proud of.,proud
3988.5,,,html-slider-response,458,1423549,0.0-24.0-1.0-0.2,88354,List2B,black,woman,,,,,,,,survey_race,100,,,I have a lot in common with the average person of my race.,average
2348.6,,,html-slider-response,459,1425901,0.0-24.0-1.0-0.3,88354,List2B,black,woman,,,,,,,,survey_race,100,,,I feel solidarity with people the same age as me.,filler
2597.4,,,html-slider-response,460,1428501,0.0-24.0-1.0-0.4,88354,List2B,black,woman,,,,,,,,survey_race,100,,,I often think about the fact that I am my age.,filler
3534.1,,,html-slider-response,461,1432038,0.0-24.0-1.0-0.5,88354,List2B,black,woman,,,,,,,,survey_race,99,,,Being my race is an important part of how I see myself.,important
2427.8,,,html-slider-response,462,1434470,0.0-24.0-1.0-0.6,88354,List2B,black,woman,,,,,,,,survey_race,100,,,I feel a bond with my race.,bond
2564.8,,,html-slider-response,463,1437037,0.0-24.0-1.0-0.7,88354,List2B,black,woman,,,,,,,,survey_race,100,,,I have a lot in common with people of a similar age to me.,filler
2381.1,,,html-slider-response,464,1439421,0.0-24.0-1.0-0.8,88354,List2B,black,woman,,,,,,,,survey_race,100,,,People my age have a lot in common with each other.,filler
2060.1,,,html-slider-response,465,1441485,0.0-24.0-1.0-0.9,88354,List2B,black,woman,,,,,,,,survey_race,100,,,I feel solidarity with my race.,solidarity
2022.7,,,html-slider-response,466,1443510,0.0-24.0-1.0-0.10,88354,List2B,black,woman,,,,,,,,survey_race,100,,,I am glad to be the age I am.,filler
3444.7,,,html-slider-response,467,1446957,0.0-24.0-1.0-0.11,88354,List2B,black,woman,,,,,,,,survey_race,100,,,I consider myself an extrovert.,filler
3485.5,,,html-slider-response,468,1450445,0.0-24.0-1.0-0.12,88354,List2B,black,woman,,,,,,,,survey_race,99,,,I often think about the fact that I am my race.,often
1917.5,,,html-slider-response,469,1452366,0.0-24.0-1.0-0.13,88354,List2B,black,woman,,,,,,,,survey_race,100,,,Being my race gives me a good feeling.,feeling
2628.9,,,html-slider-response,470,1454997,0.0-24.0-1.0-0.14,88354,List2B,black,woman,,,,,,,,survey_race,100,,,I am similar to the average person of my race.,similar
2149.8,,,html-slider-response,471,1457149,0.0-24.0-1.0-0.15,88354,List2B,black,woman,,,,,,,,survey_race,100,,,I feel committed to my race.,committed
2374,,,html-slider-response,472,1459526,0.0-24.0-1.0-0.16,88354,List2B,black,woman,,,,,,,,survey_race,100,,,It is pleasant to be my race.,pleasant
2564.4,,,html-slider-response,473,1462094,0.0-24.0-1.0-0.17,88354,List2B,black,woman,,,,,,,,survey_race,100,,,I feel a bond with people the same age as me.,filler
2277.1,,,html-slider-response,474,1464373,0.0-24.0-1.0-0.18,88354,List2B,black,woman,,,,,,,,survey_race,100,,,I am glad to be my age.,filler
2325.6,,,html-slider-response,475,1466702,0.0-24.0-1.0-0.19,88354,List2B,black,woman,,,,,,,,survey_race,100,,,People of my race have a lot in common with each other.,common
2060.9,,,html-slider-response,476,1468766,0.0-24.0-1.0-0.20,88354,List2B,black,woman,,,,,,,,survey_race,100,,,I am glad to be my race.,glad
2445.4,,,html-slider-response,477,1471214,0.0-24.0-1.0-0.21,88354,List2B,black,woman,,,,,,,,survey_race,99,,,Being my age gives me a good feeling.,filler
2916,,,html-slider-response,478,1474133,0.0-24.0-1.0-0.22,88354,List2B,black,woman,,,,,,,,survey_race,100,,,I enjoy being in large groups.,filler
5157.6,,,html-slider-response,479,1479293,0.0-24.0-1.0-0.23,88354,List2B,black,woman,,,,,,,,survey_race,100,,,The fact that I am my race is an important part of my identity.,identity
3221.4,,,html-slider-response,480,1482518,0.0-24.0-1.0-0.24,88354,List2B,black,woman,,,,,,,,survey_race,1,,,I consider myself an introvert.,filler
3453,,,html-slider-response,481,1485974,0.0-24.0-1.0-0.25,88354,List2B,black,woman,,,,,,,,survey_race,76,,,Getting older does not worry me.,filler
2643.9,,,html-slider-response,482,1488621,0.0-24.0-1.0-0.26,88354,List2B,black,woman,,,,,,,,survey_race,100,,,"The older I get, the wiser I feel.",filler
3125,,,html-slider-response,483,1491749,0.0-24.0-1.0-0.27,88354,List2B,black,woman,,,,,,,,survey_race,100,,,People of my race are very similar to each other.,verysimilar
15283.9,,,survey-text,484,1507038,0.0-25.0,88354,List2B,black,woman,,,,,"{""Q0"":""ccc""}",,,worker_id,,,,,
3163.1,,,external-html,485,1512950,0.0-26.0,88354,List2B,black,woman,debrief.html,,,,,,,,,,,,
