rt,stimulus,button_pressed,trial_type,trial_index,time_elapsed,internal_node_id,subject,list,ppt_race,ppt_gender,url,first_guess,correct,key_press,responses,image_type,phrase_type,test_part,response,stimulus1,stimulus2,question_type,survey_item
1730.6,Welcome to the experiment. Press Continue to begin.,0,html-button-response,0,1734,0.0-0.0,88536,List2A,black,woman,,,,,,,,,,,,,
72649.7,,,external-html,1,75591,0.0-1.0,88536,List2A,black,woman,consent.html,,,,,,,,,,,,
16810.1,"<p>On the next page, you will see portraits of 8 people and their names.</p><p>Your first task is to take a few minutes to memorise the names of these people.</p><p>You will have to recall their names during the rest of the experiment, so it is</p><p>essential that you try to memorise these people and their names as best as you can.</p><br><p><strong>You will then be tested on your memory of these names and portraits.</strong></p><br><p>The experiment will start after you have completed this memory test.</p><br><p>Ready?</p>",0,html-button-response,2,92402,0.0-2.0,88536,List2A,black,woman,,,,,,,,,,,,,
195296.8,"<img src='img/portrait_matrix_list2.jpg' style='width:900px;height:500px;''></img><p>If you have memorised all the portraits and names and are ready to start, press Continue.</p><p><strong>Please note: Your memory of these faces will be tested 4 times during this experiment.</strong></p>",0,html-button-response,3,288705,0.0-3.0-0.0,88536,List2A,black,woman,,,,,,,,,,,,,
2280.8,"<img src=""portrait/BM2.jpg""style=""height:400px;""></img>",5,html-button-response,4,291992,0.0-3.0-1.0,88536,List2A,black,woman,,TRUE,5,,,,,,,,,,
null,CORRECT,,html-keyboard-response,5,293499,0.0-3.0-2.0-0.0,88536,List2A,black,woman,,,,null,,,,,,,,,
3480.9,"<img src=""portrait/BW2.jpg""style=""height:400px;""></img>",2,html-button-response,6,296982,0.0-3.0-4.0,88536,List2A,black,woman,,TRUE,2,,,,,,,,,,
null,CORRECT,,html-keyboard-response,7,298487,0.0-3.0-5.0-0.0,88536,List2A,black,woman,,,,null,,,,,,,,,
2637.6,"<img src=""portrait/BM1.jpg""style=""height:400px;""></img>",4,html-button-response,8,301126,0.0-3.0-7.0,88536,List2A,black,woman,,TRUE,4,,,,,,,,,,
null,CORRECT,,html-keyboard-response,9,302636,0.0-3.0-8.0-0.0,88536,List2A,black,woman,,,,null,,,,,,,,,
3684.7,"<img src=""portrait/WW2.jpg""style=""height:400px;""></img>",3,html-button-response,10,306322,0.0-3.0-10.0,88536,List2A,black,woman,,TRUE,3,,,,,,,,,,
null,CORRECT,,html-keyboard-response,11,307829,0.0-3.0-11.0-0.0,88536,List2A,black,woman,,,,null,,,,,,,,,
2735.9,"<img src=""portrait/WW1.jpg""style=""height:400px;""></img>",1,html-button-response,12,310566,0.0-3.0-13.0,88536,List2A,black,woman,,TRUE,1,,,,,,,,,,
null,CORRECT,,html-keyboard-response,13,312072,0.0-3.0-14.0-0.0,88536,List2A,black,woman,,,,null,,,,,,,,,
2664.6,"<img src=""portrait/WM1.jpg""style=""height:400px;""></img>",6,html-button-response,14,314738,0.0-3.0-16.0,88536,List2A,black,woman,,TRUE,6,,,,,,,,,,
null,CORRECT,,html-keyboard-response,15,316245,0.0-3.0-17.0-0.0,88536,List2A,black,woman,,,,null,,,,,,,,,
2867.5,"<img src=""portrait/BW1.jpg""style=""height:400px;""></img>",0,html-button-response,16,319113,0.0-3.0-19.0,88536,List2A,black,woman,,TRUE,0,,,,,,,,,,
null,CORRECT,,html-keyboard-response,17,320621,0.0-3.0-20.0-0.0,88536,List2A,black,woman,,,,null,,,,,,,,,
6800.1,"<img src=""portrait/WM2.jpg""style=""height:400px;""></img>",7,html-button-response,18,327423,0.0-3.0-22.0,88536,List2A,black,woman,,TRUE,7,,,,,,,,,,
null,CORRECT,,html-keyboard-response,19,328928,0.0-3.0-23.0-0.0,88536,List2A,black,woman,,,,null,,,,,,,,,
6097.3,<p>You got 8 out of 8 right first time. Press Continue.</p>,0,html-button-response,20,335026,0.0-3.0-25.0,88536,List2A,black,woman,,,,,,,,,,,,,
71389.3,"<p>In this experiment, you will view photographs of the people from the memory game interacting.</p><p>By using the <strong>exact</strong> phrase given <i>after</i> the photograph appears and recalling the correct names of the people in the photographs, form a sentence describing the interaction. You do not need to capitalise names.</p><p>Type your answer in the space provided. Please complete every sentence before moving onto the next trial.</p><p>You will only have a few seconds to memorise each given photograph and phrase before you can respond, so try your best to focus.</p><p>An example is given below. Press 'Continue' when you are ready.</p><img src='img/speaking_example.jpg' style='width:800px;height:460px;''></img>",0,html-button-response,21,407424,0.0-4.0,88536,List2A,black,woman,,,,,,,,,,,,,
2442.4,"<p>Before the experiment starts, you will watch two example trials. Press 'Continue'.</p>",0,html-button-response,22,410869,0.0-5.0,88536,List2A,black,woman,,,,,,,,,,,,,
null,<img src='img/play_eg.gif' style='height:400px;''></img>,,html-keyboard-response,23,413876,0.0-6.0,88536,List2A,black,woman,,,,null,,,,,,,,,
null,<p>is playing with</p>,,html-keyboard-response,24,415880,0.0-7.0,88536,List2A,black,woman,,,,null,,,,,,,,,
3477,<p><b>Answer:</b> jane is playing with ruth</p>,0,html-button-response,25,419358,0.0-8.0,88536,List2A,black,woman,,,,,,,,,,,,,
null,<img src='img/dance_eg.gif' style='height:400px;''></img>,,html-keyboard-response,26,422366,0.0-9.0,88536,List2A,black,woman,,,,null,,,,,,,,,
null,<p>is being entertained by</p>,,html-keyboard-response,27,424369,0.0-10.0,88536,List2A,black,woman,,,,null,,,,,,,,,
3853.1,<p><b>Answer:</b> fred is being entertained by mike</p>,0,html-button-response,28,428223,0.0-11.0,88536,List2A,black,woman,,,,,,,,,,,,,
9572.6,"<p>Ready to start the experiment?</p><br><p><strong>Remember to describe the picture using a full sentence,</strong></p><p><strong>that combines the names of the people with the <i>exact</i> phrase given.</strong></p><p><strong>To receive full payment you must do this correctly.</strong></p><p><strong> You do not need to capitalise names or use punctuation.</strong></p><br><p>Press 'Continue' to begin.</p>",0,html-button-response,29,438801,0.0-12.0,88536,List2A,black,woman,,,,,,,,,,,,,
null,"<div style=""font-size:60px;"">+</div>",,html-keyboard-response,30,440306,0.0-13.0-0.0,88536,List2A,black,woman,,,,null,,,,,,,,,
null,"<img src=""stim_listA/oppose1.gif""style=""height:400px;""></stim_listA>",,html-keyboard-response,31,442309,0.0-13.0-1.0,88536,List2A,black,woman,,,,null,,,,,,,,,
null,is opposing,,html-keyboard-response,32,444310,0.0-13.0-2.0,88536,List2A,black,woman,,,,null,,,,,,,,,
10119.1,,,survey-text,33,454435,0.0-13.0-3.0,88536,List2A,black,woman,,,,,"{""Q0"":""jane is opposing dave""}","<img src=""stim_listA/oppose1.gif""style=""height:400px;""></stim_listA>",is opposing,,,,,,
null,"<div style=""font-size:60px;"">+</div>",,html-keyboard-response,34,454940,0.0-13.0-0.1,88536,List2A,black,woman,,,,null,,,,,,,,,
null,"<img src=""stim_listA/touch7.gif""style=""height:400px;""></stim_listA>",,html-keyboard-response,35,456945,0.0-13.0-1.1,88536,List2A,black,woman,,,,null,,,,,,,,,
null,is touching,,html-keyboard-response,36,458946,0.0-13.0-2.1,88536,List2A,black,woman,,,,null,,,,,,,,,
8466.6,,,survey-text,37,467416,0.0-13.0-3.1,88536,List2A,black,woman,,,,,"{""Q0"":""kate is touching jane ""}","<img src=""stim_listA/touch7.gif""style=""height:400px;""></stim_listA>",is touching,,,,,,
null,"<div style=""font-size:60px;"">+</div>",,html-keyboard-response,38,467921,0.0-13.0-0.2,88536,List2A,black,woman,,,,null,,,,,,,,,
null,"<img src=""stim_listA/hug6.gif""style=""height:400px;""></stim_listA>",,html-keyboard-response,39,469926,0.0-13.0-1.2,88536,List2A,black,woman,,,,null,,,,,,,,,
null,is being hugged by,,html-keyboard-response,40,471927,0.0-13.0-2.2,88536,List2A,black,woman,,,,null,,,,,,,,,
8821.7,,,survey-text,41,480750,0.0-13.0-3.2,88536,List2A,black,woman,,,,,"{""Q0"":""mike is being hugged by dave ""}","<img src=""stim_listA/hug6.gif""style=""height:400px;""></stim_listA>",is being hugged by,,,,,,
null,"<div style=""font-size:60px;"">+</div>",,html-keyboard-response,42,481253,0.0-13.0-0.3,88536,List2A,black,woman,,,,null,,,,,,,,,
null,"<img src=""stim_listA/kiss3.gif""style=""height:400px;""></stim_listA>",,html-keyboard-response,43,483255,0.0-13.0-1.3,88536,List2A,black,woman,,,,null,,,,,,,,,
null,is kissing,,html-keyboard-response,44,485256,0.0-13.0-2.3,88536,List2A,black,woman,,,,null,,,,,,,,,
7277.1,,,survey-text,45,492537,0.0-13.0-3.3,88536,List2A,black,woman,,,,,"{""Q0"":""beth is kissing fred""}","<img src=""stim_listA/kiss3.gif""style=""height:400px;""></stim_listA>",is kissing,,,,,,
null,"<div style=""font-size:60px;"">+</div>",,html-keyboard-response,46,493042,0.0-13.0-0.4,88536,List2A,black,woman,,,,null,,,,,,,,,
null,"<img src=""stim_listA/seduce1.gif""style=""height:400px;""></stim_listA>",,html-keyboard-response,47,495045,0.0-13.0-1.4,88536,List2A,black,woman,,,,null,,,,,,,,,
null,is seducing,,html-keyboard-response,48,497051,0.0-13.0-2.4,88536,List2A,black,woman,,,,null,,,,,,,,,
6411.4,,,survey-text,49,503465,0.0-13.0-3.4,88536,List2A,black,woman,,,,,"{""Q0"":""luke is seducing jane""}","<img src=""stim_listA/seduce1.gif""style=""height:400px;""></stim_listA>",is seducing,,,,,,
null,"<div style=""font-size:60px;"">+</div>",,html-keyboard-response,50,503967,0.0-13.0-0.5,88536,List2A,black,woman,,,,null,,,,,,,,,
null,"<img src=""stim_listA/copy5.gif""style=""height:400px;""></stim_listA>",,html-keyboard-response,51,505972,0.0-13.0-1.5,88536,List2A,black,woman,,,,null,,,,,,,,,
null,is copying,,html-keyboard-response,52,507976,0.0-13.0-2.5,88536,List2A,black,woman,,,,null,,,,,,,,,
8091.2,,,survey-text,53,516070,0.0-13.0-3.5,88536,List2A,black,woman,,,,,"{""Q0"":""dave is copying fred""}","<img src=""stim_listA/copy5.gif""style=""height:400px;""></stim_listA>",is copying,,,,,,
null,"<div style=""font-size:60px;"">+</div>",,html-keyboard-response,54,516576,0.0-13.0-0.6,88536,List2A,black,woman,,,,null,,,,,,,,,
null,"<img src=""stim_listA/shout7.gif""style=""height:400px;""></stim_listA>",,html-keyboard-response,55,518582,0.0-13.0-1.6,88536,List2A,black,woman,,,,null,,,,,,,,,
null,is shouting at,,html-keyboard-response,56,520584,0.0-13.0-2.6,88536,List2A,black,woman,,,,null,,,,,,,,,
8252.6,,,survey-text,57,528839,0.0-13.0-3.6,88536,List2A,black,woman,,,,,"{""Q0"":""ruth is shouting at beth""}","<img src=""stim_listA/shout7.gif""style=""height:400px;""></stim_listA>",is shouting at,,,,,,
null,"<div style=""font-size:60px;"">+</div>",,html-keyboard-response,58,529344,0.0-13.0-0.7,88536,List2A,black,woman,,,,null,,,,,,,,,
null,"<img src=""stim_listA/look7.gif""style=""height:400px;""></stim_listA>",,html-keyboard-response,59,531347,0.0-13.0-1.7,88536,List2A,black,woman,,,,null,,,,,,,,,
null,is looking at,,html-keyboard-response,60,533351,0.0-13.0-2.7,88536,List2A,black,woman,,,,null,,,,,,,,,
7130.8,,,survey-text,61,540484,0.0-13.0-3.7,88536,List2A,black,woman,,,,,"{""Q0"":""ruth is looking at beth ""}","<img src=""stim_listA/look7.gif""style=""height:400px;""></stim_listA>",is looking at,,,,,,
null,"<div style=""font-size:60px;"">+</div>",,html-keyboard-response,62,540988,0.0-13.0-0.8,88536,List2A,black,woman,,,,null,,,,,,,,,
null,"<img src=""stim_listA/shout2.gif""style=""height:400px;""></stim_listA>",,html-keyboard-response,63,542994,0.0-13.0-1.8,88536,List2A,black,woman,,,,null,,,,,,,,,
null,is being shouted at by,,html-keyboard-response,64,544999,0.0-13.0-2.8,88536,List2A,black,woman,,,,null,,,,,,,,,
9077.1,,,survey-text,65,554079,0.0-13.0-3.8,88536,List2A,black,woman,,,,,"{""Q0"":""jane is being shouted at by dave""}","<img src=""stim_listA/shout2.gif""style=""height:400px;""></stim_listA>",is being shouted at by,,,,,,
null,"<div style=""font-size:60px;"">+</div>",,html-keyboard-response,66,554582,0.0-13.0-0.9,88536,List2A,black,woman,,,,null,,,,,,,,,
null,"<img src=""stim_listA/oppose4.gif""style=""height:400px;""></stim_listA>",,html-keyboard-response,67,556587,0.0-13.0-1.9,88536,List2A,black,woman,,,,null,,,,,,,,,
null,is being opposed by,,html-keyboard-response,68,558591,0.0-13.0-2.9,88536,List2A,black,woman,,,,null,,,,,,,,,
9886,,,survey-text,69,568480,0.0-13.0-3.9,88536,List2A,black,woman,,,,,"{""Q0"":""fred is being opposed by beth""}","<img src=""stim_listA/oppose4.gif""style=""height:400px;""></stim_listA>",is being opposed by,,,,,,
null,"<div style=""font-size:60px;"">+</div>",,html-keyboard-response,70,568982,0.0-13.0-0.10,88536,List2A,black,woman,,,,null,,,,,,,,,
null,"<img src=""stim_listA/copy3.gif""style=""height:400px;""></stim_listA>",,html-keyboard-response,71,570984,0.0-13.0-1.10,88536,List2A,black,woman,,,,null,,,,,,,,,
null,is copying,,html-keyboard-response,72,572987,0.0-13.0-2.10,88536,List2A,black,woman,,,,null,,,,,,,,,
5818.1,,,survey-text,73,578808,0.0-13.0-3.10,88536,List2A,black,woman,,,,,"{""Q0"":""beth is copying mike ""}","<img src=""stim_listA/copy3.gif""style=""height:400px;""></stim_listA>",is copying,,,,,,
null,"<div style=""font-size:60px;"">+</div>",,html-keyboard-response,74,579311,0.0-13.0-0.11,88536,List2A,black,woman,,,,null,,,,,,,,,
null,"<img src=""stim_listA/look5.gif""style=""height:400px;""></stim_listA>",,html-keyboard-response,75,581318,0.0-13.0-1.11,88536,List2A,black,woman,,,,null,,,,,,,,,
null,is looking at,,html-keyboard-response,76,583321,0.0-13.0-2.11,88536,List2A,black,woman,,,,null,,,,,,,,,
6583.3,,,survey-text,77,589907,0.0-13.0-3.11,88536,List2A,black,woman,,,,,"{""Q0"":""luke is looking at fred""}","<img src=""stim_listA/look5.gif""style=""height:400px;""></stim_listA>",is looking at,,,,,,
null,"<div style=""font-size:60px;"">+</div>",,html-keyboard-response,78,590408,0.0-13.0-0.12,88536,List2A,black,woman,,,,null,,,,,,,,,
null,"<img src=""stim_listA/look1.gif""style=""height:400px;""></stim_listA>",,html-keyboard-response,79,592410,0.0-13.0-1.12,88536,List2A,black,woman,,,,null,,,,,,,,,
null,is looking at,,html-keyboard-response,80,594416,0.0-13.0-2.12,88536,List2A,black,woman,,,,null,,,,,,,,,
6711.5,,,survey-text,81,601130,0.0-13.0-3.12,88536,List2A,black,woman,,,,,"{""Q0"":""luke is looking at ruth ""}","<img src=""stim_listA/look1.gif""style=""height:400px;""></stim_listA>",is looking at,,,,,,
null,"<div style=""font-size:60px;"">+</div>",,html-keyboard-response,82,601633,0.0-13.0-0.13,88536,List2A,black,woman,,,,null,,,,,,,,,
null,"<img src=""stim_listA/shout5.gif""style=""height:400px;""></stim_listA>",,html-keyboard-response,83,603637,0.0-13.0-1.13,88536,List2A,black,woman,,,,null,,,,,,,,,
null,is shouting at,,html-keyboard-response,84,605642,0.0-13.0-2.13,88536,List2A,black,woman,,,,null,,,,,,,,,
11900.4,,,survey-text,85,617545,0.0-13.0-3.13,88536,List2A,black,woman,,,,,"{""Q0"":""luke is shouting at fred""}","<img src=""stim_listA/shout5.gif""style=""height:400px;""></stim_listA>",is shouting at,,,,,,
null,"<div style=""font-size:60px;"">+</div>",,html-keyboard-response,86,618050,0.0-13.0-0.14,88536,List2A,black,woman,,,,null,,,,,,,,,
null,"<img src=""stim_listA/copy8.gif""style=""height:400px;""></stim_listA>",,html-keyboard-response,87,620054,0.0-13.0-1.14,88536,List2A,black,woman,,,,null,,,,,,,,,
null,is being copied by,,html-keyboard-response,88,622058,0.0-13.0-2.14,88536,List2A,black,woman,,,,null,,,,,,,,,
8429,,,survey-text,89,630489,0.0-13.0-3.14,88536,List2A,black,woman,,,,,"{""Q0"":""kate is being copied by ruth ""}","<img src=""stim_listA/copy8.gif""style=""height:400px;""></stim_listA>",is being copied by,,,,,,
null,"<div style=""font-size:60px;"">+</div>",,html-keyboard-response,90,630992,0.0-13.0-0.15,88536,List2A,black,woman,,,,null,,,,,,,,,
null,"<img src=""stim_listA/look8.gif""style=""height:400px;""></stim_listA>",,html-keyboard-response,91,632999,0.0-13.0-1.15,88536,List2A,black,woman,,,,null,,,,,,,,,
null,is being looked at by,,html-keyboard-response,92,635002,0.0-13.0-2.15,88536,List2A,black,woman,,,,null,,,,,,,,,
14465.2,,,survey-text,93,649470,0.0-13.0-3.15,88536,List2A,black,woman,,,,,"{""Q0"":""jane is being looked at by kate ""}","<img src=""stim_listA/look8.gif""style=""height:400px;""></stim_listA>",is being looked at by,,,,,,
null,"<div style=""font-size:60px;"">+</div>",,html-keyboard-response,94,649973,0.0-13.0-0.16,88536,List2A,black,woman,,,,null,,,,,,,,,
null,"<img src=""stim_listA/hug7.gif""style=""height:400px;""></stim_listA>",,html-keyboard-response,95,651976,0.0-13.0-1.16,88536,List2A,black,woman,,,,null,,,,,,,,,
null,is hugging,,html-keyboard-response,96,653977,0.0-13.0-2.16,88536,List2A,black,woman,,,,null,,,,,,,,,
4181.5,,,survey-text,97,658161,0.0-13.0-3.16,88536,List2A,black,woman,,,,,"{""Q0"":""ruth is hugging beth""}","<img src=""stim_listA/hug7.gif""style=""height:400px;""></stim_listA>",is hugging,,,,,,
null,"<div style=""font-size:60px;"">+</div>",,html-keyboard-response,98,658665,0.0-13.0-0.17,88536,List2A,black,woman,,,,null,,,,,,,,,
null,"<img src=""stim_listA/touch8.gif""style=""height:400px;""></stim_listA>",,html-keyboard-response,99,660667,0.0-13.0-1.17,88536,List2A,black,woman,,,,null,,,,,,,,,
null,is being touched by,,html-keyboard-response,100,662669,0.0-13.0-2.17,88536,List2A,black,woman,,,,null,,,,,,,,,
16718.9,,,survey-text,101,679390,0.0-13.0-3.17,88536,List2A,black,woman,,,,,"{""Q0"":""beth is being touched by ruth ""}","<img src=""stim_listA/touch8.gif""style=""height:400px;""></stim_listA>",is being touched by,,,,,,
null,"<div style=""font-size:60px;"">+</div>",,html-keyboard-response,102,679892,0.0-13.0-0.18,88536,List2A,black,woman,,,,null,,,,,,,,,
null,"<img src=""stim_listA/greet5.gif""style=""height:400px;""></stim_listA>",,html-keyboard-response,103,681898,0.0-13.0-1.18,88536,List2A,black,woman,,,,null,,,,,,,,,
null,is greeting,,html-keyboard-response,104,683900,0.0-13.0-2.18,88536,List2A,black,woman,,,,null,,,,,,,,,
7084.2,,,survey-text,105,690987,0.0-13.0-3.18,88536,List2A,black,woman,,,,,"{""Q0"":""dave is greeting fred""}","<img src=""stim_listA/greet5.gif""style=""height:400px;""></stim_listA>",is greeting,,,,,,
null,"<div style=""font-size:60px;"">+</div>",,html-keyboard-response,106,691492,0.0-13.0-0.19,88536,List2A,black,woman,,,,null,,,,,,,,,
null,"<img src=""stim_listA/greet6.gif""style=""height:400px;""></stim_listA>",,html-keyboard-response,107,693494,0.0-13.0-1.19,88536,List2A,black,woman,,,,null,,,,,,,,,
null,is being greeted by,,html-keyboard-response,108,695497,0.0-13.0-2.19,88536,List2A,black,woman,,,,null,,,,,,,,,
11677.5,,,survey-text,109,707177,0.0-13.0-3.19,88536,List2A,black,woman,,,,,"{""Q0"":""luke is being greeted by mike""}","<img src=""stim_listA/greet6.gif""style=""height:400px;""></stim_listA>",is being greeted by,,,,,,
27035.9,"<img src='img/portrait_matrix_list2.jpg' style='width:900px;height:500px;''></img><p>If you have memorised all the portraits and names and are ready to start, press Continue.</p><p><strong>Please note: Your memory of these faces will be tested 4 times during this experiment.</strong></p>",0,html-button-response,110,734215,0.0-14.0-0.0,88536,List2A,black,woman,,,,,,,,,,,,,
2080.9,"<img src=""portrait/WM1.jpg""style=""height:400px;""></img>",6,html-button-response,111,737300,0.0-14.0-1.0,88536,List2A,black,woman,,TRUE,6,,,,,,,,,,
null,CORRECT,,html-keyboard-response,112,738809,0.0-14.0-2.0-0.0,88536,List2A,black,woman,,,,null,,,,,,,,,
2551,"<img src=""portrait/BW2.jpg""style=""height:400px;""></img>",2,html-button-response,113,741362,0.0-14.0-4.0,88536,List2A,black,woman,,TRUE,2,,,,,,,,,,
null,CORRECT,,html-keyboard-response,114,742873,0.0-14.0-5.0-0.0,88536,List2A,black,woman,,,,null,,,,,,,,,
2331.2,"<img src=""portrait/BW1.jpg""style=""height:400px;""></img>",0,html-button-response,115,745205,0.0-14.0-7.0,88536,List2A,black,woman,,TRUE,0,,,,,,,,,,
null,CORRECT,,html-keyboard-response,116,746714,0.0-14.0-8.0-0.0,88536,List2A,black,woman,,,,null,,,,,,,,,
1918.4,"<img src=""portrait/WW2.jpg""style=""height:400px;""></img>",3,html-button-response,117,748633,0.0-14.0-10.0,88536,List2A,black,woman,,TRUE,3,,,,,,,,,,
null,CORRECT,,html-keyboard-response,118,750142,0.0-14.0-11.0-0.0,88536,List2A,black,woman,,,,null,,,,,,,,,
1811.6,"<img src=""portrait/WW1.jpg""style=""height:400px;""></img>",1,html-button-response,119,751955,0.0-14.0-13.0,88536,List2A,black,woman,,TRUE,1,,,,,,,,,,
null,CORRECT,,html-keyboard-response,120,753461,0.0-14.0-14.0-0.0,88536,List2A,black,woman,,,,null,,,,,,,,,
1788.9,"<img src=""portrait/BM1.jpg""style=""height:400px;""></img>",4,html-button-response,121,755251,0.0-14.0-16.0,88536,List2A,black,woman,,TRUE,4,,,,,,,,,,
null,CORRECT,,html-keyboard-response,122,756762,0.0-14.0-17.0-0.0,88536,List2A,black,woman,,,,null,,,,,,,,,
2087.1,"<img src=""portrait/BM2.jpg""style=""height:400px;""></img>",5,html-button-response,123,758850,0.0-14.0-19.0,88536,List2A,black,woman,,TRUE,5,,,,,,,,,,
null,CORRECT,,html-keyboard-response,124,760358,0.0-14.0-20.0-0.0,88536,List2A,black,woman,,,,null,,,,,,,,,
2691.7,"<img src=""portrait/WM2.jpg""style=""height:400px;""></img>",7,html-button-response,125,763052,0.0-14.0-22.0,88536,List2A,black,woman,,TRUE,7,,,,,,,,,,
null,CORRECT,,html-keyboard-response,126,764558,0.0-14.0-23.0-0.0,88536,List2A,black,woman,,,,null,,,,,,,,,
2099.1,<p>You got 8 out of 8 right first time. Press Continue.</p>,0,html-button-response,127,766659,0.0-14.0-25.0,88536,List2A,black,woman,,,,,,,,,,,,,
null,"<div style=""font-size:60px;"">+</div>",,html-keyboard-response,128,768166,0.0-15.0-0.0,88536,List2A,black,woman,,,,null,,,,,,,,,
null,"<img src=""stim_listA/copy6.gif""style=""height:400px;""></stim_listA>",,html-keyboard-response,129,770171,0.0-15.0-1.0,88536,List2A,black,woman,,,,null,,,,,,,,,
null,is being copied by,,html-keyboard-response,130,772175,0.0-15.0-2.0,88536,List2A,black,woman,,,,null,,,,,,,,,
13042.5,,,survey-text,131,785220,0.0-15.0-3.0,88536,List2A,black,woman,,,,,"{""Q0"":""mike is being copied by luke ""}","<img src=""stim_listA/copy6.gif""style=""height:400px;""></stim_listA>",is being copied by,,,,,,
null,"<div style=""font-size:60px;"">+</div>",,html-keyboard-response,132,785725,0.0-15.0-0.1,88536,List2A,black,woman,,,,null,,,,,,,,,
null,"<img src=""stim_listA/touch3.gif""style=""height:400px;""></stim_listA>",,html-keyboard-response,133,787729,0.0-15.0-1.1,88536,List2A,black,woman,,,,null,,,,,,,,,
null,is touching,,html-keyboard-response,134,789734,0.0-15.0-2.1,88536,List2A,black,woman,,,,null,,,,,,,,,
11022.1,,,survey-text,135,800758,0.0-15.0-3.1,88536,List2A,black,woman,,,,,"{""Q0"":""kate is touching mike""}","<img src=""stim_listA/touch3.gif""style=""height:400px;""></stim_listA>",is touching,,,,,,
null,"<div style=""font-size:60px;"">+</div>",,html-keyboard-response,136,801263,0.0-15.0-0.2,88536,List2A,black,woman,,,,null,,,,,,,,,
null,"<img src=""stim_listA/greet3.gif""style=""height:400px;""></stim_listA>",,html-keyboard-response,137,803267,0.0-15.0-1.2,88536,List2A,black,woman,,,,null,,,,,,,,,
null,is greeting,,html-keyboard-response,138,805272,0.0-15.0-2.2,88536,List2A,black,woman,,,,null,,,,,,,,,
4513.1,,,survey-text,139,809787,0.0-15.0-3.2,88536,List2A,black,woman,,,,,"{""Q0"":""beth is greeting mike ""}","<img src=""stim_listA/greet3.gif""style=""height:400px;""></stim_listA>",is greeting,,,,,,
null,"<div style=""font-size:60px;"">+</div>",,html-keyboard-response,140,810289,0.0-15.0-0.3,88536,List2A,black,woman,,,,null,,,,,,,,,
null,"<img src=""stim_listA/oppose2.gif""style=""height:400px;""></stim_listA>",,html-keyboard-response,141,812294,0.0-15.0-1.3,88536,List2A,black,woman,,,,null,,,,,,,,,
null,is being opposed by,,html-keyboard-response,142,814297,0.0-15.0-2.3,88536,List2A,black,woman,,,,null,,,,,,,,,
6994.8,,,survey-text,143,821294,0.0-15.0-3.3,88536,List2A,black,woman,,,,,"{""Q0"":""ruth is being opposed by luke ""}","<img src=""stim_listA/oppose2.gif""style=""height:400px;""></stim_listA>",is being opposed by,,,,,,
null,"<div style=""font-size:60px;"">+</div>",,html-keyboard-response,144,821796,0.0-15.0-0.4,88536,List2A,black,woman,,,,null,,,,,,,,,
null,"<img src=""stim_listA/seduce5.gif""style=""height:400px;""></stim_listA>",,html-keyboard-response,145,823802,0.0-15.0-1.4,88536,List2A,black,woman,,,,null,,,,,,,,,
null,is seducing,,html-keyboard-response,146,825807,0.0-15.0-2.4,88536,List2A,black,woman,,,,null,,,,,,,,,
8953.2,,,survey-text,147,834763,0.0-15.0-3.4,88536,List2A,black,woman,,,,,"{""Q0"":""luke is seducing mike ""}","<img src=""stim_listA/seduce5.gif""style=""height:400px;""></stim_listA>",is seducing,,,,,,
null,"<div style=""font-size:60px;"">+</div>",,html-keyboard-response,148,835264,0.0-15.0-0.5,88536,List2A,black,woman,,,,null,,,,,,,,,
null,"<img src=""stim_listA/look4.gif""style=""height:400px;""></stim_listA>",,html-keyboard-response,149,837267,0.0-15.0-1.5,88536,List2A,black,woman,,,,null,,,,,,,,,
null,is being looked at by,,html-keyboard-response,150,839272,0.0-15.0-2.5,88536,List2A,black,woman,,,,null,,,,,,,,,
7475.9,,,survey-text,151,846751,0.0-15.0-3.5,88536,List2A,black,woman,,,,,"{""Q0"":""kate is being looked at by mike ""}","<img src=""stim_listA/look4.gif""style=""height:400px;""></stim_listA>",is being looked at by,,,,,,
null,"<div style=""font-size:60px;"">+</div>",,html-keyboard-response,152,847254,0.0-15.0-0.6,88536,List2A,black,woman,,,,null,,,,,,,,,
null,"<img src=""stim_listA/touch4.gif""style=""height:400px;""></stim_listA>",,html-keyboard-response,153,849259,0.0-15.0-1.6,88536,List2A,black,woman,,,,null,,,,,,,,,
null,is being touched by,,html-keyboard-response,154,851264,0.0-15.0-2.6,88536,List2A,black,woman,,,,null,,,,,,,,,
8592.8,,,survey-text,155,859860,0.0-15.0-3.6,88536,List2A,black,woman,,,,,"{""Q0"":""beth is being touched by fred ""}","<img src=""stim_listA/touch4.gif""style=""height:400px;""></stim_listA>",is being touched by,,,,,,
null,"<div style=""font-size:60px;"">+</div>",,html-keyboard-response,156,860362,0.0-15.0-0.7,88536,List2A,black,woman,,,,null,,,,,,,,,
null,"<img src=""stim_listA/shout8.gif""style=""height:400px;""></stim_listA>",,html-keyboard-response,157,862367,0.0-15.0-1.7,88536,List2A,black,woman,,,,null,,,,,,,,,
null,is being shouted at by,,html-keyboard-response,158,864371,0.0-15.0-2.7,88536,List2A,black,woman,,,,null,,,,,,,,,
10429.8,,,survey-text,159,874797,0.0-15.0-3.7,88536,List2A,black,woman,,,,,"{""Q0"":""jane is being shouted at by kate ""}","<img src=""stim_listA/shout8.gif""style=""height:400px;""></stim_listA>",is being shouted at by,,,,,,
null,"<div style=""font-size:60px;"">+</div>",,html-keyboard-response,160,875300,0.0-15.0-0.8,88536,List2A,black,woman,,,,null,,,,,,,,,
null,"<img src=""stim_listA/kiss5.gif""style=""height:400px;""></stim_listA>",,html-keyboard-response,161,877301,0.0-15.0-1.8,88536,List2A,black,woman,,,,null,,,,,,,,,
null,is kissing,,html-keyboard-response,162,879299,0.0-15.0-2.8,88536,List2A,black,woman,,,,null,,,,,,,,,
4484.2,,,survey-text,163,883779,0.0-15.0-3.8,88536,List2A,black,woman,,,,,"{""Q0"":""luke is kissing fred ""}","<img src=""stim_listA/kiss5.gif""style=""height:400px;""></stim_listA>",is kissing,,,,,,
null,"<div style=""font-size:60px;"">+</div>",,html-keyboard-response,164,884280,0.0-15.0-0.9,88536,List2A,black,woman,,,,null,,,,,,,,,
null,"<img src=""stim_listA/touch2.gif""style=""height:400px;""></stim_listA>",,html-keyboard-response,165,886283,0.0-15.0-1.9,88536,List2A,black,woman,,,,null,,,,,,,,,
null,is being touched by,,html-keyboard-response,166,888285,0.0-15.0-2.9,88536,List2A,black,woman,,,,null,,,,,,,,,
8302.1,,,survey-text,167,896583,0.0-15.0-3.9,88536,List2A,black,woman,,,,,"{""Q0"":""ruth is being touched by luke ""}","<img src=""stim_listA/touch2.gif""style=""height:400px;""></stim_listA>",is being touched by,,,,,,
null,"<div style=""font-size:60px;"">+</div>",,html-keyboard-response,168,897087,0.0-15.0-0.10,88536,List2A,black,woman,,,,null,,,,,,,,,
null,"<img src=""stim_listA/hug5.gif""style=""height:400px;""></stim_listA>",,html-keyboard-response,169,899092,0.0-15.0-1.10,88536,List2A,black,woman,,,,null,,,,,,,,,
null,is hugging,,html-keyboard-response,170,901094,0.0-15.0-2.10,88536,List2A,black,woman,,,,null,,,,,,,,,
6296.6,,,survey-text,171,907391,0.0-15.0-3.10,88536,List2A,black,woman,,,,,"{""Q0"":""fred is hugging luke ""}","<img src=""stim_listA/hug5.gif""style=""height:400px;""></stim_listA>",is hugging,,,,,,
null,"<div style=""font-size:60px;"">+</div>",,html-keyboard-response,172,907894,0.0-15.0-0.11,88536,List2A,black,woman,,,,null,,,,,,,,,
null,"<img src=""stim_listA/shout6.gif""style=""height:400px;""></stim_listA>",,html-keyboard-response,173,909898,0.0-15.0-1.11,88536,List2A,black,woman,,,,null,,,,,,,,,
null,is being shouted at by,,html-keyboard-response,174,911902,0.0-15.0-2.11,88536,List2A,black,woman,,,,null,,,,,,,,,
8334,,,survey-text,175,920237,0.0-15.0-3.11,88536,List2A,black,woman,,,,,"{""Q0"":""dave is being shouted at by mike ""}","<img src=""stim_listA/shout6.gif""style=""height:400px;""></stim_listA>",is being shouted at by,,,,,,
null,"<div style=""font-size:60px;"">+</div>",,html-keyboard-response,176,920740,0.0-15.0-0.12,88536,List2A,black,woman,,,,null,,,,,,,,,
null,"<img src=""stim_listA/kiss4.gif""style=""height:400px;""></stim_listA>",,html-keyboard-response,177,922747,0.0-15.0-1.12,88536,List2A,black,woman,,,,null,,,,,,,,,
null,is being kissed by,,html-keyboard-response,178,924748,0.0-15.0-2.12,88536,List2A,black,woman,,,,null,,,,,,,,,
7680.9,,,survey-text,179,932431,0.0-15.0-3.12,88536,List2A,black,woman,,,,,"{""Q0"":""kate is being kissed by mike ""}","<img src=""stim_listA/kiss4.gif""style=""height:400px;""></stim_listA>",is being kissed by,,,,,,
null,"<div style=""font-size:60px;"">+</div>",,html-keyboard-response,180,932933,0.0-15.0-0.13,88536,List2A,black,woman,,,,null,,,,,,,,,
null,"<img src=""stim_listA/greet8.gif""style=""height:400px;""></stim_listA>",,html-keyboard-response,181,934935,0.0-15.0-1.13,88536,List2A,black,woman,,,,null,,,,,,,,,
null,is being greeted by,,html-keyboard-response,182,936939,0.0-15.0-2.13,88536,List2A,black,woman,,,,null,,,,,,,,,
7301.2,,,survey-text,183,944242,0.0-15.0-3.13,88536,List2A,black,woman,,,,,"{""Q0"":""ruth is being greeted by kate ""}","<img src=""stim_listA/greet8.gif""style=""height:400px;""></stim_listA>",is being greeted by,,,,,,
null,"<div style=""font-size:60px;"">+</div>",,html-keyboard-response,184,944746,0.0-15.0-0.14,88536,List2A,black,woman,,,,null,,,,,,,,,
null,"<img src=""stim_listA/touch1.gif""style=""height:400px;""></stim_listA>",,html-keyboard-response,185,946750,0.0-15.0-1.14,88536,List2A,black,woman,,,,null,,,,,,,,,
null,is touching,,html-keyboard-response,186,948753,0.0-15.0-2.14,88536,List2A,black,woman,,,,null,,,,,,,,,
5076.8,,,survey-text,187,953832,0.0-15.0-3.14,88536,List2A,black,woman,,,,,"{""Q0"":""dave is touching jane ""}","<img src=""stim_listA/touch1.gif""style=""height:400px;""></stim_listA>",is touching,,,,,,
null,"<div style=""font-size:60px;"">+</div>",,html-keyboard-response,188,954334,0.0-15.0-0.15,88536,List2A,black,woman,,,,null,,,,,,,,,
null,"<img src=""stim_listA/kiss1.gif""style=""height:400px;""></stim_listA>",,html-keyboard-response,189,956336,0.0-15.0-1.15,88536,List2A,black,woman,,,,null,,,,,,,,,
null,is kissing,,html-keyboard-response,190,958340,0.0-15.0-2.15,88536,List2A,black,woman,,,,null,,,,,,,,,
4587,,,survey-text,191,962930,0.0-15.0-3.15,88536,List2A,black,woman,,,,,"{""Q0"":""luke is kissing ruth ""}","<img src=""stim_listA/kiss1.gif""style=""height:400px;""></stim_listA>",is kissing,,,,,,
null,"<div style=""font-size:60px;"">+</div>",,html-keyboard-response,192,963432,0.0-15.0-0.16,88536,List2A,black,woman,,,,null,,,,,,,,,
null,"<img src=""stim_listA/kiss6.gif""style=""height:400px;""></stim_listA>",,html-keyboard-response,193,965433,0.0-15.0-1.16,88536,List2A,black,woman,,,,null,,,,,,,,,
null,is being kissed by,,html-keyboard-response,194,967434,0.0-15.0-2.16,88536,List2A,black,woman,,,,null,,,,,,,,,
6875.1,,,survey-text,195,974311,0.0-15.0-3.16,88536,List2A,black,woman,,,,,"{""Q0"":""dave is being kissed by mike ""}","<img src=""stim_listA/kiss6.gif""style=""height:400px;""></stim_listA>",is being kissed by,,,,,,
null,"<div style=""font-size:60px;"">+</div>",,html-keyboard-response,196,974813,0.0-15.0-0.17,88536,List2A,black,woman,,,,null,,,,,,,,,
null,"<img src=""stim_listA/copy1.gif""style=""height:400px;""></stim_listA>",,html-keyboard-response,197,976817,0.0-15.0-1.17,88536,List2A,black,woman,,,,null,,,,,,,,,
null,is copying,,html-keyboard-response,198,978821,0.0-15.0-2.17,88536,List2A,black,woman,,,,null,,,,,,,,,
10346.2,,,survey-text,199,989170,0.0-15.0-3.17,88536,List2A,black,woman,,,,,"{""Q0"":""dave is copying ruth ""}","<img src=""stim_listA/copy1.gif""style=""height:400px;""></stim_listA>",is copying,,,,,,
null,"<div style=""font-size:60px;"">+</div>",,html-keyboard-response,200,989672,0.0-15.0-0.18,88536,List2A,black,woman,,,,null,,,,,,,,,
null,"<img src=""stim_listA/greet7.gif""style=""height:400px;""></stim_listA>",,html-keyboard-response,201,991673,0.0-15.0-1.18,88536,List2A,black,woman,,,,null,,,,,,,,,
null,is greeting,,html-keyboard-response,202,993676,0.0-15.0-2.18,88536,List2A,black,woman,,,,null,,,,,,,,,
6442.9,,,survey-text,203,1000122,0.0-15.0-3.18,88536,List2A,black,woman,,,,,"{""Q0"":""jane is copying beth ""}","<img src=""stim_listA/greet7.gif""style=""height:400px;""></stim_listA>",is greeting,,,,,,
null,"<div style=""font-size:60px;"">+</div>",,html-keyboard-response,204,1000624,0.0-15.0-0.19,88536,List2A,black,woman,,,,null,,,,,,,,,
null,"<img src=""stim_listA/look3.gif""style=""height:400px;""></stim_listA>",,html-keyboard-response,205,1002626,0.0-15.0-1.19,88536,List2A,black,woman,,,,null,,,,,,,,,
null,is looking at,,html-keyboard-response,206,1004630,0.0-15.0-2.19,88536,List2A,black,woman,,,,null,,,,,,,,,
6661.8,,,survey-text,207,1011294,0.0-15.0-3.19,88536,List2A,black,woman,,,,,"{""Q0"":""fred is looking at beth ""}","<img src=""stim_listA/look3.gif""style=""height:400px;""></stim_listA>",is looking at,,,,,,
41375.5,"<img src='img/portrait_matrix_list2.jpg' style='width:900px;height:500px;''></img><p>If you have memorised all the portraits and names and are ready to start, press Continue.</p><p><strong>Please note: Your memory of these faces will be tested 4 times during this experiment.</strong></p>",0,html-button-response,208,1052671,0.0-16.0-0.0,88536,List2A,black,woman,,,,,,,,,,,,,
2275.7,"<img src=""portrait/BM2.jpg""style=""height:400px;""></img>",5,html-button-response,209,1055950,0.0-16.0-1.0,88536,List2A,black,woman,,TRUE,5,,,,,,,,,,
null,CORRECT,,html-keyboard-response,210,1057458,0.0-16.0-2.0-0.0,88536,List2A,black,woman,,,,null,,,,,,,,,
1876.2,"<img src=""portrait/WM1.jpg""style=""height:400px;""></img>",6,html-button-response,211,1059335,0.0-16.0-4.0,88536,List2A,black,woman,,TRUE,6,,,,,,,,,,
null,CORRECT,,html-keyboard-response,212,1060841,0.0-16.0-5.0-0.0,88536,List2A,black,woman,,,,null,,,,,,,,,
2919.9,"<img src=""portrait/WW1.jpg""style=""height:400px;""></img>",1,html-button-response,213,1063762,0.0-16.0-7.0,88536,List2A,black,woman,,TRUE,1,,,,,,,,,,
null,CORRECT,,html-keyboard-response,214,1065269,0.0-16.0-8.0-0.0,88536,List2A,black,woman,,,,null,,,,,,,,,
3102.1,"<img src=""portrait/BW2.jpg""style=""height:400px;""></img>",2,html-button-response,215,1068372,0.0-16.0-10.0,88536,List2A,black,woman,,TRUE,2,,,,,,,,,,
null,CORRECT,,html-keyboard-response,216,1069879,0.0-16.0-11.0-0.0,88536,List2A,black,woman,,,,null,,,,,,,,,
2046.8,"<img src=""portrait/BM1.jpg""style=""height:400px;""></img>",4,html-button-response,217,1071928,0.0-16.0-13.0,88536,List2A,black,woman,,TRUE,4,,,,,,,,,,
null,CORRECT,,html-keyboard-response,218,1073433,0.0-16.0-14.0-0.0,88536,List2A,black,woman,,,,null,,,,,,,,,
2527.6,"<img src=""portrait/WW2.jpg""style=""height:400px;""></img>",3,html-button-response,219,1075962,0.0-16.0-16.0,88536,List2A,black,woman,,TRUE,3,,,,,,,,,,
null,CORRECT,,html-keyboard-response,220,1077467,0.0-16.0-17.0-0.0,88536,List2A,black,woman,,,,null,,,,,,,,,
3180,"<img src=""portrait/WM2.jpg""style=""height:400px;""></img>",7,html-button-response,221,1080648,0.0-16.0-19.0,88536,List2A,black,woman,,TRUE,7,,,,,,,,,,
null,CORRECT,,html-keyboard-response,222,1082156,0.0-16.0-20.0-0.0,88536,List2A,black,woman,,,,null,,,,,,,,,
3808.4,"<img src=""portrait/BW1.jpg""style=""height:400px;""></img>",0,html-button-response,223,1085965,0.0-16.0-22.0,88536,List2A,black,woman,,TRUE,0,,,,,,,,,,
null,CORRECT,,html-keyboard-response,224,1087471,0.0-16.0-23.0-0.0,88536,List2A,black,woman,,,,null,,,,,,,,,
14456.8,<p>You got 8 out of 8 right first time. Press Continue.</p>,0,html-button-response,225,1101929,0.0-16.0-25.0,88536,List2A,black,woman,,,,,,,,,,,,,
null,"<div style=""font-size:60px;"">+</div>",,html-keyboard-response,226,1103437,0.0-17.0-0.0,88536,List2A,black,woman,,,,null,,,,,,,,,
null,"<img src=""stim_listA/copy2.gif""style=""height:400px;""></stim_listA>",,html-keyboard-response,227,1105441,0.0-17.0-1.0,88536,List2A,black,woman,,,,null,,,,,,,,,
null,is being copied by,,html-keyboard-response,228,1107446,0.0-17.0-2.0,88536,List2A,black,woman,,,,null,,,,,,,,,
10282.7,,,survey-text,229,1117731,0.0-17.0-3.0,88536,List2A,black,woman,,,,,"{""Q0"":""jane is being copied by luke ""}","<img src=""stim_listA/copy2.gif""style=""height:400px;""></stim_listA>",is being copied by,,,,,,
null,"<div style=""font-size:60px;"">+</div>",,html-keyboard-response,230,1118235,0.0-17.0-0.1,88536,List2A,black,woman,,,,null,,,,,,,,,
null,"<img src=""stim_listA/copy4.gif""style=""height:400px;""></stim_listA>",,html-keyboard-response,231,1120240,0.0-17.0-1.1,88536,List2A,black,woman,,,,null,,,,,,,,,
null,is being copied by,,html-keyboard-response,232,1122241,0.0-17.0-2.1,88536,List2A,black,woman,,,,null,,,,,,,,,
7895.7,,,survey-text,233,1130139,0.0-17.0-3.1,88536,List2A,black,woman,,,,,"{""Q0"":""kate is being copied by fred ""}","<img src=""stim_listA/copy4.gif""style=""height:400px;""></stim_listA>",is being copied by,,,,,,
null,"<div style=""font-size:60px;"">+</div>",,html-keyboard-response,234,1130641,0.0-17.0-0.2,88536,List2A,black,woman,,,,null,,,,,,,,,
null,"<img src=""stim_listA/greet1.gif""style=""height:400px;""></stim_listA>",,html-keyboard-response,235,1132647,0.0-17.0-1.2,88536,List2A,black,woman,,,,null,,,,,,,,,
null,is greeting,,html-keyboard-response,236,1134649,0.0-17.0-2.2,88536,List2A,black,woman,,,,null,,,,,,,,,
11606.9,,,survey-text,237,1146258,0.0-17.0-3.2,88536,List2A,black,woman,,,,,"{""Q0"":""dave is greeting ruth ""}","<img src=""stim_listA/greet1.gif""style=""height:400px;""></stim_listA>",is greeting,,,,,,
null,"<div style=""font-size:60px;"">+</div>",,html-keyboard-response,238,1146760,0.0-17.0-0.3,88536,List2A,black,woman,,,,null,,,,,,,,,
null,"<img src=""stim_listA/kiss8.gif""style=""height:400px;""></stim_listA>",,html-keyboard-response,239,1148765,0.0-17.0-1.3,88536,List2A,black,woman,,,,null,,,,,,,,,
null,is being kissed by,,html-keyboard-response,240,1150766,0.0-17.0-2.3,88536,List2A,black,woman,,,,null,,,,,,,,,
9269.1,,,survey-text,241,1160037,0.0-17.0-3.3,88536,List2A,black,woman,,,,,"{""Q0"":""jane is being kissed by kate ""}","<img src=""stim_listA/kiss8.gif""style=""height:400px;""></stim_listA>",is being kissed by,,,,,,
null,"<div style=""font-size:60px;"">+</div>",,html-keyboard-response,242,1160541,0.0-17.0-0.4,88536,List2A,black,woman,,,,null,,,,,,,,,
null,"<img src=""stim_listA/challenge4.gif""style=""height:400px;""></stim_listA>",,html-keyboard-response,243,1162546,0.0-17.0-1.4,88536,List2A,black,woman,,,,null,,,,,,,,,
null,is being challenged by,,html-keyboard-response,244,1164551,0.0-17.0-2.4,88536,List2A,black,woman,,,,null,,,,,,,,,
11542.7,,,survey-text,245,1176096,0.0-17.0-3.4,88536,List2A,black,woman,,,,,"{""Q0"":""kate is being challenged by fred ""}","<img src=""stim_listA/challenge4.gif""style=""height:400px;""></stim_listA>",is being challenged by,,,,,,
null,"<div style=""font-size:60px;"">+</div>",,html-keyboard-response,246,1176598,0.0-17.0-0.5,88536,List2A,black,woman,,,,null,,,,,,,,,
null,"<img src=""stim_listA/challenge8.gif""style=""height:400px;""></stim_listA>",,html-keyboard-response,247,1178602,0.0-17.0-1.5,88536,List2A,black,woman,,,,null,,,,,,,,,
null,is being challenged by,,html-keyboard-response,248,1180604,0.0-17.0-2.5,88536,List2A,black,woman,,,,null,,,,,,,,,
6421.1,,,survey-text,249,1187028,0.0-17.0-3.5,88536,List2A,black,woman,,,,,"{""Q0"":""kate is being challenged by ruth ""}","<img src=""stim_listA/challenge8.gif""style=""height:400px;""></stim_listA>",is being challenged by,,,,,,
null,"<div style=""font-size:60px;"">+</div>",,html-keyboard-response,250,1187531,0.0-17.0-0.6,88536,List2A,black,woman,,,,null,,,,,,,,,
null,"<img src=""stim_listA/challenge7.gif""style=""height:400px;""></stim_listA>",,html-keyboard-response,251,1189535,0.0-17.0-1.6,88536,List2A,black,woman,,,,null,,,,,,,,,
null,is challenging,,html-keyboard-response,252,1191540,0.0-17.0-2.6,88536,List2A,black,woman,,,,null,,,,,,,,,
6388,,,survey-text,253,1197931,0.0-17.0-3.6,88536,List2A,black,woman,,,,,"{""Q0"":""jane is challenging beth ""}","<img src=""stim_listA/challenge7.gif""style=""height:400px;""></stim_listA>",is challenging,,,,,,
null,"<div style=""font-size:60px;"">+</div>",,html-keyboard-response,254,1198433,0.0-17.0-0.7,88536,List2A,black,woman,,,,null,,,,,,,,,
null,"<img src=""stim_listA/seduce3.gif""style=""height:400px;""></stim_listA>",,html-keyboard-response,255,1200437,0.0-17.0-1.7,88536,List2A,black,woman,,,,null,,,,,,,,,
null,is seducing,,html-keyboard-response,256,1202441,0.0-17.0-2.7,88536,List2A,black,woman,,,,null,,,,,,,,,
13063.5,,,survey-text,257,1215506,0.0-17.0-3.7,88536,List2A,black,woman,,,,,"{""Q0"":""fred is seducing kate ""}","<img src=""stim_listA/seduce3.gif""style=""height:400px;""></stim_listA>",is seducing,,,,,,
null,"<div style=""font-size:60px;"">+</div>",,html-keyboard-response,258,1216011,0.0-17.0-0.8,88536,List2A,black,woman,,,,null,,,,,,,,,
null,"<img src=""stim_listA/challenge2.gif""style=""height:400px;""></stim_listA>",,html-keyboard-response,259,1218013,0.0-17.0-1.8,88536,List2A,black,woman,,,,null,,,,,,,,,
null,is being challenged by,,html-keyboard-response,260,1220014,0.0-17.0-2.8,88536,List2A,black,woman,,,,null,,,,,,,,,
10474.2,,,survey-text,261,1230491,0.0-17.0-3.8,88536,List2A,black,woman,,,,,"{""Q0"":""jane is being challenged by luke ""}","<img src=""stim_listA/challenge2.gif""style=""height:400px;""></stim_listA>",is being challenged by,,,,,,
null,"<div style=""font-size:60px;"">+</div>",,html-keyboard-response,262,1230994,0.0-17.0-0.9,88536,List2A,black,woman,,,,null,,,,,,,,,
null,"<img src=""stim_listA/seduce7.gif""style=""height:400px;""></stim_listA>",,html-keyboard-response,263,1232999,0.0-17.0-1.9,88536,List2A,black,woman,,,,null,,,,,,,,,
null,is seducing,,html-keyboard-response,264,1235001,0.0-17.0-2.9,88536,List2A,black,woman,,,,null,,,,,,,,,
5729,,,survey-text,265,1240733,0.0-17.0-3.9,88536,List2A,black,woman,,,,,"{""Q0"":""ruth is seducing kate ""}","<img src=""stim_listA/seduce7.gif""style=""height:400px;""></stim_listA>",is seducing,,,,,,
null,"<div style=""font-size:60px;"">+</div>",,html-keyboard-response,266,1241235,0.0-17.0-0.10,88536,List2A,black,woman,,,,null,,,,,,,,,
null,"<img src=""stim_listA/greet4.gif""style=""height:400px;""></stim_listA>",,html-keyboard-response,267,1243237,0.0-17.0-1.10,88536,List2A,black,woman,,,,null,,,,,,,,,
null,is being greeted by,,html-keyboard-response,268,1245239,0.0-17.0-2.10,88536,List2A,black,woman,,,,null,,,,,,,,,
8681,,,survey-text,269,1253922,0.0-17.0-3.10,88536,List2A,black,woman,,,,,"{""Q0"":""fred is being greeted by kate ""}","<img src=""stim_listA/greet4.gif""style=""height:400px;""></stim_listA>",is being greeted by,,,,,,
null,"<div style=""font-size:60px;"">+</div>",,html-keyboard-response,270,1254426,0.0-17.0-0.11,88536,List2A,black,woman,,,,null,,,,,,,,,
null,"<img src=""stim_listA/challenge3.gif""style=""height:400px;""></stim_listA>",,html-keyboard-response,271,1256430,0.0-17.0-1.11,88536,List2A,black,woman,,,,null,,,,,,,,,
null,is challenging,,html-keyboard-response,272,1258436,0.0-17.0-2.11,88536,List2A,black,woman,,,,null,,,,,,,,,
10239.6,,,survey-text,273,1268678,0.0-17.0-3.11,88536,List2A,black,woman,,,,,"{""Q0"":""mike is challenging beth ""}","<img src=""stim_listA/challenge3.gif""style=""height:400px;""></stim_listA>",is challenging,,,,,,
null,"<div style=""font-size:60px;"">+</div>",,html-keyboard-response,274,1269181,0.0-17.0-0.12,88536,List2A,black,woman,,,,null,,,,,,,,,
null,"<img src=""stim_listA/look6.gif""style=""height:400px;""></stim_listA>",,html-keyboard-response,275,1271186,0.0-17.0-1.12,88536,List2A,black,woman,,,,null,,,,,,,,,
null,is being looked at by,,html-keyboard-response,276,1273190,0.0-17.0-2.12,88536,List2A,black,woman,,,,null,,,,,,,,,
6713.4,,,survey-text,277,1279905,0.0-17.0-3.12,88536,List2A,black,woman,,,,,"{""Q0"":""dave is being looked at by mike ""}","<img src=""stim_listA/look6.gif""style=""height:400px;""></stim_listA>",is being looked at by,,,,,,
null,"<div style=""font-size:60px;"">+</div>",,html-keyboard-response,278,1280408,0.0-17.0-0.13,88536,List2A,black,woman,,,,null,,,,,,,,,
null,"<img src=""stim_listA/seduce4.gif""style=""height:400px;""></stim_listA>",,html-keyboard-response,279,1282413,0.0-17.0-1.13,88536,List2A,black,woman,,,,null,,,,,,,,,
null,is being seduced by,,html-keyboard-response,280,1284415,0.0-17.0-2.13,88536,List2A,black,woman,,,,null,,,,,,,,,
8035.3,,,survey-text,281,1292454,0.0-17.0-3.13,88536,List2A,black,woman,,,,,"{""Q0"":""beth is being seduced by mike ""}","<img src=""stim_listA/seduce4.gif""style=""height:400px;""></stim_listA>",is being seduced by,,,,,,
null,"<div style=""font-size:60px;"">+</div>",,html-keyboard-response,282,1292959,0.0-17.0-0.14,88536,List2A,black,woman,,,,null,,,,,,,,,
null,"<img src=""stim_listA/seduce2.gif""style=""height:400px;""></stim_listA>",,html-keyboard-response,283,1294965,0.0-17.0-1.14,88536,List2A,black,woman,,,,null,,,,,,,,,
null,is being seduced by,,html-keyboard-response,284,1296970,0.0-17.0-2.14,88536,List2A,black,woman,,,,null,,,,,,,,,
6245.9,,,survey-text,285,1303218,0.0-17.0-3.14,88536,List2A,black,woman,,,,,"{""Q0"":""ruth is being seduced by dave ""}","<img src=""stim_listA/seduce2.gif""style=""height:400px;""></stim_listA>",is being seduced by,,,,,,
null,"<div style=""font-size:60px;"">+</div>",,html-keyboard-response,286,1303721,0.0-17.0-0.15,88536,List2A,black,woman,,,,null,,,,,,,,,
null,"<img src=""stim_listA/hug3.gif""style=""height:400px;""></stim_listA>",,html-keyboard-response,287,1305724,0.0-17.0-1.15,88536,List2A,black,woman,,,,null,,,,,,,,,
null,is hugging,,html-keyboard-response,288,1307728,0.0-17.0-2.15,88536,List2A,black,woman,,,,null,,,,,,,,,
8638.2,,,survey-text,289,1316369,0.0-17.0-3.15,88536,List2A,black,woman,,,,,"{""Q0"":""beth is hugging fred ""}","<img src=""stim_listA/hug3.gif""style=""height:400px;""></stim_listA>",is hugging,,,,,,
null,"<div style=""font-size:60px;"">+</div>",,html-keyboard-response,290,1316874,0.0-17.0-0.16,88536,List2A,black,woman,,,,null,,,,,,,,,
null,"<img src=""stim_listA/shout3.gif""style=""height:400px;""></stim_listA>",,html-keyboard-response,291,1318878,0.0-17.0-1.16,88536,List2A,black,woman,,,,null,,,,,,,,,
null,is shouting at,,html-keyboard-response,292,1320881,0.0-17.0-2.16,88536,List2A,black,woman,,,,null,,,,,,,,,
8670.3,,,survey-text,293,1329554,0.0-17.0-3.16,88536,List2A,black,woman,,,,,"{""Q0"":""beth is shouting at fred ""}","<img src=""stim_listA/shout3.gif""style=""height:400px;""></stim_listA>",is shouting at,,,,,,
null,"<div style=""font-size:60px;"">+</div>",,html-keyboard-response,294,1330056,0.0-17.0-0.17,88536,List2A,black,woman,,,,null,,,,,,,,,
null,"<img src=""stim_listA/challenge6.gif""style=""height:400px;""></stim_listA>",,html-keyboard-response,295,1332058,0.0-17.0-1.17,88536,List2A,black,woman,,,,null,,,,,,,,,
null,is being challenged by,,html-keyboard-response,296,1334060,0.0-17.0-2.17,88536,List2A,black,woman,,,,null,,,,,,,,,
8020.9,,,survey-text,297,1342083,0.0-17.0-3.17,88536,List2A,black,woman,,,,,"{""Q0"":""luke is being challenged by mike ""}","<img src=""stim_listA/challenge6.gif""style=""height:400px;""></stim_listA>",is being challenged by,,,,,,
null,"<div style=""font-size:60px;"">+</div>",,html-keyboard-response,298,1342586,0.0-17.0-0.18,88536,List2A,black,woman,,,,null,,,,,,,,,
null,"<img src=""stim_listA/hug1.gif""style=""height:400px;""></stim_listA>",,html-keyboard-response,299,1344588,0.0-17.0-1.18,88536,List2A,black,woman,,,,null,,,,,,,,,
null,is hugging,,html-keyboard-response,300,1346592,0.0-17.0-2.18,88536,List2A,black,woman,,,,null,,,,,,,,,
6168.1,,,survey-text,301,1352763,0.0-17.0-3.18,88536,List2A,black,woman,,,,,"{""Q0"":""luke is hugging ruth ""}","<img src=""stim_listA/hug1.gif""style=""height:400px;""></stim_listA>",is hugging,,,,,,
null,"<div style=""font-size:60px;"">+</div>",,html-keyboard-response,302,1353266,0.0-17.0-0.19,88536,List2A,black,woman,,,,null,,,,,,,,,
null,"<img src=""stim_listA/copy7.gif""style=""height:400px;""></stim_listA>",,html-keyboard-response,303,1355273,0.0-17.0-1.19,88536,List2A,black,woman,,,,null,,,,,,,,,
null,is copying,,html-keyboard-response,304,1357278,0.0-17.0-2.19,88536,List2A,black,woman,,,,null,,,,,,,,,
4810.4,,,survey-text,305,1362091,0.0-17.0-3.19,88536,List2A,black,woman,,,,,"{""Q0"":""jane is copying beth ""}","<img src=""stim_listA/copy7.gif""style=""height:400px;""></stim_listA>",is copying,,,,,,
8359,"<img src='img/portrait_matrix_list2.jpg' style='width:900px;height:500px;''></img><p>If you have memorised all the portraits and names and are ready to start, press Continue.</p><p><strong>Please note: Your memory of these faces will be tested 4 times during this experiment.</strong></p>",0,html-button-response,306,1370452,0.0-18.0-0.0,88536,List2A,black,woman,,,,,,,,,,,,,
2477.1,"<img src=""portrait/BM2.jpg""style=""height:400px;""></img>",5,html-button-response,307,1373936,0.0-18.0-1.0,88536,List2A,black,woman,,TRUE,5,,,,,,,,,,
null,CORRECT,,html-keyboard-response,308,1375440,0.0-18.0-2.0-0.0,88536,List2A,black,woman,,,,null,,,,,,,,,
1748.9,"<img src=""portrait/WW2.jpg""style=""height:400px;""></img>",3,html-button-response,309,1377191,0.0-18.0-4.0,88536,List2A,black,woman,,TRUE,3,,,,,,,,,,
null,CORRECT,,html-keyboard-response,310,1378697,0.0-18.0-5.0-0.0,88536,List2A,black,woman,,,,null,,,,,,,,,
1697.7,"<img src=""portrait/BW2.jpg""style=""height:400px;""></img>",2,html-button-response,311,1380396,0.0-18.0-7.0,88536,List2A,black,woman,,TRUE,2,,,,,,,,,,
null,CORRECT,,html-keyboard-response,312,1381903,0.0-18.0-8.0-0.0,88536,List2A,black,woman,,,,null,,,,,,,,,
2421.4,"<img src=""portrait/BW1.jpg""style=""height:400px;""></img>",0,html-button-response,313,1384326,0.0-18.0-10.0,88536,List2A,black,woman,,TRUE,0,,,,,,,,,,
null,CORRECT,,html-keyboard-response,314,1385837,0.0-18.0-11.0-0.0,88536,List2A,black,woman,,,,null,,,,,,,,,
3361.4,"<img src=""portrait/WW1.jpg""style=""height:400px;""></img>",1,html-button-response,315,1389200,0.0-18.0-13.0,88536,List2A,black,woman,,TRUE,1,,,,,,,,,,
null,CORRECT,,html-keyboard-response,316,1390709,0.0-18.0-14.0-0.0,88536,List2A,black,woman,,,,null,,,,,,,,,
2142.5,"<img src=""portrait/BM1.jpg""style=""height:400px;""></img>",4,html-button-response,317,1392854,0.0-18.0-16.0,88536,List2A,black,woman,,TRUE,4,,,,,,,,,,
null,CORRECT,,html-keyboard-response,318,1394358,0.0-18.0-17.0-0.0,88536,List2A,black,woman,,,,null,,,,,,,,,
2422.5,"<img src=""portrait/WM2.jpg""style=""height:400px;""></img>",7,html-button-response,319,1396782,0.0-18.0-19.0,88536,List2A,black,woman,,TRUE,7,,,,,,,,,,
null,CORRECT,,html-keyboard-response,320,1398289,0.0-18.0-20.0-0.0,88536,List2A,black,woman,,,,null,,,,,,,,,
1739.3,"<img src=""portrait/WM1.jpg""style=""height:400px;""></img>",6,html-button-response,321,1400030,0.0-18.0-22.0,88536,List2A,black,woman,,TRUE,6,,,,,,,,,,
null,CORRECT,,html-keyboard-response,322,1401537,0.0-18.0-23.0-0.0,88536,List2A,black,woman,,,,null,,,,,,,,,
1714,<p>You got 8 out of 8 right first time. Press Continue.</p>,0,html-button-response,323,1403252,0.0-18.0-25.0,88536,List2A,black,woman,,,,,,,,,,,,,
null,"<div style=""font-size:60px;"">+</div>",,html-keyboard-response,324,1404759,0.0-19.0-0.0,88536,List2A,black,woman,,,,null,,,,,,,,,
null,"<img src=""stim_listA/kiss2.gif""style=""height:400px;""></stim_listA>",,html-keyboard-response,325,1406765,0.0-19.0-1.0,88536,List2A,black,woman,,,,null,,,,,,,,,
null,is being kissed by,,html-keyboard-response,326,1408770,0.0-19.0-2.0,88536,List2A,black,woman,,,,null,,,,,,,,,
6917.3,,,survey-text,327,1415689,0.0-19.0-3.0,88536,List2A,black,woman,,,,,"{""Q0"":""jane is being kissed by dave ""}","<img src=""stim_listA/kiss2.gif""style=""height:400px;""></stim_listA>",is being kissed by,,,,,,
null,"<div style=""font-size:60px;"">+</div>",,html-keyboard-response,328,1416191,0.0-19.0-0.1,88536,List2A,black,woman,,,,null,,,,,,,,,
null,"<img src=""stim_listA/hug4.gif""style=""height:400px;""></stim_listA>",,html-keyboard-response,329,1418196,0.0-19.0-1.1,88536,List2A,black,woman,,,,null,,,,,,,,,
null,is being hugged by,,html-keyboard-response,330,1420201,0.0-19.0-2.1,88536,List2A,black,woman,,,,null,,,,,,,,,
4962,,,survey-text,331,1425165,0.0-19.0-3.1,88536,List2A,black,woman,,,,,"{""Q0"":""kate is being hugged by mike ""}","<img src=""stim_listA/hug4.gif""style=""height:400px;""></stim_listA>",is being hugged by,,,,,,
null,"<div style=""font-size:60px;"">+</div>",,html-keyboard-response,332,1425667,0.0-19.0-0.2,88536,List2A,black,woman,,,,null,,,,,,,,,
null,"<img src=""stim_listA/look2.gif""style=""height:400px;""></stim_listA>",,html-keyboard-response,333,1427671,0.0-19.0-1.2,88536,List2A,black,woman,,,,null,,,,,,,,,
null,is being looked at by,,html-keyboard-response,334,1429676,0.0-19.0-2.2,88536,List2A,black,woman,,,,null,,,,,,,,,
7568.8,,,survey-text,335,1437247,0.0-19.0-3.2,88536,List2A,black,woman,,,,,"{""Q0"":""jane is being looked at by dave ""}","<img src=""stim_listA/look2.gif""style=""height:400px;""></stim_listA>",is being looked at by,,,,,,
null,"<div style=""font-size:60px;"">+</div>",,html-keyboard-response,336,1437750,0.0-19.0-0.3,88536,List2A,black,woman,,,,null,,,,,,,,,
null,"<img src=""stim_listA/oppose5.gif""style=""height:400px;""></stim_listA>",,html-keyboard-response,337,1439756,0.0-19.0-1.3,88536,List2A,black,woman,,,,null,,,,,,,,,
null,is opposing,,html-keyboard-response,338,1441758,0.0-19.0-2.3,88536,List2A,black,woman,,,,null,,,,,,,,,
5701.6,,,survey-text,339,1447462,0.0-19.0-3.3,88536,List2A,black,woman,,,,,"{""Q0"":""dave is opposing mike ""}","<img src=""stim_listA/oppose5.gif""style=""height:400px;""></stim_listA>",is opposing,,,,,,
null,"<div style=""font-size:60px;"">+</div>",,html-keyboard-response,340,1447963,0.0-19.0-0.4,88536,List2A,black,woman,,,,null,,,,,,,,,
null,"<img src=""stim_listA/hug8.gif""style=""height:400px;""></stim_listA>",,html-keyboard-response,341,1449965,0.0-19.0-1.4,88536,List2A,black,woman,,,,null,,,,,,,,,
null,is being hugged by,,html-keyboard-response,342,1451969,0.0-19.0-2.4,88536,List2A,black,woman,,,,null,,,,,,,,,
6767.6,,,survey-text,343,1458739,0.0-19.0-3.4,88536,List2A,black,woman,,,,,"{""Q0"":""kate is being hugged by jane ""}","<img src=""stim_listA/hug8.gif""style=""height:400px;""></stim_listA>",is being hugged by,,,,,,
null,"<div style=""font-size:60px;"">+</div>",,html-keyboard-response,344,1459242,0.0-19.0-0.5,88536,List2A,black,woman,,,,null,,,,,,,,,
null,"<img src=""stim_listA/touch5.gif""style=""height:400px;""></stim_listA>",,html-keyboard-response,345,1461248,0.0-19.0-1.5,88536,List2A,black,woman,,,,null,,,,,,,,,
null,is touching,,html-keyboard-response,346,1463249,0.0-19.0-2.5,88536,List2A,black,woman,,,,null,,,,,,,,,
4475.1,,,survey-text,347,1467727,0.0-19.0-3.5,88536,List2A,black,woman,,,,,"{""Q0"":""dave is touching mike ""}","<img src=""stim_listA/touch5.gif""style=""height:400px;""></stim_listA>",is touching,,,,,,
null,"<div style=""font-size:60px;"">+</div>",,html-keyboard-response,348,1468230,0.0-19.0-0.6,88536,List2A,black,woman,,,,null,,,,,,,,,
null,"<img src=""stim_listA/challenge5.gif""style=""height:400px;""></stim_listA>",,html-keyboard-response,349,1470236,0.0-19.0-1.6,88536,List2A,black,woman,,,,null,,,,,,,,,
null,is challenging,,html-keyboard-response,350,1472241,0.0-19.0-2.6,88536,List2A,black,woman,,,,null,,,,,,,,,
6427.8,,,survey-text,351,1478671,0.0-19.0-3.6,88536,List2A,black,woman,,,,,"{""Q0"":""dave is challenging fred ""}","<img src=""stim_listA/challenge5.gif""style=""height:400px;""></stim_listA>",is challenging,,,,,,
null,"<div style=""font-size:60px;"">+</div>",,html-keyboard-response,352,1479173,0.0-19.0-0.7,88536,List2A,black,woman,,,,null,,,,,,,,,
null,"<img src=""stim_listA/shout4.gif""style=""height:400px;""></stim_listA>",,html-keyboard-response,353,1481179,0.0-19.0-1.7,88536,List2A,black,woman,,,,null,,,,,,,,,
null,is being shouted at by,,html-keyboard-response,354,1483184,0.0-19.0-2.7,88536,List2A,black,woman,,,,null,,,,,,,,,
6760.9,,,survey-text,355,1489947,0.0-19.0-3.7,88536,List2A,black,woman,,,,,"{""Q0"":""kate is being shouted at by mike ""}","<img src=""stim_listA/shout4.gif""style=""height:400px;""></stim_listA>",is being shouted at by,,,,,,
null,"<div style=""font-size:60px;"">+</div>",,html-keyboard-response,356,1490449,0.0-19.0-0.8,88536,List2A,black,woman,,,,null,,,,,,,,,
null,"<img src=""stim_listA/seduce6.gif""style=""height:400px;""></stim_listA>",,html-keyboard-response,357,1492454,0.0-19.0-1.8,88536,List2A,black,woman,,,,null,,,,,,,,,
null,is being seduced by,,html-keyboard-response,358,1494457,0.0-19.0-2.8,88536,List2A,black,woman,,,,null,,,,,,,,,
10688.8,,,survey-text,359,1505148,0.0-19.0-3.8,88536,List2A,black,woman,,,,,"{""Q0"":""fred is being seduced by dave ""}","<img src=""stim_listA/seduce6.gif""style=""height:400px;""></stim_listA>",is being seduced by,,,,,,
null,"<div style=""font-size:60px;"">+</div>",,html-keyboard-response,360,1505652,0.0-19.0-0.9,88536,List2A,black,woman,,,,null,,,,,,,,,
null,"<img src=""stim_listA/oppose3.gif""style=""height:400px;""></stim_listA>",,html-keyboard-response,361,1507656,0.0-19.0-1.9,88536,List2A,black,woman,,,,null,,,,,,,,,
null,is opposing,,html-keyboard-response,362,1509659,0.0-19.0-2.9,88536,List2A,black,woman,,,,null,,,,,,,,,
4068.4,,,survey-text,363,1513730,0.0-19.0-3.9,88536,List2A,black,woman,,,,,"{""Q0"":""kate is opposing mike ""}","<img src=""stim_listA/oppose3.gif""style=""height:400px;""></stim_listA>",is opposing,,,,,,
null,"<div style=""font-size:60px;"">+</div>",,html-keyboard-response,364,1514232,0.0-19.0-0.10,88536,List2A,black,woman,,,,null,,,,,,,,,
null,"<img src=""stim_listA/oppose8.gif""style=""height:400px;""></stim_listA>",,html-keyboard-response,365,1516236,0.0-19.0-1.10,88536,List2A,black,woman,,,,null,,,,,,,,,
null,is being opposed by,,html-keyboard-response,366,1518242,0.0-19.0-2.10,88536,List2A,black,woman,,,,null,,,,,,,,,
13735.2,,,survey-text,367,1531980,0.0-19.0-3.10,88536,List2A,black,woman,,,,,"{""Q0"":""beth is being opposed by ruth ""}","<img src=""stim_listA/oppose8.gif""style=""height:400px;""></stim_listA>",is being opposed by,,,,,,
null,"<div style=""font-size:60px;"">+</div>",,html-keyboard-response,368,1532484,0.0-19.0-0.11,88536,List2A,black,woman,,,,null,,,,,,,,,
null,"<img src=""stim_listA/hug2.gif""style=""height:400px;""></stim_listA>",,html-keyboard-response,369,1534489,0.0-19.0-1.11,88536,List2A,black,woman,,,,null,,,,,,,,,
null,is being hugged by,,html-keyboard-response,370,1536490,0.0-19.0-2.11,88536,List2A,black,woman,,,,null,,,,,,,,,
5354.7,,,survey-text,371,1541847,0.0-19.0-3.11,88536,List2A,black,woman,,,,,"{""Q0"":""jane is being hugged by dave ""}","<img src=""stim_listA/hug2.gif""style=""height:400px;""></stim_listA>",is being hugged by,,,,,,
null,"<div style=""font-size:60px;"">+</div>",,html-keyboard-response,372,1542349,0.0-19.0-0.12,88536,List2A,black,woman,,,,null,,,,,,,,,
null,"<img src=""stim_listA/kiss7.gif""style=""height:400px;""></stim_listA>",,html-keyboard-response,373,1544354,0.0-19.0-1.12,88536,List2A,black,woman,,,,null,,,,,,,,,
null,is kissing,,html-keyboard-response,374,1546360,0.0-19.0-2.12,88536,List2A,black,woman,,,,null,,,,,,,,,
5074.7,,,survey-text,375,1551437,0.0-19.0-3.12,88536,List2A,black,woman,,,,,"{""Q0"":""beth is kissing ruth ""}","<img src=""stim_listA/kiss7.gif""style=""height:400px;""></stim_listA>",is kissing,,,,,,
null,"<div style=""font-size:60px;"">+</div>",,html-keyboard-response,376,1551939,0.0-19.0-0.13,88536,List2A,black,woman,,,,null,,,,,,,,,
null,"<img src=""stim_listA/oppose6.gif""style=""height:400px;""></stim_listA>",,html-keyboard-response,377,1553944,0.0-19.0-1.13,88536,List2A,black,woman,,,,null,,,,,,,,,
null,is being opposed by,,html-keyboard-response,378,1555946,0.0-19.0-2.13,88536,List2A,black,woman,,,,null,,,,,,,,,
6824.7,,,survey-text,379,1562773,0.0-19.0-3.13,88536,List2A,black,woman,,,,,"{""Q0"":""luke is being opposed by fred ""}","<img src=""stim_listA/oppose6.gif""style=""height:400px;""></stim_listA>",is being opposed by,,,,,,
null,"<div style=""font-size:60px;"">+</div>",,html-keyboard-response,380,1563275,0.0-19.0-0.14,88536,List2A,black,woman,,,,null,,,,,,,,,
null,"<img src=""stim_listA/shout1.gif""style=""height:400px;""></stim_listA>",,html-keyboard-response,381,1565279,0.0-19.0-1.14,88536,List2A,black,woman,,,,null,,,,,,,,,
null,is shouting at,,html-keyboard-response,382,1567281,0.0-19.0-2.14,88536,List2A,black,woman,,,,null,,,,,,,,,
13275.3,,,survey-text,383,1580559,0.0-19.0-3.14,88536,List2A,black,woman,,,,,"{""Q0"":""ruth is shouting at luke ""}","<img src=""stim_listA/shout1.gif""style=""height:400px;""></stim_listA>",is shouting at,,,,,,
null,"<div style=""font-size:60px;"">+</div>",,html-keyboard-response,384,1581063,0.0-19.0-0.15,88536,List2A,black,woman,,,,null,,,,,,,,,
null,"<img src=""stim_listA/challenge1.gif""style=""height:400px;""></stim_listA>",,html-keyboard-response,385,1583065,0.0-19.0-1.15,88536,List2A,black,woman,,,,null,,,,,,,,,
null,is challenging,,html-keyboard-response,386,1585070,0.0-19.0-2.15,88536,List2A,black,woman,,,,null,,,,,,,,,
7436.4,,,survey-text,387,1592509,0.0-19.0-3.15,88536,List2A,black,woman,,,,,"{""Q0"":""dave is challenging ruth ""}","<img src=""stim_listA/challenge1.gif""style=""height:400px;""></stim_listA>",is challenging,,,,,,
null,"<div style=""font-size:60px;"">+</div>",,html-keyboard-response,388,1593011,0.0-19.0-0.16,88536,List2A,black,woman,,,,null,,,,,,,,,
null,"<img src=""stim_listA/oppose7.gif""style=""height:400px;""></stim_listA>",,html-keyboard-response,389,1595017,0.0-19.0-1.16,88536,List2A,black,woman,,,,null,,,,,,,,,
null,is opposing,,html-keyboard-response,390,1597021,0.0-19.0-2.16,88536,List2A,black,woman,,,,null,,,,,,,,,
13232.4,,,survey-text,391,1610257,0.0-19.0-3.16,88536,List2A,black,woman,,,,,"{""Q0"":""jane is opposing kate ""}","<img src=""stim_listA/oppose7.gif""style=""height:400px;""></stim_listA>",is opposing,,,,,,
null,"<div style=""font-size:60px;"">+</div>",,html-keyboard-response,392,1610761,0.0-19.0-0.17,88536,List2A,black,woman,,,,null,,,,,,,,,
null,"<img src=""stim_listA/touch6.gif""style=""height:400px;""></stim_listA>",,html-keyboard-response,393,1612765,0.0-19.0-1.17,88536,List2A,black,woman,,,,null,,,,,,,,,
null,is being touched by,,html-keyboard-response,394,1614768,0.0-19.0-2.17,88536,List2A,black,woman,,,,null,,,,,,,,,
10144.5,,,survey-text,395,1624915,0.0-19.0-3.17,88536,List2A,black,woman,,,,,"{""Q0"":""fred is being touched by luke ""}","<img src=""stim_listA/touch6.gif""style=""height:400px;""></stim_listA>",is being touched by,,,,,,
null,"<div style=""font-size:60px;"">+</div>",,html-keyboard-response,396,1625417,0.0-19.0-0.18,88536,List2A,black,woman,,,,null,,,,,,,,,
null,"<img src=""stim_listA/seduce8.gif""style=""height:400px;""></stim_listA>",,html-keyboard-response,397,1627421,0.0-19.0-1.18,88536,List2A,black,woman,,,,null,,,,,,,,,
null,is being seduced by,,html-keyboard-response,398,1629422,0.0-19.0-2.18,88536,List2A,black,woman,,,,null,,,,,,,,,
8845.3,,,survey-text,399,1638269,0.0-19.0-3.18,88536,List2A,black,woman,,,,,"{""Q0"":"" beth is being seduced by jane ""}","<img src=""stim_listA/seduce8.gif""style=""height:400px;""></stim_listA>",is being seduced by,,,,,,
null,"<div style=""font-size:60px;"">+</div>",,html-keyboard-response,400,1638771,0.0-19.0-0.19,88536,List2A,black,woman,,,,null,,,,,,,,,
null,"<img src=""stim_listA/greet2.gif""style=""height:400px;""></stim_listA>",,html-keyboard-response,401,1640776,0.0-19.0-1.19,88536,List2A,black,woman,,,,null,,,,,,,,,
null,is being greeted by,,html-keyboard-response,402,1642779,0.0-19.0-2.19,88536,List2A,black,woman,,,,null,,,,,,,,,
6429.6,,,survey-text,403,1649211,0.0-19.0-3.19,88536,List2A,black,woman,,,,,"{""Q0"":""jane is being greeted by luke ""}","<img src=""stim_listA/greet2.gif""style=""height:400px;""></stim_listA>",is being greeted by,,,,,,
1947.9,<p>Thank you for completing that task.</p><p>The final part of this session is a questionnaire that will take about 4 minutes.</p><p>Press Continue.</p>,0,html-button-response,404,1651160,0.0-20.0,88536,List2A,black,woman,,,,,,,,,,,,,
60719,,,survey-text,405,1712886,0.0-21.0,88536,List2A,black,woman,,,,,"{""Q0"":""20"",""Q1"":""English"",""Q2"":""English "",""Q3"":""United States"",""Q4"":""American "",""Q5"":""African American/ Black "",""Q6"":""female ""}",,,demographics,,,,,
2146.9,<p>Have you lived in the USA for the last 5 years or more?</p>,0,html-button-response,406,1715035,0.0-22.0,88536,List2A,black,woman,,,,,,,,fiveyears,,,,,
2114.5,<p>Move the slider to show the extent to which you agree with the following statements.</p>,0,html-button-response,407,1718154,0.0-23.0,88536,List2A,black,woman,,,,,,,,,,,,,
6684.1,,,html-slider-response,408,1725845,0.0-24.0-0.0-0.0,88536,List2A,black,woman,,,,,,,,survey_gender,85,,,My friends have a lot in common with each other.,filler
9498.7,,,html-slider-response,409,1735346,0.0-24.0-0.0-0.1,88536,List2A,black,woman,,,,,,,,survey_gender,48,,,It is not always easy for people to know what I am thinking.,filler
5305.5,,,html-slider-response,410,1740654,0.0-24.0-0.0-0.2,88536,List2A,black,woman,,,,,,,,survey_gender,66,,,Being my gender is an important part of how I see myself.,important
2726.2,,,html-slider-response,411,1743382,0.0-24.0-0.0-0.3,88536,List2A,black,woman,,,,,,,,survey_gender,74,,,I have a lot in common with my friends.,filler
5087.5,,,html-slider-response,412,1748471,0.0-24.0-0.0-0.4,88536,List2A,black,woman,,,,,,,,survey_gender,67,,,My friends understand me.,filler
7341.7,,,html-slider-response,413,1755814,0.0-24.0-0.0-0.5,88536,List2A,black,woman,,,,,,,,survey_gender,44,,,I have a lot in common with the average person of my gender.,average
7383.3,,,html-slider-response,414,1763199,0.0-24.0-0.0-0.6,88536,List2A,black,woman,,,,,,,,survey_gender,57,,,People of my gender have a lot in common with each other.,common
3686,,,html-slider-response,415,1766887,0.0-24.0-0.0-0.7,88536,List2A,black,woman,,,,,,,,survey_gender,41,,,I feel solidarity with my gender.,solidarity
6097.7,,,html-slider-response,416,1772987,0.0-24.0-0.0-0.8,88536,List2A,black,woman,,,,,,,,survey_gender,39,,,I am similar to the average person of my gender.,similar
4036.5,,,html-slider-response,417,1777025,0.0-24.0-0.0-0.9,88536,List2A,black,woman,,,,,,,,survey_gender,49,,,I am glad to be my gender.,glad
4647.7,,,html-slider-response,418,1781674,0.0-24.0-0.0-0.10,88536,List2A,black,woman,,,,,,,,survey_gender,18,,,It is pleasant to be my gender.,pleasant
3425.9,,,html-slider-response,419,1785102,0.0-24.0-0.0-0.11,88536,List2A,black,woman,,,,,,,,survey_gender,89,,,I am glad to have the friends that I have.,filler
7360.1,,,html-slider-response,420,1792463,0.0-24.0-0.0-0.12,88536,List2A,black,woman,,,,,,,,survey_gender,51,,,Being my gender gives me a good feeling.,feeling
6732.1,,,html-slider-response,421,1799197,0.0-24.0-0.0-0.13,88536,List2A,black,woman,,,,,,,,survey_gender,59,,,Routine is not important to me.,filler
6469.3,,,html-slider-response,422,1805668,0.0-24.0-0.0-0.14,88536,List2A,black,woman,,,,,,,,survey_gender,68,,,The fact that I am my gender is an important part of my identity.,identity
13085.8,,,html-slider-response,423,1818755,0.0-24.0-0.0-0.15,88536,List2A,black,woman,,,,,,,,survey_gender,35,,,People of my gender are very similar to each other.,verysimilar
3621.8,,,html-slider-response,424,1822379,0.0-24.0-0.0-0.16,88536,List2A,black,woman,,,,,,,,survey_gender,90,,,I feel a bond with my friends.,filler
11079.1,,,html-slider-response,425,1833459,0.0-24.0-0.0-0.17,88536,List2A,black,woman,,,,,,,,survey_gender,88,,,Being around my friends gives me a good feeling.,filler
4419,,,html-slider-response,426,1837880,0.0-24.0-0.0-0.18,88536,List2A,black,woman,,,,,,,,survey_gender,74,,,I often think about the fact that I am my gender.,often
4199.3,,,html-slider-response,427,1842081,0.0-24.0-0.0-0.19,88536,List2A,black,woman,,,,,,,,survey_gender,45,,,I consider myself a highly empathetic person.,filler
3474.3,,,html-slider-response,428,1845557,0.0-24.0-0.0-0.20,88536,List2A,black,woman,,,,,,,,survey_gender,59,,,I feel a bond with my gender.,bond
3491.9,,,html-slider-response,429,1849051,0.0-24.0-0.0-0.21,88536,List2A,black,woman,,,,,,,,survey_gender,37,,,I feel committed to my gender.,committed
3515.9,,,html-slider-response,430,1852568,0.0-24.0-0.0-0.22,88536,List2A,black,woman,,,,,,,,survey_gender,76,,,I think that my gender has a lot to be proud of.,proud
2921.2,,,html-slider-response,431,1855491,0.0-24.0-0.0-0.23,88536,List2A,black,woman,,,,,,,,survey_gender,73,,,I would say I am an animal person.,filler
2424.2,,,html-slider-response,432,1857917,0.0-24.0-0.0-0.24,88536,List2A,black,woman,,,,,,,,survey_gender,78,,,Most of the friends in my life are very similar to me.,filler
2417.3,,,html-slider-response,433,1860335,0.0-24.0-0.0-0.25,88536,List2A,black,woman,,,,,,,,survey_gender,80,,,I feel solidarity with my friends.,filler
3483.1,,,html-slider-response,434,1863819,0.0-24.0-0.0-0.26,88536,List2A,black,woman,,,,,,,,survey_gender,69,,,I often think about my actions.,filler
9948.4,,,html-slider-response,435,1873769,0.0-24.0-0.0-0.27,88536,List2A,black,woman,,,,,,,,survey_gender,60,,,Family is not more important to me than friendship.,filler
5469.4,,,html-slider-response,436,1879241,0.0-24.0-1.0-0.0,88536,List2A,black,woman,,,,,,,,survey_race,55,,,"The older I get, the wiser I feel.",filler
5901.2,,,html-slider-response,437,1885144,0.0-24.0-1.0-0.1,88536,List2A,black,woman,,,,,,,,survey_race,46,,,I am glad to be the age I am.,filler
2122.5,,,html-slider-response,438,1887269,0.0-24.0-1.0-0.2,88536,List2A,black,woman,,,,,,,,survey_race,46,,,I am glad to be my age.,filler
5714.3,,,html-slider-response,439,1892984,0.0-24.0-1.0-0.3,88536,List2A,black,woman,,,,,,,,survey_race,83,,,I feel solidarity with people the same age as me.,filler
4337.1,,,html-slider-response,440,1897323,0.0-24.0-1.0-0.4,88536,List2A,black,woman,,,,,,,,survey_race,71,,,I often think about the fact that I am my age.,filler
4142.6,,,html-slider-response,441,1901467,0.0-24.0-1.0-0.5,88536,List2A,black,woman,,,,,,,,survey_race,81,,,I have a lot in common with people of a similar age to me.,filler
7031.8,,,html-slider-response,442,1908500,0.0-24.0-1.0-0.6,88536,List2A,black,woman,,,,,,,,survey_race,100,,,I think that my race has a lot to be proud of.,proud
3466.8,,,html-slider-response,443,1911969,0.0-24.0-1.0-0.7,88536,List2A,black,woman,,,,,,,,survey_race,44,,,Getting older does not worry me.,filler
4973.2,,,html-slider-response,444,1916944,0.0-24.0-1.0-0.8,88536,List2A,black,woman,,,,,,,,survey_race,100,,,I feel a bond with my race.,bond
4932.1,,,html-slider-response,445,1921878,0.0-24.0-1.0-0.9,88536,List2A,black,woman,,,,,,,,survey_race,10,,,It is pleasant to be my race.,pleasant
4996.3,,,html-slider-response,446,1926877,0.0-24.0-1.0-0.10,88536,List2A,black,woman,,,,,,,,survey_race,47,,,I have a lot in common with the average person of my race.,average
3556,,,html-slider-response,447,1930434,0.0-24.0-1.0-0.11,88536,List2A,black,woman,,,,,,,,survey_race,98,,,I consider myself an introvert.,filler
2294.1,,,html-slider-response,448,1932731,0.0-24.0-1.0-0.12,88536,List2A,black,woman,,,,,,,,survey_race,37,,,I enjoy being in large groups.,filler
3645.4,,,html-slider-response,449,1936446,0.0-24.0-1.0-0.13,88536,List2A,black,woman,,,,,,,,survey_race,40,,,People of my race are very similar to each other.,verysimilar
2514.3,,,html-slider-response,450,1938962,0.0-24.0-1.0-0.14,88536,List2A,black,woman,,,,,,,,survey_race,37,,,I am similar to the average person of my race.,similar
2344.7,,,html-slider-response,451,1941308,0.0-24.0-1.0-0.15,88536,List2A,black,woman,,,,,,,,survey_race,78,,,I feel solidarity with my race.,solidarity
2978.1,,,html-slider-response,452,1944288,0.0-24.0-1.0-0.16,88536,List2A,black,woman,,,,,,,,survey_race,70,,,I often think about the fact that I am my race.,often
4020.3,,,html-slider-response,453,1948310,0.0-24.0-1.0-0.17,88536,List2A,black,woman,,,,,,,,survey_race,55,,,Being my age gives me a good feeling.,filler
4678.7,,,html-slider-response,454,1952990,0.0-24.0-1.0-0.18,88536,List2A,black,woman,,,,,,,,survey_race,0,,,I consider myself an extrovert.,filler
4264.6,,,html-slider-response,455,1957257,0.0-24.0-1.0-0.19,88536,List2A,black,woman,,,,,,,,survey_race,57,,,My age is not an important part of who I am.,filler
4003.3,,,html-slider-response,456,1961262,0.0-24.0-1.0-0.20,88536,List2A,black,woman,,,,,,,,survey_race,100,,,I am glad to be my race.,glad
3848.9,,,html-slider-response,457,1965113,0.0-24.0-1.0-0.21,88536,List2A,black,woman,,,,,,,,survey_race,83,,,People my age have a lot in common with each other.,filler
3221.4,,,html-slider-response,458,1968336,0.0-24.0-1.0-0.22,88536,List2A,black,woman,,,,,,,,survey_race,97,,,Being my race is an important part of how I see myself.,important
15633.4,,,html-slider-response,459,1983972,0.0-24.0-1.0-0.23,88536,List2A,black,woman,,,,,,,,survey_race,94,,,Being my race gives me a good feeling.,feeling
3930.9,,,html-slider-response,460,1987905,0.0-24.0-1.0-0.24,88536,List2A,black,woman,,,,,,,,survey_race,99,,,The fact that I am my race is an important part of my identity.,identity
2832.6,,,html-slider-response,461,1990738,0.0-24.0-1.0-0.25,88536,List2A,black,woman,,,,,,,,survey_race,35,,,People of my race have a lot in common with each other.,common
2872.9,,,html-slider-response,462,1993613,0.0-24.0-1.0-0.26,88536,List2A,black,woman,,,,,,,,survey_race,77,,,I feel a bond with people the same age as me.,filler
2628.1,,,html-slider-response,463,1996242,0.0-24.0-1.0-0.27,88536,List2A,black,woman,,,,,,,,survey_race,100,,,I feel committed to my race.,committed
9092.2,,,survey-text,464,2005337,0.0-25.0,88536,List2A,black,woman,,,,,"{""Q0"":""ccc""}",,,worker_id,,,,,
54013.4,,,external-html,465,2059814,0.0-26.0,88536,List2A,black,woman,debrief.html,,,,,,,,,,,,
