"rt","stimulus","button_pressed","trial_type","trial_index","time_elapsed","internal_node_id","subject","list","ppt_race","ppt_gender","url","first_guess","correct","key_press","responses","image_type","phrase_type","test_part","response","stimulus1","stimulus2","question_type","survey_item"
"1987.8999999761581","Welcome to the experiment. Press Continue to begin.","0","html-button-response","0","1991","0.0-0.0","88993","List1A","black","woman","","","","","","","","","","","","",""
"68058.69999998808","","","external-html","1","71161","0.0-1.0","88993","List1A","black","woman","consent.html","","","","","","","","","","","",""
"11388.700000047684","<p>On the next page, you will see portraits of 8 people and their names.</p><p>Your first task is to take a few minutes to memorise the names of these people.</p><p>You will have to recall their names during the rest of the experiment, so it is</p><p>essential that you try to memorise these people and their names as best as you can.</p><br><p><strong>You will then be tested on your memory of these names and portraits.</strong></p><br><p>The experiment will start after you have completed this memory test.</p><br><p>Ready?</p>","0","html-button-response","2","82552","0.0-2.0","88993","List1A","black","woman","","","","","","","","","","","","",""
"481278.39999997616","<img src='img/portrait_matrix_list1.jpg' style='width:900px;height:500px;''></img><p>If you have memorised all the portraits and names and are ready to start, press Continue.</p><p><strong>Please note: Your memory of these faces will be tested 4 times during this experiment.</strong></p>","0","html-button-response","3","564834","0.0-3.0-0.0","88993","List1A","black","woman","","","","","","","","","","","","",""
"4640.900000035763","<img src=""portrait/BW2.jpg""style=""height:400px;""></img>","2","html-button-response","4","570478","0.0-3.0-1.0","88993","List1A","black","woman","","true","2","","","","","","","","","",""
"null","CORRECT","","html-keyboard-response","5","571984","0.0-3.0-2.0-0.0","88993","List1A","black","woman","","","","null","","","","","","","","",""
"2406.699999988079","<img src=""portrait/BM1.jpg""style=""height:400px;""></img>","4","html-button-response","6","574392","0.0-3.0-4.0","88993","List1A","black","woman","","true","4","","","","","","","","","",""
"null","CORRECT","","html-keyboard-response","7","575894","0.0-3.0-5.0-0.0","88993","List1A","black","woman","","","","null","","","","","","","","",""
"4144.399999976158","<img src=""portrait/WM2.jpg""style=""height:400px;""></img>","7","html-button-response","8","580040","0.0-3.0-7.0","88993","List1A","black","woman","","true","7","","","","","","","","","",""
"null","CORRECT","","html-keyboard-response","9","581553","0.0-3.0-8.0-0.0","88993","List1A","black","woman","","","","null","","","","","","","","",""
"3707.400000035763","<img src=""portrait/WM1.jpg""style=""height:400px;""></img>","6","html-button-response","10","585262","0.0-3.0-10.0","88993","List1A","black","woman","","true","6","","","","","","","","","",""
"null","CORRECT","","html-keyboard-response","11","586765","0.0-3.0-11.0-0.0","88993","List1A","black","woman","","","","null","","","","","","","","",""
"3269.5","<img src=""portrait/WW2.jpg""style=""height:400px;""></img>","3","html-button-response","12","590036","0.0-3.0-13.0","88993","List1A","black","woman","","true","3","","","","","","","","","",""
"null","CORRECT","","html-keyboard-response","13","591539","0.0-3.0-14.0-0.0","88993","List1A","black","woman","","","","null","","","","","","","","",""
"3903.800000011921","<img src=""portrait/WW1.jpg""style=""height:400px;""></img>","1","html-button-response","14","595444","0.0-3.0-16.0","88993","List1A","black","woman","","true","1","","","","","","","","","",""
"null","CORRECT","","html-keyboard-response","15","596946","0.0-3.0-17.0-0.0","88993","List1A","black","woman","","","","null","","","","","","","","",""
"4902.099999964237","<img src=""portrait/BM2.jpg""style=""height:400px;""></img>","5","html-button-response","16","601850","0.0-3.0-19.0","88993","List1A","black","woman","","true","5","","","","","","","","","",""
"null","CORRECT","","html-keyboard-response","17","603372","0.0-3.0-20.0-0.0","88993","List1A","black","woman","","","","null","","","","","","","","",""
"3814.5","<img src=""portrait/BW1.jpg""style=""height:400px;""></img>","0","html-button-response","18","607188","0.0-3.0-22.0","88993","List1A","black","woman","","true","0","","","","","","","","","",""
"null","CORRECT","","html-keyboard-response","19","608711","0.0-3.0-23.0-0.0","88993","List1A","black","woman","","","","null","","","","","","","","",""
"2241.400000035763","<p>You got 8 out of 8 right first time. Press Continue.</p>","0","html-button-response","20","610954","0.0-3.0-25.0","88993","List1A","black","woman","","","","","","","","","","","","",""
"40016.69999998808","<p>In this experiment, you will view photographs of the people from the memory game interacting.</p><p>By using the <strong>exact</strong> phrase given <i>after</i> the photograph appears and recalling the correct names of the people in the photographs, form a sentence describing the interaction. You do not need to capitalise names.</p><p>Type your answer in the space provided. Please complete every sentence before moving onto the next trial.</p><p>You will only have a few seconds to memorise each given photograph and phrase before you can respond, so try your best to focus.</p><p>An example is given below. Press 'Continue' when you are ready.</p><img src='img/speaking_example.jpg' style='width:800px;height:460px;''></img>","0","html-button-response","21","651973","0.0-4.0","88993","List1A","black","woman","","","","","","","","","","","","",""
"5371.699999988079","<p>Before the experiment starts, you will watch two example trials. Press 'Continue'.</p>","0","html-button-response","22","658347","0.0-5.0","88993","List1A","black","woman","","","","","","","","","","","","",""
"null","<img src='img/play_eg.gif' style='height:400px;''></img>","","html-keyboard-response","23","661359","0.0-6.0","88993","List1A","black","woman","","","","null","","","","","","","","",""
"null","<p>is playing with</p>","","html-keyboard-response","24","663363","0.0-7.0","88993","List1A","black","woman","","","","null","","","","","","","","",""
"8124.900000035763","<p><b>Answer:</b> kate is playing with beth</p>","0","html-button-response","25","671489","0.0-8.0","88993","List1A","black","woman","","","","","","","","","","","","",""
"null","<img src='img/dance_eg.gif' style='height:400px;''></img>","","html-keyboard-response","26","674492","0.0-9.0","88993","List1A","black","woman","","","","null","","","","","","","","",""
"null","<p>is being entertained by</p>","","html-keyboard-response","27","676493","0.0-10.0","88993","List1A","black","woman","","","","null","","","","","","","","",""
"5098.100000023842","<p><b>Answer:</b> luke is being entertained by dave</p>","0","html-button-response","28","681593","0.0-11.0","88993","List1A","black","woman","","","","","","","","","","","","",""
"19099.100000023842","<p>Ready to start the experiment?</p><br><p><strong>Remember to describe the picture using a full sentence,</strong></p><p><strong>that combines the names of the people with the <i>exact</i> phrase given.</strong></p><p><strong>To receive full payment you must do this correctly.</strong></p><p><strong> You do not need to capitalise names or use punctuation.</strong></p><br><p>Press 'Continue' to begin.</p>","0","html-button-response","29","701700","0.0-12.0","88993","List1A","black","woman","","","","","","","","","","","","",""
"null","<div style=""font-size:60px;"">+</div>","","html-keyboard-response","30","703202","0.0-13.0-0.0","88993","List1A","black","woman","","","","null","","","","","","","","",""
"null","<img src=""stim_listA/hug5.gif""style=""height:400px;""></stim_listA>","","html-keyboard-response","31","705216","0.0-13.0-1.0","88993","List1A","black","woman","","","","null","","","","","","","","",""
"null","is hugging","","html-keyboard-response","32","707224","0.0-13.0-2.0","88993","List1A","black","woman","","","","null","","","","","","","","",""
"7475.199999988079","","","survey-text","33","714703","0.0-13.0-3.0","88993","List1A","black","woman","","","","","{""Q0"":""luke is hugging fred""}","<img src=""stim_listA/hug5.gif""style=""height:400px;""></stim_listA>","is hugging","","","","","",""
"null","<div style=""font-size:60px;"">+</div>","","html-keyboard-response","34","715205","0.0-13.0-0.1","88993","List1A","black","woman","","","","null","","","","","","","","",""
"null","<img src=""stim_listA/challenge6.gif""style=""height:400px;""></stim_listA>","","html-keyboard-response","35","717207","0.0-13.0-1.1","88993","List1A","black","woman","","","","null","","","","","","","","",""
"null","is being challenged by","","html-keyboard-response","36","719212","0.0-13.0-2.1","88993","List1A","black","woman","","","","null","","","","","","","","",""
"7943.699999988079","","","survey-text","37","727159","0.0-13.0-3.1","88993","List1A","black","woman","","","","","{""Q0"":""dave is being challenged by fred""}","<img src=""stim_listA/challenge6.gif""style=""height:400px;""></stim_listA>","is being challenged by","","","","","",""
"null","<div style=""font-size:60px;"">+</div>","","html-keyboard-response","38","727662","0.0-13.0-0.2","88993","List1A","black","woman","","","","null","","","","","","","","",""
"null","<img src=""stim_listA/touch2.gif""style=""height:400px;""></stim_listA>","","html-keyboard-response","39","729670","0.0-13.0-1.2","88993","List1A","black","woman","","","","null","","","","","","","","",""
"null","is being touched by","","html-keyboard-response","40","731671","0.0-13.0-2.2","88993","List1A","black","woman","","","","null","","","","","","","","",""
"7620.699999988079","","","survey-text","41","739294","0.0-13.0-3.2","88993","List1A","black","woman","","","","","{""Q0"":""beth is being touched by fred""}","<img src=""stim_listA/touch2.gif""style=""height:400px;""></stim_listA>","is being touched by","","","","","",""
"null","<div style=""font-size:60px;"">+</div>","","html-keyboard-response","42","739803","0.0-13.0-0.3","88993","List1A","black","woman","","","","null","","","","","","","","",""
"null","<img src=""stim_listA/oppose8.gif""style=""height:400px;""></stim_listA>","","html-keyboard-response","43","741813","0.0-13.0-1.3","88993","List1A","black","woman","","","","null","","","","","","","","",""
"null","is being opposed by","","html-keyboard-response","44","743817","0.0-13.0-2.3","88993","List1A","black","woman","","","","null","","","","","","","","",""
"8610.699999988079","","","survey-text","45","752430","0.0-13.0-3.3","88993","List1A","black","woman","","","","","{""Q0"":""beth is being opposed by ruth""}","<img src=""stim_listA/oppose8.gif""style=""height:400px;""></stim_listA>","is being opposed by","","","","","",""
"null","<div style=""font-size:60px;"">+</div>","","html-keyboard-response","46","752938","0.0-13.0-0.4","88993","List1A","black","woman","","","","null","","","","","","","","",""
"null","<img src=""stim_listA/greet5.gif""style=""height:400px;""></stim_listA>","","html-keyboard-response","47","754945","0.0-13.0-1.4","88993","List1A","black","woman","","","","null","","","","","","","","",""
"null","is greeting","","html-keyboard-response","48","756956","0.0-13.0-2.4","88993","List1A","black","woman","","","","null","","","","","","","","",""
"6031.300000011921","","","survey-text","49","762990","0.0-13.0-3.4","88993","List1A","black","woman","","","","","{""Q0"":""mike is greeting luke""}","<img src=""stim_listA/greet5.gif""style=""height:400px;""></stim_listA>","is greeting","","","","","",""
"null","<div style=""font-size:60px;"">+</div>","","html-keyboard-response","50","763491","0.0-13.0-0.5","88993","List1A","black","woman","","","","null","","","","","","","","",""
"null","<img src=""stim_listA/kiss4.gif""style=""height:400px;""></stim_listA>","","html-keyboard-response","51","765503","0.0-13.0-1.5","88993","List1A","black","woman","","","","null","","","","","","","","",""
"null","is being kissed by","","html-keyboard-response","52","767509","0.0-13.0-2.5","88993","List1A","black","woman","","","","null","","","","","","","","",""
"7719.599999964237","","","survey-text","53","775231","0.0-13.0-3.5","88993","List1A","black","woman","","","","","{""Q0"":""jane is being kissed by dave""}","<img src=""stim_listA/kiss4.gif""style=""height:400px;""></stim_listA>","is being kissed by","","","","","",""
"null","<div style=""font-size:60px;"">+</div>","","html-keyboard-response","54","775742","0.0-13.0-0.6","88993","List1A","black","woman","","","","null","","","","","","","","",""
"null","<img src=""stim_listA/oppose5.gif""style=""height:400px;""></stim_listA>","","html-keyboard-response","55","777756","0.0-13.0-1.6","88993","List1A","black","woman","","","","null","","","","","","","","",""
"null","is opposing","","html-keyboard-response","56","779768","0.0-13.0-2.6","88993","List1A","black","woman","","","","null","","","","","","","","",""
"4626.800000011921","","","survey-text","57","784398","0.0-13.0-3.6","88993","List1A","black","woman","","","","","{""Q0"":""mike is opposing dave""}","<img src=""stim_listA/oppose5.gif""style=""height:400px;""></stim_listA>","is opposing","","","","","",""
"null","<div style=""font-size:60px;"">+</div>","","html-keyboard-response","58","784911","0.0-13.0-0.7","88993","List1A","black","woman","","","","null","","","","","","","","",""
"null","<img src=""stim_listA/shout8.gif""style=""height:400px;""></stim_listA>","","html-keyboard-response","59","786916","0.0-13.0-1.7","88993","List1A","black","woman","","","","null","","","","","","","","",""
"null","is being shouted at by","","html-keyboard-response","60","788917","0.0-13.0-2.7","88993","List1A","black","woman","","","","null","","","","","","","","",""
"9582","","","survey-text","61","798502","0.0-13.0-3.7","88993","List1A","black","woman","","","","","{""Q0"":""kate is being shouted at by jane""}","<img src=""stim_listA/shout8.gif""style=""height:400px;""></stim_listA>","is being shouted at by","","","","","",""
"null","<div style=""font-size:60px;"">+</div>","","html-keyboard-response","62","799004","0.0-13.0-0.8","88993","List1A","black","woman","","","","null","","","","","","","","",""
"null","<img src=""stim_listA/challenge5.gif""style=""height:400px;""></stim_listA>","","html-keyboard-response","63","801014","0.0-13.0-1.8","88993","List1A","black","woman","","","","null","","","","","","","","",""
"null","is challenging","","html-keyboard-response","64","803028","0.0-13.0-2.8","88993","List1A","black","woman","","","","null","","","","","","","","",""
"4927.800000011921","","","survey-text","65","807958","0.0-13.0-3.8","88993","List1A","black","woman","","","","","{""Q0"":""mike is challenging luke""}","<img src=""stim_listA/challenge5.gif""style=""height:400px;""></stim_listA>","is challenging","","","","","",""
"null","<div style=""font-size:60px;"">+</div>","","html-keyboard-response","66","808462","0.0-13.0-0.9","88993","List1A","black","woman","","","","null","","","","","","","","",""
"null","<img src=""stim_listA/hug7.gif""style=""height:400px;""></stim_listA>","","html-keyboard-response","67","810473","0.0-13.0-1.9","88993","List1A","black","woman","","","","null","","","","","","","","",""
"null","is hugging","","html-keyboard-response","68","812490","0.0-13.0-2.9","88993","List1A","black","woman","","","","null","","","","","","","","",""
"4337.199999988079","","","survey-text","69","816829","0.0-13.0-3.9","88993","List1A","black","woman","","","","","{""Q0"":""ruth is hugging beth""}","<img src=""stim_listA/hug7.gif""style=""height:400px;""></stim_listA>","is hugging","","","","","",""
"null","<div style=""font-size:60px;"">+</div>","","html-keyboard-response","70","817334","0.0-13.0-0.10","88993","List1A","black","woman","","","","null","","","","","","","","",""
"null","<img src=""stim_listA/look8.gif""style=""height:400px;""></stim_listA>","","html-keyboard-response","71","819348","0.0-13.0-1.10","88993","List1A","black","woman","","","","null","","","","","","","","",""
"null","is being looked at by","","html-keyboard-response","72","821351","0.0-13.0-2.10","88993","List1A","black","woman","","","","null","","","","","","","","",""
"8436.699999988079","","","survey-text","73","829790","0.0-13.0-3.10","88993","List1A","black","woman","","","","","{""Q0"":""jane is being looked at by kate""}","<img src=""stim_listA/look8.gif""style=""height:400px;""></stim_listA>","is being looked at by","","","","","",""
"null","<div style=""font-size:60px;"">+</div>","","html-keyboard-response","74","830301","0.0-13.0-0.11","88993","List1A","black","woman","","","","null","","","","","","","","",""
"null","<img src=""stim_listA/greet1.gif""style=""height:400px;""></stim_listA>","","html-keyboard-response","75","832303","0.0-13.0-1.11","88993","List1A","black","woman","","","","null","","","","","","","","",""
"null","is greeting","","html-keyboard-response","76","834313","0.0-13.0-2.11","88993","List1A","black","woman","","","","null","","","","","","","","",""
"4634.5","","","survey-text","77","838950","0.0-13.0-3.11","88993","List1A","black","woman","","","","","{""Q0"":""mike is greeting beth""}","<img src=""stim_listA/greet1.gif""style=""height:400px;""></stim_listA>","is greeting","","","","","",""
"null","<div style=""font-size:60px;"">+</div>","","html-keyboard-response","78","839467","0.0-13.0-0.12","88993","List1A","black","woman","","","","null","","","","","","","","",""
"null","<img src=""stim_listA/kiss5.gif""style=""height:400px;""></stim_listA>","","html-keyboard-response","79","841475","0.0-13.0-1.12","88993","List1A","black","woman","","","","null","","","","","","","","",""
"null","is kissing","","html-keyboard-response","80","843478","0.0-13.0-2.12","88993","List1A","black","woman","","","","null","","","","","","","","",""
"5565","","","survey-text","81","849046","0.0-13.0-3.12","88993","List1A","black","woman","","","","","{""Q0"":""luke is kissing fred""}","<img src=""stim_listA/kiss5.gif""style=""height:400px;""></stim_listA>","is kissing","","","","","",""
"null","<div style=""font-size:60px;"">+</div>","","html-keyboard-response","82","849551","0.0-13.0-0.13","88993","List1A","black","woman","","","","null","","","","","","","","",""
"null","<img src=""stim_listA/shout6.gif""style=""height:400px;""></stim_listA>","","html-keyboard-response","83","851565","0.0-13.0-1.13","88993","List1A","black","woman","","","","null","","","","","","","","",""
"null","is being shouted at by","","html-keyboard-response","84","853579","0.0-13.0-2.13","88993","List1A","black","woman","","","","null","","","","","","","","",""
"6112.5","","","survey-text","85","859694","0.0-13.0-3.13","88993","List1A","black","woman","","","","","{""Q0"":""dave is being shouted at by mike""}","<img src=""stim_listA/shout6.gif""style=""height:400px;""></stim_listA>","is being shouted at by","","","","","",""
"null","<div style=""font-size:60px;"">+</div>","","html-keyboard-response","86","860201","0.0-13.0-0.14","88993","List1A","black","woman","","","","null","","","","","","","","",""
"null","<img src=""stim_listA/seduce8.gif""style=""height:400px;""></stim_listA>","","html-keyboard-response","87","862203","0.0-13.0-1.14","88993","List1A","black","woman","","","","null","","","","","","","","",""
"null","is being seduced by","","html-keyboard-response","88","864220","0.0-13.0-2.14","88993","List1A","black","woman","","","","null","","","","","","","","",""
"8118.899999976158","","","survey-text","89","872342","0.0-13.0-3.14","88993","List1A","black","woman","","","","","{""Q0"":""kate is being seduced by ruth""}","<img src=""stim_listA/seduce8.gif""style=""height:400px;""></stim_listA>","is being seduced by","","","","","",""
"null","<div style=""font-size:60px;"">+</div>","","html-keyboard-response","90","872846","0.0-13.0-0.15","88993","List1A","black","woman","","","","null","","","","","","","","",""
"null","<img src=""stim_listA/hug6.gif""style=""height:400px;""></stim_listA>","","html-keyboard-response","91","874849","0.0-13.0-1.15","88993","List1A","black","woman","","","","null","","","","","","","","",""
"null","is being hugged by","","html-keyboard-response","92","876864","0.0-13.0-2.15","88993","List1A","black","woman","","","","null","","","","","","","","",""
"6667.400000035763","","","survey-text","93","883534","0.0-13.0-3.15","88993","List1A","black","woman","","","","","{""Q0"":""dave is being hugged by mike""}","<img src=""stim_listA/hug6.gif""style=""height:400px;""></stim_listA>","is being hugged by","","","","","",""
"null","<div style=""font-size:60px;"">+</div>","","html-keyboard-response","94","884035","0.0-13.0-0.16","88993","List1A","black","woman","","","","null","","","","","","","","",""
"null","<img src=""stim_listA/look7.gif""style=""height:400px;""></stim_listA>","","html-keyboard-response","95","886052","0.0-13.0-1.16","88993","List1A","black","woman","","","","null","","","","","","","","",""
"null","is looking at","","html-keyboard-response","96","888064","0.0-13.0-2.16","88993","List1A","black","woman","","","","null","","","","","","","","",""
"4267.5","","","survey-text","97","892334","0.0-13.0-3.16","88993","List1A","black","woman","","","","","{""Q0"":""beth is looking at ruth""}","<img src=""stim_listA/look7.gif""style=""height:400px;""></stim_listA>","is looking at","","","","","",""
"null","<div style=""font-size:60px;"">+</div>","","html-keyboard-response","98","892847","0.0-13.0-0.17","88993","List1A","black","woman","","","","null","","","","","","","","",""
"null","<img src=""stim_listA/copy5.gif""style=""height:400px;""></stim_listA>","","html-keyboard-response","99","894850","0.0-13.0-1.17","88993","List1A","black","woman","","","","null","","","","","","","","",""
"null","is copying","","html-keyboard-response","100","896861","0.0-13.0-2.17","88993","List1A","black","woman","","","","null","","","","","","","","",""
"8478.800000011921","","","survey-text","101","905342","0.0-13.0-3.17","88993","List1A","black","woman","","","","","{""Q0"":""mike is copying luke""}","<img src=""stim_listA/copy5.gif""style=""height:400px;""></stim_listA>","is copying","","","","","",""
"null","<div style=""font-size:60px;"">+</div>","","html-keyboard-response","102","905850","0.0-13.0-0.18","88993","List1A","black","woman","","","","null","","","","","","","","",""
"null","<img src=""stim_listA/look6.gif""style=""height:400px;""></stim_listA>","","html-keyboard-response","103","907852","0.0-13.0-1.18","88993","List1A","black","woman","","","","null","","","","","","","","",""
"null","is being looked at by","","html-keyboard-response","104","909853","0.0-13.0-2.18","88993","List1A","black","woman","","","","null","","","","","","","","",""
"7302.199999988079","","","survey-text","105","917158","0.0-13.0-3.18","88993","List1A","black","woman","","","","","{""Q0"":""dave is being looked at by mike""}","<img src=""stim_listA/look6.gif""style=""height:400px;""></stim_listA>","is being looked at by","","","","","",""
"null","<div style=""font-size:60px;"">+</div>","","html-keyboard-response","106","917660","0.0-13.0-0.19","88993","List1A","black","woman","","","","null","","","","","","","","",""
"null","<img src=""stim_listA/copy4.gif""style=""height:400px;""></stim_listA>","","html-keyboard-response","107","919669","0.0-13.0-1.19","88993","List1A","black","woman","","","","null","","","","","","","","",""
"null","is being copied by","","html-keyboard-response","108","921677","0.0-13.0-2.19","88993","List1A","black","woman","","","","null","","","","","","","","",""
"6230.399999976158","","","survey-text","109","927910","0.0-13.0-3.19","88993","List1A","black","woman","","","","","{""Q0"":""jane is being copied by luke""}","<img src=""stim_listA/copy4.gif""style=""height:400px;""></stim_listA>","is being copied by","","","","","",""
"6077.699999988079","<img src='img/portrait_matrix_list1.jpg' style='width:900px;height:500px;''></img><p>If you have memorised all the portraits and names and are ready to start, press Continue.</p><p><strong>Please note: Your memory of these faces will be tested 4 times during this experiment.</strong></p>","0","html-button-response","110","933989","0.0-14.0-0.0","88993","List1A","black","woman","","","","","","","","","","","","",""
"2895.599999964237","<img src=""portrait/WW1.jpg""style=""height:400px;""></img>","1","html-button-response","111","937888","0.0-14.0-1.0","88993","List1A","black","woman","","true","1","","","","","","","","","",""
"null","CORRECT","","html-keyboard-response","112","939400","0.0-14.0-2.0-0.0","88993","List1A","black","woman","","","","null","","","","","","","","",""
"1996.2999999523163","<img src=""portrait/BM2.jpg""style=""height:400px;""></img>","5","html-button-response","113","941398","0.0-14.0-4.0","88993","List1A","black","woman","","true","5","","","","","","","","","",""
"null","CORRECT","","html-keyboard-response","114","942916","0.0-14.0-5.0-0.0","88993","List1A","black","woman","","","","null","","","","","","","","",""
"1326.0999999642372","<img src=""portrait/WM2.jpg""style=""height:400px;""></img>","7","html-button-response","115","944244","0.0-14.0-7.0","88993","List1A","black","woman","","true","7","","","","","","","","","",""
"null","CORRECT","","html-keyboard-response","116","945769","0.0-14.0-8.0-0.0","88993","List1A","black","woman","","","","null","","","","","","","","",""
"2649.199999988079","<img src=""portrait/BW2.jpg""style=""height:400px;""></img>","2","html-button-response","117","948420","0.0-14.0-10.0","88993","List1A","black","woman","","true","2","","","","","","","","","",""
"null","CORRECT","","html-keyboard-response","118","949940","0.0-14.0-11.0-0.0","88993","List1A","black","woman","","","","null","","","","","","","","",""
"1905.7999999523163","<img src=""portrait/BM1.jpg""style=""height:400px;""></img>","4","html-button-response","119","951848","0.0-14.0-13.0","88993","List1A","black","woman","","true","4","","","","","","","","","",""
"null","CORRECT","","html-keyboard-response","120","953369","0.0-14.0-14.0-0.0","88993","List1A","black","woman","","","","null","","","","","","","","",""
"2323","<img src=""portrait/WM1.jpg""style=""height:400px;""></img>","6","html-button-response","121","955694","0.0-14.0-16.0","88993","List1A","black","woman","","true","6","","","","","","","","","",""
"null","CORRECT","","html-keyboard-response","122","957211","0.0-14.0-17.0-0.0","88993","List1A","black","woman","","","","null","","","","","","","","",""
"3148.699999988079","<img src=""portrait/BW1.jpg""style=""height:400px;""></img>","0","html-button-response","123","960362","0.0-14.0-19.0","88993","List1A","black","woman","","true","0","","","","","","","","","",""
"null","CORRECT","","html-keyboard-response","124","961865","0.0-14.0-20.0-0.0","88993","List1A","black","woman","","","","null","","","","","","","","",""
"1855.300000011921","<img src=""portrait/WW2.jpg""style=""height:400px;""></img>","3","html-button-response","125","963722","0.0-14.0-22.0","88993","List1A","black","woman","","true","3","","","","","","","","","",""
"null","CORRECT","","html-keyboard-response","126","965246","0.0-14.0-23.0-0.0","88993","List1A","black","woman","","","","null","","","","","","","","",""
"17731.299999952316","<p>You got 8 out of 8 right first time. Press Continue.</p>","0","html-button-response","127","982980","0.0-14.0-25.0","88993","List1A","black","woman","","","","","","","","","","","","",""
"null","<div style=""font-size:60px;"">+</div>","","html-keyboard-response","128","984493","0.0-15.0-0.0","88993","List1A","black","woman","","","","null","","","","","","","","",""
"null","<img src=""stim_listA/greet6.gif""style=""height:400px;""></stim_listA>","","html-keyboard-response","129","986500","0.0-15.0-1.0","88993","List1A","black","woman","","","","null","","","","","","","","",""
"null","is being greeted by","","html-keyboard-response","130","988508","0.0-15.0-2.0","88993","List1A","black","woman","","","","null","","","","","","","","",""
"7286.899999976158","","","survey-text","131","995798","0.0-15.0-3.0","88993","List1A","black","woman","","","","","{""Q0"":""dave is being greeted by fred""}","<img src=""stim_listA/greet6.gif""style=""height:400px;""></stim_listA>","is being greeted by","","","","","",""
"null","<div style=""font-size:60px;"">+</div>","","html-keyboard-response","132","996308","0.0-15.0-0.1","88993","List1A","black","woman","","","","null","","","","","","","","",""
"null","<img src=""stim_listA/touch4.gif""style=""height:400px;""></stim_listA>","","html-keyboard-response","133","998312","0.0-15.0-1.1","88993","List1A","black","woman","","","","null","","","","","","","","",""
"null","is being touched by","","html-keyboard-response","134","1000318","0.0-15.0-2.1","88993","List1A","black","woman","","","","null","","","","","","","","",""
"7077.100000023842","","","survey-text","135","1007397","0.0-15.0-3.1","88993","List1A","black","woman","","","","","{""Q0"":""ruth is being touched by luke""}","<img src=""stim_listA/touch4.gif""style=""height:400px;""></stim_listA>","is being touched by","","","","","",""
"null","<div style=""font-size:60px;"">+</div>","","html-keyboard-response","136","1007904","0.0-15.0-0.2","88993","List1A","black","woman","","","","null","","","","","","","","",""
"null","<img src=""stim_listA/look2.gif""style=""height:400px;""></stim_listA>","","html-keyboard-response","137","1009913","0.0-15.0-1.2","88993","List1A","black","woman","","","","null","","","","","","","","",""
"null","is being looked at by","","html-keyboard-response","138","1011924","0.0-15.0-2.2","88993","List1A","black","woman","","","","null","","","","","","","","",""
"7255","","","survey-text","139","1019182","0.0-15.0-3.2","88993","List1A","black","woman","","","","","{""Q0"":""mike is being looked at by kate""}","<img src=""stim_listA/look2.gif""style=""height:400px;""></stim_listA>","is being looked at by","","","","","",""
"null","<div style=""font-size:60px;"">+</div>","","html-keyboard-response","140","1019696","0.0-15.0-0.3","88993","List1A","black","woman","","","","null","","","","","","","","",""
"null","<img src=""stim_listA/hug4.gif""style=""height:400px;""></stim_listA>","","html-keyboard-response","141","1021698","0.0-15.0-1.3","88993","List1A","black","woman","","","","null","","","","","","","","",""
"null","is being hugged by","","html-keyboard-response","142","1023702","0.0-15.0-2.3","88993","List1A","black","woman","","","","null","","","","","","","","",""
"6404.899999976158","","","survey-text","143","1030109","0.0-15.0-3.3","88993","List1A","black","woman","","","","","{""Q0"":""jane is being hugged by jane""}","<img src=""stim_listA/hug4.gif""style=""height:400px;""></stim_listA>","is being hugged by","","","","","",""
"null","<div style=""font-size:60px;"">+</div>","","html-keyboard-response","144","1030619","0.0-15.0-0.4","88993","List1A","black","woman","","","","null","","","","","","","","",""
"null","<img src=""stim_listA/look4.gif""style=""height:400px;""></stim_listA>","","html-keyboard-response","145","1032628","0.0-15.0-1.4","88993","List1A","black","woman","","","","null","","","","","","","","",""
"null","is being looked at by","","html-keyboard-response","146","1034636","0.0-15.0-2.4","88993","List1A","black","woman","","","","null","","","","","","","","",""
"8494.699999988079","","","survey-text","147","1043134","0.0-15.0-3.4","88993","List1A","black","woman","","","","","{""Q0"":""jane is being looked at by dave""}","<img src=""stim_listA/look4.gif""style=""height:400px;""></stim_listA>","is being looked at by","","","","","",""
"null","<div style=""font-size:60px;"">+</div>","","html-keyboard-response","148","1043636","0.0-15.0-0.5","88993","List1A","black","woman","","","","null","","","","","","","","",""
"null","<img src=""stim_listA/challenge7.gif""style=""height:400px;""></stim_listA>","","html-keyboard-response","149","1045650","0.0-15.0-1.5","88993","List1A","black","woman","","","","null","","","","","","","","",""
"null","is challenging","","html-keyboard-response","150","1047664","0.0-15.0-2.5","88993","List1A","black","woman","","","","null","","","","","","","","",""
"8355.400000035763","","","survey-text","151","1056022","0.0-15.0-3.5","88993","List1A","black","woman","","","","","{""Q0"":""kate is challenging ruth""}","<img src=""stim_listA/challenge7.gif""style=""height:400px;""></stim_listA>","is challenging","","","","","",""
"null","<div style=""font-size:60px;"">+</div>","","html-keyboard-response","152","1056533","0.0-15.0-0.6","88993","List1A","black","woman","","","","null","","","","","","","","",""
"null","<img src=""stim_listA/touch7.gif""style=""height:400px;""></stim_listA>","","html-keyboard-response","153","1058534","0.0-15.0-1.6","88993","List1A","black","woman","","","","null","","","","","","","","",""
"null","is touching","","html-keyboard-response","154","1060536","0.0-15.0-2.6","88993","List1A","black","woman","","","","null","","","","","","","","",""
"4467.699999988079","","","survey-text","155","1065006","0.0-15.0-3.6","88993","List1A","black","woman","","","","","{""Q0"":""kate is touching jane""}","<img src=""stim_listA/touch7.gif""style=""height:400px;""></stim_listA>","is touching","","","","","",""
"null","<div style=""font-size:60px;"">+</div>","","html-keyboard-response","156","1065522","0.0-15.0-0.7","88993","List1A","black","woman","","","","null","","","","","","","","",""
"null","<img src=""stim_listA/copy1.gif""style=""height:400px;""></stim_listA>","","html-keyboard-response","157","1067525","0.0-15.0-1.7","88993","List1A","black","woman","","","","null","","","","","","","","",""
"null","is copying","","html-keyboard-response","158","1069533","0.0-15.0-2.7","88993","List1A","black","woman","","","","null","","","","","","","","",""
"5430.400000035763","","","survey-text","159","1074966","0.0-15.0-3.7","88993","List1A","black","woman","","","","","{""Q0"":""beth is copying mike""}","<img src=""stim_listA/copy1.gif""style=""height:400px;""></stim_listA>","is copying","","","","","",""
"null","<div style=""font-size:60px;"">+</div>","","html-keyboard-response","160","1075471","0.0-15.0-0.8","88993","List1A","black","woman","","","","null","","","","","","","","",""
"null","<img src=""stim_listA/kiss2.gif""style=""height:400px;""></stim_listA>","","html-keyboard-response","161","1077476","0.0-15.0-1.8","88993","List1A","black","woman","","","","null","","","","","","","","",""
"null","is being kissed by","","html-keyboard-response","162","1079492","0.0-15.0-2.8","88993","List1A","black","woman","","","","null","","","","","","","","",""
"5408.600000023842","","","survey-text","163","1084902","0.0-15.0-3.8","88993","List1A","black","woman","","","","","{""Q0"":""kate is being kissed by mike""}","<img src=""stim_listA/kiss2.gif""style=""height:400px;""></stim_listA>","is being kissed by","","","","","",""
"null","<div style=""font-size:60px;"">+</div>","","html-keyboard-response","164","1085408","0.0-15.0-0.9","88993","List1A","black","woman","","","","null","","","","","","","","",""
"null","<img src=""stim_listA/touch8.gif""style=""height:400px;""></stim_listA>","","html-keyboard-response","165","1087410","0.0-15.0-1.9","88993","List1A","black","woman","","","","null","","","","","","","","",""
"null","is being touched by","","html-keyboard-response","166","1089412","0.0-15.0-2.9","88993","List1A","black","woman","","","","null","","","","","","","","",""
"5343.200000047684","","","survey-text","167","1094758","0.0-15.0-3.9","88993","List1A","black","woman","","","","","{""Q0"":""ruth is being touched by beth""}","<img src=""stim_listA/touch8.gif""style=""height:400px;""></stim_listA>","is being touched by","","","","","",""
"null","<div style=""font-size:60px;"">+</div>","","html-keyboard-response","168","1095261","0.0-15.0-0.10","88993","List1A","black","woman","","","","null","","","","","","","","",""
"null","<img src=""stim_listA/copy8.gif""style=""height:400px;""></stim_listA>","","html-keyboard-response","169","1097273","0.0-15.0-1.10","88993","List1A","black","woman","","","","null","","","","","","","","",""
"null","is being copied by","","html-keyboard-response","170","1099282","0.0-15.0-2.10","88993","List1A","black","woman","","","","null","","","","","","","","",""
"5785","","","survey-text","171","1105070","0.0-15.0-3.10","88993","List1A","black","woman","","","","","{""Q0"":""jane is being copied by beth""}","<img src=""stim_listA/copy8.gif""style=""height:400px;""></stim_listA>","is being copied by","","","","","",""
"null","<div style=""font-size:60px;"">+</div>","","html-keyboard-response","172","1105577","0.0-15.0-0.11","88993","List1A","black","woman","","","","null","","","","","","","","",""
"null","<img src=""stim_listA/copy6.gif""style=""height:400px;""></stim_listA>","","html-keyboard-response","173","1107580","0.0-15.0-1.11","88993","List1A","black","woman","","","","null","","","","","","","","",""
"null","is being copied by","","html-keyboard-response","174","1109593","0.0-15.0-2.11","88993","List1A","black","woman","","","","null","","","","","","","","",""
"6050.399999976158","","","survey-text","175","1115646","0.0-15.0-3.11","88993","List1A","black","woman","","","","","{""Q0"":""dave is being copied by fred""}","<img src=""stim_listA/copy6.gif""style=""height:400px;""></stim_listA>","is being copied by","","","","","",""
"null","<div style=""font-size:60px;"">+</div>","","html-keyboard-response","176","1116150","0.0-15.0-0.12","88993","List1A","black","woman","","","","null","","","","","","","","",""
"null","<img src=""stim_listA/challenge8.gif""style=""height:400px;""></stim_listA>","","html-keyboard-response","177","1118152","0.0-15.0-1.12","88993","List1A","black","woman","","","","null","","","","","","","","",""
"null","is being challenged by","","html-keyboard-response","178","1120163","0.0-15.0-2.12","88993","List1A","black","woman","","","","null","","","","","","","","",""
"5439.899999976158","","","survey-text","179","1125606","0.0-15.0-3.12","88993","List1A","black","woman","","","","","{""Q0"":""jane is being challenged by beth""}","<img src=""stim_listA/challenge8.gif""style=""height:400px;""></stim_listA>","is being challenged by","","","","","",""
"null","<div style=""font-size:60px;"">+</div>","","html-keyboard-response","180","1126112","0.0-15.0-0.13","88993","List1A","black","woman","","","","null","","","","","","","","",""
"null","<img src=""stim_listA/shout3.gif""style=""height:400px;""></stim_listA>","","html-keyboard-response","181","1128114","0.0-15.0-1.13","88993","List1A","black","woman","","","","null","","","","","","","","",""
"null","is shouting at","","html-keyboard-response","182","1130126","0.0-15.0-2.13","88993","List1A","black","woman","","","","null","","","","","","","","",""
"7525.100000023842","","","survey-text","183","1137654","0.0-15.0-3.13","88993","List1A","black","woman","","","","","{""Q0"":""luke is shouting at ruth""}","<img src=""stim_listA/shout3.gif""style=""height:400px;""></stim_listA>","is shouting at","","","","","",""
"null","<div style=""font-size:60px;"">+</div>","","html-keyboard-response","184","1138162","0.0-15.0-0.14","88993","List1A","black","woman","","","","null","","","","","","","","",""
"null","<img src=""stim_listA/kiss6.gif""style=""height:400px;""></stim_listA>","","html-keyboard-response","185","1140164","0.0-15.0-1.14","88993","List1A","black","woman","","","","null","","","","","","","","",""
"null","is being kissed by","","html-keyboard-response","186","1142175","0.0-15.0-2.14","88993","List1A","black","woman","","","","null","","","","","","","","",""
"5621.399999976158","","","survey-text","187","1147798","0.0-15.0-3.14","88993","List1A","black","woman","","","","","{""Q0"":""dave is being kissed by mike""}","<img src=""stim_listA/kiss6.gif""style=""height:400px;""></stim_listA>","is being kissed by","","","","","",""
"null","<div style=""font-size:60px;"">+</div>","","html-keyboard-response","188","1148306","0.0-15.0-0.15","88993","List1A","black","woman","","","","null","","","","","","","","",""
"null","<img src=""stim_listA/oppose3.gif""style=""height:400px;""></stim_listA>","","html-keyboard-response","189","1150309","0.0-15.0-1.15","88993","List1A","black","woman","","","","null","","","","","","","","",""
"null","is opposing","","html-keyboard-response","190","1152325","0.0-15.0-2.15","88993","List1A","black","woman","","","","null","","","","","","","","",""
"4398.900000035763","","","survey-text","191","1156726","0.0-15.0-3.15","88993","List1A","black","woman","","","","","{""Q0"":""jane is opposing dave""}","<img src=""stim_listA/oppose3.gif""style=""height:400px;""></stim_listA>","is opposing","","","","","",""
"null","<div style=""font-size:60px;"">+</div>","","html-keyboard-response","192","1157243","0.0-15.0-0.16","88993","List1A","black","woman","","","","null","","","","","","","","",""
"null","<img src=""stim_listA/shout2.gif""style=""height:400px;""></stim_listA>","","html-keyboard-response","193","1159256","0.0-15.0-1.16","88993","List1A","black","woman","","","","null","","","","","","","","",""
"null","is being shouted at by","","html-keyboard-response","194","1161264","0.0-15.0-2.16","88993","List1A","black","woman","","","","null","","","","","","","","",""
"7772","","","survey-text","195","1169038","0.0-15.0-3.16","88993","List1A","black","woman","","","","","{""Q0"":""kate is being shouted at by mike""}","<img src=""stim_listA/shout2.gif""style=""height:400px;""></stim_listA>","is being shouted at by","","","","","",""
"null","<div style=""font-size:60px;"">+</div>","","html-keyboard-response","196","1169543","0.0-15.0-0.17","88993","List1A","black","woman","","","","null","","","","","","","","",""
"null","<img src=""stim_listA/kiss3.gif""style=""height:400px;""></stim_listA>","","html-keyboard-response","197","1171555","0.0-15.0-1.17","88993","List1A","black","woman","","","","null","","","","","","","","",""
"null","is kissing","","html-keyboard-response","198","1173565","0.0-15.0-2.17","88993","List1A","black","woman","","","","null","","","","","","","","",""
"6158.399999976158","","","survey-text","199","1179726","0.0-15.0-3.17","88993","List1A","black","woman","","","","","{""Q0"":""luke is kissing ruth""}","<img src=""stim_listA/kiss3.gif""style=""height:400px;""></stim_listA>","is kissing","","","","","",""
"null","<div style=""font-size:60px;"">+</div>","","html-keyboard-response","200","1180236","0.0-15.0-0.18","88993","List1A","black","woman","","","","null","","","","","","","","",""
"null","<img src=""stim_listA/copy2.gif""style=""height:400px;""></stim_listA>","","html-keyboard-response","201","1182238","0.0-15.0-1.18","88993","List1A","black","woman","","","","null","","","","","","","","",""
"null","is being copied by","","html-keyboard-response","202","1184251","0.0-15.0-2.18","88993","List1A","black","woman","","","","null","","","","","","","","",""
"11513.300000011921","","","survey-text","203","1195766","0.0-15.0-3.18","88993","List1A","black","woman","","","","","{""Q0"":""kate is being copied by fred""}","<img src=""stim_listA/copy2.gif""style=""height:400px;""></stim_listA>","is being copied by","","","","","",""
"null","<div style=""font-size:60px;"">+</div>","","html-keyboard-response","204","1196280","0.0-15.0-0.19","88993","List1A","black","woman","","","","null","","","","","","","","",""
"null","<img src=""stim_listA/shout1.gif""style=""height:400px;""></stim_listA>","","html-keyboard-response","205","1198283","0.0-15.0-1.19","88993","List1A","black","woman","","","","null","","","","","","","","",""
"null","is shouting at","","html-keyboard-response","206","1200292","0.0-15.0-2.19","88993","List1A","black","woman","","","","null","","","","","","","","",""
"9671.800000011921","","","survey-text","207","1209966","0.0-15.0-3.19","88993","List1A","black","woman","","","","","{""Q0"":""fred is shouting at beth""}","<img src=""stim_listA/shout1.gif""style=""height:400px;""></stim_listA>","is shouting at","","","","","",""
"8109.5","<img src='img/portrait_matrix_list1.jpg' style='width:900px;height:500px;''></img><p>If you have memorised all the portraits and names and are ready to start, press Continue.</p><p><strong>Please note: Your memory of these faces will be tested 4 times during this experiment.</strong></p>","0","html-button-response","208","1218078","0.0-16.0-0.0","88993","List1A","black","woman","","","","","","","","","","","","",""
"1747.2999999523163","<img src=""portrait/WM2.jpg""style=""height:400px;""></img>","7","html-button-response","209","1220838","0.0-16.0-1.0","88993","List1A","black","woman","","true","7","","","","","","","","","",""
"null","CORRECT","","html-keyboard-response","210","1222342","0.0-16.0-2.0-0.0","88993","List1A","black","woman","","","","null","","","","","","","","",""
"1632.6000000238419","<img src=""portrait/BM1.jpg""style=""height:400px;""></img>","4","html-button-response","211","1223976","0.0-16.0-4.0","88993","List1A","black","woman","","true","4","","","","","","","","","",""
"null","CORRECT","","html-keyboard-response","212","1225487","0.0-16.0-5.0-0.0","88993","List1A","black","woman","","","","null","","","","","","","","",""
"1790.4000000357628","<img src=""portrait/WW2.jpg""style=""height:400px;""></img>","3","html-button-response","213","1227279","0.0-16.0-7.0","88993","List1A","black","woman","","true","3","","","","","","","","","",""
"null","CORRECT","","html-keyboard-response","214","1228791","0.0-16.0-8.0-0.0","88993","List1A","black","woman","","","","null","","","","","","","","",""
"1763.699999988079","<img src=""portrait/BW1.jpg""style=""height:400px;""></img>","0","html-button-response","215","1230556","0.0-16.0-10.0","88993","List1A","black","woman","","true","0","","","","","","","","","",""
"null","CORRECT","","html-keyboard-response","216","1232058","0.0-16.0-11.0-0.0","88993","List1A","black","woman","","","","null","","","","","","","","",""
"2909.5","<img src=""portrait/BM2.jpg""style=""height:400px;""></img>","5","html-button-response","217","1234972","0.0-16.0-13.0","88993","List1A","black","woman","","true","5","","","","","","","","","",""
"null","CORRECT","","html-keyboard-response","218","1236479","0.0-16.0-14.0-0.0","88993","List1A","black","woman","","","","null","","","","","","","","",""
"2277","<img src=""portrait/BW2.jpg""style=""height:400px;""></img>","2","html-button-response","219","1238758","0.0-16.0-16.0","88993","List1A","black","woman","","true","2","","","","","","","","","",""
"null","CORRECT","","html-keyboard-response","220","1240260","0.0-16.0-17.0-0.0","88993","List1A","black","woman","","","","null","","","","","","","","",""
"2989.599999964237","<img src=""portrait/WM1.jpg""style=""height:400px;""></img>","6","html-button-response","221","1243252","0.0-16.0-19.0","88993","List1A","black","woman","","true","6","","","","","","","","","",""
"null","CORRECT","","html-keyboard-response","222","1244769","0.0-16.0-20.0-0.0","88993","List1A","black","woman","","","","null","","","","","","","","",""
"2187","<img src=""portrait/WW1.jpg""style=""height:400px;""></img>","1","html-button-response","223","1246958","0.0-16.0-22.0","88993","List1A","black","woman","","true","1","","","","","","","","","",""
"null","CORRECT","","html-keyboard-response","224","1248460","0.0-16.0-23.0-0.0","88993","List1A","black","woman","","","","null","","","","","","","","",""
"20408","<p>You got 8 out of 8 right first time. Press Continue.</p>","0","html-button-response","225","1268870","0.0-16.0-25.0","88993","List1A","black","woman","","","","","","","","","","","","",""
"null","<div style=""font-size:60px;"">+</div>","","html-keyboard-response","226","1270373","0.0-17.0-0.0","88993","List1A","black","woman","","","","null","","","","","","","","",""
"null","<img src=""stim_listA/greet2.gif""style=""height:400px;""></stim_listA>","","html-keyboard-response","227","1272379","0.0-17.0-1.0","88993","List1A","black","woman","","","","null","","","","","","","","",""
"null","is being greeted by","","html-keyboard-response","228","1274393","0.0-17.0-2.0","88993","List1A","black","woman","","","","null","","","","","","","","",""
"7114.699999988079","","","survey-text","229","1281510","0.0-17.0-3.0","88993","List1A","black","woman","","","","","{""Q0"":""kate is being greeted by fred""}","<img src=""stim_listA/greet2.gif""style=""height:400px;""></stim_listA>","is being greeted by","","","","","",""
"null","<div style=""font-size:60px;"">+</div>","","html-keyboard-response","230","1282012","0.0-17.0-0.1","88993","List1A","black","woman","","","","null","","","","","","","","",""
"null","<img src=""stim_listA/challenge2.gif""style=""height:400px;""></stim_listA>","","html-keyboard-response","231","1284015","0.0-17.0-1.1","88993","List1A","black","woman","","","","null","","","","","","","","",""
"null","is being challenged by","","html-keyboard-response","232","1286021","0.0-17.0-2.1","88993","List1A","black","woman","","","","null","","","","","","","","",""
"5974.100000023842","","","survey-text","233","1291998","0.0-17.0-3.1","88993","List1A","black","woman","","","","","{""Q0"":""kate is being challenged by fred""}","<img src=""stim_listA/challenge2.gif""style=""height:400px;""></stim_listA>","is being challenged by","","","","","",""
"null","<div style=""font-size:60px;"">+</div>","","html-keyboard-response","234","1292502","0.0-17.0-0.2","88993","List1A","black","woman","","","","null","","","","","","","","",""
"null","<img src=""stim_listA/copy7.gif""style=""height:400px;""></stim_listA>","","html-keyboard-response","235","1294514","0.0-17.0-1.2","88993","List1A","black","woman","","","","null","","","","","","","","",""
"null","is copying","","html-keyboard-response","236","1296523","0.0-17.0-2.2","88993","List1A","black","woman","","","","null","","","","","","","","",""
"5056.800000011921","","","survey-text","237","1301582","0.0-17.0-3.2","88993","List1A","black","woman","","","","","{""Q0"":""kate is copying ruth""}","<img src=""stim_listA/copy7.gif""style=""height:400px;""></stim_listA>","is copying","","","","","",""
"null","<div style=""font-size:60px;"">+</div>","","html-keyboard-response","238","1302094","0.0-17.0-0.3","88993","List1A","black","woman","","","","null","","","","","","","","",""
"null","<img src=""stim_listA/hug2.gif""style=""height:400px;""></stim_listA>","","html-keyboard-response","239","1304096","0.0-17.0-1.3","88993","List1A","black","woman","","","","null","","","","","","","","",""
"null","is being hugged by","","html-keyboard-response","240","1306108","0.0-17.0-2.3","88993","List1A","black","woman","","","","null","","","","","","","","",""
"6159.300000011921","","","survey-text","241","1312270","0.0-17.0-3.3","88993","List1A","black","woman","","","","","{""Q0"":""kate is being hugged by mike""}","<img src=""stim_listA/hug2.gif""style=""height:400px;""></stim_listA>","is being hugged by","","","","","",""
"null","<div style=""font-size:60px;"">+</div>","","html-keyboard-response","242","1312781","0.0-17.0-0.4","88993","List1A","black","woman","","","","null","","","","","","","","",""
"null","<img src=""stim_listA/oppose1.gif""style=""height:400px;""></stim_listA>","","html-keyboard-response","243","1314786","0.0-17.0-1.4","88993","List1A","black","woman","","","","null","","","","","","","","",""
"null","is opposing","","html-keyboard-response","244","1316792","0.0-17.0-2.4","88993","List1A","black","woman","","","","null","","","","","","","","",""
"4763.5","","","survey-text","245","1321558","0.0-17.0-3.4","88993","List1A","black","woman","","","","","{""Q0"":""kate is opposing mike""}","<img src=""stim_listA/oppose1.gif""style=""height:400px;""></stim_listA>","is opposing","","","","","",""
"null","<div style=""font-size:60px;"">+</div>","","html-keyboard-response","246","1322067","0.0-17.0-0.5","88993","List1A","black","woman","","","","null","","","","","","","","",""
"null","<img src=""stim_listA/greet7.gif""style=""height:400px;""></stim_listA>","","html-keyboard-response","247","1324082","0.0-17.0-1.5","88993","List1A","black","woman","","","","null","","","","","","","","",""
"null","is greeting","","html-keyboard-response","248","1326086","0.0-17.0-2.5","88993","List1A","black","woman","","","","null","","","","","","","","",""
"3869.800000011921","","","survey-text","249","1329958","0.0-17.0-3.5","88993","List1A","black","woman","","","","","{""Q0"":""kate is greeting ruth""}","<img src=""stim_listA/greet7.gif""style=""height:400px;""></stim_listA>","is greeting","","","","","",""
"null","<div style=""font-size:60px;"">+</div>","","html-keyboard-response","250","1330469","0.0-17.0-0.6","88993","List1A","black","woman","","","","null","","","","","","","","",""
"null","<img src=""stim_listA/kiss7.gif""style=""height:400px;""></stim_listA>","","html-keyboard-response","251","1332475","0.0-17.0-1.6","88993","List1A","black","woman","","","","null","","","","","","","","",""
"null","is kissing","","html-keyboard-response","252","1334480","0.0-17.0-2.6","88993","List1A","black","woman","","","","null","","","","","","","","",""
"4307.5","","","survey-text","253","1338790","0.0-17.0-3.6","88993","List1A","black","woman","","","","","{""Q0"":""ruth is kissing beth""}","<img src=""stim_listA/kiss7.gif""style=""height:400px;""></stim_listA>","is kissing","","","","","",""
"null","<div style=""font-size:60px;"">+</div>","","html-keyboard-response","254","1339293","0.0-17.0-0.7","88993","List1A","black","woman","","","","null","","","","","","","","",""
"null","<img src=""stim_listA/challenge3.gif""style=""height:400px;""></stim_listA>","","html-keyboard-response","255","1341304","0.0-17.0-1.7","88993","List1A","black","woman","","","","null","","","","","","","","",""
"null","is challenging","","html-keyboard-response","256","1343310","0.0-17.0-2.7","88993","List1A","black","woman","","","","null","","","","","","","","",""
"8133.5","","","survey-text","257","1351446","0.0-17.0-3.7","88993","List1A","black","woman","","","","","{""Q0"":""dave is challenging ruth""}","<img src=""stim_listA/challenge3.gif""style=""height:400px;""></stim_listA>","is challenging","","","","","",""
"null","<div style=""font-size:60px;"">+</div>","","html-keyboard-response","258","1351957","0.0-17.0-0.8","88993","List1A","black","woman","","","","null","","","","","","","","",""
"null","<img src=""stim_listA/oppose4.gif""style=""height:400px;""></stim_listA>","","html-keyboard-response","259","1353972","0.0-17.0-1.8","88993","List1A","black","woman","","","","null","","","","","","","","",""
"null","is being opposed by","","html-keyboard-response","260","1355977","0.0-17.0-2.8","88993","List1A","black","woman","","","","null","","","","","","","","",""
"5522.599999964237","","","survey-text","261","1361502","0.0-17.0-3.8","88993","List1A","black","woman","","","","","{""Q0"":""ruth is being opposed by luke""}","<img src=""stim_listA/oppose4.gif""style=""height:400px;""></stim_listA>","is being opposed by","","","","","",""
"null","<div style=""font-size:60px;"">+</div>","","html-keyboard-response","262","1362010","0.0-17.0-0.9","88993","List1A","black","woman","","","","null","","","","","","","","",""
"null","<img src=""stim_listA/touch1.gif""style=""height:400px;""></stim_listA>","","html-keyboard-response","263","1364023","0.0-17.0-1.9","88993","List1A","black","woman","","","","null","","","","","","","","",""
"null","is touching","","html-keyboard-response","264","1366024","0.0-17.0-2.9","88993","List1A","black","woman","","","","null","","","","","","","","",""
"6267.199999988079","","","survey-text","265","1372294","0.0-17.0-3.9","88993","List1A","black","woman","","","","","{""Q0"":""kate is touching mike""}","<img src=""stim_listA/touch1.gif""style=""height:400px;""></stim_listA>","is touching","","","","","",""
"null","<div style=""font-size:60px;"">+</div>","","html-keyboard-response","266","1372808","0.0-17.0-0.10","88993","List1A","black","woman","","","","null","","","","","","","","",""
"null","<img src=""stim_listA/touch3.gif""style=""height:400px;""></stim_listA>","","html-keyboard-response","267","1374819","0.0-17.0-1.10","88993","List1A","black","woman","","","","null","","","","","","","","",""
"null","is touching","","html-keyboard-response","268","1376827","0.0-17.0-2.10","88993","List1A","black","woman","","","","null","","","","","","","","",""
"5000.399999976158","","","survey-text","269","1381830","0.0-17.0-3.10","88993","List1A","black","woman","","","","","{""Q0"":""dave is touching jane""}","<img src=""stim_listA/touch3.gif""style=""height:400px;""></stim_listA>","is touching","","","","","",""
"null","<div style=""font-size:60px;"">+</div>","","html-keyboard-response","270","1382339","0.0-17.0-0.11","88993","List1A","black","woman","","","","null","","","","","","","","",""
"null","<img src=""stim_listA/oppose7.gif""style=""height:400px;""></stim_listA>","","html-keyboard-response","271","1384341","0.0-17.0-1.11","88993","List1A","black","woman","","","","null","","","","","","","","",""
"null","is opposing","","html-keyboard-response","272","1386357","0.0-17.0-2.11","88993","List1A","black","woman","","","","null","","","","","","","","",""
"4495.200000047684","","","survey-text","273","1390854","0.0-17.0-3.11","88993","List1A","black","woman","","","","","{""Q0"":""kate is opposing jane""}","<img src=""stim_listA/oppose7.gif""style=""height:400px;""></stim_listA>","is opposing","","","","","",""
"null","<div style=""font-size:60px;"">+</div>","","html-keyboard-response","274","1391356","0.0-17.0-0.12","88993","List1A","black","woman","","","","null","","","","","","","","",""
"null","<img src=""stim_listA/seduce2.gif""style=""height:400px;""></stim_listA>","","html-keyboard-response","275","1393358","0.0-17.0-1.12","88993","List1A","black","woman","","","","null","","","","","","","","",""
"null","is being seduced by","","html-keyboard-response","276","1395365","0.0-17.0-2.12","88993","List1A","black","woman","","","","null","","","","","","","","",""
"8455.100000023842","","","survey-text","277","1403822","0.0-17.0-3.12","88993","List1A","black","woman","","","","","{""Q0"":""beth is being seduced by mike""}","<img src=""stim_listA/seduce2.gif""style=""height:400px;""></stim_listA>","is being seduced by","","","","","",""
"null","<div style=""font-size:60px;"">+</div>","","html-keyboard-response","278","1404334","0.0-17.0-0.13","88993","List1A","black","woman","","","","null","","","","","","","","",""
"null","<img src=""stim_listA/seduce7.gif""style=""height:400px;""></stim_listA>","","html-keyboard-response","279","1406335","0.0-17.0-1.13","88993","List1A","black","woman","","","","null","","","","","","","","",""
"null","is seducing","","html-keyboard-response","280","1408341","0.0-17.0-2.13","88993","List1A","black","woman","","","","null","","","","","","","","",""
"5541.600000023842","","","survey-text","281","1413886","0.0-17.0-3.13","88993","List1A","black","woman","","","","","{""Q0"":""beth is seducing jane""}","<img src=""stim_listA/seduce7.gif""style=""height:400px;""></stim_listA>","is seducing","","","","","",""
"null","<div style=""font-size:60px;"">+</div>","","html-keyboard-response","282","1414393","0.0-17.0-0.14","88993","List1A","black","woman","","","","null","","","","","","","","",""
"null","<img src=""stim_listA/greet8.gif""style=""height:400px;""></stim_listA>","","html-keyboard-response","283","1416396","0.0-17.0-1.14","88993","List1A","black","woman","","","","null","","","","","","","","",""
"null","is being greeted by","","html-keyboard-response","284","1418400","0.0-17.0-2.14","88993","List1A","black","woman","","","","null","","","","","","","","",""
"10138.200000047684","","","survey-text","285","1428542","0.0-17.0-3.14","88993","List1A","black","woman","","","","","{""Q0"":""beth is being greeted by jane""}","<img src=""stim_listA/greet8.gif""style=""height:400px;""></stim_listA>","is being greeted by","","","","","",""
"null","<div style=""font-size:60px;"">+</div>","","html-keyboard-response","286","1429045","0.0-17.0-0.15","88993","List1A","black","woman","","","","null","","","","","","","","",""
"null","<img src=""stim_listA/greet4.gif""style=""height:400px;""></stim_listA>","","html-keyboard-response","287","1431057","0.0-17.0-1.15","88993","List1A","black","woman","","","","null","","","","","","","","",""
"null","is being greeted by","","html-keyboard-response","288","1433067","0.0-17.0-2.15","88993","List1A","black","woman","","","","null","","","","","","","","",""
"7193.800000011921","","","survey-text","289","1440264","0.0-17.0-3.15","88993","List1A","black","woman","","","","","{""Q0"":""jane is being greeted by luke""}","<img src=""stim_listA/greet4.gif""style=""height:400px;""></stim_listA>","is being greeted by","","","","","",""
"null","<div style=""font-size:60px;"">+</div>","","html-keyboard-response","290","1440772","0.0-17.0-0.16","88993","List1A","black","woman","","","","null","","","","","","","","",""
"null","<img src=""stim_listA/look1.gif""style=""height:400px;""></stim_listA>","","html-keyboard-response","291","1442774","0.0-17.0-1.16","88993","List1A","black","woman","","","","null","","","","","","","","",""
"null","is looking at","","html-keyboard-response","292","1444776","0.0-17.0-2.16","88993","List1A","black","woman","","","","null","","","","","","","","",""
"4242.800000011921","","","survey-text","293","1449021","0.0-17.0-3.16","88993","List1A","black","woman","","","","","{""Q0"":""fred is looking at beth""}","<img src=""stim_listA/look1.gif""style=""height:400px;""></stim_listA>","is looking at","","","","","",""
"null","<div style=""font-size:60px;"">+</div>","","html-keyboard-response","294","1449527","0.0-17.0-0.17","88993","List1A","black","woman","","","","null","","","","","","","","",""
"null","<img src=""stim_listA/touch6.gif""style=""height:400px;""></stim_listA>","","html-keyboard-response","295","1451543","0.0-17.0-1.17","88993","List1A","black","woman","","","","null","","","","","","","","",""
"null","is being touched by","","html-keyboard-response","296","1453558","0.0-17.0-2.17","88993","List1A","black","woman","","","","null","","","","","","","","",""
"8205.099999964237","","","survey-text","297","1461766","0.0-17.0-3.17","88993","List1A","black","woman","","","","","{""Q0"":""fred is being touched by luke""}","<img src=""stim_listA/touch6.gif""style=""height:400px;""></stim_listA>","is being touched by","","","","","",""
"null","<div style=""font-size:60px;"">+</div>","","html-keyboard-response","298","1462274","0.0-17.0-0.18","88993","List1A","black","woman","","","","null","","","","","","","","",""
"null","<img src=""stim_listA/look3.gif""style=""height:400px;""></stim_listA>","","html-keyboard-response","299","1464277","0.0-17.0-1.18","88993","List1A","black","woman","","","","null","","","","","","","","",""
"null","is looking at","","html-keyboard-response","300","1466290","0.0-17.0-2.18","88993","List1A","black","woman","","","","null","","","","","","","","",""
"4865.099999964237","","","survey-text","301","1471158","0.0-17.0-3.18","88993","List1A","black","woman","","","","","{""Q0"":""ruth is looking at luke""}","<img src=""stim_listA/look3.gif""style=""height:400px;""></stim_listA>","is looking at","","","","","",""
"null","<div style=""font-size:60px;"">+</div>","","html-keyboard-response","302","1471667","0.0-17.0-0.19","88993","List1A","black","woman","","","","null","","","","","","","","",""
"null","<img src=""stim_listA/oppose6.gif""style=""height:400px;""></stim_listA>","","html-keyboard-response","303","1473675","0.0-17.0-1.19","88993","List1A","black","woman","","","","null","","","","","","","","",""
"null","is being opposed by","","html-keyboard-response","304","1475683","0.0-17.0-2.19","88993","List1A","black","woman","","","","null","","","","","","","","",""
"5256.199999988079","","","survey-text","305","1480942","0.0-17.0-3.19","88993","List1A","black","woman","","","","","{""Q0"":""fred is being opposed by luke""}","<img src=""stim_listA/oppose6.gif""style=""height:400px;""></stim_listA>","is being opposed by","","","","","",""
"3627.5","<img src='img/portrait_matrix_list1.jpg' style='width:900px;height:500px;''></img><p>If you have memorised all the portraits and names and are ready to start, press Continue.</p><p><strong>Please note: Your memory of these faces will be tested 4 times during this experiment.</strong></p>","0","html-button-response","306","1484572","0.0-18.0-0.0","88993","List1A","black","woman","","","","","","","","","","","","",""
"5900.600000023842","<img src=""portrait/WM2.jpg""style=""height:400px;""></img>","7","html-button-response","307","1491474","0.0-18.0-1.0","88993","List1A","black","woman","","true","7","","","","","","","","","",""
"null","CORRECT","","html-keyboard-response","308","1492986","0.0-18.0-2.0-0.0","88993","List1A","black","woman","","","","null","","","","","","","","",""
"2698.899999976158","<img src=""portrait/BM2.jpg""style=""height:400px;""></img>","5","html-button-response","309","1495686","0.0-18.0-4.0","88993","List1A","black","woman","","true","5","","","","","","","","","",""
"null","CORRECT","","html-keyboard-response","310","1497199","0.0-18.0-5.0-0.0","88993","List1A","black","woman","","","","null","","","","","","","","",""
"1707.0999999642372","<img src=""portrait/BW1.jpg""style=""height:400px;""></img>","0","html-button-response","311","1498908","0.0-18.0-7.0","88993","List1A","black","woman","","true","0","","","","","","","","","",""
"null","CORRECT","","html-keyboard-response","312","1500410","0.0-18.0-8.0-0.0","88993","List1A","black","woman","","","","null","","","","","","","","",""
"1488","<img src=""portrait/BM1.jpg""style=""height:400px;""></img>","4","html-button-response","313","1501900","0.0-18.0-10.0","88993","List1A","black","woman","","true","4","","","","","","","","","",""
"null","CORRECT","","html-keyboard-response","314","1503408","0.0-18.0-11.0-0.0","88993","List1A","black","woman","","","","null","","","","","","","","",""
"1889","<img src=""portrait/WW1.jpg""style=""height:400px;""></img>","1","html-button-response","315","1505298","0.0-18.0-13.0","88993","List1A","black","woman","","true","1","","","","","","","","","",""
"null","CORRECT","","html-keyboard-response","316","1506813","0.0-18.0-14.0-0.0","88993","List1A","black","woman","","","","null","","","","","","","","",""
"1815.3999999761581","<img src=""portrait/WM1.jpg""style=""height:400px;""></img>","6","html-button-response","317","1508630","0.0-18.0-16.0","88993","List1A","black","woman","","true","6","","","","","","","","","",""
"null","CORRECT","","html-keyboard-response","318","1510157","0.0-18.0-17.0-0.0","88993","List1A","black","woman","","","","null","","","","","","","","",""
"2833.399999976158","<img src=""portrait/BW2.jpg""style=""height:400px;""></img>","2","html-button-response","319","1512993","0.0-18.0-19.0","88993","List1A","black","woman","","true","2","","","","","","","","","",""
"null","CORRECT","","html-keyboard-response","320","1514510","0.0-18.0-20.0-0.0","88993","List1A","black","woman","","","","null","","","","","","","","",""
"1888","<img src=""portrait/WW2.jpg""style=""height:400px;""></img>","3","html-button-response","321","1516400","0.0-18.0-22.0","88993","List1A","black","woman","","true","3","","","","","","","","","",""
"null","CORRECT","","html-keyboard-response","322","1517916","0.0-18.0-23.0-0.0","88993","List1A","black","woman","","","","null","","","","","","","","",""
"1647.699999988079","<p>You got 8 out of 8 right first time. Press Continue.</p>","0","html-button-response","323","1519565","0.0-18.0-25.0","88993","List1A","black","woman","","","","","","","","","","","","",""
"null","<div style=""font-size:60px;"">+</div>","","html-keyboard-response","324","1521077","0.0-19.0-0.0","88993","List1A","black","woman","","","","null","","","","","","","","",""
"null","<img src=""stim_listA/look5.gif""style=""height:400px;""></stim_listA>","","html-keyboard-response","325","1523079","0.0-19.0-1.0","88993","List1A","black","woman","","","","null","","","","","","","","",""
"null","is looking at","","html-keyboard-response","326","1525084","0.0-19.0-2.0","88993","List1A","black","woman","","","","null","","","","","","","","",""
"7751.699999988079","","","survey-text","327","1532838","0.0-19.0-3.0","88993","List1A","black","woman","","","","","{""Q0"":""fred is looking at luke""}","<img src=""stim_listA/look5.gif""style=""height:400px;""></stim_listA>","is looking at","","","","","",""
"null","<div style=""font-size:60px;"">+</div>","","html-keyboard-response","328","1533353","0.0-19.0-0.1","88993","List1A","black","woman","","","","null","","","","","","","","",""
"null","<img src=""stim_listA/touch5.gif""style=""height:400px;""></stim_listA>","","html-keyboard-response","329","1535355","0.0-19.0-1.1","88993","List1A","black","woman","","","","null","","","","","","","","",""
"null","is touching","","html-keyboard-response","330","1537357","0.0-19.0-2.1","88993","List1A","black","woman","","","","null","","","","","","","","",""
"5623.199999988079","","","survey-text","331","1542982","0.0-19.0-3.1","88993","List1A","black","woman","","","","","{""Q0"":""dave is touching mike""}","<img src=""stim_listA/touch5.gif""style=""height:400px;""></stim_listA>","is touching","","","","","",""
"null","<div style=""font-size:60px;"">+</div>","","html-keyboard-response","332","1543488","0.0-19.0-0.2","88993","List1A","black","woman","","","","null","","","","","","","","",""
"null","<img src=""stim_listA/kiss1.gif""style=""height:400px;""></stim_listA>","","html-keyboard-response","333","1545493","0.0-19.0-1.2","88993","List1A","black","woman","","","","null","","","","","","","","",""
"null","is kissing","","html-keyboard-response","334","1547507","0.0-19.0-2.2","88993","List1A","black","woman","","","","null","","","","","","","","",""
"4736.300000011921","","","survey-text","335","1552246","0.0-19.0-3.2","88993","List1A","black","woman","","","","","{""Q0"":""fred is kissing beth""}","<img src=""stim_listA/kiss1.gif""style=""height:400px;""></stim_listA>","is kissing","","","","","",""
"null","<div style=""font-size:60px;"">+</div>","","html-keyboard-response","336","1552761","0.0-19.0-0.3","88993","List1A","black","woman","","","","null","","","","","","","","",""
"null","<img src=""stim_listA/seduce6.gif""style=""height:400px;""></stim_listA>","","html-keyboard-response","337","1554778","0.0-19.0-1.3","88993","List1A","black","woman","","","","null","","","","","","","","",""
"null","is being seduced by","","html-keyboard-response","338","1556789","0.0-19.0-2.3","88993","List1A","black","woman","","","","null","","","","","","","","",""
"5933.900000035763","","","survey-text","339","1562726","0.0-19.0-3.3","88993","List1A","black","woman","","","","","{""Q0"":""luke is being seduced by mike""}","<img src=""stim_listA/seduce6.gif""style=""height:400px;""></stim_listA>","is being seduced by","","","","","",""
"null","<div style=""font-size:60px;"">+</div>","","html-keyboard-response","340","1563232","0.0-19.0-0.4","88993","List1A","black","woman","","","","null","","","","","","","","",""
"null","<img src=""stim_listA/oppose2.gif""style=""height:400px;""></stim_listA>","","html-keyboard-response","341","1565248","0.0-19.0-1.4","88993","List1A","black","woman","","","","null","","","","","","","","",""
"null","is being opposed by","","html-keyboard-response","342","1567256","0.0-19.0-2.4","88993","List1A","black","woman","","","","null","","","","","","","","",""
"7235.899999976158","","","survey-text","343","1574494","0.0-19.0-3.4","88993","List1A","black","woman","","","","","{""Q0"":""fred is being opposed by beth""}","<img src=""stim_listA/oppose2.gif""style=""height:400px;""></stim_listA>","is being opposed by","","","","","",""
"null","<div style=""font-size:60px;"">+</div>","","html-keyboard-response","344","1575010","0.0-19.0-0.5","88993","List1A","black","woman","","","","null","","","","","","","","",""
"null","<img src=""stim_listA/seduce4.gif""style=""height:400px;""></stim_listA>","","html-keyboard-response","345","1577013","0.0-19.0-1.5","88993","List1A","black","woman","","","","null","","","","","","","","",""
"null","is being seduced by","","html-keyboard-response","346","1579019","0.0-19.0-2.5","88993","List1A","black","woman","","","","null","","","","","","","","",""
"6288.5","","","survey-text","347","1585310","0.0-19.0-3.5","88993","List1A","black","woman","","","","","{""Q0"":""dave is being seduced by ruth""}","<img src=""stim_listA/seduce4.gif""style=""height:400px;""></stim_listA>","is being seduced by","","","","","",""
"null","<div style=""font-size:60px;"">+</div>","","html-keyboard-response","348","1585815","0.0-19.0-0.6","88993","List1A","black","woman","","","","null","","","","","","","","",""
"null","<img src=""stim_listA/shout7.gif""style=""height:400px;""></stim_listA>","","html-keyboard-response","349","1587817","0.0-19.0-1.6","88993","List1A","black","woman","","","","null","","","","","","","","",""
"null","is shouting at","","html-keyboard-response","350","1589825","0.0-19.0-2.6","88993","List1A","black","woman","","","","null","","","","","","","","",""
"4411.199999988079","","","survey-text","351","1594238","0.0-19.0-3.6","88993","List1A","black","woman","","","","","{""Q0"":""ruth is shouting at beth""}","<img src=""stim_listA/shout7.gif""style=""height:400px;""></stim_listA>","is shouting at","","","","","",""
"null","<div style=""font-size:60px;"">+</div>","","html-keyboard-response","352","1594750","0.0-19.0-0.7","88993","List1A","black","woman","","","","null","","","","","","","","",""
"null","<img src=""stim_listA/hug1.gif""style=""height:400px;""></stim_listA>","","html-keyboard-response","353","1596752","0.0-19.0-1.7","88993","List1A","black","woman","","","","null","","","","","","","","",""
"null","is hugging","","html-keyboard-response","354","1598757","0.0-19.0-2.7","88993","List1A","black","woman","","","","null","","","","","","","","",""
"5702.599999964237","","","survey-text","355","1604462","0.0-19.0-3.7","88993","List1A","black","woman","","","","","{""Q0"":""fred is hugging beth""}","<img src=""stim_listA/hug1.gif""style=""height:400px;""></stim_listA>","is hugging","","","","","",""
"null","<div style=""font-size:60px;"">+</div>","","html-keyboard-response","356","1604977","0.0-19.0-0.8","88993","List1A","black","woman","","","","null","","","","","","","","",""
"null","<img src=""stim_listA/seduce5.gif""style=""height:400px;""></stim_listA>","","html-keyboard-response","357","1606994","0.0-19.0-1.8","88993","List1A","black","woman","","","","null","","","","","","","","",""
"null","is seducing","","html-keyboard-response","358","1609009","0.0-19.0-2.8","88993","List1A","black","woman","","","","null","","","","","","","","",""
"11155.100000023842","","","survey-text","359","1620166","0.0-19.0-3.8","88993","List1A","black","woman","","","","","{""Q0"":""fred is seducing dave""}","<img src=""stim_listA/seduce5.gif""style=""height:400px;""></stim_listA>","is seducing","","","","","",""
"null","<div style=""font-size:60px;"">+</div>","","html-keyboard-response","360","1620677","0.0-19.0-0.9","88993","List1A","black","woman","","","","null","","","","","","","","",""
"null","<img src=""stim_listA/challenge1.gif""style=""height:400px;""></stim_listA>","","html-keyboard-response","361","1622679","0.0-19.0-1.9","88993","List1A","black","woman","","","","null","","","","","","","","",""
"null","is challenging","","html-keyboard-response","362","1624681","0.0-19.0-2.9","88993","List1A","black","woman","","","","null","","","","","","","","",""
"4682.300000011921","","","survey-text","363","1629366","0.0-19.0-3.9","88993","List1A","black","woman","","","","","{""Q0"":""beth is challenging mike""}","<img src=""stim_listA/challenge1.gif""style=""height:400px;""></stim_listA>","is challenging","","","","","",""
"null","<div style=""font-size:60px;"">+</div>","","html-keyboard-response","364","1629883","0.0-19.0-0.10","88993","List1A","black","woman","","","","null","","","","","","","","",""
"null","<img src=""stim_listA/copy3.gif""style=""height:400px;""></stim_listA>","","html-keyboard-response","365","1631889","0.0-19.0-1.10","88993","List1A","black","woman","","","","null","","","","","","","","",""
"null","is copying","","html-keyboard-response","366","1633903","0.0-19.0-2.10","88993","List1A","black","woman","","","","null","","","","","","","","",""
"4404.400000035763","","","survey-text","367","1638310","0.0-19.0-3.10","88993","List1A","black","woman","","","","","{""Q0"":""dave is copying ruth""}","<img src=""stim_listA/copy3.gif""style=""height:400px;""></stim_listA>","is copying","","","","","",""
"null","<div style=""font-size:60px;"">+</div>","","html-keyboard-response","368","1638814","0.0-19.0-0.11","88993","List1A","black","woman","","","","null","","","","","","","","",""
"null","<img src=""stim_listA/challenge4.gif""style=""height:400px;""></stim_listA>","","html-keyboard-response","369","1640824","0.0-19.0-1.11","88993","List1A","black","woman","","","","null","","","","","","","","",""
"null","is being challenged by","","html-keyboard-response","370","1642834","0.0-19.0-2.11","88993","List1A","black","woman","","","","null","","","","","","","","",""
"5681.399999976158","","","survey-text","371","1648518","0.0-19.0-3.11","88993","List1A","black","woman","","","","","{""Q0"":""jane is being challenged by luke""}","<img src=""stim_listA/challenge4.gif""style=""height:400px;""></stim_listA>","is being challenged by","","","","","",""
"null","<div style=""font-size:60px;"">+</div>","","html-keyboard-response","372","1649034","0.0-19.0-0.12","88993","List1A","black","woman","","","","null","","","","","","","","",""
"null","<img src=""stim_listA/hug8.gif""style=""height:400px;""></stim_listA>","","html-keyboard-response","373","1651040","0.0-19.0-1.12","88993","List1A","black","woman","","","","null","","","","","","","","",""
"null","is being hugged by","","html-keyboard-response","374","1653044","0.0-19.0-2.12","88993","List1A","black","woman","","","","null","","","","","","","","",""
"8959.800000011921","","","survey-text","375","1662006","0.0-19.0-3.12","88993","List1A","black","woman","","","","","{""Q0"":""kate is being hugged by jane""}","<img src=""stim_listA/hug8.gif""style=""height:400px;""></stim_listA>","is being hugged by","","","","","",""
"null","<div style=""font-size:60px;"">+</div>","","html-keyboard-response","376","1662512","0.0-19.0-0.13","88993","List1A","black","woman","","","","null","","","","","","","","",""
"null","<img src=""stim_listA/shout4.gif""style=""height:400px;""></stim_listA>","","html-keyboard-response","377","1664517","0.0-19.0-1.13","88993","List1A","black","woman","","","","null","","","","","","","","",""
"null","is being shouted at by","","html-keyboard-response","378","1666522","0.0-19.0-2.13","88993","List1A","black","woman","","","","null","","","","","","","","",""
"8457.699999988079","","","survey-text","379","1674982","0.0-19.0-3.13","88993","List1A","black","woman","","","","","{""Q0"":""dave is being shouted at by jane""}","<img src=""stim_listA/shout4.gif""style=""height:400px;""></stim_listA>","is being shouted at by","","","","","",""
"null","<div style=""font-size:60px;"">+</div>","","html-keyboard-response","380","1675484","0.0-19.0-0.14","88993","List1A","black","woman","","","","null","","","","","","","","",""
"null","<img src=""stim_listA/seduce1.gif""style=""height:400px;""></stim_listA>","","html-keyboard-response","381","1677487","0.0-19.0-1.14","88993","List1A","black","woman","","","","null","","","","","","","","",""
"null","is seducing","","html-keyboard-response","382","1679495","0.0-19.0-2.14","88993","List1A","black","woman","","","","null","","","","","","","","",""
"7005.099999964237","","","survey-text","383","1686502","0.0-19.0-3.14","88993","List1A","black","woman","","","","","{""Q0"":""fred is seducing kate""}","<img src=""stim_listA/seduce1.gif""style=""height:400px;""></stim_listA>","is seducing","","","","","",""
"null","<div style=""font-size:60px;"">+</div>","","html-keyboard-response","384","1687009","0.0-19.0-0.15","88993","List1A","black","woman","","","","null","","","","","","","","",""
"null","<img src=""stim_listA/hug3.gif""style=""height:400px;""></stim_listA>","","html-keyboard-response","385","1689023","0.0-19.0-1.15","88993","List1A","black","woman","","","","null","","","","","","","","",""
"null","is hugging","","html-keyboard-response","386","1691037","0.0-19.0-2.15","88993","List1A","black","woman","","","","null","","","","","","","","",""
"5862.699999988079","","","survey-text","387","1696902","0.0-19.0-3.15","88993","List1A","black","woman","","","","","{""Q0"":""ruth is hugging luke""}","<img src=""stim_listA/hug3.gif""style=""height:400px;""></stim_listA>","is hugging","","","","","",""
"null","<div style=""font-size:60px;"">+</div>","","html-keyboard-response","388","1697417","0.0-19.0-0.16","88993","List1A","black","woman","","","","null","","","","","","","","",""
"null","<img src=""stim_listA/seduce3.gif""style=""height:400px;""></stim_listA>","","html-keyboard-response","389","1699432","0.0-19.0-1.16","88993","List1A","black","woman","","","","null","","","","","","","","",""
"null","is seducing","","html-keyboard-response","390","1701449","0.0-19.0-2.16","88993","List1A","black","woman","","","","null","","","","","","","","",""
"7946","","","survey-text","391","1709398","0.0-19.0-3.16","88993","List1A","black","woman","","","","","{""Q0"":""jane is seducing luke""}","<img src=""stim_listA/seduce3.gif""style=""height:400px;""></stim_listA>","is seducing","","","","","",""
"null","<div style=""font-size:60px;"">+</div>","","html-keyboard-response","392","1709912","0.0-19.0-0.17","88993","List1A","black","woman","","","","null","","","","","","","","",""
"null","<img src=""stim_listA/shout5.gif""style=""height:400px;""></stim_listA>","","html-keyboard-response","393","1711925","0.0-19.0-1.17","88993","List1A","black","woman","","","","null","","","","","","","","",""
"null","is shouting at","","html-keyboard-response","394","1713934","0.0-19.0-2.17","88993","List1A","black","woman","","","","null","","","","","","","","",""
"7142.100000023842","","","survey-text","395","1721078","0.0-19.0-3.17","88993","List1A","black","woman","","","","","{""Q0"":""fred is shouting at luke""}","<img src=""stim_listA/shout5.gif""style=""height:400px;""></stim_listA>","is shouting at","","","","","",""
"null","<div style=""font-size:60px;"">+</div>","","html-keyboard-response","396","1721594","0.0-19.0-0.18","88993","List1A","black","woman","","","","null","","","","","","","","",""
"null","<img src=""stim_listA/greet3.gif""style=""height:400px;""></stim_listA>","","html-keyboard-response","397","1723596","0.0-19.0-1.18","88993","List1A","black","woman","","","","null","","","","","","","","",""
"null","is greeting","","html-keyboard-response","398","1725602","0.0-19.0-2.18","88993","List1A","black","woman","","","","null","","","","","","","","",""
"4329.399999976158","","","survey-text","399","1729934","0.0-19.0-3.18","88993","List1A","black","woman","","","","","{""Q0"":""dave is greeting ruth""}","<img src=""stim_listA/greet3.gif""style=""height:400px;""></stim_listA>","is greeting","","","","","",""
"null","<div style=""font-size:60px;"">+</div>","","html-keyboard-response","400","1730438","0.0-19.0-0.19","88993","List1A","black","woman","","","","null","","","","","","","","",""
"null","<img src=""stim_listA/kiss8.gif""style=""height:400px;""></stim_listA>","","html-keyboard-response","401","1732444","0.0-19.0-1.19","88993","List1A","black","woman","","","","null","","","","","","","","",""
"null","is being kissed by","","html-keyboard-response","402","1734457","0.0-19.0-2.19","88993","List1A","black","woman","","","","null","","","","","","","","",""
"6690.300000011921","","","survey-text","403","1741150","0.0-19.0-3.19","88993","List1A","black","woman","","","","","{""Q0"":""jane is being kissed by kate""}","<img src=""stim_listA/kiss8.gif""style=""height:400px;""></stim_listA>","is being kissed by","","","","","",""
"4119.699999988079","<p>Thank you for completing that task.</p><p>The final part of this session is a questionnaire that will take about 4 minutes.</p><p>Press Continue.</p>","0","html-button-response","404","1745272","0.0-20.0","88993","List1A","black","woman","","","","","","","","","","","","",""
"43221.30000001192","","","survey-text","405","1789498","0.0-21.0","88993","List1A","black","woman","","","","","{""Q0"":""20"",""Q1"":""Igbo"",""Q2"":""English"",""Q3"":""United States"",""Q4"":""American"",""Q5"":""Black"",""Q6"":""Female""}","","","demographics","","","","",""
"3302.800000011921","<p>Have you lived in the USA for the last 5 years or more?</p>","0","html-button-response","406","1792803","0.0-22.0","88993","List1A","black","woman","","","","","","","","fiveyears","","","","",""
"1997.9000000357628","<p>Move the slider to show the extent to which you agree with the following statements.</p>","0","html-button-response","407","1795807","0.0-23.0","88993","List1A","black","woman","","","","","","","","","","","","",""
"9577.299999952316","","","html-slider-response","408","1806395","0.0-24.0-0.0-0.0","88993","List1A","black","woman","","","","","","","","survey_gender","10","","","Family is not more important to me than friendship.","filler"
"8875.5","","","html-slider-response","409","1815273","0.0-24.0-0.0-0.1","88993","List1A","black","woman","","","","","","","","survey_gender","24","","","People of my gender are very similar to each other.","verysimilar"
"6054.399999976158","","","html-slider-response","410","1821329","0.0-24.0-0.0-0.2","88993","List1A","black","woman","","","","","","","","survey_gender","82","","","I think that my gender has a lot to be proud of.","proud"
"5069.699999988079","","","html-slider-response","411","1826401","0.0-24.0-0.0-0.3","88993","List1A","black","woman","","","","","","","","survey_gender","58","","","I am similar to the average person of my gender.","similar"
"6388","","","html-slider-response","412","1832792","0.0-24.0-0.0-0.4","88993","List1A","black","woman","","","","","","","","survey_gender","80","","","Being my gender gives me a good feeling.","feeling"
"6837.199999988079","","","html-slider-response","413","1839632","0.0-24.0-0.0-0.5","88993","List1A","black","woman","","","","","","","","survey_gender","96","","","I feel committed to my gender.","committed"
"3993.599999964237","","","html-slider-response","414","1843628","0.0-24.0-0.0-0.6","88993","List1A","black","woman","","","","","","","","survey_gender","46","","","I feel a bond with my gender.","bond"
"5296.399999976158","","","html-slider-response","415","1848926","0.0-24.0-0.0-0.7","88993","List1A","black","woman","","","","","","","","survey_gender","73","","","I would say I am an animal person.","filler"
"7514.5","","","html-slider-response","416","1856442","0.0-24.0-0.0-0.8","88993","List1A","black","woman","","","","","","","","survey_gender","53","","","Most of the friends in my life are very similar to me.","filler"
"3069.399999976158","","","html-slider-response","417","1859514","0.0-24.0-0.0-0.9","88993","List1A","black","woman","","","","","","","","survey_gender","60","","","Being around my friends gives me a good feeling.","filler"
"6340.5","","","html-slider-response","418","1865856","0.0-24.0-0.0-0.10","88993","List1A","black","woman","","","","","","","","survey_gender","62","","","I have a lot in common with the average person of my gender.","average"
"5880","","","html-slider-response","419","1871738","0.0-24.0-0.0-0.11","88993","List1A","black","woman","","","","","","","","survey_gender","90","","","The fact that I am my gender is an important part of my identity.","identity"
"3297.699999988079","","","html-slider-response","420","1875038","0.0-24.0-0.0-0.12","88993","List1A","black","woman","","","","","","","","survey_gender","76","","","I have a lot in common with my friends.","filler"
"3830.399999976158","","","html-slider-response","421","1878870","0.0-24.0-0.0-0.13","88993","List1A","black","woman","","","","","","","","survey_gender","74","","","Routine is not important to me.","filler"
"4317.899999976158","","","html-slider-response","422","1883190","0.0-24.0-0.0-0.14","88993","List1A","black","woman","","","","","","","","survey_gender","90","","","Being my gender is an important part of how I see myself.","important"
"3144.399999976158","","","html-slider-response","423","1886336","0.0-24.0-0.0-0.15","88993","List1A","black","woman","","","","","","","","survey_gender","99","","","I often think about my actions.","filler"
"4700.199999988079","","","html-slider-response","424","1891038","0.0-24.0-0.0-0.16","88993","List1A","black","woman","","","","","","","","survey_gender","65","","","I feel solidarity with my gender.","solidarity"
"3002.900000035763","","","html-slider-response","425","1894043","0.0-24.0-0.0-0.17","88993","List1A","black","woman","","","","","","","","survey_gender","88","","","I am glad to be my gender.","glad"
"4191.5","","","html-slider-response","426","1898236","0.0-24.0-0.0-0.18","88993","List1A","black","woman","","","","","","","","survey_gender","54","","","I often think about the fact that I am my gender.","often"
"2740.2999999523163","","","html-slider-response","427","1900978","0.0-24.0-0.0-0.19","88993","List1A","black","woman","","","","","","","","survey_gender","74","","","I am glad to have the friends that I have.","filler"
"4969.599999964237","","","html-slider-response","428","1905950","0.0-24.0-0.0-0.20","88993","List1A","black","woman","","","","","","","","survey_gender","56","","","People of my gender have a lot in common with each other.","common"
"3675.300000011921","","","html-slider-response","429","1909628","0.0-24.0-0.0-0.21","88993","List1A","black","woman","","","","","","","","survey_gender","70","","","It is not always easy for people to know what I am thinking.","filler"
"3722","","","html-slider-response","430","1913352","0.0-24.0-0.0-0.22","88993","List1A","black","woman","","","","","","","","survey_gender","79","","","My friends have a lot in common with each other.","filler"
"4561.799999952316","","","html-slider-response","431","1917916","0.0-24.0-0.0-0.23","88993","List1A","black","woman","","","","","","","","survey_gender","77","","","I feel solidarity with my friends.","filler"
"3204.099999964237","","","html-slider-response","432","1921122","0.0-24.0-0.0-0.24","88993","List1A","black","woman","","","","","","","","survey_gender","60","","","It is pleasant to be my gender.","pleasant"
"3157.899999976158","","","html-slider-response","433","1924282","0.0-24.0-0.0-0.25","88993","List1A","black","woman","","","","","","","","survey_gender","53","","","I consider myself a highly empathetic person.","filler"
"4284.899999976158","","","html-slider-response","434","1928568","0.0-24.0-0.0-0.26","88993","List1A","black","woman","","","","","","","","survey_gender","75","","","I feel a bond with my friends.","filler"
"3015.699999988079","","","html-slider-response","435","1931586","0.0-24.0-0.0-0.27","88993","List1A","black","woman","","","","","","","","survey_gender","62","","","My friends understand me.","filler"
"3363.800000011921","","","html-slider-response","436","1934952","0.0-24.0-1.0-0.0","88993","List1A","black","woman","","","","","","","","survey_race","100","","","The fact that I am my race is an important part of my identity.","identity"
"3554.300000011921","","","html-slider-response","437","1938508","0.0-24.0-1.0-0.1","88993","List1A","black","woman","","","","","","","","survey_race","100","","","I think that my race has a lot to be proud of.","proud"
"3038","","","html-slider-response","438","1941548","0.0-24.0-1.0-0.2","88993","List1A","black","woman","","","","","","","","survey_race","64","","","The older I get, the wiser I feel.","filler"
"14307.600000023842","","","html-slider-response","439","1955858","0.0-24.0-1.0-0.3","88993","List1A","black","woman","","","","","","","","survey_race","38","","","My age is not an important part of who I am.","filler"
"2879.5","","","html-slider-response","440","1958740","0.0-24.0-1.0-0.4","88993","List1A","black","woman","","","","","","","","survey_race","86","","","I am glad to be my age.","filler"
"3228.599999964237","","","html-slider-response","441","1961970","0.0-24.0-1.0-0.5","88993","List1A","black","woman","","","","","","","","survey_race","40","","","I feel a bond with people the same age as me.","filler"
"3872.300000011921","","","html-slider-response","442","1965844","0.0-24.0-1.0-0.6","88993","List1A","black","woman","","","","","","","","survey_race","100","","","Being my race is an important part of how I see myself.","important"
"6324.199999988079","","","html-slider-response","443","1972170","0.0-24.0-1.0-0.7","88993","List1A","black","woman","","","","","","","","survey_race","55","","","I am similar to the average person of my race.","similar"
"3271.899999976158","","","html-slider-response","444","1975444","0.0-24.0-1.0-0.8","88993","List1A","black","woman","","","","","","","","survey_race","53","","","I have a lot in common with the average person of my race.","average"
"3674","","","html-slider-response","445","1979120","0.0-24.0-1.0-0.9","88993","List1A","black","woman","","","","","","","","survey_race","92","","","Being my race gives me a good feeling.","feeling"
"3284.399999976158","","","html-slider-response","446","1982406","0.0-24.0-1.0-0.10","88993","List1A","black","woman","","","","","","","","survey_race","73","","","I often think about the fact that I am my race.","often"
"4520.100000023842","","","html-slider-response","447","1986928","0.0-24.0-1.0-0.11","88993","List1A","black","woman","","","","","","","","survey_race","70","","","I feel solidarity with my race.","solidarity"
"4364.099999964237","","","html-slider-response","448","1991294","0.0-24.0-1.0-0.12","88993","List1A","black","woman","","","","","","","","survey_race","29","","","I often think about the fact that I am my age.","filler"
"4075.600000023842","","","html-slider-response","449","1995372","0.0-24.0-1.0-0.13","88993","List1A","black","woman","","","","","","","","survey_race","72","","","It is pleasant to be my race.","pleasant"
"7534.199999988079","","","html-slider-response","450","2002908","0.0-24.0-1.0-0.14","88993","List1A","black","woman","","","","","","","","survey_race","95","","","Getting older does not worry me.","filler"
"3473.7999999523163","","","html-slider-response","451","2006384","0.0-24.0-1.0-0.15","88993","List1A","black","woman","","","","","","","","survey_race","100","","","I feel committed to my race.","committed"
"3641.800000011921","","","html-slider-response","452","2010028","0.0-24.0-1.0-0.16","88993","List1A","black","woman","","","","","","","","survey_race","0","","","I consider myself an extrovert.","filler"
"3743.699999988079","","","html-slider-response","453","2013773","0.0-24.0-1.0-0.17","88993","List1A","black","woman","","","","","","","","survey_race","30","","","I have a lot in common with people of a similar age to me.","filler"
"2700.5","","","html-slider-response","454","2016476","0.0-24.0-1.0-0.18","88993","List1A","black","woman","","","","","","","","survey_race","0","","","I enjoy being in large groups.","filler"
"3807.699999988079","","","html-slider-response","455","2020285","0.0-24.0-1.0-0.19","88993","List1A","black","woman","","","","","","","","survey_race","57","","","Being my age gives me a good feeling.","filler"
"3159.899999976158","","","html-slider-response","456","2023447","0.0-24.0-1.0-0.20","88993","List1A","black","woman","","","","","","","","survey_race","100","","","I am glad to be my race.","glad"
"3047.900000035763","","","html-slider-response","457","2026497","0.0-24.0-1.0-0.21","88993","List1A","black","woman","","","","","","","","survey_race","82","","","I am glad to be the age I am.","filler"
"3300.600000023842","","","html-slider-response","458","2029799","0.0-24.0-1.0-0.22","88993","List1A","black","woman","","","","","","","","survey_race","62","","","People my age have a lot in common with each other.","filler"
"3650.599999964237","","","html-slider-response","459","2033451","0.0-24.0-1.0-0.23","88993","List1A","black","woman","","","","","","","","survey_race","58","","","I feel solidarity with people the same age as me.","filler"
"5735.899999976158","","","html-slider-response","460","2039189","0.0-24.0-1.0-0.24","88993","List1A","black","woman","","","","","","","","survey_race","39","","","People of my race are very similar to each other.","verysimilar"
"2901.800000011921","","","html-slider-response","461","2042093","0.0-24.0-1.0-0.25","88993","List1A","black","woman","","","","","","","","survey_race","100","","","I consider myself an introvert.","filler"
"5299.799999952316","","","html-slider-response","462","2047395","0.0-24.0-1.0-0.26","88993","List1A","black","woman","","","","","","","","survey_race","44","","","People of my race have a lot in common with each other.","common"
"3790.100000023842","","","html-slider-response","463","2051187","0.0-24.0-1.0-0.27","88993","List1A","black","woman","","","","","","","","survey_race","68","","","I feel a bond with my race.","bond"
"5521.599999964237","","","survey-text","464","2056712","0.0-25.0","88993","List1A","black","woman","","","","","{""Q0"":""610a003b389155febac8dede""}","","","worker_id","","","","",""
"36001.40000003576","","","external-html","465","2092980","0.0-26.0","88993","List1A","black","woman","debrief.html","","","","","","","","","","","",""
