rt,stimulus,button_pressed,trial_type,trial_index,time_elapsed,internal_node_id,subject,list,ppt_race,ppt_gender,url,first_guess,correct,key_press,responses,image_type,phrase_type,test_part,response,stimulus1,stimulus2,question_type,survey_item
2044.1,Welcome to the experiment. Press Continue to begin.,0,html-button-response,0,2045,0.0-0.0,89328,List2B,white,woman,,,,,,,,,,,,,
8257.1,,,external-html,1,11317,0.0-1.0,89328,List2B,white,woman,consent.html,,,,,,,,,,,,
2278.5,"<p>On the next page, you will see portraits of 8 people and their names.</p><p>Your first task is to take a few minutes to memorise the names of these people.</p><p>You will have to recall their names during the rest of the experiment, so it is</p><p>essential that you try to memorise these people and their names as best as you can.</p><br><p><strong>You will then be tested on your memory of these names and portraits.</strong></p><br><p>The experiment will start after you have completed this memory test.</p><br><p>Ready?</p>",0,html-button-response,2,13597,0.0-2.0,89328,List2B,white,woman,,,,,,,,,,,,,
1560.6,"<img src='img/portrait_matrix_list2.jpg' style='width:900px;height:500px;''></img><p>If you have memorised all the portraits and names and are ready to start, press Continue.</p><p><strong>Please note: Your memory of these faces will be tested 4 times during this experiment.</strong></p>",0,html-button-response,3,16165,0.0-3.0-0.0,89328,List2B,white,woman,,,,,,,,,,,,,
1990,"<img src=""portrait/BM1.jpg""style=""height:400px;""></img>",4,html-button-response,4,19162,0.0-3.0-1.0,89328,List2B,white,woman,,TRUE,4,,,,,,,,,,
null,CORRECT,,html-keyboard-response,5,20683,0.0-3.0-2.0-0.0,89328,List2B,white,woman,,,,null,,,,,,,,,
1690.3,"<img src=""portrait/WW2.jpg""style=""height:400px;""></img>",3,html-button-response,6,22374,0.0-3.0-4.0,89328,List2B,white,woman,,TRUE,3,,,,,,,,,,
null,CORRECT,,html-keyboard-response,7,23891,0.0-3.0-5.0-0.0,89328,List2B,white,woman,,,,null,,,,,,,,,
6584.3,"<img src=""portrait/BW1.jpg""style=""height:400px;""></img>",1,html-button-response,8,30476,0.0-3.0-7.0,89328,List2B,white,woman,,TRUE,0,,,,,,,,,,
4765.1,"<img src=""portrait/BW1.jpg""style=""height:400px;""></img>",0,html-button-response,9,36245,0.0-3.0-9.0-0.0,89328,List2B,white,woman,,FALSE,0,,,,,,,,,,
null,CORRECT,,html-keyboard-response,10,37764,0.0-3.0-9.0-1.0-0.0,89328,List2B,white,woman,,,,null,,,,,,,,,
2254,"<img src=""portrait/BM2.jpg""style=""height:400px;""></img>",5,html-button-response,11,40018,0.0-3.0-10.0,89328,List2B,white,woman,,TRUE,5,,,,,,,,,,
null,CORRECT,,html-keyboard-response,12,41541,0.0-3.0-11.0-0.0,89328,List2B,white,woman,,,,null,,,,,,,,,
2324.6,"<img src=""portrait/WW1.jpg""style=""height:400px;""></img>",1,html-button-response,13,43866,0.0-3.0-13.0,89328,List2B,white,woman,,TRUE,1,,,,,,,,,,
null,CORRECT,,html-keyboard-response,14,45390,0.0-3.0-14.0-0.0,89328,List2B,white,woman,,,,null,,,,,,,,,
8225.1,"<img src=""portrait/BW2.jpg""style=""height:400px;""></img>",2,html-button-response,15,53618,0.0-3.0-16.0,89328,List2B,white,woman,,TRUE,2,,,,,,,,,,
null,CORRECT,,html-keyboard-response,16,55131,0.0-3.0-17.0-0.0,89328,List2B,white,woman,,,,null,,,,,,,,,
2041.3,"<img src=""portrait/WM2.jpg""style=""height:400px;""></img>",7,html-button-response,17,57174,0.0-3.0-19.0,89328,List2B,white,woman,,TRUE,7,,,,,,,,,,
null,CORRECT,,html-keyboard-response,18,58683,0.0-3.0-20.0-0.0,89328,List2B,white,woman,,,,null,,,,,,,,,
3146.7,"<img src=""portrait/WM1.jpg""style=""height:400px;""></img>",5,html-button-response,19,61831,0.0-3.0-22.0,89328,List2B,white,woman,,TRUE,6,,,,,,,,,,
618.1000001,"<img src=""portrait/WM1.jpg""style=""height:400px;""></img>",6,html-button-response,20,63460,0.0-3.0-24.0-0.0,89328,List2B,white,woman,,FALSE,6,,,,,,,,,,
null,CORRECT,,html-keyboard-response,21,64966,0.0-3.0-24.0-1.0-0.0,89328,List2B,white,woman,,,,null,,,,,,,,,
1051.3,<p>You got 6 out of 8 right first time. Press Continue.</p>,0,html-button-response,22,66018,0.0-3.0-25.0,89328,List2B,white,woman,,,,,,,,,,,,,
819.2,"As you did not score 100%, the memory game will repeat. Press Continue.",0,html-button-response,23,67850,0.0-3.0-26.0-0.0,89328,List2B,white,woman,,,,,,,,,,,,,
1955.6,"<img src='img/portrait_matrix_list2.jpg' style='width:900px;height:500px;''></img><p>If you have memorised all the portraits and names and are ready to start, press Continue.</p><p><strong>Please note: Your memory of these faces will be tested 4 times during this experiment.</strong></p>",0,html-button-response,24,70823,0.0-3.1-0.1,89328,List2B,white,woman,,,,,,,,,,,,,
2623.8,"<img src=""portrait/BM1.jpg""style=""height:400px;""></img>",4,html-button-response,25,74456,0.0-3.1-1.1,89328,List2B,white,woman,,TRUE,4,,,,,,,,,,
null,CORRECT,,html-keyboard-response,26,75972,0.0-3.1-2.1-0.1,89328,List2B,white,woman,,,,null,,,,,,,,,
1104.1,"<img src=""portrait/WW2.jpg""style=""height:400px;""></img>",3,html-button-response,27,77079,0.0-3.1-4.1,89328,List2B,white,woman,,TRUE,3,,,,,,,,,,
null,CORRECT,,html-keyboard-response,28,78584,0.0-3.1-5.1-0.1,89328,List2B,white,woman,,,,null,,,,,,,,,
1405.4,"<img src=""portrait/BW1.jpg""style=""height:400px;""></img>",0,html-button-response,29,79991,0.0-3.1-7.1,89328,List2B,white,woman,,TRUE,0,,,,,,,,,,
null,CORRECT,,html-keyboard-response,30,81507,0.0-3.1-8.1-0.1,89328,List2B,white,woman,,,,null,,,,,,,,,
1258.1,"<img src=""portrait/BM2.jpg""style=""height:400px;""></img>",5,html-button-response,31,82766,0.0-3.1-10.1,89328,List2B,white,woman,,TRUE,5,,,,,,,,,,
null,CORRECT,,html-keyboard-response,32,84287,0.0-3.1-11.1-0.1,89328,List2B,white,woman,,,,null,,,,,,,,,
1485.4,"<img src=""portrait/WW1.jpg""style=""height:400px;""></img>",3,html-button-response,33,85774,0.0-3.1-13.1,89328,List2B,white,woman,,TRUE,1,,,,,,,,,,
1920.4,"<img src=""portrait/WW1.jpg""style=""height:400px;""></img>",0,html-button-response,34,88698,0.0-3.1-15.1-0.1,89328,List2B,white,woman,,FALSE,1,,,,,,,,,,
null,INCORRECT,,html-keyboard-response,35,90205,0.0-3.1-15.1-2.1-0.1,89328,List2B,white,woman,,,,null,,,,,,,,,
5626.7,"<img src=""portrait/BW2.jpg""style=""height:400px;""></img>",2,html-button-response,36,95832,0.0-3.1-16.1,89328,List2B,white,woman,,TRUE,2,,,,,,,,,,
null,CORRECT,,html-keyboard-response,37,97350,0.0-3.1-17.1-0.1,89328,List2B,white,woman,,,,null,,,,,,,,,
2508.4,"<img src=""portrait/WM2.jpg""style=""height:400px;""></img>",7,html-button-response,38,99860,0.0-3.1-19.1,89328,List2B,white,woman,,TRUE,7,,,,,,,,,,
null,CORRECT,,html-keyboard-response,39,101368,0.0-3.1-20.1-0.1,89328,List2B,white,woman,,,,null,,,,,,,,,
2590.5,"<img src=""portrait/WM1.jpg""style=""height:400px;""></img>",6,html-button-response,40,103959,0.0-3.1-22.1,89328,List2B,white,woman,,TRUE,6,,,,,,,,,,
null,CORRECT,,html-keyboard-response,41,105481,0.0-3.1-23.1-0.1,89328,List2B,white,woman,,,,null,,,,,,,,,
1092.8,<p>You got 7 out of 8 right first time. Press Continue.</p>,0,html-button-response,42,106576,0.0-3.1-25.1,89328,List2B,white,woman,,,,,,,,,,,,,
1519,"As you did not score 100%, the memory game will repeat. Press Continue.",0,html-button-response,43,109104,0.0-3.1-26.1-0.1,89328,List2B,white,woman,,,,,,,,,,,,,
2965.7,"<img src='img/portrait_matrix_list2.jpg' style='width:900px;height:500px;''></img><p>If you have memorised all the portraits and names and are ready to start, press Continue.</p><p><strong>Please note: Your memory of these faces will be tested 4 times during this experiment.</strong></p>",0,html-button-response,44,113081,0.0-3.2-0.2,89328,List2B,white,woman,,,,,,,,,,,,,
1543.7,"<img src=""portrait/BM1.jpg""style=""height:400px;""></img>",4,html-button-response,45,115633,0.0-3.2-1.2,89328,List2B,white,woman,,TRUE,4,,,,,,,,,,
null,CORRECT,,html-keyboard-response,46,117145,0.0-3.2-2.2-0.2,89328,List2B,white,woman,,,,null,,,,,,,,,
1872.7,"<img src=""portrait/WW2.jpg""style=""height:400px;""></img>",3,html-button-response,47,119016,0.0-3.2-4.2,89328,List2B,white,woman,,TRUE,3,,,,,,,,,,
null,CORRECT,,html-keyboard-response,48,120532,0.0-3.2-5.2-0.2,89328,List2B,white,woman,,,,null,,,,,,,,,
1216.7,"<img src=""portrait/BW1.jpg""style=""height:400px;""></img>",0,html-button-response,49,121749,0.0-3.2-7.2,89328,List2B,white,woman,,TRUE,0,,,,,,,,,,
null,CORRECT,,html-keyboard-response,50,123267,0.0-3.2-8.2-0.2,89328,List2B,white,woman,,,,null,,,,,,,,,
1199.9,"<img src=""portrait/BM2.jpg""style=""height:400px;""></img>",5,html-button-response,51,124467,0.0-3.2-10.2,89328,List2B,white,woman,,TRUE,5,,,,,,,,,,
null,CORRECT,,html-keyboard-response,52,125982,0.0-3.2-11.2-0.2,89328,List2B,white,woman,,,,null,,,,,,,,,
3938.6,"<img src=""portrait/WW1.jpg""style=""height:400px;""></img>",1,html-button-response,53,129921,0.0-3.2-13.2,89328,List2B,white,woman,,TRUE,1,,,,,,,,,,
null,CORRECT,,html-keyboard-response,54,131446,0.0-3.2-14.2-0.2,89328,List2B,white,woman,,,,null,,,,,,,,,
3399.2,"<img src=""portrait/BW2.jpg""style=""height:400px;""></img>",2,html-button-response,55,134850,0.0-3.2-16.2,89328,List2B,white,woman,,TRUE,2,,,,,,,,,,
null,CORRECT,,html-keyboard-response,56,136372,0.0-3.2-17.2-0.2,89328,List2B,white,woman,,,,null,,,,,,,,,
3095.3,"<img src=""portrait/WM2.jpg""style=""height:400px;""></img>",7,html-button-response,57,139469,0.0-3.2-19.2,89328,List2B,white,woman,,TRUE,7,,,,,,,,,,
null,CORRECT,,html-keyboard-response,58,140991,0.0-3.2-20.2-0.2,89328,List2B,white,woman,,,,null,,,,,,,,,
5288.4,"<img src=""portrait/WM1.jpg""style=""height:400px;""></img>",6,html-button-response,59,146281,0.0-3.2-22.2,89328,List2B,white,woman,,TRUE,6,,,,,,,,,,
null,CORRECT,,html-keyboard-response,60,147808,0.0-3.2-23.2-0.2,89328,List2B,white,woman,,,,null,,,,,,,,,
1475.7,<p>You got 8 out of 8 right first time. Press Continue.</p>,0,html-button-response,61,149285,0.0-3.2-25.2,89328,List2B,white,woman,,,,,,,,,,,,,
2027.3,"<p>In this experiment, you will view photographs of the people from the memory game interacting.</p><p>By using the <strong>exact</strong> phrase given <i>after</i> the photograph appears and recalling the correct names of the people in the photographs, form a sentence describing the interaction. You do not need to capitalise names.</p><p>Type your answer in the space provided. Please complete every sentence before moving onto the next trial.</p><p>You will only have a few seconds to memorise each given photograph and phrase before you can respond, so try your best to focus.</p><p>An example is given below. Press 'Continue' when you are ready.</p><img src='img/speaking_example.jpg' style='width:800px;height:460px;''></img>",0,html-button-response,62,152315,0.0-4.0,89328,List2B,white,woman,,,,,,,,,,,,,
976,"<p>Before the experiment starts, you will watch two example trials. Press 'Continue'.</p>",0,html-button-response,63,154300,0.0-5.0,89328,List2B,white,woman,,,,,,,,,,,,,
null,<img src='img/play_eg.gif' style='height:400px;''></img>,,html-keyboard-response,64,157328,0.0-6.0,89328,List2B,white,woman,,,,null,,,,,,,,,
null,<p>is playing with</p>,,html-keyboard-response,65,159336,0.0-7.0,89328,List2B,white,woman,,,,null,,,,,,,,,
1226.6,<p><b>Answer:</b> jane is playing with ruth</p>,0,html-button-response,66,160563,0.0-8.0,89328,List2B,white,woman,,,,,,,,,,,,,
null,<img src='img/dance_eg.gif' style='height:400px;''></img>,,html-keyboard-response,67,163574,0.0-9.0,89328,List2B,white,woman,,,,null,,,,,,,,,
null,<p>is being entertained by</p>,,html-keyboard-response,68,165589,0.0-10.0,89328,List2B,white,woman,,,,null,,,,,,,,,
1414,<p><b>Answer:</b> fred is being entertained by mike</p>,0,html-button-response,69,167004,0.0-11.0,89328,List2B,white,woman,,,,,,,,,,,,,
5900,"<p>Ready to start the experiment?</p><br><p><strong>Remember to describe the picture using a full sentence,</strong></p><p><strong>that combines the names of the people with the <i>exact</i> phrase given.</strong></p><p><strong>To receive full payment you must do this correctly.</strong></p><p><strong> You do not need to capitalise names or use punctuation.</strong></p><br><p>Press 'Continue' to begin.</p>",0,html-button-response,70,173905,0.0-12.0,89328,List2B,white,woman,,,,,,,,,,,,,
null,"<div style=""font-size:60px;"">+</div>",,html-keyboard-response,71,175427,0.0-13.0-0.0,89328,List2B,white,woman,,,,null,,,,,,,,,
null,"<img src=""stim_listB/oppose5.gif""style=""height:400px;""></stim_listB>",,html-keyboard-response,72,177444,0.0-13.0-1.0,89328,List2B,white,woman,,,,null,,,,,,,,,
null,is opposing,,html-keyboard-response,73,179453,0.0-13.0-2.0,89328,List2B,white,woman,,,,null,,,,,,,,,
3294,,,survey-text,74,182750,0.0-13.0-3.0,89328,List2B,white,woman,,,,,"{""Q0"":""mike is opposing dave""}","<img src=""stim_listB/oppose5.gif""style=""height:400px;""></stim_listB>",is opposing,,,,,,
null,"<div style=""font-size:60px;"">+</div>",,html-keyboard-response,75,183265,0.0-13.0-0.1,89328,List2B,white,woman,,,,null,,,,,,,,,
null,"<img src=""stim_listB/greet1.gif""style=""height:400px;""></stim_listB>",,html-keyboard-response,76,185274,0.0-13.0-1.1,89328,List2B,white,woman,,,,null,,,,,,,,,
null,is greeting,,html-keyboard-response,77,187282,0.0-13.0-2.1,89328,List2B,white,woman,,,,null,,,,,,,,,
3323.5,,,survey-text,78,190608,0.0-13.0-3.1,89328,List2B,white,woman,,,,,"{""Q0"":""ruth is greeting dave""}","<img src=""stim_listB/greet1.gif""style=""height:400px;""></stim_listB>",is greeting,,,,,,
null,"<div style=""font-size:60px;"">+</div>",,html-keyboard-response,79,191118,0.0-13.0-0.2,89328,List2B,white,woman,,,,null,,,,,,,,,
null,"<img src=""stim_listB/hug4.gif""style=""height:400px;""></stim_listB>",,html-keyboard-response,80,193126,0.0-13.0-1.2,89328,List2B,white,woman,,,,null,,,,,,,,,
null,is being hugged by,,html-keyboard-response,81,195132,0.0-13.0-2.2,89328,List2B,white,woman,,,,null,,,,,,,,,
4781.7,,,survey-text,82,199915,0.0-13.0-3.2,89328,List2B,white,woman,,,,,"{""Q0"":""mike is being hugged by kate""}","<img src=""stim_listB/hug4.gif""style=""height:400px;""></stim_listB>",is being hugged by,,,,,,
null,"<div style=""font-size:60px;"">+</div>",,html-keyboard-response,83,200423,0.0-13.0-0.3,89328,List2B,white,woman,,,,null,,,,,,,,,
null,"<img src=""stim_listB/greet7.gif""style=""height:400px;""></stim_listB>",,html-keyboard-response,84,202436,0.0-13.0-1.3,89328,List2B,white,woman,,,,null,,,,,,,,,
null,is greeting,,html-keyboard-response,85,204444,0.0-13.0-2.3,89328,List2B,white,woman,,,,null,,,,,,,,,
2963.1,,,survey-text,86,207409,0.0-13.0-3.3,89328,List2B,white,woman,,,,,"{""Q0"":""beth is greeting jane""}","<img src=""stim_listB/greet7.gif""style=""height:400px;""></stim_listB>",is greeting,,,,,,
null,"<div style=""font-size:60px;"">+</div>",,html-keyboard-response,87,207919,0.0-13.0-0.4,89328,List2B,white,woman,,,,null,,,,,,,,,
null,"<img src=""stim_listB/touch5.gif""style=""height:400px;""></stim_listB>",,html-keyboard-response,88,209924,0.0-13.0-1.4,89328,List2B,white,woman,,,,null,,,,,,,,,
null,is touching,,html-keyboard-response,89,211934,0.0-13.0-2.4,89328,List2B,white,woman,,,,null,,,,,,,,,
3102.7,,,survey-text,90,215039,0.0-13.0-3.4,89328,List2B,white,woman,,,,,"{""Q0"":""mike is touching dave""}","<img src=""stim_listB/touch5.gif""style=""height:400px;""></stim_listB>",is touching,,,,,,
null,"<div style=""font-size:60px;"">+</div>",,html-keyboard-response,91,215547,0.0-13.0-0.5,89328,List2B,white,woman,,,,null,,,,,,,,,
null,"<img src=""stim_listB/look6.gif""style=""height:400px;""></stim_listB>",,html-keyboard-response,92,217559,0.0-13.0-1.5,89328,List2B,white,woman,,,,null,,,,,,,,,
null,is being looked at by,,html-keyboard-response,93,219573,0.0-13.0-2.5,89328,List2B,white,woman,,,,null,,,,,,,,,
4367.2,,,survey-text,94,223941,0.0-13.0-3.5,89328,List2B,white,woman,,,,,"{""Q0"":""mike is being looked at dave""}","<img src=""stim_listB/look6.gif""style=""height:400px;""></stim_listB>",is being looked at by,,,,,,
null,"<div style=""font-size:60px;"">+</div>",,html-keyboard-response,95,224446,0.0-13.0-0.6,89328,List2B,white,woman,,,,null,,,,,,,,,
null,"<img src=""stim_listB/look7.gif""style=""height:400px;""></stim_listB>",,html-keyboard-response,96,226454,0.0-13.0-1.6,89328,List2B,white,woman,,,,null,,,,,,,,,
null,is looking at,,html-keyboard-response,97,228465,0.0-13.0-2.6,89328,List2B,white,woman,,,,null,,,,,,,,,
3677.3,,,survey-text,98,232144,0.0-13.0-3.6,89328,List2B,white,woman,,,,,"{""Q0"":""beth is looking at ruth""}","<img src=""stim_listB/look7.gif""style=""height:400px;""></stim_listB>",is looking at,,,,,,
null,"<div style=""font-size:60px;"">+</div>",,html-keyboard-response,99,232654,0.0-13.0-0.7,89328,List2B,white,woman,,,,null,,,,,,,,,
null,"<img src=""stim_listB/seduce2.gif""style=""height:400px;""></stim_listB>",,html-keyboard-response,100,234671,0.0-13.0-1.7,89328,List2B,white,woman,,,,null,,,,,,,,,
null,is being seduced by,,html-keyboard-response,101,236686,0.0-13.0-2.7,89328,List2B,white,woman,,,,null,,,,,,,,,
5634.9,,,survey-text,102,242323,0.0-13.0-3.7,89328,List2B,white,woman,,,,,"{""Q0"":""ruth is being seduced by dave""}","<img src=""stim_listB/seduce2.gif""style=""height:400px;""></stim_listB>",is being seduced by,,,,,,
null,"<div style=""font-size:60px;"">+</div>",,html-keyboard-response,103,242828,0.0-13.0-0.8,89328,List2B,white,woman,,,,null,,,,,,,,,
null,"<img src=""stim_listB/hug7.gif""style=""height:400px;""></stim_listB>",,html-keyboard-response,104,244833,0.0-13.0-1.8,89328,List2B,white,woman,,,,null,,,,,,,,,
null,is hugging,,html-keyboard-response,105,246835,0.0-13.0-2.8,89328,List2B,white,woman,,,,null,,,,,,,,,
7441.2,,,survey-text,106,254279,0.0-13.0-3.8,89328,List2B,white,woman,,,,,"{""Q0"":""ruth is hugging beth""}","<img src=""stim_listB/hug7.gif""style=""height:400px;""></stim_listB>",is hugging,,,,,,
null,"<div style=""font-size:60px;"">+</div>",,html-keyboard-response,107,254781,0.0-13.0-0.9,89328,List2B,white,woman,,,,null,,,,,,,,,
null,"<img src=""stim_listB/oppose7.gif""style=""height:400px;""></stim_listB>",,html-keyboard-response,108,256785,0.0-13.0-1.9,89328,List2B,white,woman,,,,null,,,,,,,,,
null,is opposing,,html-keyboard-response,109,258795,0.0-13.0-2.9,89328,List2B,white,woman,,,,null,,,,,,,,,
3208.7,,,survey-text,110,262006,0.0-13.0-3.9,89328,List2B,white,woman,,,,,"{""Q0"":""kate is opposing jane""}","<img src=""stim_listB/oppose7.gif""style=""height:400px;""></stim_listB>",is opposing,,,,,,
null,"<div style=""font-size:60px;"">+</div>",,html-keyboard-response,111,262516,0.0-13.0-0.10,89328,List2B,white,woman,,,,null,,,,,,,,,
null,"<img src=""stim_listB/touch2.gif""style=""height:400px;""></stim_listB>",,html-keyboard-response,112,264529,0.0-13.0-1.10,89328,List2B,white,woman,,,,null,,,,,,,,,
null,is being touched by,,html-keyboard-response,113,266534,0.0-13.0-2.10,89328,List2B,white,woman,,,,null,,,,,,,,,
8498.3,,,survey-text,114,275035,0.0-13.0-3.10,89328,List2B,white,woman,,,,,"{""Q0"":""ruth is being touched by luke""}","<img src=""stim_listB/touch2.gif""style=""height:400px;""></stim_listB>",is being touched by,,,,,,
null,"<div style=""font-size:60px;"">+</div>",,html-keyboard-response,115,275539,0.0-13.0-0.11,89328,List2B,white,woman,,,,null,,,,,,,,,
null,"<img src=""stim_listB/kiss7.gif""style=""height:400px;""></stim_listB>",,html-keyboard-response,116,277554,0.0-13.0-1.11,89328,List2B,white,woman,,,,null,,,,,,,,,
null,is kissing,,html-keyboard-response,117,279559,0.0-13.0-2.11,89328,List2B,white,woman,,,,null,,,,,,,,,
3520.8,,,survey-text,118,283082,0.0-13.0-3.11,89328,List2B,white,woman,,,,,"{""Q0"":""beth is kissing ruth""}","<img src=""stim_listB/kiss7.gif""style=""height:400px;""></stim_listB>",is kissing,,,,,,
null,"<div style=""font-size:60px;"">+</div>",,html-keyboard-response,119,283589,0.0-13.0-0.12,89328,List2B,white,woman,,,,null,,,,,,,,,
null,"<img src=""stim_listB/hug1.gif""style=""height:400px;""></stim_listB>",,html-keyboard-response,120,285596,0.0-13.0-1.12,89328,List2B,white,woman,,,,null,,,,,,,,,
null,is hugging,,html-keyboard-response,121,287604,0.0-13.0-2.12,89328,List2B,white,woman,,,,null,,,,,,,,,
3529.9,,,survey-text,122,291136,0.0-13.0-3.12,89328,List2B,white,woman,,,,,"{""Q0"":""ruth is hugging luke""}","<img src=""stim_listB/hug1.gif""style=""height:400px;""></stim_listB>",is hugging,,,,,,
null,"<div style=""font-size:60px;"">+</div>",,html-keyboard-response,123,291643,0.0-13.0-0.13,89328,List2B,white,woman,,,,null,,,,,,,,,
null,"<img src=""stim_listB/look3.gif""style=""height:400px;""></stim_listB>",,html-keyboard-response,124,293656,0.0-13.0-1.13,89328,List2B,white,woman,,,,null,,,,,,,,,
null,is looking at,,html-keyboard-response,125,295661,0.0-13.0-2.13,89328,List2B,white,woman,,,,null,,,,,,,,,
4749.1,,,survey-text,126,300411,0.0-13.0-3.13,89328,List2B,white,woman,,,,,"{""Q0"":""beth is looking at fred""}","<img src=""stim_listB/look3.gif""style=""height:400px;""></stim_listB>",is looking at,,,,,,
null,"<div style=""font-size:60px;"">+</div>",,html-keyboard-response,127,300918,0.0-13.0-0.14,89328,List2B,white,woman,,,,null,,,,,,,,,
null,"<img src=""stim_listB/hug6.gif""style=""height:400px;""></stim_listB>",,html-keyboard-response,128,302935,0.0-13.0-1.14,89328,List2B,white,woman,,,,null,,,,,,,,,
null,is being hugged by,,html-keyboard-response,129,304940,0.0-13.0-2.14,89328,List2B,white,woman,,,,null,,,,,,,,,
5651.7,,,survey-text,130,310593,0.0-13.0-3.14,89328,List2B,white,woman,,,,,"{""Q0"":""mike is being hugged by dave""}","<img src=""stim_listB/hug6.gif""style=""height:400px;""></stim_listB>",is being hugged by,,,,,,
null,"<div style=""font-size:60px;"">+</div>",,html-keyboard-response,131,311108,0.0-13.0-0.15,89328,List2B,white,woman,,,,null,,,,,,,,,
null,"<img src=""stim_listB/challenge6.gif""style=""height:400px;""></stim_listB>",,html-keyboard-response,132,313122,0.0-13.0-1.15,89328,List2B,white,woman,,,,null,,,,,,,,,
null,is being challenged by,,html-keyboard-response,133,315134,0.0-13.0-2.15,89328,List2B,white,woman,,,,null,,,,,,,,,
4677.1,,,survey-text,134,319813,0.0-13.0-3.15,89328,List2B,white,woman,,,,,"{""Q0"":""mike is being challenged by luke""}","<img src=""stim_listB/challenge6.gif""style=""height:400px;""></stim_listB>",is being challenged by,,,,,,
null,"<div style=""font-size:60px;"">+</div>",,html-keyboard-response,135,320325,0.0-13.0-0.16,89328,List2B,white,woman,,,,null,,,,,,,,,
null,"<img src=""stim_listB/challenge1.gif""style=""height:400px;""></stim_listB>",,html-keyboard-response,136,322339,0.0-13.0-1.16,89328,List2B,white,woman,,,,null,,,,,,,,,
null,is challenging,,html-keyboard-response,137,324347,0.0-13.0-2.16,89328,List2B,white,woman,,,,null,,,,,,,,,
6000.6,,,survey-text,138,330349,0.0-13.0-3.16,89328,List2B,white,woman,,,,,"{""Q0"":""ruth is challenging dave""}","<img src=""stim_listB/challenge1.gif""style=""height:400px;""></stim_listB>",is challenging,,,,,,
null,"<div style=""font-size:60px;"">+</div>",,html-keyboard-response,139,330860,0.0-13.0-0.17,89328,List2B,white,woman,,,,null,,,,,,,,,
null,"<img src=""stim_listB/shout6.gif""style=""height:400px;""></stim_listB>",,html-keyboard-response,140,332863,0.0-13.0-1.17,89328,List2B,white,woman,,,,null,,,,,,,,,
null,is being shouted at by,,html-keyboard-response,141,334876,0.0-13.0-2.17,89328,List2B,white,woman,,,,null,,,,,,,,,
3871.3,,,survey-text,142,338749,0.0-13.0-3.17,89328,List2B,white,woman,,,,,"{""Q0"":""mike is being shouted at dave""}","<img src=""stim_listB/shout6.gif""style=""height:400px;""></stim_listB>",is being shouted at by,,,,,,
null,"<div style=""font-size:60px;"">+</div>",,html-keyboard-response,143,339261,0.0-13.0-0.18,89328,List2B,white,woman,,,,null,,,,,,,,,
null,"<img src=""stim_listB/challenge2.gif""style=""height:400px;""></stim_listB>",,html-keyboard-response,144,341277,0.0-13.0-1.18,89328,List2B,white,woman,,,,null,,,,,,,,,
null,is being challenged by,,html-keyboard-response,145,343290,0.0-13.0-2.18,89328,List2B,white,woman,,,,null,,,,,,,,,
5971.1,,,survey-text,146,349263,0.0-13.0-3.18,89328,List2B,white,woman,,,,,"{""Q0"":""luke is being challenged by jane""}","<img src=""stim_listB/challenge2.gif""style=""height:400px;""></stim_listB>",is being challenged by,,,,,,
null,"<div style=""font-size:60px;"">+</div>",,html-keyboard-response,147,349775,0.0-13.0-0.19,89328,List2B,white,woman,,,,null,,,,,,,,,
null,"<img src=""stim_listB/seduce1.gif""style=""height:400px;""></stim_listB>",,html-keyboard-response,148,351783,0.0-13.0-1.19,89328,List2B,white,woman,,,,null,,,,,,,,,
null,is seducing,,html-keyboard-response,149,353799,0.0-13.0-2.19,89328,List2B,white,woman,,,,null,,,,,,,,,
4066.5,,,survey-text,150,357868,0.0-13.0-3.19,89328,List2B,white,woman,,,,,"{""Q0"":""luke is seducing jane""}","<img src=""stim_listB/seduce1.gif""style=""height:400px;""></stim_listB>",is seducing,,,,,,
5424.3,"<img src='img/portrait_matrix_list2.jpg' style='width:900px;height:500px;''></img><p>If you have memorised all the portraits and names and are ready to start, press Continue.</p><p><strong>Please note: Your memory of these faces will be tested 4 times during this experiment.</strong></p>",0,html-button-response,151,363289,0.0-14.0-0.0,89328,List2B,white,woman,,,,,,,,,,,,,
1561,"<img src=""portrait/BW1.jpg""style=""height:400px;""></img>",0,html-button-response,152,365855,0.0-14.0-1.0,89328,List2B,white,woman,,TRUE,0,,,,,,,,,,
null,CORRECT,,html-keyboard-response,153,367360,0.0-14.0-2.0-0.0,89328,List2B,white,woman,,,,null,,,,,,,,,
2741.4,"<img src=""portrait/WM2.jpg""style=""height:400px;""></img>",7,html-button-response,154,370103,0.0-14.0-4.0,89328,List2B,white,woman,,TRUE,7,,,,,,,,,,
null,CORRECT,,html-keyboard-response,155,371618,0.0-14.0-5.0-0.0,89328,List2B,white,woman,,,,null,,,,,,,,,
1890.9,"<img src=""portrait/WW1.jpg""style=""height:400px;""></img>",1,html-button-response,156,373510,0.0-14.0-7.0,89328,List2B,white,woman,,TRUE,1,,,,,,,,,,
null,CORRECT,,html-keyboard-response,157,375030,0.0-14.0-8.0-0.0,89328,List2B,white,woman,,,,null,,,,,,,,,
1433.1,"<img src=""portrait/BM1.jpg""style=""height:400px;""></img>",4,html-button-response,158,376464,0.0-14.0-10.0,89328,List2B,white,woman,,TRUE,4,,,,,,,,,,
null,CORRECT,,html-keyboard-response,159,377986,0.0-14.0-11.0-0.0,89328,List2B,white,woman,,,,null,,,,,,,,,
1020.7,"<img src=""portrait/WW2.jpg""style=""height:400px;""></img>",3,html-button-response,160,379008,0.0-14.0-13.0,89328,List2B,white,woman,,TRUE,3,,,,,,,,,,
null,CORRECT,,html-keyboard-response,161,380516,0.0-14.0-14.0-0.0,89328,List2B,white,woman,,,,null,,,,,,,,,
1402,"<img src=""portrait/BM2.jpg""style=""height:400px;""></img>",5,html-button-response,162,381920,0.0-14.0-16.0,89328,List2B,white,woman,,TRUE,5,,,,,,,,,,
null,CORRECT,,html-keyboard-response,163,383439,0.0-14.0-17.0-0.0,89328,List2B,white,woman,,,,null,,,,,,,,,
1238.7,"<img src=""portrait/WM1.jpg""style=""height:400px;""></img>",6,html-button-response,164,384679,0.0-14.0-19.0,89328,List2B,white,woman,,TRUE,6,,,,,,,,,,
null,CORRECT,,html-keyboard-response,165,386194,0.0-14.0-20.0-0.0,89328,List2B,white,woman,,,,null,,,,,,,,,
1236.8,"<img src=""portrait/BW2.jpg""style=""height:400px;""></img>",2,html-button-response,166,387432,0.0-14.0-22.0,89328,List2B,white,woman,,TRUE,2,,,,,,,,,,
null,CORRECT,,html-keyboard-response,167,388951,0.0-14.0-23.0-0.0,89328,List2B,white,woman,,,,null,,,,,,,,,
1145.4,<p>You got 8 out of 8 right first time. Press Continue.</p>,0,html-button-response,168,390098,0.0-14.0-25.0,89328,List2B,white,woman,,,,,,,,,,,,,
null,"<div style=""font-size:60px;"">+</div>",,html-keyboard-response,169,391603,0.0-15.0-0.0,89328,List2B,white,woman,,,,null,,,,,,,,,
null,"<img src=""stim_listB/copy4.gif""style=""height:400px;""></stim_listB>",,html-keyboard-response,170,393619,0.0-15.0-1.0,89328,List2B,white,woman,,,,null,,,,,,,,,
null,is being copied by,,html-keyboard-response,171,395627,0.0-15.0-2.0,89328,List2B,white,woman,,,,null,,,,,,,,,
5082.8,,,survey-text,172,400712,0.0-15.0-3.0,89328,List2B,white,woman,,,,,"{""Q0"":""kate is being copied by fred""}","<img src=""stim_listB/copy4.gif""style=""height:400px;""></stim_listB>",is being copied by,,,,,,
null,"<div style=""font-size:60px;"">+</div>",,html-keyboard-response,173,401229,0.0-15.0-0.1,89328,List2B,white,woman,,,,null,,,,,,,,,
null,"<img src=""stim_listB/hug2.gif""style=""height:400px;""></stim_listB>",,html-keyboard-response,174,403238,0.0-15.0-1.1,89328,List2B,white,woman,,,,null,,,,,,,,,
null,is being hugged by,,html-keyboard-response,175,405244,0.0-15.0-2.1,89328,List2B,white,woman,,,,null,,,,,,,,,
3997,,,survey-text,176,409243,0.0-15.0-3.1,89328,List2B,white,woman,,,,,"{""Q0"":""jane is being hugged by dave""}","<img src=""stim_listB/hug2.gif""style=""height:400px;""></stim_listB>",is being hugged by,,,,,,
null,"<div style=""font-size:60px;"">+</div>",,html-keyboard-response,177,409758,0.0-15.0-0.2,89328,List2B,white,woman,,,,null,,,,,,,,,
null,"<img src=""stim_listB/shout5.gif""style=""height:400px;""></stim_listB>",,html-keyboard-response,178,411761,0.0-15.0-1.2,89328,List2B,white,woman,,,,null,,,,,,,,,
null,is shouting at,,html-keyboard-response,179,413768,0.0-15.0-2.2,89328,List2B,white,woman,,,,null,,,,,,,,,
3443,,,survey-text,180,417213,0.0-15.0-3.2,89328,List2B,white,woman,,,,,"{""Q0"":""luke is shouting at fred""}","<img src=""stim_listB/shout5.gif""style=""height:400px;""></stim_listB>",is shouting at,,,,,,
null,"<div style=""font-size:60px;"">+</div>",,html-keyboard-response,181,417727,0.0-15.0-0.3,89328,List2B,white,woman,,,,null,,,,,,,,,
null,"<img src=""stim_listB/look8.gif""style=""height:400px;""></stim_listB>",,html-keyboard-response,182,419737,0.0-15.0-1.3,89328,List2B,white,woman,,,,null,,,,,,,,,
null,is being looked at by,,html-keyboard-response,183,421742,0.0-15.0-2.3,89328,List2B,white,woman,,,,null,,,,,,,,,
5644.8,,,survey-text,184,427389,0.0-15.0-3.3,89328,List2B,white,woman,,,,,"{""Q0"":""jane is being looked at by kate""}","<img src=""stim_listB/look8.gif""style=""height:400px;""></stim_listB>",is being looked at by,,,,,,
null,"<div style=""font-size:60px;"">+</div>",,html-keyboard-response,185,427901,0.0-15.0-0.4,89328,List2B,white,woman,,,,null,,,,,,,,,
null,"<img src=""stim_listB/greet8.gif""style=""height:400px;""></stim_listB>",,html-keyboard-response,186,429914,0.0-15.0-1.4,89328,List2B,white,woman,,,,null,,,,,,,,,
null,is being greeted by,,html-keyboard-response,187,431923,0.0-15.0-2.4,89328,List2B,white,woman,,,,null,,,,,,,,,
4481.3,,,survey-text,188,436407,0.0-15.0-3.4,89328,List2B,white,woman,,,,,"{""Q0"":""ruth is being greeted by kate""}","<img src=""stim_listB/greet8.gif""style=""height:400px;""></stim_listB>",is being greeted by,,,,,,
null,"<div style=""font-size:60px;"">+</div>",,html-keyboard-response,189,436911,0.0-15.0-0.5,89328,List2B,white,woman,,,,null,,,,,,,,,
null,"<img src=""stim_listB/seduce8.gif""style=""height:400px;""></stim_listB>",,html-keyboard-response,190,438915,0.0-15.0-1.5,89328,List2B,white,woman,,,,null,,,,,,,,,
null,is being seduced by,,html-keyboard-response,191,440922,0.0-15.0-2.5,89328,List2B,white,woman,,,,null,,,,,,,,,
6237.1,,,survey-text,192,447161,0.0-15.0-3.5,89328,List2B,white,woman,,,,,"{""Q0"":""beth is being seduced by jane""}","<img src=""stim_listB/seduce8.gif""style=""height:400px;""></stim_listB>",is being seduced by,,,,,,
null,"<div style=""font-size:60px;"">+</div>",,html-keyboard-response,193,447671,0.0-15.0-0.6,89328,List2B,white,woman,,,,null,,,,,,,,,
null,"<img src=""stim_listB/seduce6.gif""style=""height:400px;""></stim_listB>",,html-keyboard-response,194,449686,0.0-15.0-1.6,89328,List2B,white,woman,,,,null,,,,,,,,,
null,is being seduced by,,html-keyboard-response,195,451704,0.0-15.0-2.6,89328,List2B,white,woman,,,,null,,,,,,,,,
4842.4,,,survey-text,196,456548,0.0-15.0-3.6,89328,List2B,white,woman,,,,,"{""Q0"":""fred is being seduced by dave""}","<img src=""stim_listB/seduce6.gif""style=""height:400px;""></stim_listB>",is being seduced by,,,,,,
null,"<div style=""font-size:60px;"">+</div>",,html-keyboard-response,197,457061,0.0-15.0-0.7,89328,List2B,white,woman,,,,null,,,,,,,,,
null,"<img src=""stim_listB/copy8.gif""style=""height:400px;""></stim_listB>",,html-keyboard-response,198,459075,0.0-15.0-1.7,89328,List2B,white,woman,,,,null,,,,,,,,,
null,is being copied by,,html-keyboard-response,199,461077,0.0-15.0-2.7,89328,List2B,white,woman,,,,null,,,,,,,,,
8637.5,,,survey-text,200,469716,0.0-15.0-3.7,89328,List2B,white,woman,,,,,"{""Q0"":""ruth is being copied by kate""}","<img src=""stim_listB/copy8.gif""style=""height:400px;""></stim_listB>",is being copied by,,,,,,
null,"<div style=""font-size:60px;"">+</div>",,html-keyboard-response,201,470218,0.0-15.0-0.8,89328,List2B,white,woman,,,,null,,,,,,,,,
null,"<img src=""stim_listB/challenge5.gif""style=""height:400px;""></stim_listB>",,html-keyboard-response,202,472234,0.0-15.0-1.8,89328,List2B,white,woman,,,,null,,,,,,,,,
null,is challenging,,html-keyboard-response,203,474235,0.0-15.0-2.8,89328,List2B,white,woman,,,,null,,,,,,,,,
4885.5,,,survey-text,204,479122,0.0-15.0-3.8,89328,List2B,white,woman,,,,,"{""Q0"":""fred is challenging dave""}","<img src=""stim_listB/challenge5.gif""style=""height:400px;""></stim_listB>",is challenging,,,,,,
null,"<div style=""font-size:60px;"">+</div>",,html-keyboard-response,205,479635,0.0-15.0-0.9,89328,List2B,white,woman,,,,null,,,,,,,,,
null,"<img src=""stim_listB/challenge8.gif""style=""height:400px;""></stim_listB>",,html-keyboard-response,206,481642,0.0-15.0-1.9,89328,List2B,white,woman,,,,null,,,,,,,,,
null,is being challenged by,,html-keyboard-response,207,483651,0.0-15.0-2.9,89328,List2B,white,woman,,,,null,,,,,,,,,
5872.9,,,survey-text,208,489526,0.0-15.0-3.9,89328,List2B,white,woman,,,,,"{""Q0"":""kate is being challenged by ruth""}","<img src=""stim_listB/challenge8.gif""style=""height:400px;""></stim_listB>",is being challenged by,,,,,,
null,"<div style=""font-size:60px;"">+</div>",,html-keyboard-response,209,490028,0.0-15.0-0.10,89328,List2B,white,woman,,,,null,,,,,,,,,
null,"<img src=""stim_listB/greet2.gif""style=""height:400px;""></stim_listB>",,html-keyboard-response,210,492037,0.0-15.0-1.10,89328,List2B,white,woman,,,,null,,,,,,,,,
null,is being greeted by,,html-keyboard-response,211,494047,0.0-15.0-2.10,89328,List2B,white,woman,,,,null,,,,,,,,,
5048.7,,,survey-text,212,499098,0.0-15.0-3.10,89328,List2B,white,woman,,,,,"{""Q0"":""luke is being greeted by jane""}","<img src=""stim_listB/greet2.gif""style=""height:400px;""></stim_listB>",is being greeted by,,,,,,
null,"<div style=""font-size:60px;"">+</div>",,html-keyboard-response,213,499602,0.0-15.0-0.11,89328,List2B,white,woman,,,,null,,,,,,,,,
null,"<img src=""stim_listB/shout2.gif""style=""height:400px;""></stim_listB>",,html-keyboard-response,214,501616,0.0-15.0-1.11,89328,List2B,white,woman,,,,null,,,,,,,,,
null,is being shouted at by,,html-keyboard-response,215,503622,0.0-15.0-2.11,89328,List2B,white,woman,,,,null,,,,,,,,,
6737.1,,,survey-text,216,510361,0.0-15.0-3.11,89328,List2B,white,woman,,,,,"{""Q0"":""jane is being shouted at by dave""}","<img src=""stim_listB/shout2.gif""style=""height:400px;""></stim_listB>",is being shouted at by,,,,,,
null,"<div style=""font-size:60px;"">+</div>",,html-keyboard-response,217,510872,0.0-15.0-0.12,89328,List2B,white,woman,,,,null,,,,,,,,,
null,"<img src=""stim_listB/hug8.gif""style=""height:400px;""></stim_listB>",,html-keyboard-response,218,512883,0.0-15.0-1.12,89328,List2B,white,woman,,,,null,,,,,,,,,
null,is being hugged by,,html-keyboard-response,219,514894,0.0-15.0-2.12,89328,List2B,white,woman,,,,null,,,,,,,,,
4474.5,,,survey-text,220,519370,0.0-15.0-3.12,89328,List2B,white,woman,,,,,"{""Q0"":""kate is being hugged by jane""}","<img src=""stim_listB/hug8.gif""style=""height:400px;""></stim_listB>",is being hugged by,,,,,,
null,"<div style=""font-size:60px;"">+</div>",,html-keyboard-response,221,519879,0.0-15.0-0.13,89328,List2B,white,woman,,,,null,,,,,,,,,
null,"<img src=""stim_listB/challenge3.gif""style=""height:400px;""></stim_listB>",,html-keyboard-response,222,521892,0.0-15.0-1.13,89328,List2B,white,woman,,,,null,,,,,,,,,
null,is challenging,,html-keyboard-response,223,523897,0.0-15.0-2.13,89328,List2B,white,woman,,,,null,,,,,,,,,
6348.1,,,survey-text,224,530247,0.0-15.0-3.13,89328,List2B,white,woman,,,,,"{""Q0"":""beth is challenging mike""}","<img src=""stim_listB/challenge3.gif""style=""height:400px;""></stim_listB>",is challenging,,,,,,
null,"<div style=""font-size:60px;"">+</div>",,html-keyboard-response,225,530764,0.0-15.0-0.14,89328,List2B,white,woman,,,,null,,,,,,,,,
null,"<img src=""stim_listB/greet3.gif""style=""height:400px;""></stim_listB>",,html-keyboard-response,226,532777,0.0-15.0-1.14,89328,List2B,white,woman,,,,null,,,,,,,,,
null,is greeting,,html-keyboard-response,227,534787,0.0-15.0-2.14,89328,List2B,white,woman,,,,null,,,,,,,,,
3427.1,,,survey-text,228,538216,0.0-15.0-3.14,89328,List2B,white,woman,,,,,"{""Q0"":""beth is greeting mike""}","<img src=""stim_listB/greet3.gif""style=""height:400px;""></stim_listB>",is greeting,,,,,,
null,"<div style=""font-size:60px;"">+</div>",,html-keyboard-response,229,538720,0.0-15.0-0.15,89328,List2B,white,woman,,,,null,,,,,,,,,
null,"<img src=""stim_listB/touch3.gif""style=""height:400px;""></stim_listB>",,html-keyboard-response,230,540737,0.0-15.0-1.15,89328,List2B,white,woman,,,,null,,,,,,,,,
null,is touching,,html-keyboard-response,231,542748,0.0-15.0-2.15,89328,List2B,white,woman,,,,null,,,,,,,,,
3300.7,,,survey-text,232,546051,0.0-15.0-3.15,89328,List2B,white,woman,,,,,"{""Q0"":""kate is touching mike""}","<img src=""stim_listB/touch3.gif""style=""height:400px;""></stim_listB>",is touching,,,,,,
null,"<div style=""font-size:60px;"">+</div>",,html-keyboard-response,233,546557,0.0-15.0-0.16,89328,List2B,white,woman,,,,null,,,,,,,,,
null,"<img src=""stim_listB/look2.gif""style=""height:400px;""></stim_listB>",,html-keyboard-response,234,548563,0.0-15.0-1.16,89328,List2B,white,woman,,,,null,,,,,,,,,
null,is being looked at by,,html-keyboard-response,235,550565,0.0-15.0-2.16,89328,List2B,white,woman,,,,null,,,,,,,,,
4636.1,,,survey-text,236,555203,0.0-15.0-3.16,89328,List2B,white,woman,,,,,"{""Q0"":""jane is being looked at by dave""}","<img src=""stim_listB/look2.gif""style=""height:400px;""></stim_listB>",is being looked at by,,,,,,
null,"<div style=""font-size:60px;"">+</div>",,html-keyboard-response,237,555715,0.0-15.0-0.17,89328,List2B,white,woman,,,,null,,,,,,,,,
null,"<img src=""stim_listB/touch8.gif""style=""height:400px;""></stim_listB>",,html-keyboard-response,238,557734,0.0-15.0-1.17,89328,List2B,white,woman,,,,null,,,,,,,,,
null,is being touched by,,html-keyboard-response,239,559737,0.0-15.0-2.17,89328,List2B,white,woman,,,,null,,,,,,,,,
7244.8,,,survey-text,240,566984,0.0-15.0-3.17,89328,List2B,white,woman,,,,,"{""Q0"":""ruth is being touched by beth""}","<img src=""stim_listB/touch8.gif""style=""height:400px;""></stim_listB>",is being touched by,,,,,,
null,"<div style=""font-size:60px;"">+</div>",,html-keyboard-response,241,567487,0.0-15.0-0.18,89328,List2B,white,woman,,,,null,,,,,,,,,
null,"<img src=""stim_listB/hug3.gif""style=""height:400px;""></stim_listB>",,html-keyboard-response,242,569499,0.0-15.0-1.18,89328,List2B,white,woman,,,,null,,,,,,,,,
null,is hugging,,html-keyboard-response,243,571502,0.0-15.0-2.18,89328,List2B,white,woman,,,,null,,,,,,,,,
7245.4,,,survey-text,244,578750,0.0-15.0-3.18,89328,List2B,white,woman,,,,,"{""Q0"":""beth is hugging fred""}","<img src=""stim_listB/hug3.gif""style=""height:400px;""></stim_listB>",is hugging,,,,,,
null,"<div style=""font-size:60px;"">+</div>",,html-keyboard-response,245,579258,0.0-15.0-0.19,89328,List2B,white,woman,,,,null,,,,,,,,,
null,"<img src=""stim_listB/seduce4.gif""style=""height:400px;""></stim_listB>",,html-keyboard-response,246,581262,0.0-15.0-1.19,89328,List2B,white,woman,,,,null,,,,,,,,,
null,is being seduced by,,html-keyboard-response,247,583272,0.0-15.0-2.19,89328,List2B,white,woman,,,,null,,,,,,,,,
4525.5,,,survey-text,248,587799,0.0-15.0-3.19,89328,List2B,white,woman,,,,,"{""Q0"":""beth is being seduced by mike""}","<img src=""stim_listB/seduce4.gif""style=""height:400px;""></stim_listB>",is being seduced by,,,,,,
1732,"<img src='img/portrait_matrix_list2.jpg' style='width:900px;height:500px;''></img><p>If you have memorised all the portraits and names and are ready to start, press Continue.</p><p><strong>Please note: Your memory of these faces will be tested 4 times during this experiment.</strong></p>",0,html-button-response,249,589533,0.0-16.0-0.0,89328,List2B,white,woman,,,,,,,,,,,,,
1014.8,"<img src=""portrait/BW1.jpg""style=""height:400px;""></img>",0,html-button-response,250,591563,0.0-16.0-1.0,89328,List2B,white,woman,,TRUE,0,,,,,,,,,,
null,CORRECT,,html-keyboard-response,251,593092,0.0-16.0-2.0-0.0,89328,List2B,white,woman,,,,null,,,,,,,,,
1482.5,"<img src=""portrait/WW1.jpg""style=""height:400px;""></img>",1,html-button-response,252,594576,0.0-16.0-4.0,89328,List2B,white,woman,,TRUE,1,,,,,,,,,,
null,CORRECT,,html-keyboard-response,253,596088,0.0-16.0-5.0-0.0,89328,List2B,white,woman,,,,null,,,,,,,,,
975.7,"<img src=""portrait/WW2.jpg""style=""height:400px;""></img>",3,html-button-response,254,597065,0.0-16.0-7.0,89328,List2B,white,woman,,TRUE,3,,,,,,,,,,
null,CORRECT,,html-keyboard-response,255,598593,0.0-16.0-8.0-0.0,89328,List2B,white,woman,,,,null,,,,,,,,,
1663.5,"<img src=""portrait/BW2.jpg""style=""height:400px;""></img>",2,html-button-response,256,600259,0.0-16.0-10.0,89328,List2B,white,woman,,TRUE,2,,,,,,,,,,
null,CORRECT,,html-keyboard-response,257,601773,0.0-16.0-11.0-0.0,89328,List2B,white,woman,,,,null,,,,,,,,,
1257.8,"<img src=""portrait/BM1.jpg""style=""height:400px;""></img>",4,html-button-response,258,603033,0.0-16.0-13.0,89328,List2B,white,woman,,TRUE,4,,,,,,,,,,
null,CORRECT,,html-keyboard-response,259,604550,0.0-16.0-14.0-0.0,89328,List2B,white,woman,,,,null,,,,,,,,,
1350.3,"<img src=""portrait/WM2.jpg""style=""height:400px;""></img>",7,html-button-response,260,605902,0.0-16.0-16.0,89328,List2B,white,woman,,TRUE,7,,,,,,,,,,
null,CORRECT,,html-keyboard-response,261,607427,0.0-16.0-17.0-0.0,89328,List2B,white,woman,,,,null,,,,,,,,,
946.3999999,"<img src=""portrait/BM2.jpg""style=""height:400px;""></img>",5,html-button-response,262,608375,0.0-16.0-19.0,89328,List2B,white,woman,,TRUE,5,,,,,,,,,,
null,CORRECT,,html-keyboard-response,263,609897,0.0-16.0-20.0-0.0,89328,List2B,white,woman,,,,null,,,,,,,,,
982.8000002,"<img src=""portrait/WM1.jpg""style=""height:400px;""></img>",6,html-button-response,264,610882,0.0-16.0-22.0,89328,List2B,white,woman,,TRUE,6,,,,,,,,,,
null,CORRECT,,html-keyboard-response,265,612400,0.0-16.0-23.0-0.0,89328,List2B,white,woman,,,,null,,,,,,,,,
40354.5,<p>You got 8 out of 8 right first time. Press Continue.</p>,0,html-button-response,266,652757,0.0-16.0-25.0,89328,List2B,white,woman,,,,,,,,,,,,,
null,"<div style=""font-size:60px;"">+</div>",,html-keyboard-response,267,654273,0.0-17.0-0.0,89328,List2B,white,woman,,,,null,,,,,,,,,
null,"<img src=""stim_listB/copy5.gif""style=""height:400px;""></stim_listB>",,html-keyboard-response,268,656286,0.0-17.0-1.0,89328,List2B,white,woman,,,,null,,,,,,,,,
null,is copying,,html-keyboard-response,269,658293,0.0-17.0-2.0,89328,List2B,white,woman,,,,null,,,,,,,,,
4479.6,,,survey-text,270,662775,0.0-17.0-3.0,89328,List2B,white,woman,,,,,"{""Q0"":""fred is copying dave""}","<img src=""stim_listB/copy5.gif""style=""height:400px;""></stim_listB>",is copying,,,,,,
null,"<div style=""font-size:60px;"">+</div>",,html-keyboard-response,271,663284,0.0-17.0-0.1,89328,List2B,white,woman,,,,null,,,,,,,,,
null,"<img src=""stim_listB/copy6.gif""style=""height:400px;""></stim_listB>",,html-keyboard-response,272,665293,0.0-17.0-1.1,89328,List2B,white,woman,,,,null,,,,,,,,,
null,is being copied by,,html-keyboard-response,273,667297,0.0-17.0-2.1,89328,List2B,white,woman,,,,null,,,,,,,,,
7387,,,survey-text,274,674688,0.0-17.0-3.1,89328,List2B,white,woman,,,,,"{""Q0"":""mike is being copied by luke""}","<img src=""stim_listB/copy6.gif""style=""height:400px;""></stim_listB>",is being copied by,,,,,,
null,"<div style=""font-size:60px;"">+</div>",,html-keyboard-response,275,675199,0.0-17.0-0.2,89328,List2B,white,woman,,,,null,,,,,,,,,
null,"<img src=""stim_listB/look5.gif""style=""height:400px;""></stim_listB>",,html-keyboard-response,276,677211,0.0-17.0-1.2,89328,List2B,white,woman,,,,null,,,,,,,,,
null,is looking at,,html-keyboard-response,277,679226,0.0-17.0-2.2,89328,List2B,white,woman,,,,null,,,,,,,,,
4073.1,,,survey-text,278,683302,0.0-17.0-3.2,89328,List2B,white,woman,,,,,"{""Q0"":""fred is looking at luke""}","<img src=""stim_listB/look5.gif""style=""height:400px;""></stim_listB>",is looking at,,,,,,
null,"<div style=""font-size:60px;"">+</div>",,html-keyboard-response,279,683818,0.0-17.0-0.3,89328,List2B,white,woman,,,,null,,,,,,,,,
null,"<img src=""stim_listB/look4.gif""style=""height:400px;""></stim_listB>",,html-keyboard-response,280,685827,0.0-17.0-1.3,89328,List2B,white,woman,,,,null,,,,,,,,,
null,is being looked at by,,html-keyboard-response,281,687832,0.0-17.0-2.3,89328,List2B,white,woman,,,,null,,,,,,,,,
5741.5,,,survey-text,282,693575,0.0-17.0-3.3,89328,List2B,white,woman,,,,,"{""Q0"":""beth is being looked at by mike""}","<img src=""stim_listB/look4.gif""style=""height:400px;""></stim_listB>",is being looked at by,,,,,,
null,"<div style=""font-size:60px;"">+</div>",,html-keyboard-response,283,694082,0.0-17.0-0.4,89328,List2B,white,woman,,,,null,,,,,,,,,
null,"<img src=""stim_listB/copy3.gif""style=""height:400px;""></stim_listB>",,html-keyboard-response,284,696095,0.0-17.0-1.4,89328,List2B,white,woman,,,,null,,,,,,,,,
null,is copying,,html-keyboard-response,285,698099,0.0-17.0-2.4,89328,List2B,white,woman,,,,null,,,,,,,,,
3507.4,,,survey-text,286,701608,0.0-17.0-3.4,89328,List2B,white,woman,,,,,"{""Q0"":""beth is copying mike""}","<img src=""stim_listB/copy3.gif""style=""height:400px;""></stim_listB>",is copying,,,,,,
null,"<div style=""font-size:60px;"">+</div>",,html-keyboard-response,287,702124,0.0-17.0-0.5,89328,List2B,white,woman,,,,null,,,,,,,,,
null,"<img src=""stim_listB/oppose2.gif""style=""height:400px;""></stim_listB>",,html-keyboard-response,288,704130,0.0-17.0-1.5,89328,List2B,white,woman,,,,null,,,,,,,,,
null,is being opposed by,,html-keyboard-response,289,706133,0.0-17.0-2.5,89328,List2B,white,woman,,,,null,,,,,,,,,
5801.2,,,survey-text,290,711936,0.0-17.0-3.5,89328,List2B,white,woman,,,,,"{""Q0"":""ruth is being opposed by luke""}","<img src=""stim_listB/oppose2.gif""style=""height:400px;""></stim_listB>",is being opposed by,,,,,,
null,"<div style=""font-size:60px;"">+</div>",,html-keyboard-response,291,712444,0.0-17.0-0.6,89328,List2B,white,woman,,,,null,,,,,,,,,
null,"<img src=""stim_listB/oppose3.gif""style=""height:400px;""></stim_listB>",,html-keyboard-response,292,714447,0.0-17.0-1.6,89328,List2B,white,woman,,,,null,,,,,,,,,
null,is opposing,,html-keyboard-response,293,716456,0.0-17.0-2.6,89328,List2B,white,woman,,,,null,,,,,,,,,
6337.4,,,survey-text,294,722795,0.0-17.0-3.6,89328,List2B,white,woman,,,,,"{""Q0"":""kate is opposing mike""}","<img src=""stim_listB/oppose3.gif""style=""height:400px;""></stim_listB>",is opposing,,,,,,
null,"<div style=""font-size:60px;"">+</div>",,html-keyboard-response,295,723296,0.0-17.0-0.7,89328,List2B,white,woman,,,,null,,,,,,,,,
null,"<img src=""stim_listB/kiss5.gif""style=""height:400px;""></stim_listB>",,html-keyboard-response,296,725305,0.0-17.0-1.7,89328,List2B,white,woman,,,,null,,,,,,,,,
null,is kissing,,html-keyboard-response,297,727316,0.0-17.0-2.7,89328,List2B,white,woman,,,,null,,,,,,,,,
3910.7,,,survey-text,298,731229,0.0-17.0-3.7,89328,List2B,white,woman,,,,,"{""Q0"":""luke is kissing fred""}","<img src=""stim_listB/kiss5.gif""style=""height:400px;""></stim_listB>",is kissing,,,,,,
null,"<div style=""font-size:60px;"">+</div>",,html-keyboard-response,299,731731,0.0-17.0-0.8,89328,List2B,white,woman,,,,null,,,,,,,,,
null,"<img src=""stim_listB/touch6.gif""style=""height:400px;""></stim_listB>",,html-keyboard-response,300,733737,0.0-17.0-1.8,89328,List2B,white,woman,,,,null,,,,,,,,,
null,is being touched by,,html-keyboard-response,301,735749,0.0-17.0-2.8,89328,List2B,white,woman,,,,null,,,,,,,,,
4649.6,,,survey-text,302,740401,0.0-17.0-3.8,89328,List2B,white,woman,,,,,"{""Q0"":""luke is being touched by fred""}","<img src=""stim_listB/touch6.gif""style=""height:400px;""></stim_listB>",is being touched by,,,,,,
null,"<div style=""font-size:60px;"">+</div>",,html-keyboard-response,303,740909,0.0-17.0-0.9,89328,List2B,white,woman,,,,null,,,,,,,,,
null,"<img src=""stim_listB/seduce3.gif""style=""height:400px;""></stim_listB>",,html-keyboard-response,304,742923,0.0-17.0-1.9,89328,List2B,white,woman,,,,null,,,,,,,,,
null,is seducing,,html-keyboard-response,305,744924,0.0-17.0-2.9,89328,List2B,white,woman,,,,null,,,,,,,,,
4737,,,survey-text,306,749663,0.0-17.0-3.9,89328,List2B,white,woman,,,,,"{""Q0"":""kate is seducing fred""}","<img src=""stim_listB/seduce3.gif""style=""height:400px;""></stim_listB>",is seducing,,,,,,
null,"<div style=""font-size:60px;"">+</div>",,html-keyboard-response,307,750168,0.0-17.0-0.10,89328,List2B,white,woman,,,,null,,,,,,,,,
null,"<img src=""stim_listB/greet6.gif""style=""height:400px;""></stim_listB>",,html-keyboard-response,308,752174,0.0-17.0-1.10,89328,List2B,white,woman,,,,null,,,,,,,,,
null,is being greeted by,,html-keyboard-response,309,754178,0.0-17.0-2.10,89328,List2B,white,woman,,,,null,,,,,,,,,
5298.1,,,survey-text,310,759478,0.0-17.0-3.10,89328,List2B,white,woman,,,,,"{""Q0"":""luke is being greeted by mike""}","<img src=""stim_listB/greet6.gif""style=""height:400px;""></stim_listB>",is being greeted by,,,,,,
null,"<div style=""font-size:60px;"">+</div>",,html-keyboard-response,311,759988,0.0-17.0-0.11,89328,List2B,white,woman,,,,null,,,,,,,,,
null,"<img src=""stim_listB/kiss1.gif""style=""height:400px;""></stim_listB>",,html-keyboard-response,312,762001,0.0-17.0-1.11,89328,List2B,white,woman,,,,null,,,,,,,,,
null,is kissing,,html-keyboard-response,313,764013,0.0-17.0-2.11,89328,List2B,white,woman,,,,null,,,,,,,,,
10826,,,survey-text,314,774841,0.0-17.0-3.11,89328,List2B,white,woman,,,,,"{""Q0"":""luke is kissing ruth""}","<img src=""stim_listB/kiss1.gif""style=""height:400px;""></stim_listB>",is kissing,,,,,,
null,"<div style=""font-size:60px;"">+</div>",,html-keyboard-response,315,775353,0.0-17.0-0.12,89328,List2B,white,woman,,,,null,,,,,,,,,
null,"<img src=""stim_listB/kiss3.gif""style=""height:400px;""></stim_listB>",,html-keyboard-response,316,777364,0.0-17.0-1.12,89328,List2B,white,woman,,,,null,,,,,,,,,
null,is kissing,,html-keyboard-response,317,779370,0.0-17.0-2.12,89328,List2B,white,woman,,,,null,,,,,,,,,
5203.2,,,survey-text,318,784575,0.0-17.0-3.12,89328,List2B,white,woman,,,,,"{""Q0"":""beth is kissing fred""}","<img src=""stim_listB/kiss3.gif""style=""height:400px;""></stim_listB>",is kissing,,,,,,
null,"<div style=""font-size:60px;"">+</div>",,html-keyboard-response,319,785078,0.0-17.0-0.13,89328,List2B,white,woman,,,,null,,,,,,,,,
null,"<img src=""stim_listB/kiss6.gif""style=""height:400px;""></stim_listB>",,html-keyboard-response,320,787085,0.0-17.0-1.13,89328,List2B,white,woman,,,,null,,,,,,,,,
null,is being kissed by,,html-keyboard-response,321,789098,0.0-17.0-2.13,89328,List2B,white,woman,,,,null,,,,,,,,,
4433.6,,,survey-text,322,793535,0.0-17.0-3.13,89328,List2B,white,woman,,,,,"{""Q0"":""mike is being kissed by dave""}","<img src=""stim_listB/kiss6.gif""style=""height:400px;""></stim_listB>",is being kissed by,,,,,,
null,"<div style=""font-size:60px;"">+</div>",,html-keyboard-response,323,794045,0.0-17.0-0.14,89328,List2B,white,woman,,,,null,,,,,,,,,
null,"<img src=""stim_listB/touch1.gif""style=""height:400px;""></stim_listB>",,html-keyboard-response,324,796047,0.0-17.0-1.14,89328,List2B,white,woman,,,,null,,,,,,,,,
null,is touching,,html-keyboard-response,325,798052,0.0-17.0-2.14,89328,List2B,white,woman,,,,null,,,,,,,,,
3077.7,,,survey-text,326,801132,0.0-17.0-3.14,89328,List2B,white,woman,,,,,"{""Q0"":""dave is touching jane""}","<img src=""stim_listB/touch1.gif""style=""height:400px;""></stim_listB>",is touching,,,,,,
null,"<div style=""font-size:60px;"">+</div>",,html-keyboard-response,327,801634,0.0-17.0-0.15,89328,List2B,white,woman,,,,null,,,,,,,,,
null,"<img src=""stim_listB/look1.gif""style=""height:400px;""></stim_listB>",,html-keyboard-response,328,803639,0.0-17.0-1.15,89328,List2B,white,woman,,,,null,,,,,,,,,
null,is looking at,,html-keyboard-response,329,805645,0.0-17.0-2.15,89328,List2B,white,woman,,,,null,,,,,,,,,
5625.8,,,survey-text,330,811273,0.0-17.0-3.15,89328,List2B,white,woman,,,,,"{""Q0"":""ruth is looking at luke""}","<img src=""stim_listB/look1.gif""style=""height:400px;""></stim_listB>",is looking at,,,,,,
null,"<div style=""font-size:60px;"">+</div>",,html-keyboard-response,331,811783,0.0-17.0-0.16,89328,List2B,white,woman,,,,null,,,,,,,,,
null,"<img src=""stim_listB/shout4.gif""style=""height:400px;""></stim_listB>",,html-keyboard-response,332,813799,0.0-17.0-1.16,89328,List2B,white,woman,,,,null,,,,,,,,,
null,is being shouted at by,,html-keyboard-response,333,815809,0.0-17.0-2.16,89328,List2B,white,woman,,,,null,,,,,,,,,
7702.9,,,survey-text,334,823514,0.0-17.0-3.16,89328,List2B,white,woman,,,,,"{""Q0"":""kate is being shouted at by mike""}","<img src=""stim_listB/shout4.gif""style=""height:400px;""></stim_listB>",is being shouted at by,,,,,,
null,"<div style=""font-size:60px;"">+</div>",,html-keyboard-response,335,824019,0.0-17.0-0.17,89328,List2B,white,woman,,,,null,,,,,,,,,
null,"<img src=""stim_listB/hug5.gif""style=""height:400px;""></stim_listB>",,html-keyboard-response,336,826034,0.0-17.0-1.17,89328,List2B,white,woman,,,,null,,,,,,,,,
null,is hugging,,html-keyboard-response,337,828043,0.0-17.0-2.17,89328,List2B,white,woman,,,,null,,,,,,,,,
3503.6,,,survey-text,338,831548,0.0-17.0-3.17,89328,List2B,white,woman,,,,,"{""Q0"":""luke is hugging fred""}","<img src=""stim_listB/hug5.gif""style=""height:400px;""></stim_listB>",is hugging,,,,,,
null,"<div style=""font-size:60px;"">+</div>",,html-keyboard-response,339,832057,0.0-17.0-0.18,89328,List2B,white,woman,,,,null,,,,,,,,,
null,"<img src=""stim_listB/shout7.gif""style=""height:400px;""></stim_listB>",,html-keyboard-response,340,834069,0.0-17.0-1.18,89328,List2B,white,woman,,,,null,,,,,,,,,
null,is shouting at,,html-keyboard-response,341,836076,0.0-17.0-2.18,89328,List2B,white,woman,,,,null,,,,,,,,,
3698.4,,,survey-text,342,839777,0.0-17.0-3.18,89328,List2B,white,woman,,,,,"{""Q0"":""beth is shouting at ruth""}","<img src=""stim_listB/shout7.gif""style=""height:400px;""></stim_listB>",is shouting at,,,,,,
null,"<div style=""font-size:60px;"">+</div>",,html-keyboard-response,343,840282,0.0-17.0-0.19,89328,List2B,white,woman,,,,null,,,,,,,,,
null,"<img src=""stim_listB/kiss2.gif""style=""height:400px;""></stim_listB>",,html-keyboard-response,344,842290,0.0-17.0-1.19,89328,List2B,white,woman,,,,null,,,,,,,,,
null,is being kissed by,,html-keyboard-response,345,844301,0.0-17.0-2.19,89328,List2B,white,woman,,,,null,,,,,,,,,
4178.8,,,survey-text,346,848482,0.0-17.0-3.19,89328,List2B,white,woman,,,,,"{""Q0"":""jane is being kissed by dave""}","<img src=""stim_listB/kiss2.gif""style=""height:400px;""></stim_listB>",is being kissed by,,,,,,
1577.1,"<img src='img/portrait_matrix_list2.jpg' style='width:900px;height:500px;''></img><p>If you have memorised all the portraits and names and are ready to start, press Continue.</p><p><strong>Please note: Your memory of these faces will be tested 4 times during this experiment.</strong></p>",0,html-button-response,347,850060,0.0-18.0-0.0,89328,List2B,white,woman,,,,,,,,,,,,,
4622.3,"<img src=""portrait/BW2.jpg""style=""height:400px;""></img>",2,html-button-response,348,855689,0.0-18.0-1.0,89328,List2B,white,woman,,TRUE,2,,,,,,,,,,
null,CORRECT,,html-keyboard-response,349,857215,0.0-18.0-2.0-0.0,89328,List2B,white,woman,,,,null,,,,,,,,,
1222.8,"<img src=""portrait/BM1.jpg""style=""height:400px;""></img>",4,html-button-response,350,858440,0.0-18.0-4.0,89328,List2B,white,woman,,TRUE,4,,,,,,,,,,
null,CORRECT,,html-keyboard-response,351,859953,0.0-18.0-5.0-0.0,89328,List2B,white,woman,,,,null,,,,,,,,,
1272.2,"<img src=""portrait/WW1.jpg""style=""height:400px;""></img>",1,html-button-response,352,861226,0.0-18.0-7.0,89328,List2B,white,woman,,TRUE,1,,,,,,,,,,
null,CORRECT,,html-keyboard-response,353,862740,0.0-18.0-8.0-0.0,89328,List2B,white,woman,,,,null,,,,,,,,,
1093.8,"<img src=""portrait/WW2.jpg""style=""height:400px;""></img>",3,html-button-response,354,863836,0.0-18.0-10.0,89328,List2B,white,woman,,TRUE,3,,,,,,,,,,
null,CORRECT,,html-keyboard-response,355,865340,0.0-18.0-11.0-0.0,89328,List2B,white,woman,,,,null,,,,,,,,,
1929.5,"<img src=""portrait/WM2.jpg""style=""height:400px;""></img>",7,html-button-response,356,867271,0.0-18.0-13.0,89328,List2B,white,woman,,TRUE,7,,,,,,,,,,
null,CORRECT,,html-keyboard-response,357,868781,0.0-18.0-14.0-0.0,89328,List2B,white,woman,,,,null,,,,,,,,,
1240.1,"<img src=""portrait/BW1.jpg""style=""height:400px;""></img>",0,html-button-response,358,870022,0.0-18.0-16.0,89328,List2B,white,woman,,TRUE,0,,,,,,,,,,
null,CORRECT,,html-keyboard-response,359,871538,0.0-18.0-17.0-0.0,89328,List2B,white,woman,,,,null,,,,,,,,,
1253.8,"<img src=""portrait/WM1.jpg""style=""height:400px;""></img>",6,html-button-response,360,872793,0.0-18.0-19.0,89328,List2B,white,woman,,TRUE,6,,,,,,,,,,
null,CORRECT,,html-keyboard-response,361,874311,0.0-18.0-20.0-0.0,89328,List2B,white,woman,,,,null,,,,,,,,,
1128,"<img src=""portrait/BM2.jpg""style=""height:400px;""></img>",5,html-button-response,362,875441,0.0-18.0-22.0,89328,List2B,white,woman,,TRUE,5,,,,,,,,,,
null,CORRECT,,html-keyboard-response,363,876965,0.0-18.0-23.0-0.0,89328,List2B,white,woman,,,,null,,,,,,,,,
1106.6,<p>You got 8 out of 8 right first time. Press Continue.</p>,0,html-button-response,364,878074,0.0-18.0-25.0,89328,List2B,white,woman,,,,,,,,,,,,,
null,"<div style=""font-size:60px;"">+</div>",,html-keyboard-response,365,879585,0.0-19.0-0.0,89328,List2B,white,woman,,,,null,,,,,,,,,
null,"<img src=""stim_listB/shout3.gif""style=""height:400px;""></stim_listB>",,html-keyboard-response,366,881591,0.0-19.0-1.0,89328,List2B,white,woman,,,,null,,,,,,,,,
null,is shouting at,,html-keyboard-response,367,883599,0.0-19.0-2.0,89328,List2B,white,woman,,,,null,,,,,,,,,
3968.9,,,survey-text,368,887570,0.0-19.0-3.0,89328,List2B,white,woman,,,,,"{""Q0"":""beth is shouting at fred""}","<img src=""stim_listB/shout3.gif""style=""height:400px;""></stim_listB>",is shouting at,,,,,,
null,"<div style=""font-size:60px;"">+</div>",,html-keyboard-response,369,888083,0.0-19.0-0.1,89328,List2B,white,woman,,,,null,,,,,,,,,
null,"<img src=""stim_listB/oppose4.gif""style=""height:400px;""></stim_listB>",,html-keyboard-response,370,890099,0.0-19.0-1.1,89328,List2B,white,woman,,,,null,,,,,,,,,
null,is being opposed by,,html-keyboard-response,371,892114,0.0-19.0-2.1,89328,List2B,white,woman,,,,null,,,,,,,,,
6132.6,,,survey-text,372,898248,0.0-19.0-3.1,89328,List2B,white,woman,,,,,"{""Q0"":""beth is being opposed by fred""}","<img src=""stim_listB/oppose4.gif""style=""height:400px;""></stim_listB>",is being opposed by,,,,,,
null,"<div style=""font-size:60px;"">+</div>",,html-keyboard-response,373,898763,0.0-19.0-0.2,89328,List2B,white,woman,,,,null,,,,,,,,,
null,"<img src=""stim_listB/copy2.gif""style=""height:400px;""></stim_listB>",,html-keyboard-response,374,900767,0.0-19.0-1.2,89328,List2B,white,woman,,,,null,,,,,,,,,
null,is being copied by,,html-keyboard-response,375,902780,0.0-19.0-2.2,89328,List2B,white,woman,,,,null,,,,,,,,,
5720.4,,,survey-text,376,908503,0.0-19.0-3.2,89328,List2B,white,woman,,,,,"{""Q0"":""jane is being copied by luke""}","<img src=""stim_listB/copy2.gif""style=""height:400px;""></stim_listB>",is being copied by,,,,,,
null,"<div style=""font-size:60px;"">+</div>",,html-keyboard-response,377,909005,0.0-19.0-0.3,89328,List2B,white,woman,,,,null,,,,,,,,,
null,"<img src=""stim_listB/oppose8.gif""style=""height:400px;""></stim_listB>",,html-keyboard-response,378,911015,0.0-19.0-1.3,89328,List2B,white,woman,,,,null,,,,,,,,,
null,is being opposed by,,html-keyboard-response,379,913029,0.0-19.0-2.3,89328,List2B,white,woman,,,,null,,,,,,,,,
4454.3,,,survey-text,380,917486,0.0-19.0-3.3,89328,List2B,white,woman,,,,,"{""Q0"":""beth is being opposed by ruth""}","<img src=""stim_listB/oppose8.gif""style=""height:400px;""></stim_listB>",is being opposed by,,,,,,
null,"<div style=""font-size:60px;"">+</div>",,html-keyboard-response,381,918002,0.0-19.0-0.4,89328,List2B,white,woman,,,,null,,,,,,,,,
null,"<img src=""stim_listB/kiss8.gif""style=""height:400px;""></stim_listB>",,html-keyboard-response,382,920008,0.0-19.0-1.4,89328,List2B,white,woman,,,,null,,,,,,,,,
null,is being kissed by,,html-keyboard-response,383,922020,0.0-19.0-2.4,89328,List2B,white,woman,,,,null,,,,,,,,,
4879.9,,,survey-text,384,926902,0.0-19.0-3.4,89328,List2B,white,woman,,,,,"{""Q0"":""kate is being kissed by jane""}","<img src=""stim_listB/kiss8.gif""style=""height:400px;""></stim_listB>",is being kissed by,,,,,,
null,"<div style=""font-size:60px;"">+</div>",,html-keyboard-response,385,927405,0.0-19.0-0.5,89328,List2B,white,woman,,,,null,,,,,,,,,
null,"<img src=""stim_listB/copy7.gif""style=""height:400px;""></stim_listB>",,html-keyboard-response,386,929414,0.0-19.0-1.5,89328,List2B,white,woman,,,,null,,,,,,,,,
null,is copying,,html-keyboard-response,387,931417,0.0-19.0-2.5,89328,List2B,white,woman,,,,null,,,,,,,,,
5431.7,,,survey-text,388,936851,0.0-19.0-3.5,89328,List2B,white,woman,,,,,"{""Q0"":""jane is copying beth""}","<img src=""stim_listB/copy7.gif""style=""height:400px;""></stim_listB>",is copying,,,,,,
null,"<div style=""font-size:60px;"">+</div>",,html-keyboard-response,389,937362,0.0-19.0-0.6,89328,List2B,white,woman,,,,null,,,,,,,,,
null,"<img src=""stim_listB/copy1.gif""style=""height:400px;""></stim_listB>",,html-keyboard-response,390,939366,0.0-19.0-1.6,89328,List2B,white,woman,,,,null,,,,,,,,,
null,is copying,,html-keyboard-response,391,941377,0.0-19.0-2.6,89328,List2B,white,woman,,,,null,,,,,,,,,
3997.1,,,survey-text,392,945377,0.0-19.0-3.6,89328,List2B,white,woman,,,,,"{""Q0"":""ruth is copying dave""}","<img src=""stim_listB/copy1.gif""style=""height:400px;""></stim_listB>",is copying,,,,,,
null,"<div style=""font-size:60px;"">+</div>",,html-keyboard-response,393,945879,0.0-19.0-0.7,89328,List2B,white,woman,,,,null,,,,,,,,,
null,"<img src=""stim_listB/kiss4.gif""style=""height:400px;""></stim_listB>",,html-keyboard-response,394,947892,0.0-19.0-1.7,89328,List2B,white,woman,,,,null,,,,,,,,,
null,is being kissed by,,html-keyboard-response,395,949896,0.0-19.0-2.7,89328,List2B,white,woman,,,,null,,,,,,,,,
4197.6,,,survey-text,396,954096,0.0-19.0-3.7,89328,List2B,white,woman,,,,,"{""Q0"":""kate is being kissed by mike""}","<img src=""stim_listB/kiss4.gif""style=""height:400px;""></stim_listB>",is being kissed by,,,,,,
null,"<div style=""font-size:60px;"">+</div>",,html-keyboard-response,397,954609,0.0-19.0-0.8,89328,List2B,white,woman,,,,null,,,,,,,,,
null,"<img src=""stim_listB/challenge7.gif""style=""height:400px;""></stim_listB>",,html-keyboard-response,398,956612,0.0-19.0-1.8,89328,List2B,white,woman,,,,null,,,,,,,,,
null,is challenging,,html-keyboard-response,399,958622,0.0-19.0-2.8,89328,List2B,white,woman,,,,null,,,,,,,,,
4035.2,,,survey-text,400,962659,0.0-19.0-3.8,89328,List2B,white,woman,,,,,"{""Q0"":""beth is challenging jane""}","<img src=""stim_listB/challenge7.gif""style=""height:400px;""></stim_listB>",is challenging,,,,,,
null,"<div style=""font-size:60px;"">+</div>",,html-keyboard-response,401,963161,0.0-19.0-0.9,89328,List2B,white,woman,,,,null,,,,,,,,,
null,"<img src=""stim_listB/greet5.gif""style=""height:400px;""></stim_listB>",,html-keyboard-response,402,965178,0.0-19.0-1.9,89328,List2B,white,woman,,,,null,,,,,,,,,
null,is greeting,,html-keyboard-response,403,967183,0.0-19.0-2.9,89328,List2B,white,woman,,,,null,,,,,,,,,
3972.8,,,survey-text,404,971158,0.0-19.0-3.9,89328,List2B,white,woman,,,,,"{""Q0"":""fred is greeting dave""}","<img src=""stim_listB/greet5.gif""style=""height:400px;""></stim_listB>",is greeting,,,,,,
null,"<div style=""font-size:60px;"">+</div>",,html-keyboard-response,405,971670,0.0-19.0-0.10,89328,List2B,white,woman,,,,null,,,,,,,,,
null,"<img src=""stim_listB/shout1.gif""style=""height:400px;""></stim_listB>",,html-keyboard-response,406,973682,0.0-19.0-1.10,89328,List2B,white,woman,,,,null,,,,,,,,,
null,is shouting at,,html-keyboard-response,407,975688,0.0-19.0-2.10,89328,List2B,white,woman,,,,null,,,,,,,,,
4275.5,,,survey-text,408,979966,0.0-19.0-3.10,89328,List2B,white,woman,,,,,"{""Q0"":""luke is shouting at ruth""}","<img src=""stim_listB/shout1.gif""style=""height:400px;""></stim_listB>",is shouting at,,,,,,
null,"<div style=""font-size:60px;"">+</div>",,html-keyboard-response,409,980480,0.0-19.0-0.11,89328,List2B,white,woman,,,,null,,,,,,,,,
null,"<img src=""stim_listB/oppose6.gif""style=""height:400px;""></stim_listB>",,html-keyboard-response,410,982486,0.0-19.0-1.11,89328,List2B,white,woman,,,,null,,,,,,,,,
null,is being opposed by,,html-keyboard-response,411,984496,0.0-19.0-2.11,89328,List2B,white,woman,,,,null,,,,,,,,,
5236.2,,,survey-text,412,989734,0.0-19.0-3.11,89328,List2B,white,woman,,,,,"{""Q0"":""luke is being opposed by fred""}","<img src=""stim_listB/oppose6.gif""style=""height:400px;""></stim_listB>",is being opposed by,,,,,,
null,"<div style=""font-size:60px;"">+</div>",,html-keyboard-response,413,990244,0.0-19.0-0.12,89328,List2B,white,woman,,,,null,,,,,,,,,
null,"<img src=""stim_listB/seduce5.gif""style=""height:400px;""></stim_listB>",,html-keyboard-response,414,992260,0.0-19.0-1.12,89328,List2B,white,woman,,,,null,,,,,,,,,
null,is seducing,,html-keyboard-response,415,994264,0.0-19.0-2.12,89328,List2B,white,woman,,,,null,,,,,,,,,
4165.3,,,survey-text,416,998431,0.0-19.0-3.12,89328,List2B,white,woman,,,,,"{""Q0"":""luke is seducing mike""}","<img src=""stim_listB/seduce5.gif""style=""height:400px;""></stim_listB>",is seducing,,,,,,
null,"<div style=""font-size:60px;"">+</div>",,html-keyboard-response,417,998933,0.0-19.0-0.13,89328,List2B,white,woman,,,,null,,,,,,,,,
null,"<img src=""stim_listB/seduce7.gif""style=""height:400px;""></stim_listB>",,html-keyboard-response,418,1000938,0.0-19.0-1.13,89328,List2B,white,woman,,,,null,,,,,,,,,
null,is seducing,,html-keyboard-response,419,1002944,0.0-19.0-2.13,89328,List2B,white,woman,,,,null,,,,,,,,,
3387,,,survey-text,420,1006333,0.0-19.0-3.13,89328,List2B,white,woman,,,,,"{""Q0"":""beth is seducing ruth""}","<img src=""stim_listB/seduce7.gif""style=""height:400px;""></stim_listB>",is seducing,,,,,,
null,"<div style=""font-size:60px;"">+</div>",,html-keyboard-response,421,1006834,0.0-19.0-0.14,89328,List2B,white,woman,,,,null,,,,,,,,,
null,"<img src=""stim_listB/shout8.gif""style=""height:400px;""></stim_listB>",,html-keyboard-response,422,1008836,0.0-19.0-1.14,89328,List2B,white,woman,,,,null,,,,,,,,,
null,is being shouted at by,,html-keyboard-response,423,1010843,0.0-19.0-2.14,89328,List2B,white,woman,,,,null,,,,,,,,,
4910.8,,,survey-text,424,1015756,0.0-19.0-3.14,89328,List2B,white,woman,,,,,"{""Q0"":""kate is being shouted at by jane""}","<img src=""stim_listB/shout8.gif""style=""height:400px;""></stim_listB>",is being shouted at by,,,,,,
null,"<div style=""font-size:60px;"">+</div>",,html-keyboard-response,425,1016273,0.0-19.0-0.15,89328,List2B,white,woman,,,,null,,,,,,,,,
null,"<img src=""stim_listB/greet4.gif""style=""height:400px;""></stim_listB>",,html-keyboard-response,426,1018289,0.0-19.0-1.15,89328,List2B,white,woman,,,,null,,,,,,,,,
null,is being greeted by,,html-keyboard-response,427,1020299,0.0-19.0-2.15,89328,List2B,white,woman,,,,null,,,,,,,,,
4377.4,,,survey-text,428,1024677,0.0-19.0-3.15,89328,List2B,white,woman,,,,,"{""Q0"":""kate is being greeted by fred""}","<img src=""stim_listB/greet4.gif""style=""height:400px;""></stim_listB>",is being greeted by,,,,,,
null,"<div style=""font-size:60px;"">+</div>",,html-keyboard-response,429,1025184,0.0-19.0-0.16,89328,List2B,white,woman,,,,null,,,,,,,,,
null,"<img src=""stim_listB/oppose1.gif""style=""height:400px;""></stim_listB>",,html-keyboard-response,430,1027196,0.0-19.0-1.16,89328,List2B,white,woman,,,,null,,,,,,,,,
null,is opposing,,html-keyboard-response,431,1029206,0.0-19.0-2.16,89328,List2B,white,woman,,,,null,,,,,,,,,
3839.4,,,survey-text,432,1033047,0.0-19.0-3.16,89328,List2B,white,woman,,,,,"{""Q0"":""jane is opposing dave""}","<img src=""stim_listB/oppose1.gif""style=""height:400px;""></stim_listB>",is opposing,,,,,,
null,"<div style=""font-size:60px;"">+</div>",,html-keyboard-response,433,1033562,0.0-19.0-0.17,89328,List2B,white,woman,,,,null,,,,,,,,,
null,"<img src=""stim_listB/touch7.gif""style=""height:400px;""></stim_listB>",,html-keyboard-response,434,1035566,0.0-19.0-1.17,89328,List2B,white,woman,,,,null,,,,,,,,,
null,is touching,,html-keyboard-response,435,1037576,0.0-19.0-2.17,89328,List2B,white,woman,,,,null,,,,,,,,,
3531.5,,,survey-text,436,1041109,0.0-19.0-3.17,89328,List2B,white,woman,,,,,"{""Q0"":""kate is touching jane""}","<img src=""stim_listB/touch7.gif""style=""height:400px;""></stim_listB>",is touching,,,,,,
null,"<div style=""font-size:60px;"">+</div>",,html-keyboard-response,437,1041625,0.0-19.0-0.18,89328,List2B,white,woman,,,,null,,,,,,,,,
null,"<img src=""stim_listB/challenge4.gif""style=""height:400px;""></stim_listB>",,html-keyboard-response,438,1043633,0.0-19.0-1.18,89328,List2B,white,woman,,,,null,,,,,,,,,
null,is being challenged by,,html-keyboard-response,439,1045647,0.0-19.0-2.18,89328,List2B,white,woman,,,,null,,,,,,,,,
5037.3,,,survey-text,440,1050686,0.0-19.0-3.18,89328,List2B,white,woman,,,,,"{""Q0"":""kate is being challenged by fred""}","<img src=""stim_listB/challenge4.gif""style=""height:400px;""></stim_listB>",is being challenged by,,,,,,
null,"<div style=""font-size:60px;"">+</div>",,html-keyboard-response,441,1051188,0.0-19.0-0.19,89328,List2B,white,woman,,,,null,,,,,,,,,
null,"<img src=""stim_listB/touch4.gif""style=""height:400px;""></stim_listB>",,html-keyboard-response,442,1053194,0.0-19.0-1.19,89328,List2B,white,woman,,,,null,,,,,,,,,
null,is being touched by,,html-keyboard-response,443,1055210,0.0-19.0-2.19,89328,List2B,white,woman,,,,null,,,,,,,,,
6537.4,,,survey-text,444,1061750,0.0-19.0-3.19,89328,List2B,white,woman,,,,,"{""Q0"":""fred is being touched by beth""}","<img src=""stim_listB/touch4.gif""style=""height:400px;""></stim_listB>",is being touched by,,,,,,
2326.6,<p>Thank you for completing that task.</p><p>The final part of this session is a questionnaire that will take about 4 minutes.</p><p>Press Continue.</p>,0,html-button-response,445,1064078,0.0-20.0,89328,List2B,white,woman,,,,,,,,,,,,,
21165.2,,,survey-text,446,1086258,0.0-21.0,89328,List2B,white,woman,,,,,"{""Q0"":""21"",""Q1"":""renglish"",""Q2"":""english"",""Q3"":""USA"",""Q4"":""caucasion"",""Q5"":""caucasion"",""Q6"":""female""}",,,demographics,,,,,
1751.5,<p>Have you lived in the USA for the last 5 years or more?</p>,0,html-button-response,447,1088013,0.0-22.0,89328,List2B,white,woman,,,,,,,,fiveyears,,,,,
1852.9,<p>Move the slider to show the extent to which you agree with the following statements.</p>,0,html-button-response,448,1090874,0.0-23.0,89328,List2B,white,woman,,,,,,,,,,,,,
4527.4,,,html-slider-response,449,1096417,0.0-24.0-0.0-0.0,89328,List2B,white,woman,,,,,,,,survey_race,91,,,It is pleasant to be my race.,pleasant
1960.3,,,html-slider-response,450,1098378,0.0-24.0-0.0-0.1,89328,List2B,white,woman,,,,,,,,survey_race,76,,,I feel solidarity with my race.,solidarity
2294,,,html-slider-response,451,1100673,0.0-24.0-0.0-0.2,89328,List2B,white,woman,,,,,,,,survey_race,80,,,I am similar to the average person of my race.,similar
3045.3,,,html-slider-response,452,1103721,0.0-24.0-0.0-0.3,89328,List2B,white,woman,,,,,,,,survey_race,18,,,I often think about the fact that I am my race.,often
1929.1,,,html-slider-response,453,1105652,0.0-24.0-0.0-0.4,89328,List2B,white,woman,,,,,,,,survey_race,20,,,Being my race is an important part of how I see myself.,important
2864.1,,,html-slider-response,454,1108517,0.0-24.0-0.0-0.5,89328,List2B,white,woman,,,,,,,,survey_race,89,,,I am glad to be my age.,filler
2434.5,,,html-slider-response,455,1110954,0.0-24.0-0.0-0.6,89328,List2B,white,woman,,,,,,,,survey_race,27,,,People of my race are very similar to each other.,verysimilar
2387.2,,,html-slider-response,456,1113342,0.0-24.0-0.0-0.7,89328,List2B,white,woman,,,,,,,,survey_race,22,,,People of my race have a lot in common with each other.,common
1858.3,,,html-slider-response,457,1115201,0.0-24.0-0.0-0.8,89328,List2B,white,woman,,,,,,,,survey_race,73,,,"The older I get, the wiser I feel.",filler
1641.5,,,html-slider-response,458,1116844,0.0-24.0-0.0-0.9,89328,List2B,white,woman,,,,,,,,survey_race,25,,,I feel a bond with my race.,bond
3114.8,,,html-slider-response,459,1119960,0.0-24.0-0.0-0.10,89328,List2B,white,woman,,,,,,,,survey_race,99,,,I am glad to be the age I am.,filler
3149.3,,,html-slider-response,460,1123110,0.0-24.0-0.0-0.11,89328,List2B,white,woman,,,,,,,,survey_race,31,,,I have a lot in common with the average person of my race.,average
1843.3,,,html-slider-response,461,1124956,0.0-24.0-0.0-0.12,89328,List2B,white,woman,,,,,,,,survey_race,7,,,I feel committed to my race.,committed
2449,,,html-slider-response,462,1127406,0.0-24.0-0.0-0.13,89328,List2B,white,woman,,,,,,,,survey_race,100,,,Being my age gives me a good feeling.,filler
1897,,,html-slider-response,463,1129305,0.0-24.0-0.0-0.14,89328,List2B,white,woman,,,,,,,,survey_race,100,,,I feel a bond with people the same age as me.,filler
3593.2,,,html-slider-response,464,1132900,0.0-24.0-0.0-0.15,89328,List2B,white,woman,,,,,,,,survey_race,0,,,I think that my race has a lot to be proud of.,proud
3374.6,,,html-slider-response,465,1136277,0.0-24.0-0.0-0.16,89328,List2B,white,woman,,,,,,,,survey_race,21,,,My age is not an important part of who I am.,filler
1524.4,,,html-slider-response,466,1137803,0.0-24.0-0.0-0.17,89328,List2B,white,woman,,,,,,,,survey_race,11,,,Being my race gives me a good feeling.,feeling
1926.6,,,html-slider-response,467,1139731,0.0-24.0-0.0-0.18,89328,List2B,white,woman,,,,,,,,survey_race,86,,,I consider myself an extrovert.,filler
2791.5,,,html-slider-response,468,1142524,0.0-24.0-0.0-0.19,89328,List2B,white,woman,,,,,,,,survey_race,25,,,I am glad to be my race.,glad
2596.7,,,html-slider-response,469,1145122,0.0-24.0-0.0-0.20,89328,List2B,white,woman,,,,,,,,survey_race,25,,,Getting older does not worry me.,filler
1620.4,,,html-slider-response,470,1146744,0.0-24.0-0.0-0.21,89328,List2B,white,woman,,,,,,,,survey_race,11,,,The fact that I am my race is an important part of my identity.,identity
2404.7,,,html-slider-response,471,1149150,0.0-24.0-0.0-0.22,89328,List2B,white,woman,,,,,,,,survey_race,75,,,I have a lot in common with people of a similar age to me.,filler
2023,,,html-slider-response,472,1151175,0.0-24.0-0.0-0.23,89328,List2B,white,woman,,,,,,,,survey_race,98,,,I enjoy being in large groups.,filler
1907,,,html-slider-response,473,1153083,0.0-24.0-0.0-0.24,89328,List2B,white,woman,,,,,,,,survey_race,81,,,People my age have a lot in common with each other.,filler
3186.6,,,html-slider-response,474,1156271,0.0-24.0-0.0-0.25,89328,List2B,white,woman,,,,,,,,survey_race,28,,,I feel solidarity with people the same age as me.,filler
1765.1,,,html-slider-response,475,1158037,0.0-24.0-0.0-0.26,89328,List2B,white,woman,,,,,,,,survey_race,11,,,I consider myself an introvert.,filler
2379.7,,,html-slider-response,476,1160418,0.0-24.0-0.0-0.27,89328,List2B,white,woman,,,,,,,,survey_race,77,,,I often think about the fact that I am my age.,filler
2283.9,,,html-slider-response,477,1162703,0.0-24.0-1.0-0.0,89328,List2B,white,woman,,,,,,,,survey_gender,78,,,My friends understand me.,filler
1515.2,,,html-slider-response,478,1164219,0.0-24.0-1.0-0.1,89328,List2B,white,woman,,,,,,,,survey_gender,81,,,I have a lot in common with my friends.,filler
1674.9,,,html-slider-response,479,1165896,0.0-24.0-1.0-0.2,89328,List2B,white,woman,,,,,,,,survey_gender,81,,,I am glad to be my gender.,glad
1772.8,,,html-slider-response,480,1167670,0.0-24.0-1.0-0.3,89328,List2B,white,woman,,,,,,,,survey_gender,85,,,My friends have a lot in common with each other.,filler
2450.8,,,html-slider-response,481,1170122,0.0-24.0-1.0-0.4,89328,List2B,white,woman,,,,,,,,survey_gender,12,,,People of my gender are very similar to each other.,verysimilar
2668.5,,,html-slider-response,482,1172791,0.0-24.0-1.0-0.5,89328,List2B,white,woman,,,,,,,,survey_gender,27,,,Family is not more important to me than friendship.,filler
4413.9,,,html-slider-response,483,1177207,0.0-24.0-1.0-0.6,89328,List2B,white,woman,,,,,,,,survey_gender,93,,,It is not always easy for people to know what I am thinking.,filler
3338.8,,,html-slider-response,484,1180548,0.0-24.0-1.0-0.7,89328,List2B,white,woman,,,,,,,,survey_gender,89,,,People of my gender have a lot in common with each other.,common
1509.1,,,html-slider-response,485,1182058,0.0-24.0-1.0-0.8,89328,List2B,white,woman,,,,,,,,survey_gender,82,,,I feel committed to my gender.,committed
3182,,,html-slider-response,486,1185240,0.0-24.0-1.0-0.9,89328,List2B,white,woman,,,,,,,,survey_gender,18,,,I consider myself a highly empathetic person.,filler
1680.6,,,html-slider-response,487,1186922,0.0-24.0-1.0-0.10,89328,List2B,white,woman,,,,,,,,survey_gender,20,,,I often think about the fact that I am my gender.,often
2155.8,,,html-slider-response,488,1189079,0.0-24.0-1.0-0.11,89328,List2B,white,woman,,,,,,,,survey_gender,82,,,The fact that I am my gender is an important part of my identity.,identity
1580.4,,,html-slider-response,489,1190660,0.0-24.0-1.0-0.12,89328,List2B,white,woman,,,,,,,,survey_gender,77,,,Being around my friends gives me a good feeling.,filler
4583.9,,,html-slider-response,490,1195246,0.0-24.0-1.0-0.13,89328,List2B,white,woman,,,,,,,,survey_gender,83,,,I think that my gender has a lot to be proud of.,proud
2198.5,,,html-slider-response,491,1197447,0.0-24.0-1.0-0.14,89328,List2B,white,woman,,,,,,,,survey_gender,80,,,I have a lot in common with the average person of my gender.,average
1401.5,,,html-slider-response,492,1198849,0.0-24.0-1.0-0.15,89328,List2B,white,woman,,,,,,,,survey_gender,78,,,Most of the friends in my life are very similar to me.,filler
2571.7,,,html-slider-response,493,1201423,0.0-24.0-1.0-0.16,89328,List2B,white,woman,,,,,,,,survey_gender,75,,,Routine is not important to me.,filler
1510.7,,,html-slider-response,494,1202935,0.0-24.0-1.0-0.17,89328,List2B,white,woman,,,,,,,,survey_gender,22,,,I feel solidarity with my friends.,filler
2300.6,,,html-slider-response,495,1205235,0.0-24.0-1.0-0.18,89328,List2B,white,woman,,,,,,,,survey_gender,83,,,Being my gender is an important part of how I see myself.,important
2346.5,,,html-slider-response,496,1207582,0.0-24.0-1.0-0.19,89328,List2B,white,woman,,,,,,,,survey_gender,79,,,I would say I am an animal person.,filler
1299.2,,,html-slider-response,497,1208882,0.0-24.0-1.0-0.20,89328,List2B,white,woman,,,,,,,,survey_gender,81,,,I feel a bond with my friends.,filler
1569.1,,,html-slider-response,498,1210453,0.0-24.0-1.0-0.21,89328,List2B,white,woman,,,,,,,,survey_gender,26,,,I feel solidarity with my gender.,solidarity
2253.2,,,html-slider-response,499,1212707,0.0-24.0-1.0-0.22,89328,List2B,white,woman,,,,,,,,survey_gender,98,,,I am glad to have the friends that I have.,filler
1795.2,,,html-slider-response,500,1214503,0.0-24.0-1.0-0.23,89328,List2B,white,woman,,,,,,,,survey_gender,25,,,It is pleasant to be my gender.,pleasant
2457.9,,,html-slider-response,501,1216962,0.0-24.0-1.0-0.24,89328,List2B,white,woman,,,,,,,,survey_gender,65,,,I am similar to the average person of my gender.,similar
2924.3,,,html-slider-response,502,1219888,0.0-24.0-1.0-0.25,89328,List2B,white,woman,,,,,,,,survey_gender,82,,,I often think about my actions.,filler
1571.4,,,html-slider-response,503,1221460,0.0-24.0-1.0-0.26,89328,List2B,white,woman,,,,,,,,survey_gender,95,,,I feel a bond with my gender.,bond
2251.3,,,html-slider-response,504,1223712,0.0-24.0-1.0-0.27,89328,List2B,white,woman,,,,,,,,survey_gender,91,,,Being my gender gives me a good feeling.,feeling
6653,,,survey-text,505,1230368,0.0-25.0,89328,List2B,white,woman,,,,,"{""Q0"":""ccc""}",,,worker_id,,,,,
2807.2,,,external-html,506,1233661,0.0-26.0,89328,List2B,white,woman,debrief.html,,,,,,,,,,,,
