rt,stimulus,button_pressed,trial_type,trial_index,time_elapsed,internal_node_id,subject,list,ppt_race,ppt_gender,url,first_guess,correct,key_press,responses,image_type,phrase_type,test_part,response,stimulus1,stimulus2,question_type,survey_item
18241.6,Welcome to the experiment. Press Continue to begin.,0,html-button-response,0,18253,0.0-0.0,89483,List1B,black,woman,,,,,,,,,,,,,
65294.4,,,external-html,1,85018,0.0-1.0,89483,List1B,black,woman,consent.html,,,,,,,,,,,,
54610.2,"<p>On the next page, you will see portraits of 8 people and their names.</p><p>Your first task is to take a few minutes to memorise the names of these people.</p><p>You will have to recall their names during the rest of the experiment, so it is</p><p>essential that you try to memorise these people and their names as best as you can.</p><br><p><strong>You will then be tested on your memory of these names and portraits.</strong></p><br><p>The experiment will start after you have completed this memory test.</p><br><p>Ready?</p>",0,html-button-response,2,139630,0.0-2.0,89483,List1B,black,woman,,,,,,,,,,,,,
44594.1,"<img src='img/portrait_matrix_list1.jpg' style='width:900px;height:500px;''></img><p>If you have memorised all the portraits and names and are ready to start, press Continue.</p><p><strong>Please note: Your memory of these faces will be tested 4 times during this experiment.</strong></p>",0,html-button-response,3,185232,0.0-3.0-0.0,89483,List1B,black,woman,,,,,,,,,,,,,
6231.3,"<img src=""portrait/BM1.jpg""style=""height:400px;""></img>",4,html-button-response,4,192467,0.0-3.0-1.0,89483,List1B,black,woman,,TRUE,4,,,,,,,,,,
null,CORRECT,,html-keyboard-response,5,193975,0.0-3.0-2.0-0.0,89483,List1B,black,woman,,,,null,,,,,,,,,
4000.7,"<img src=""portrait/WW2.jpg""style=""height:400px;""></img>",3,html-button-response,6,197978,0.0-3.0-4.0,89483,List1B,black,woman,,TRUE,3,,,,,,,,,,
null,CORRECT,,html-keyboard-response,7,199484,0.0-3.0-5.0-0.0,89483,List1B,black,woman,,,,null,,,,,,,,,
4392.4,"<img src=""portrait/WM2.jpg""style=""height:400px;""></img>",7,html-button-response,8,203879,0.0-3.0-7.0,89483,List1B,black,woman,,TRUE,7,,,,,,,,,,
null,CORRECT,,html-keyboard-response,9,205383,0.0-3.0-8.0-0.0,89483,List1B,black,woman,,,,null,,,,,,,,,
5192,"<img src=""portrait/BW1.jpg""style=""height:400px;""></img>",0,html-button-response,10,210578,0.0-3.0-10.0,89483,List1B,black,woman,,TRUE,0,,,,,,,,,,
null,CORRECT,,html-keyboard-response,11,212084,0.0-3.0-11.0-0.0,89483,List1B,black,woman,,,,null,,,,,,,,,
3964.6,"<img src=""portrait/WM1.jpg""style=""height:400px;""></img>",6,html-button-response,12,216051,0.0-3.0-13.0,89483,List1B,black,woman,,TRUE,6,,,,,,,,,,
null,CORRECT,,html-keyboard-response,13,217555,0.0-3.0-14.0-0.0,89483,List1B,black,woman,,,,null,,,,,,,,,
4398.9,"<img src=""portrait/WW1.jpg""style=""height:400px;""></img>",1,html-button-response,14,221956,0.0-3.0-16.0,89483,List1B,black,woman,,TRUE,1,,,,,,,,,,
null,CORRECT,,html-keyboard-response,15,223461,0.0-3.0-17.0-0.0,89483,List1B,black,woman,,,,null,,,,,,,,,
4039.9,"<img src=""portrait/BW2.jpg""style=""height:400px;""></img>",2,html-button-response,16,227503,0.0-3.0-19.0,89483,List1B,black,woman,,TRUE,2,,,,,,,,,,
null,CORRECT,,html-keyboard-response,17,229008,0.0-3.0-20.0-0.0,89483,List1B,black,woman,,,,null,,,,,,,,,
4677.5,"<img src=""portrait/BM2.jpg""style=""height:400px;""></img>",5,html-button-response,18,233688,0.0-3.0-22.0,89483,List1B,black,woman,,TRUE,5,,,,,,,,,,
null,CORRECT,,html-keyboard-response,19,235193,0.0-3.0-23.0-0.0,89483,List1B,black,woman,,,,null,,,,,,,,,
3767.6,<p>You got 8 out of 8 right first time. Press Continue.</p>,0,html-button-response,20,238963,0.0-3.0-25.0,89483,List1B,black,woman,,,,,,,,,,,,,
125846.9,"<p>In this experiment, you will view photographs of the people from the memory game interacting.</p><p>By using the <strong>exact</strong> phrase given <i>after</i> the photograph appears and recalling the correct names of the people in the photographs, form a sentence describing the interaction. You do not need to capitalise names.</p><p>Type your answer in the space provided. Please complete every sentence before moving onto the next trial.</p><p>You will only have a few seconds to memorise each given photograph and phrase before you can respond, so try your best to focus.</p><p>An example is given below. Press 'Continue' when you are ready.</p><img src='img/speaking_example.jpg' style='width:800px;height:460px;''></img>",0,html-button-response,21,365814,0.0-4.0,89483,List1B,black,woman,,,,,,,,,,,,,
8212.7,"<p>Before the experiment starts, you will watch two example trials. Press 'Continue'.</p>",0,html-button-response,22,375031,0.0-5.0,89483,List1B,black,woman,,,,,,,,,,,,,
null,<img src='img/play_eg.gif' style='height:400px;''></img>,,html-keyboard-response,23,378049,0.0-6.0,89483,List1B,black,woman,,,,null,,,,,,,,,
null,<p>is playing with</p>,,html-keyboard-response,24,380051,0.0-7.0,89483,List1B,black,woman,,,,null,,,,,,,,,
9094.3,<p><b>Answer:</b> kate is playing with beth</p>,0,html-button-response,25,389147,0.0-8.0,89483,List1B,black,woman,,,,,,,,,,,,,
null,<img src='img/dance_eg.gif' style='height:400px;''></img>,,html-keyboard-response,26,392153,0.0-9.0,89483,List1B,black,woman,,,,null,,,,,,,,,
null,<p>is being entertained by</p>,,html-keyboard-response,27,394155,0.0-10.0,89483,List1B,black,woman,,,,null,,,,,,,,,
10911,<p><b>Answer:</b> luke is being entertained by dave</p>,0,html-button-response,28,405068,0.0-11.0,89483,List1B,black,woman,,,,,,,,,,,,,
35458.1,"<p>Ready to start the experiment?</p><br><p><strong>Remember to describe the picture using a full sentence,</strong></p><p><strong>that combines the names of the people with the <i>exact</i> phrase given.</strong></p><p><strong>To receive full payment you must do this correctly.</strong></p><p><strong> You do not need to capitalise names or use punctuation.</strong></p><br><p>Press 'Continue' to begin.</p>",0,html-button-response,29,441529,0.0-12.0,89483,List1B,black,woman,,,,,,,,,,,,,
null,"<div style=""font-size:60px;"">+</div>",,html-keyboard-response,30,443035,0.0-13.0-0.0,89483,List1B,black,woman,,,,null,,,,,,,,,
null,"<img src=""stim_listB/greet5.gif""style=""height:400px;""></stim_listB>",,html-keyboard-response,31,445039,0.0-13.0-1.0,89483,List1B,black,woman,,,,null,,,,,,,,,
null,is greeting,,html-keyboard-response,32,447041,0.0-13.0-2.0,89483,List1B,black,woman,,,,null,,,,,,,,,
13194.6,,,survey-text,33,460243,0.0-13.0-3.0,89483,List1B,black,woman,,,,,"{""Q0"":""luke is greeting mike""}","<img src=""stim_listB/greet5.gif""style=""height:400px;""></stim_listB>",is greeting,,,,,,
null,"<div style=""font-size:60px;"">+</div>",,html-keyboard-response,34,460747,0.0-13.0-0.1,89483,List1B,black,woman,,,,null,,,,,,,,,
null,"<img src=""stim_listB/copy7.gif""style=""height:400px;""></stim_listB>",,html-keyboard-response,35,462750,0.0-13.0-1.1,89483,List1B,black,woman,,,,null,,,,,,,,,
null,is copying,,html-keyboard-response,36,464753,0.0-13.0-2.1,89483,List1B,black,woman,,,,null,,,,,,,,,
22807,,,survey-text,37,487566,0.0-13.0-3.1,89483,List1B,black,woman,,,,,"{""Q0"":""ruth is playing with kate""}","<img src=""stim_listB/copy7.gif""style=""height:400px;""></stim_listB>",is copying,,,,,,
null,"<div style=""font-size:60px;"">+</div>",,html-keyboard-response,38,488069,0.0-13.0-0.2,89483,List1B,black,woman,,,,null,,,,,,,,,
null,"<img src=""stim_listB/oppose4.gif""style=""height:400px;""></stim_listB>",,html-keyboard-response,39,490074,0.0-13.0-1.2,89483,List1B,black,woman,,,,null,,,,,,,,,
null,is being opposed by,,html-keyboard-response,40,492077,0.0-13.0-2.2,89483,List1B,black,woman,,,,null,,,,,,,,,
19888.2,,,survey-text,41,511969,0.0-13.0-3.2,89483,List1B,black,woman,,,,,"{""Q0"":""ruth is being opposed by luke""}","<img src=""stim_listB/oppose4.gif""style=""height:400px;""></stim_listB>",is being opposed by,,,,,,
null,"<div style=""font-size:60px;"">+</div>",,html-keyboard-response,42,512473,0.0-13.0-0.3,89483,List1B,black,woman,,,,null,,,,,,,,,
null,"<img src=""stim_listB/hug7.gif""style=""height:400px;""></stim_listB>",,html-keyboard-response,43,514478,0.0-13.0-1.3,89483,List1B,black,woman,,,,null,,,,,,,,,
null,is hugging,,html-keyboard-response,44,516479,0.0-13.0-2.3,89483,List1B,black,woman,,,,null,,,,,,,,,
26170.1,,,survey-text,45,542653,0.0-13.0-3.3,89483,List1B,black,woman,,,,,"{""Q0"":""ruth is hugging beth""}","<img src=""stim_listB/hug7.gif""style=""height:400px;""></stim_listB>",is hugging,,,,,,
null,"<div style=""font-size:60px;"">+</div>",,html-keyboard-response,46,543155,0.0-13.0-0.4,89483,List1B,black,woman,,,,null,,,,,,,,,
null,"<img src=""stim_listB/seduce6.gif""style=""height:400px;""></stim_listB>",,html-keyboard-response,47,545166,0.0-13.0-1.4,89483,List1B,black,woman,,,,null,,,,,,,,,
null,is being seduced by,,html-keyboard-response,48,547169,0.0-13.0-2.4,89483,List1B,black,woman,,,,null,,,,,,,,,
19521.3,,,survey-text,49,566695,0.0-13.0-3.4,89483,List1B,black,woman,,,,,"{""Q0"":""luke is being seduced by mike""}","<img src=""stim_listB/seduce6.gif""style=""height:400px;""></stim_listB>",is being seduced by,,,,,,
null,"<div style=""font-size:60px;"">+</div>",,html-keyboard-response,50,567196,0.0-13.0-0.5,89483,List1B,black,woman,,,,null,,,,,,,,,
null,"<img src=""stim_listB/look3.gif""style=""height:400px;""></stim_listB>",,html-keyboard-response,51,569199,0.0-13.0-1.5,89483,List1B,black,woman,,,,null,,,,,,,,,
null,is looking at,,html-keyboard-response,52,571201,0.0-13.0-2.5,89483,List1B,black,woman,,,,null,,,,,,,,,
17836.3,,,survey-text,53,589042,0.0-13.0-3.5,89483,List1B,black,woman,,,,,"{""Q0"":""ruth is looking at luke""}","<img src=""stim_listB/look3.gif""style=""height:400px;""></stim_listB>",is looking at,,,,,,
null,"<div style=""font-size:60px;"">+</div>",,html-keyboard-response,54,589544,0.0-13.0-0.6,89483,List1B,black,woman,,,,null,,,,,,,,,
null,"<img src=""stim_listB/copy8.gif""style=""height:400px;""></stim_listB>",,html-keyboard-response,55,591548,0.0-13.0-1.6,89483,List1B,black,woman,,,,null,,,,,,,,,
null,is being copied by,,html-keyboard-response,56,593551,0.0-13.0-2.6,89483,List1B,black,woman,,,,null,,,,,,,,,
28833.9,,,survey-text,57,622389,0.0-13.0-3.6,89483,List1B,black,woman,,,,,"{""Q0"":""ruth is being copied by beth""}","<img src=""stim_listB/copy8.gif""style=""height:400px;""></stim_listB>",is being copied by,,,,,,
null,"<div style=""font-size:60px;"">+</div>",,html-keyboard-response,58,622892,0.0-13.0-0.7,89483,List1B,black,woman,,,,null,,,,,,,,,
null,"<img src=""stim_listB/look8.gif""style=""height:400px;""></stim_listB>",,html-keyboard-response,59,624895,0.0-13.0-1.7,89483,List1B,black,woman,,,,null,,,,,,,,,
null,is being looked at by,,html-keyboard-response,60,626897,0.0-13.0-2.7,89483,List1B,black,woman,,,,null,,,,,,,,,
24077.3,,,survey-text,61,650981,0.0-13.0-3.7,89483,List1B,black,woman,,,,,"{""Q0"":""jane is being looked at by kate""}","<img src=""stim_listB/look8.gif""style=""height:400px;""></stim_listB>",is being looked at by,,,,,,
null,"<div style=""font-size:60px;"">+</div>",,html-keyboard-response,62,651486,0.0-13.0-0.8,89483,List1B,black,woman,,,,null,,,,,,,,,
null,"<img src=""stim_listB/kiss4.gif""style=""height:400px;""></stim_listB>",,html-keyboard-response,63,653489,0.0-13.0-1.8,89483,List1B,black,woman,,,,null,,,,,,,,,
null,is being kissed by,,html-keyboard-response,64,655491,0.0-13.0-2.8,89483,List1B,black,woman,,,,null,,,,,,,,,
22838.8,,,survey-text,65,678333,0.0-13.0-3.8,89483,List1B,black,woman,,,,,"{""Q0"":""dave is being kissed by jane""}","<img src=""stim_listB/kiss4.gif""style=""height:400px;""></stim_listB>",is being kissed by,,,,,,
null,"<div style=""font-size:60px;"">+</div>",,html-keyboard-response,66,678835,0.0-13.0-0.9,89483,List1B,black,woman,,,,null,,,,,,,,,
null,"<img src=""stim_listB/greet3.gif""style=""height:400px;""></stim_listB>",,html-keyboard-response,67,680837,0.0-13.0-1.9,89483,List1B,black,woman,,,,null,,,,,,,,,
null,is greeting,,html-keyboard-response,68,682853,0.0-13.0-2.9,89483,List1B,black,woman,,,,null,,,,,,,,,
19252.3,,,survey-text,69,702110,0.0-13.0-3.9,89483,List1B,black,woman,,,,,"{""Q0"":""dave is greeting ruth""}","<img src=""stim_listB/greet3.gif""style=""height:400px;""></stim_listB>",is greeting,,,,,,
null,"<div style=""font-size:60px;"">+</div>",,html-keyboard-response,70,702618,0.0-13.0-0.10,89483,List1B,black,woman,,,,null,,,,,,,,,
null,"<img src=""stim_listB/shout3.gif""style=""height:400px;""></stim_listB>",,html-keyboard-response,71,704621,0.0-13.0-1.10,89483,List1B,black,woman,,,,null,,,,,,,,,
null,is shouting at,,html-keyboard-response,72,706623,0.0-13.0-2.10,89483,List1B,black,woman,,,,null,,,,,,,,,
16386.8,,,survey-text,73,723014,0.0-13.0-3.10,89483,List1B,black,woman,,,,,"{""Q0"":""ruth is shouting at luke""}","<img src=""stim_listB/shout3.gif""style=""height:400px;""></stim_listB>",is shouting at,,,,,,
null,"<div style=""font-size:60px;"">+</div>",,html-keyboard-response,74,723517,0.0-13.0-0.11,89483,List1B,black,woman,,,,null,,,,,,,,,
null,"<img src=""stim_listB/seduce8.gif""style=""height:400px;""></stim_listB>",,html-keyboard-response,75,725519,0.0-13.0-1.11,89483,List1B,black,woman,,,,null,,,,,,,,,
null,is being seduced by,,html-keyboard-response,76,727522,0.0-13.0-2.11,89483,List1B,black,woman,,,,null,,,,,,,,,
15904.6,,,survey-text,77,743433,0.0-13.0-3.11,89483,List1B,black,woman,,,,,"{""Q0"":""ruth is being seduced by kate""}","<img src=""stim_listB/seduce8.gif""style=""height:400px;""></stim_listB>",is being seduced by,,,,,,
null,"<div style=""font-size:60px;"">+</div>",,html-keyboard-response,78,743935,0.0-13.0-0.12,89483,List1B,black,woman,,,,null,,,,,,,,,
null,"<img src=""stim_listB/oppose2.gif""style=""height:400px;""></stim_listB>",,html-keyboard-response,79,745937,0.0-13.0-1.12,89483,List1B,black,woman,,,,null,,,,,,,,,
null,is being opposed by,,html-keyboard-response,80,747939,0.0-13.0-2.12,89483,List1B,black,woman,,,,null,,,,,,,,,
19267,,,survey-text,81,767212,0.0-13.0-3.12,89483,List1B,black,woman,,,,,"{""Q0"":""fred is being opposed by beth""}","<img src=""stim_listB/oppose2.gif""style=""height:400px;""></stim_listB>",is being opposed by,,,,,,
null,"<div style=""font-size:60px;"">+</div>",,html-keyboard-response,82,767715,0.0-13.0-0.13,89483,List1B,black,woman,,,,null,,,,,,,,,
null,"<img src=""stim_listB/touch2.gif""style=""height:400px;""></stim_listB>",,html-keyboard-response,83,769717,0.0-13.0-1.13,89483,List1B,black,woman,,,,null,,,,,,,,,
null,is being touched by,,html-keyboard-response,84,771719,0.0-13.0-2.13,89483,List1B,black,woman,,,,null,,,,,,,,,
38510.9,,,survey-text,85,810233,0.0-13.0-3.13,89483,List1B,black,woman,,,,,"{""Q0"":""fred is being touched by beth""}","<img src=""stim_listB/touch2.gif""style=""height:400px;""></stim_listB>",is being touched by,,,,,,
null,"<div style=""font-size:60px;"">+</div>",,html-keyboard-response,86,810735,0.0-13.0-0.14,89483,List1B,black,woman,,,,null,,,,,,,,,
null,"<img src=""stim_listB/kiss7.gif""style=""height:400px;""></stim_listB>",,html-keyboard-response,87,812740,0.0-13.0-1.14,89483,List1B,black,woman,,,,null,,,,,,,,,
null,is kissing,,html-keyboard-response,88,814757,0.0-13.0-2.14,89483,List1B,black,woman,,,,null,,,,,,,,,
15678.5,,,survey-text,89,830441,0.0-13.0-3.14,89483,List1B,black,woman,,,,,"{""Q0"":""ruth is kissing beth""}","<img src=""stim_listB/kiss7.gif""style=""height:400px;""></stim_listB>",is kissing,,,,,,
null,"<div style=""font-size:60px;"">+</div>",,html-keyboard-response,90,830957,0.0-13.0-0.15,89483,List1B,black,woman,,,,null,,,,,,,,,
null,"<img src=""stim_listB/seduce1.gif""style=""height:400px;""></stim_listB>",,html-keyboard-response,91,832961,0.0-13.0-1.15,89483,List1B,black,woman,,,,null,,,,,,,,,
null,is seducing,,html-keyboard-response,92,834963,0.0-13.0-2.15,89483,List1B,black,woman,,,,null,,,,,,,,,
15949.6,,,survey-text,93,850918,0.0-13.0-3.15,89483,List1B,black,woman,,,,,"{""Q0"":""fred is seducing kate""}","<img src=""stim_listB/seduce1.gif""style=""height:400px;""></stim_listB>",is seducing,,,,,,
null,"<div style=""font-size:60px;"">+</div>",,html-keyboard-response,94,851420,0.0-13.0-0.16,89483,List1B,black,woman,,,,null,,,,,,,,,
null,"<img src=""stim_listB/shout1.gif""style=""height:400px;""></stim_listB>",,html-keyboard-response,95,853424,0.0-13.0-1.16,89483,List1B,black,woman,,,,null,,,,,,,,,
null,is shouting at,,html-keyboard-response,96,855426,0.0-13.0-2.16,89483,List1B,black,woman,,,,null,,,,,,,,,
11467.8,,,survey-text,97,866899,0.0-13.0-3.16,89483,List1B,black,woman,,,,,"{""Q0"":""fred is shouting at beth""}","<img src=""stim_listB/shout1.gif""style=""height:400px;""></stim_listB>",is shouting at,,,,,,
null,"<div style=""font-size:60px;"">+</div>",,html-keyboard-response,98,867404,0.0-13.0-0.17,89483,List1B,black,woman,,,,null,,,,,,,,,
null,"<img src=""stim_listB/greet6.gif""style=""height:400px;""></stim_listB>",,html-keyboard-response,99,869408,0.0-13.0-1.17,89483,List1B,black,woman,,,,null,,,,,,,,,
null,is being greeted by,,html-keyboard-response,100,871410,0.0-13.0-2.17,89483,List1B,black,woman,,,,null,,,,,,,,,
19825.1,,,survey-text,101,891240,0.0-13.0-3.17,89483,List1B,black,woman,,,,,"{""Q0"":""fred is being greeted by dave""}","<img src=""stim_listB/greet6.gif""style=""height:400px;""></stim_listB>",is being greeted by,,,,,,
null,"<div style=""font-size:60px;"">+</div>",,html-keyboard-response,102,891752,0.0-13.0-0.18,89483,List1B,black,woman,,,,null,,,,,,,,,
null,"<img src=""stim_listB/kiss5.gif""style=""height:400px;""></stim_listB>",,html-keyboard-response,103,893755,0.0-13.0-1.18,89483,List1B,black,woman,,,,null,,,,,,,,,
null,is kissing,,html-keyboard-response,104,895757,0.0-13.0-2.18,89483,List1B,black,woman,,,,null,,,,,,,,,
15425.6,,,survey-text,105,911185,0.0-13.0-3.18,89483,List1B,black,woman,,,,,"{""Q0"":""fred is kissing luke""}","<img src=""stim_listB/kiss5.gif""style=""height:400px;""></stim_listB>",is kissing,,,,,,
null,"<div style=""font-size:60px;"">+</div>",,html-keyboard-response,106,911687,0.0-13.0-0.19,89483,List1B,black,woman,,,,null,,,,,,,,,
null,"<img src=""stim_listB/touch1.gif""style=""height:400px;""></stim_listB>",,html-keyboard-response,107,913699,0.0-13.0-1.19,89483,List1B,black,woman,,,,null,,,,,,,,,
null,is touching,,html-keyboard-response,108,915701,0.0-13.0-2.19,89483,List1B,black,woman,,,,null,,,,,,,,,
22889,,,survey-text,109,938594,0.0-13.0-3.19,89483,List1B,black,woman,,,,,"{""Q0"":""kate is touching mike""}","<img src=""stim_listB/touch1.gif""style=""height:400px;""></stim_listB>",is touching,,,,,,
31888.7,"<img src='img/portrait_matrix_list1.jpg' style='width:900px;height:500px;''></img><p>If you have memorised all the portraits and names and are ready to start, press Continue.</p><p><strong>Please note: Your memory of these faces will be tested 4 times during this experiment.</strong></p>",0,html-button-response,110,970485,0.0-14.0-0.0,89483,List1B,black,woman,,,,,,,,,,,,,
3672.1,"<img src=""portrait/WM2.jpg""style=""height:400px;""></img>",7,html-button-response,111,975160,0.0-14.0-1.0,89483,List1B,black,woman,,TRUE,7,,,,,,,,,,
null,CORRECT,,html-keyboard-response,112,976676,0.0-14.0-2.0-0.0,89483,List1B,black,woman,,,,null,,,,,,,,,
2977.4,"<img src=""portrait/WM1.jpg""style=""height:400px;""></img>",6,html-button-response,113,979655,0.0-14.0-4.0,89483,List1B,black,woman,,TRUE,6,,,,,,,,,,
null,CORRECT,,html-keyboard-response,114,981160,0.0-14.0-5.0-0.0,89483,List1B,black,woman,,,,null,,,,,,,,,
1906.4,"<img src=""portrait/BM2.jpg""style=""height:400px;""></img>",5,html-button-response,115,983068,0.0-14.0-7.0,89483,List1B,black,woman,,TRUE,5,,,,,,,,,,
null,CORRECT,,html-keyboard-response,116,984573,0.0-14.0-8.0-0.0,89483,List1B,black,woman,,,,null,,,,,,,,,
2763.2,"<img src=""portrait/BM1.jpg""style=""height:400px;""></img>",4,html-button-response,117,987339,0.0-14.0-10.0,89483,List1B,black,woman,,TRUE,4,,,,,,,,,,
null,CORRECT,,html-keyboard-response,118,988842,0.0-14.0-11.0-0.0,89483,List1B,black,woman,,,,null,,,,,,,,,
2737.4,"<img src=""portrait/WW1.jpg""style=""height:400px;""></img>",1,html-button-response,119,991582,0.0-14.0-13.0,89483,List1B,black,woman,,TRUE,1,,,,,,,,,,
null,CORRECT,,html-keyboard-response,120,993093,0.0-14.0-14.0-0.0,89483,List1B,black,woman,,,,null,,,,,,,,,
3198.1,"<img src=""portrait/BW1.jpg""style=""height:400px;""></img>",0,html-button-response,121,996294,0.0-14.0-16.0,89483,List1B,black,woman,,TRUE,0,,,,,,,,,,
null,CORRECT,,html-keyboard-response,122,997797,0.0-14.0-17.0-0.0,89483,List1B,black,woman,,,,null,,,,,,,,,
2749.1,"<img src=""portrait/WW2.jpg""style=""height:400px;""></img>",3,html-button-response,123,1000548,0.0-14.0-19.0,89483,List1B,black,woman,,TRUE,3,,,,,,,,,,
null,CORRECT,,html-keyboard-response,124,1002051,0.0-14.0-20.0-0.0,89483,List1B,black,woman,,,,null,,,,,,,,,
2427.2,"<img src=""portrait/BW2.jpg""style=""height:400px;""></img>",2,html-button-response,125,1004480,0.0-14.0-22.0,89483,List1B,black,woman,,TRUE,2,,,,,,,,,,
null,CORRECT,,html-keyboard-response,126,1005983,0.0-14.0-23.0-0.0,89483,List1B,black,woman,,,,null,,,,,,,,,
2693.9,<p>You got 8 out of 8 right first time. Press Continue.</p>,0,html-button-response,127,1008679,0.0-14.0-25.0,89483,List1B,black,woman,,,,,,,,,,,,,
null,"<div style=""font-size:60px;"">+</div>",,html-keyboard-response,128,1010184,0.0-15.0-0.0,89483,List1B,black,woman,,,,null,,,,,,,,,
null,"<img src=""stim_listB/hug1.gif""style=""height:400px;""></stim_listB>",,html-keyboard-response,129,1012187,0.0-15.0-1.0,89483,List1B,black,woman,,,,null,,,,,,,,,
null,is hugging,,html-keyboard-response,130,1014190,0.0-15.0-2.0,89483,List1B,black,woman,,,,null,,,,,,,,,
20791.1,,,survey-text,131,1034985,0.0-15.0-3.0,89483,List1B,black,woman,,,,,"{""Q0"":""fred is hugging beth ""}","<img src=""stim_listB/hug1.gif""style=""height:400px;""></stim_listB>",is hugging,,,,,,
null,"<div style=""font-size:60px;"">+</div>",,html-keyboard-response,132,1035486,0.0-15.0-0.1,89483,List1B,black,woman,,,,null,,,,,,,,,
null,"<img src=""stim_listB/shout6.gif""style=""height:400px;""></stim_listB>",,html-keyboard-response,133,1037490,0.0-15.0-1.1,89483,List1B,black,woman,,,,null,,,,,,,,,
null,is being shouted at by,,html-keyboard-response,134,1039502,0.0-15.0-2.1,89483,List1B,black,woman,,,,null,,,,,,,,,
26564.4,,,survey-text,135,1066071,0.0-15.0-3.1,89483,List1B,black,woman,,,,,"{""Q0"":""dave is being shouted at by luke""}","<img src=""stim_listB/shout6.gif""style=""height:400px;""></stim_listB>",is being shouted at by,,,,,,
null,"<div style=""font-size:60px;"">+</div>",,html-keyboard-response,136,1066576,0.0-15.0-0.2,89483,List1B,black,woman,,,,null,,,,,,,,,
null,"<img src=""stim_listB/look7.gif""style=""height:400px;""></stim_listB>",,html-keyboard-response,137,1068581,0.0-15.0-1.2,89483,List1B,black,woman,,,,null,,,,,,,,,
null,is looking at,,html-keyboard-response,138,1070583,0.0-15.0-2.2,89483,List1B,black,woman,,,,null,,,,,,,,,
12969.4,,,survey-text,139,1083558,0.0-15.0-3.2,89483,List1B,black,woman,,,,,"{""Q0"":""beth is looking at ruth""}","<img src=""stim_listB/look7.gif""style=""height:400px;""></stim_listB>",is looking at,,,,,,
null,"<div style=""font-size:60px;"">+</div>",,html-keyboard-response,140,1084061,0.0-15.0-0.3,89483,List1B,black,woman,,,,null,,,,,,,,,
null,"<img src=""stim_listB/copy5.gif""style=""height:400px;""></stim_listB>",,html-keyboard-response,141,1086066,0.0-15.0-1.3,89483,List1B,black,woman,,,,null,,,,,,,,,
null,is copying,,html-keyboard-response,142,1088069,0.0-15.0-2.3,89483,List1B,black,woman,,,,null,,,,,,,,,
15942.5,,,survey-text,143,1104016,0.0-15.0-3.3,89483,List1B,black,woman,,,,,"{""Q0"":""luke is copying mike""}","<img src=""stim_listB/copy5.gif""style=""height:400px;""></stim_listB>",is copying,,,,,,
null,"<div style=""font-size:60px;"">+</div>",,html-keyboard-response,144,1104520,0.0-15.0-0.4,89483,List1B,black,woman,,,,null,,,,,,,,,
null,"<img src=""stim_listB/copy3.gif""style=""height:400px;""></stim_listB>",,html-keyboard-response,145,1106525,0.0-15.0-1.4,89483,List1B,black,woman,,,,null,,,,,,,,,
null,is copying,,html-keyboard-response,146,1108528,0.0-15.0-2.4,89483,List1B,black,woman,,,,null,,,,,,,,,
12144.8,,,survey-text,147,1120677,0.0-15.0-3.4,89483,List1B,black,woman,,,,,"{""Q0"":""dave is copying ruth""}","<img src=""stim_listB/copy3.gif""style=""height:400px;""></stim_listB>",is copying,,,,,,
null,"<div style=""font-size:60px;"">+</div>",,html-keyboard-response,148,1121180,0.0-15.0-0.5,89483,List1B,black,woman,,,,null,,,,,,,,,
null,"<img src=""stim_listB/challenge4.gif""style=""height:400px;""></stim_listB>",,html-keyboard-response,149,1123183,0.0-15.0-1.5,89483,List1B,black,woman,,,,null,,,,,,,,,
null,is being challenged by,,html-keyboard-response,150,1125184,0.0-15.0-2.5,89483,List1B,black,woman,,,,null,,,,,,,,,
19899.8,,,survey-text,151,1145088,0.0-15.0-3.5,89483,List1B,black,woman,,,,,"{""Q0"":""jane is being challenged by luke""}","<img src=""stim_listB/challenge4.gif""style=""height:400px;""></stim_listB>",is being challenged by,,,,,,
null,"<div style=""font-size:60px;"">+</div>",,html-keyboard-response,152,1145589,0.0-15.0-0.6,89483,List1B,black,woman,,,,null,,,,,,,,,
null,"<img src=""stim_listB/hug6.gif""style=""height:400px;""></stim_listB>",,html-keyboard-response,153,1147594,0.0-15.0-1.6,89483,List1B,black,woman,,,,null,,,,,,,,,
null,is being hugged by,,html-keyboard-response,154,1149596,0.0-15.0-2.6,89483,List1B,black,woman,,,,null,,,,,,,,,
17578.3,,,survey-text,155,1167180,0.0-15.0-3.6,89483,List1B,black,woman,,,,,"{""Q0"":""dave is being hugged by mike""}","<img src=""stim_listB/hug6.gif""style=""height:400px;""></stim_listB>",is being hugged by,,,,,,
null,"<div style=""font-size:60px;"">+</div>",,html-keyboard-response,156,1167681,0.0-15.0-0.7,89483,List1B,black,woman,,,,null,,,,,,,,,
null,"<img src=""stim_listB/oppose8.gif""style=""height:400px;""></stim_listB>",,html-keyboard-response,157,1169684,0.0-15.0-1.7,89483,List1B,black,woman,,,,null,,,,,,,,,
null,is being opposed by,,html-keyboard-response,158,1171686,0.0-15.0-2.7,89483,List1B,black,woman,,,,null,,,,,,,,,
23811.4,,,survey-text,159,1195502,0.0-15.0-3.7,89483,List1B,black,woman,,,,,"{""Q0"":""ruth is being opposed by beth""}","<img src=""stim_listB/oppose8.gif""style=""height:400px;""></stim_listB>",is being opposed by,,,,,,
null,"<div style=""font-size:60px;"">+</div>",,html-keyboard-response,160,1196003,0.0-15.0-0.8,89483,List1B,black,woman,,,,null,,,,,,,,,
null,"<img src=""stim_listB/touch3.gif""style=""height:400px;""></stim_listB>",,html-keyboard-response,161,1198006,0.0-15.0-1.8,89483,List1B,black,woman,,,,null,,,,,,,,,
null,is touching,,html-keyboard-response,162,1200008,0.0-15.0-2.8,89483,List1B,black,woman,,,,null,,,,,,,,,
11448,,,survey-text,163,1211461,0.0-15.0-3.8,89483,List1B,black,woman,,,,,"{""Q0"":""dave is touching jane""}","<img src=""stim_listB/touch3.gif""style=""height:400px;""></stim_listB>",is touching,,,,,,
null,"<div style=""font-size:60px;"">+</div>",,html-keyboard-response,164,1211964,0.0-15.0-0.9,89483,List1B,black,woman,,,,null,,,,,,,,,
null,"<img src=""stim_listB/greet2.gif""style=""height:400px;""></stim_listB>",,html-keyboard-response,165,1213967,0.0-15.0-1.9,89483,List1B,black,woman,,,,null,,,,,,,,,
null,is being greeted by,,html-keyboard-response,166,1215969,0.0-15.0-2.9,89483,List1B,black,woman,,,,null,,,,,,,,,
17623.1,,,survey-text,167,1233597,0.0-15.0-3.9,89483,List1B,black,woman,,,,,"{""Q0"":""fred is being greeted by kate""}","<img src=""stim_listB/greet2.gif""style=""height:400px;""></stim_listB>",is being greeted by,,,,,,
null,"<div style=""font-size:60px;"">+</div>",,html-keyboard-response,168,1234108,0.0-15.0-0.10,89483,List1B,black,woman,,,,null,,,,,,,,,
null,"<img src=""stim_listB/seduce7.gif""style=""height:400px;""></stim_listB>",,html-keyboard-response,169,1236111,0.0-15.0-1.10,89483,List1B,black,woman,,,,null,,,,,,,,,
null,is seducing,,html-keyboard-response,170,1238112,0.0-15.0-2.10,89483,List1B,black,woman,,,,null,,,,,,,,,
20230,,,survey-text,171,1258345,0.0-15.0-3.10,89483,List1B,black,woman,,,,,"{""Q0"":""beth is seducing jane""}","<img src=""stim_listB/seduce7.gif""style=""height:400px;""></stim_listB>",is seducing,,,,,,
null,"<div style=""font-size:60px;"">+</div>",,html-keyboard-response,172,1258847,0.0-15.0-0.11,89483,List1B,black,woman,,,,null,,,,,,,,,
null,"<img src=""stim_listB/kiss8.gif""style=""height:400px;""></stim_listB>",,html-keyboard-response,173,1260850,0.0-15.0-1.11,89483,List1B,black,woman,,,,null,,,,,,,,,
null,is being kissed by,,html-keyboard-response,174,1262852,0.0-15.0-2.11,89483,List1B,black,woman,,,,null,,,,,,,,,
17427.1,,,survey-text,175,1280284,0.0-15.0-3.11,89483,List1B,black,woman,,,,,"{""Q0"":""kate is being kissed by jane""}","<img src=""stim_listB/kiss8.gif""style=""height:400px;""></stim_listB>",is being kissed by,,,,,,
null,"<div style=""font-size:60px;"">+</div>",,html-keyboard-response,176,1280787,0.0-15.0-0.12,89483,List1B,black,woman,,,,null,,,,,,,,,
null,"<img src=""stim_listB/challenge6.gif""style=""height:400px;""></stim_listB>",,html-keyboard-response,177,1282790,0.0-15.0-1.12,89483,List1B,black,woman,,,,null,,,,,,,,,
null,is being challenged by,,html-keyboard-response,178,1284792,0.0-15.0-2.12,89483,List1B,black,woman,,,,null,,,,,,,,,
18728,,,survey-text,179,1303524,0.0-15.0-3.12,89483,List1B,black,woman,,,,,"{""Q0"":""fred is being challenged by dave""}","<img src=""stim_listB/challenge6.gif""style=""height:400px;""></stim_listB>",is being challenged by,,,,,,
null,"<div style=""font-size:60px;"">+</div>",,html-keyboard-response,180,1304027,0.0-15.0-0.13,89483,List1B,black,woman,,,,null,,,,,,,,,
null,"<img src=""stim_listB/hug4.gif""style=""height:400px;""></stim_listB>",,html-keyboard-response,181,1306030,0.0-15.0-1.13,89483,List1B,black,woman,,,,null,,,,,,,,,
null,is being hugged by,,html-keyboard-response,182,1308032,0.0-15.0-2.13,89483,List1B,black,woman,,,,null,,,,,,,,,
15640.8,,,survey-text,183,1323678,0.0-15.0-3.13,89483,List1B,black,woman,,,,,"{""Q0"":""dave is being hugged by jane""}","<img src=""stim_listB/hug4.gif""style=""height:400px;""></stim_listB>",is being hugged by,,,,,,
null,"<div style=""font-size:60px;"">+</div>",,html-keyboard-response,184,1324179,0.0-15.0-0.14,89483,List1B,black,woman,,,,null,,,,,,,,,
null,"<img src=""stim_listB/hug8.gif""style=""height:400px;""></stim_listB>",,html-keyboard-response,185,1326182,0.0-15.0-1.14,89483,List1B,black,woman,,,,null,,,,,,,,,
null,is being hugged by,,html-keyboard-response,186,1328184,0.0-15.0-2.14,89483,List1B,black,woman,,,,null,,,,,,,,,
19686.7,,,survey-text,187,1347876,0.0-15.0-3.14,89483,List1B,black,woman,,,,,"{""Q0"":""kate is being hugged by jane""}","<img src=""stim_listB/hug8.gif""style=""height:400px;""></stim_listB>",is being hugged by,,,,,,
null,"<div style=""font-size:60px;"">+</div>",,html-keyboard-response,188,1348378,0.0-15.0-0.15,89483,List1B,black,woman,,,,null,,,,,,,,,
null,"<img src=""stim_listB/oppose5.gif""style=""height:400px;""></stim_listB>",,html-keyboard-response,189,1350381,0.0-15.0-1.15,89483,List1B,black,woman,,,,null,,,,,,,,,
null,is opposing,,html-keyboard-response,190,1352388,0.0-15.0-2.15,89483,List1B,black,woman,,,,null,,,,,,,,,
19641.4,,,survey-text,191,1372034,0.0-15.0-3.15,89483,List1B,black,woman,,,,,"{""Q0"":""dave is opposing mike""}","<img src=""stim_listB/oppose5.gif""style=""height:400px;""></stim_listB>",is opposing,,,,,,
null,"<div style=""font-size:60px;"">+</div>",,html-keyboard-response,192,1372538,0.0-15.0-0.16,89483,List1B,black,woman,,,,null,,,,,,,,,
null,"<img src=""stim_listB/hug2.gif""style=""height:400px;""></stim_listB>",,html-keyboard-response,193,1374541,0.0-15.0-1.16,89483,List1B,black,woman,,,,null,,,,,,,,,
null,is being hugged by,,html-keyboard-response,194,1376543,0.0-15.0-2.16,89483,List1B,black,woman,,,,null,,,,,,,,,
13308.5,,,survey-text,195,1389860,0.0-15.0-3.16,89483,List1B,black,woman,,,,,"{""Q0"":""kate is being hugged by mike""}","<img src=""stim_listB/hug2.gif""style=""height:400px;""></stim_listB>",is being hugged by,,,,,,
null,"<div style=""font-size:60px;"">+</div>",,html-keyboard-response,196,1390362,0.0-15.0-0.17,89483,List1B,black,woman,,,,null,,,,,,,,,
null,"<img src=""stim_listB/look6.gif""style=""height:400px;""></stim_listB>",,html-keyboard-response,197,1392368,0.0-15.0-1.17,89483,List1B,black,woman,,,,null,,,,,,,,,
null,is being looked at by,,html-keyboard-response,198,1394370,0.0-15.0-2.17,89483,List1B,black,woman,,,,null,,,,,,,,,
13292.7,,,survey-text,199,1407667,0.0-15.0-3.17,89483,List1B,black,woman,,,,,"{""Q0"":""dave is being looked at by mike""}","<img src=""stim_listB/look6.gif""style=""height:400px;""></stim_listB>",is being looked at by,,,,,,
null,"<div style=""font-size:60px;"">+</div>",,html-keyboard-response,200,1408171,0.0-15.0-0.18,89483,List1B,black,woman,,,,null,,,,,,,,,
null,"<img src=""stim_listB/seduce4.gif""style=""height:400px;""></stim_listB>",,html-keyboard-response,201,1410175,0.0-15.0-1.18,89483,List1B,black,woman,,,,null,,,,,,,,,
null,is being seduced by,,html-keyboard-response,202,1412176,0.0-15.0-2.18,89483,List1B,black,woman,,,,null,,,,,,,,,
20030.1,,,survey-text,203,1432212,0.0-15.0-3.18,89483,List1B,black,woman,,,,,"{""Q0"":""dave is being seduced by ruth""}","<img src=""stim_listB/seduce4.gif""style=""height:400px;""></stim_listB>",is being seduced by,,,,,,
null,"<div style=""font-size:60px;"">+</div>",,html-keyboard-response,204,1432714,0.0-15.0-0.19,89483,List1B,black,woman,,,,null,,,,,,,,,
null,"<img src=""stim_listB/copy2.gif""style=""height:400px;""></stim_listB>",,html-keyboard-response,205,1434718,0.0-15.0-1.19,89483,List1B,black,woman,,,,null,,,,,,,,,
null,is being copied by,,html-keyboard-response,206,1436720,0.0-15.0-2.19,89483,List1B,black,woman,,,,null,,,,,,,,,
20713,,,survey-text,207,1457438,0.0-15.0-3.19,89483,List1B,black,woman,,,,,"{""Q0"":""fred is being copied by kate""}","<img src=""stim_listB/copy2.gif""style=""height:400px;""></stim_listB>",is being copied by,,,,,,
17655.8,"<img src='img/portrait_matrix_list1.jpg' style='width:900px;height:500px;''></img><p>If you have memorised all the portraits and names and are ready to start, press Continue.</p><p><strong>Please note: Your memory of these faces will be tested 4 times during this experiment.</strong></p>",0,html-button-response,208,1475096,0.0-16.0-0.0,89483,List1B,black,woman,,,,,,,,,,,,,
2873.2,"<img src=""portrait/WM1.jpg""style=""height:400px;""></img>",6,html-button-response,209,1478974,0.0-16.0-1.0,89483,List1B,black,woman,,TRUE,6,,,,,,,,,,
null,CORRECT,,html-keyboard-response,210,1480478,0.0-16.0-2.0-0.0,89483,List1B,black,woman,,,,null,,,,,,,,,
2268.2,"<img src=""portrait/WM2.jpg""style=""height:400px;""></img>",7,html-button-response,211,1482749,0.0-16.0-4.0,89483,List1B,black,woman,,TRUE,7,,,,,,,,,,
null,CORRECT,,html-keyboard-response,212,1484252,0.0-16.0-5.0-0.0,89483,List1B,black,woman,,,,null,,,,,,,,,
4162.6,"<img src=""portrait/WW2.jpg""style=""height:400px;""></img>",3,html-button-response,213,1488417,0.0-16.0-7.0,89483,List1B,black,woman,,TRUE,3,,,,,,,,,,
null,CORRECT,,html-keyboard-response,214,1489920,0.0-16.0-8.0-0.0,89483,List1B,black,woman,,,,null,,,,,,,,,
3264.7,"<img src=""portrait/BW1.jpg""style=""height:400px;""></img>",0,html-button-response,215,1493187,0.0-16.0-10.0,89483,List1B,black,woman,,TRUE,0,,,,,,,,,,
null,CORRECT,,html-keyboard-response,216,1494692,0.0-16.0-11.0-0.0,89483,List1B,black,woman,,,,null,,,,,,,,,
3311.1,"<img src=""portrait/BW2.jpg""style=""height:400px;""></img>",2,html-button-response,217,1498005,0.0-16.0-13.0,89483,List1B,black,woman,,TRUE,2,,,,,,,,,,
null,CORRECT,,html-keyboard-response,218,1499509,0.0-16.0-14.0-0.0,89483,List1B,black,woman,,,,null,,,,,,,,,
2906.8,"<img src=""portrait/BM1.jpg""style=""height:400px;""></img>",4,html-button-response,219,1502418,0.0-16.0-16.0,89483,List1B,black,woman,,TRUE,4,,,,,,,,,,
null,CORRECT,,html-keyboard-response,220,1503922,0.0-16.0-17.0-0.0,89483,List1B,black,woman,,,,null,,,,,,,,,
2924.2,"<img src=""portrait/WW1.jpg""style=""height:400px;""></img>",1,html-button-response,221,1506848,0.0-16.0-19.0,89483,List1B,black,woman,,TRUE,1,,,,,,,,,,
null,CORRECT,,html-keyboard-response,222,1508351,0.0-16.0-20.0-0.0,89483,List1B,black,woman,,,,null,,,,,,,,,
3084.6,"<img src=""portrait/BM2.jpg""style=""height:400px;""></img>",5,html-button-response,223,1511438,0.0-16.0-22.0,89483,List1B,black,woman,,TRUE,5,,,,,,,,,,
null,CORRECT,,html-keyboard-response,224,1512941,0.0-16.0-23.0-0.0,89483,List1B,black,woman,,,,null,,,,,,,,,
2132.3,<p>You got 8 out of 8 right first time. Press Continue.</p>,0,html-button-response,225,1515076,0.0-16.0-25.0,89483,List1B,black,woman,,,,,,,,,,,,,
null,"<div style=""font-size:60px;"">+</div>",,html-keyboard-response,226,1516581,0.0-17.0-0.0,89483,List1B,black,woman,,,,null,,,,,,,,,
null,"<img src=""stim_listB/greet4.gif""style=""height:400px;""></stim_listB>",,html-keyboard-response,227,1518585,0.0-17.0-1.0,89483,List1B,black,woman,,,,null,,,,,,,,,
null,is being greeted by,,html-keyboard-response,228,1520588,0.0-17.0-2.0,89483,List1B,black,woman,,,,null,,,,,,,,,
16334.4,,,survey-text,229,1536925,0.0-17.0-3.0,89483,List1B,black,woman,,,,,"{""Q0"":""jane is being greeted by luke""}","<img src=""stim_listB/greet4.gif""style=""height:400px;""></stim_listB>",is being greeted by,,,,,,
null,"<div style=""font-size:60px;"">+</div>",,html-keyboard-response,230,1537427,0.0-17.0-0.1,89483,List1B,black,woman,,,,null,,,,,,,,,
null,"<img src=""stim_listB/oppose3.gif""style=""height:400px;""></stim_listB>",,html-keyboard-response,231,1539430,0.0-17.0-1.1,89483,List1B,black,woman,,,,null,,,,,,,,,
null,is opposing,,html-keyboard-response,232,1541440,0.0-17.0-2.1,89483,List1B,black,woman,,,,null,,,,,,,,,
13129.1,,,survey-text,233,1554573,0.0-17.0-3.1,89483,List1B,black,woman,,,,,"{""Q0"":""dave is opposing jane""}","<img src=""stim_listB/oppose3.gif""style=""height:400px;""></stim_listB>",is opposing,,,,,,
null,"<div style=""font-size:60px;"">+</div>",,html-keyboard-response,234,1555076,0.0-17.0-0.2,89483,List1B,black,woman,,,,null,,,,,,,,,
null,"<img src=""stim_listB/look2.gif""style=""height:400px;""></stim_listB>",,html-keyboard-response,235,1557079,0.0-17.0-1.2,89483,List1B,black,woman,,,,null,,,,,,,,,
null,is being looked at by,,html-keyboard-response,236,1559081,0.0-17.0-2.2,89483,List1B,black,woman,,,,null,,,,,,,,,
15383.3,,,survey-text,237,1574467,0.0-17.0-3.2,89483,List1B,black,woman,,,,,"{""Q0"":""kate is being looked at by mike""}","<img src=""stim_listB/look2.gif""style=""height:400px;""></stim_listB>",is being looked at by,,,,,,
null,"<div style=""font-size:60px;"">+</div>",,html-keyboard-response,238,1574970,0.0-17.0-0.3,89483,List1B,black,woman,,,,null,,,,,,,,,
null,"<img src=""stim_listB/challenge1.gif""style=""height:400px;""></stim_listB>",,html-keyboard-response,239,1576973,0.0-17.0-1.3,89483,List1B,black,woman,,,,null,,,,,,,,,
null,is challenging,,html-keyboard-response,240,1578975,0.0-17.0-2.3,89483,List1B,black,woman,,,,null,,,,,,,,,
11563.1,,,survey-text,241,1590542,0.0-17.0-3.3,89483,List1B,black,woman,,,,,"{""Q0"":""beth is challenging mike""}","<img src=""stim_listB/challenge1.gif""style=""height:400px;""></stim_listB>",is challenging,,,,,,
null,"<div style=""font-size:60px;"">+</div>",,html-keyboard-response,242,1591056,0.0-17.0-0.4,89483,List1B,black,woman,,,,null,,,,,,,,,
null,"<img src=""stim_listB/hug3.gif""style=""height:400px;""></stim_listB>",,html-keyboard-response,243,1593059,0.0-17.0-1.4,89483,List1B,black,woman,,,,null,,,,,,,,,
null,is hugging,,html-keyboard-response,244,1595061,0.0-17.0-2.4,89483,List1B,black,woman,,,,null,,,,,,,,,
11227.1,,,survey-text,245,1606291,0.0-17.0-3.4,89483,List1B,black,woman,,,,,"{""Q0"":""ruth is hugging luke""}","<img src=""stim_listB/hug3.gif""style=""height:400px;""></stim_listB>",is hugging,,,,,,
null,"<div style=""font-size:60px;"">+</div>",,html-keyboard-response,246,1606797,0.0-17.0-0.5,89483,List1B,black,woman,,,,null,,,,,,,,,
null,"<img src=""stim_listB/greet8.gif""style=""height:400px;""></stim_listB>",,html-keyboard-response,247,1608800,0.0-17.0-1.5,89483,List1B,black,woman,,,,null,,,,,,,,,
null,is being greeted by,,html-keyboard-response,248,1610802,0.0-17.0-2.5,89483,List1B,black,woman,,,,null,,,,,,,,,
26385.1,,,survey-text,249,1637190,0.0-17.0-3.5,89483,List1B,black,woman,,,,,"{""Q0"":""beth is being greeted by jane""}","<img src=""stim_listB/greet8.gif""style=""height:400px;""></stim_listB>",is being greeted by,,,,,,
null,"<div style=""font-size:60px;"">+</div>",,html-keyboard-response,250,1637696,0.0-17.0-0.6,89483,List1B,black,woman,,,,null,,,,,,,,,
null,"<img src=""stim_listB/seduce3.gif""style=""height:400px;""></stim_listB>",,html-keyboard-response,251,1639698,0.0-17.0-1.6,89483,List1B,black,woman,,,,null,,,,,,,,,
null,is seducing,,html-keyboard-response,252,1641700,0.0-17.0-2.6,89483,List1B,black,woman,,,,null,,,,,,,,,
13910,,,survey-text,253,1655615,0.0-17.0-3.6,89483,List1B,black,woman,,,,,"{""Q0"":""luke is seducing jane""}","<img src=""stim_listB/seduce3.gif""style=""height:400px;""></stim_listB>",is seducing,,,,,,
null,"<div style=""font-size:60px;"">+</div>",,html-keyboard-response,254,1656118,0.0-17.0-0.7,89483,List1B,black,woman,,,,null,,,,,,,,,
null,"<img src=""stim_listB/look4.gif""style=""height:400px;""></stim_listB>",,html-keyboard-response,255,1658121,0.0-17.0-1.7,89483,List1B,black,woman,,,,null,,,,,,,,,
null,is being looked at by,,html-keyboard-response,256,1660123,0.0-17.0-2.7,89483,List1B,black,woman,,,,null,,,,,,,,,
14008.7,,,survey-text,257,1674136,0.0-17.0-3.7,89483,List1B,black,woman,,,,,"{""Q0"":""dave is being looked at by jane""}","<img src=""stim_listB/look4.gif""style=""height:400px;""></stim_listB>",is being looked at by,,,,,,
null,"<div style=""font-size:60px;"">+</div>",,html-keyboard-response,258,1674639,0.0-17.0-0.8,89483,List1B,black,woman,,,,null,,,,,,,,,
null,"<img src=""stim_listB/oppose1.gif""style=""height:400px;""></stim_listB>",,html-keyboard-response,259,1676642,0.0-17.0-1.8,89483,List1B,black,woman,,,,null,,,,,,,,,
null,is opposing,,html-keyboard-response,260,1678645,0.0-17.0-2.8,89483,List1B,black,woman,,,,null,,,,,,,,,
14083.2,,,survey-text,261,1692733,0.0-17.0-3.8,89483,List1B,black,woman,,,,,"{""Q0"":""kate is opposing mike""}","<img src=""stim_listB/oppose1.gif""style=""height:400px;""></stim_listB>",is opposing,,,,,,
null,"<div style=""font-size:60px;"">+</div>",,html-keyboard-response,262,1693244,0.0-17.0-0.9,89483,List1B,black,woman,,,,null,,,,,,,,,
null,"<img src=""stim_listB/touch7.gif""style=""height:400px;""></stim_listB>",,html-keyboard-response,263,1695247,0.0-17.0-1.9,89483,List1B,black,woman,,,,null,,,,,,,,,
null,is touching,,html-keyboard-response,264,1697249,0.0-17.0-2.9,89483,List1B,black,woman,,,,null,,,,,,,,,
10242.2,,,survey-text,265,1707497,0.0-17.0-3.9,89483,List1B,black,woman,,,,,"{""Q0"":""kate is touching jane""}","<img src=""stim_listB/touch7.gif""style=""height:400px;""></stim_listB>",is touching,,,,,,
null,"<div style=""font-size:60px;"">+</div>",,html-keyboard-response,266,1707999,0.0-17.0-0.10,89483,List1B,black,woman,,,,null,,,,,,,,,
null,"<img src=""stim_listB/oppose6.gif""style=""height:400px;""></stim_listB>",,html-keyboard-response,267,1710002,0.0-17.0-1.10,89483,List1B,black,woman,,,,null,,,,,,,,,
null,is being opposed by,,html-keyboard-response,268,1712012,0.0-17.0-2.10,89483,List1B,black,woman,,,,null,,,,,,,,,
11762.2,,,survey-text,269,1723779,0.0-17.0-3.10,89483,List1B,black,woman,,,,,"{""Q0"":""fred is being opposed by luke""}","<img src=""stim_listB/oppose6.gif""style=""height:400px;""></stim_listB>",is being opposed by,,,,,,
null,"<div style=""font-size:60px;"">+</div>",,html-keyboard-response,270,1724282,0.0-17.0-0.11,89483,List1B,black,woman,,,,null,,,,,,,,,
null,"<img src=""stim_listB/shout5.gif""style=""height:400px;""></stim_listB>",,html-keyboard-response,271,1726285,0.0-17.0-1.11,89483,List1B,black,woman,,,,null,,,,,,,,,
null,is shouting at,,html-keyboard-response,272,1728286,0.0-17.0-2.11,89483,List1B,black,woman,,,,null,,,,,,,,,
13645.5,,,survey-text,273,1741935,0.0-17.0-3.11,89483,List1B,black,woman,,,,,"{""Q0"":""fred is shouting at luke""}","<img src=""stim_listB/shout5.gif""style=""height:400px;""></stim_listB>",is shouting at,,,,,,
null,"<div style=""font-size:60px;"">+</div>",,html-keyboard-response,274,1742440,0.0-17.0-0.12,89483,List1B,black,woman,,,,null,,,,,,,,,
null,"<img src=""stim_listB/touch8.gif""style=""height:400px;""></stim_listB>",,html-keyboard-response,275,1744444,0.0-17.0-1.12,89483,List1B,black,woman,,,,null,,,,,,,,,
null,is being touched by,,html-keyboard-response,276,1746446,0.0-17.0-2.12,89483,List1B,black,woman,,,,null,,,,,,,,,
19307.2,,,survey-text,277,1765759,0.0-17.0-3.12,89483,List1B,black,woman,,,,,"{""Q0"":""beth is being touched by ruth""}","<img src=""stim_listB/touch8.gif""style=""height:400px;""></stim_listB>",is being touched by,,,,,,
null,"<div style=""font-size:60px;"">+</div>",,html-keyboard-response,278,1766261,0.0-17.0-0.13,89483,List1B,black,woman,,,,null,,,,,,,,,
null,"<img src=""stim_listB/copy1.gif""style=""height:400px;""></stim_listB>",,html-keyboard-response,279,1768263,0.0-17.0-1.13,89483,List1B,black,woman,,,,null,,,,,,,,,
null,is copying,,html-keyboard-response,280,1770265,0.0-17.0-2.13,89483,List1B,black,woman,,,,null,,,,,,,,,
12673.1,,,survey-text,281,1782943,0.0-17.0-3.13,89483,List1B,black,woman,,,,,"{""Q0"":""beth is copying mike""}","<img src=""stim_listB/copy1.gif""style=""height:400px;""></stim_listB>",is copying,,,,,,
null,"<div style=""font-size:60px;"">+</div>",,html-keyboard-response,282,1783446,0.0-17.0-0.14,89483,List1B,black,woman,,,,null,,,,,,,,,
null,"<img src=""stim_listB/look1.gif""style=""height:400px;""></stim_listB>",,html-keyboard-response,283,1785451,0.0-17.0-1.14,89483,List1B,black,woman,,,,null,,,,,,,,,
null,is looking at,,html-keyboard-response,284,1787460,0.0-17.0-2.14,89483,List1B,black,woman,,,,null,,,,,,,,,
11386.7,,,survey-text,285,1798850,0.0-17.0-3.14,89483,List1B,black,woman,,,,,"{""Q0"":""fred is looking at beth""}","<img src=""stim_listB/look1.gif""style=""height:400px;""></stim_listB>",is looking at,,,,,,
null,"<div style=""font-size:60px;"">+</div>",,html-keyboard-response,286,1799354,0.0-17.0-0.15,89483,List1B,black,woman,,,,null,,,,,,,,,
null,"<img src=""stim_listB/shout2.gif""style=""height:400px;""></stim_listB>",,html-keyboard-response,287,1801358,0.0-17.0-1.15,89483,List1B,black,woman,,,,null,,,,,,,,,
null,is being shouted at by,,html-keyboard-response,288,1803361,0.0-17.0-2.15,89483,List1B,black,woman,,,,null,,,,,,,,,
18389.5,,,survey-text,289,1821756,0.0-17.0-3.15,89483,List1B,black,woman,,,,,"{""Q0"":""kate is being shouted at by mike""}","<img src=""stim_listB/shout2.gif""style=""height:400px;""></stim_listB>",is being shouted at by,,,,,,
null,"<div style=""font-size:60px;"">+</div>",,html-keyboard-response,290,1822258,0.0-17.0-0.16,89483,List1B,black,woman,,,,null,,,,,,,,,
null,"<img src=""stim_listB/shout7.gif""style=""height:400px;""></stim_listB>",,html-keyboard-response,291,1824263,0.0-17.0-1.16,89483,List1B,black,woman,,,,null,,,,,,,,,
null,is shouting at,,html-keyboard-response,292,1826266,0.0-17.0-2.16,89483,List1B,black,woman,,,,null,,,,,,,,,
34745.6,,,survey-text,293,1861017,0.0-17.0-3.16,89483,List1B,black,woman,,,,,"{""Q0"":""ruth  is shouting at beth""}","<img src=""stim_listB/shout7.gif""style=""height:400px;""></stim_listB>",is shouting at,,,,,,
null,"<div style=""font-size:60px;"">+</div>",,html-keyboard-response,294,1861521,0.0-17.0-0.17,89483,List1B,black,woman,,,,null,,,,,,,,,
null,"<img src=""stim_listB/challenge8.gif""style=""height:400px;""></stim_listB>",,html-keyboard-response,295,1863525,0.0-17.0-1.17,89483,List1B,black,woman,,,,null,,,,,,,,,
null,is being challenged by,,html-keyboard-response,296,1865526,0.0-17.0-2.17,89483,List1B,black,woman,,,,null,,,,,,,,,
29027.3,,,survey-text,297,1894560,0.0-17.0-3.17,89483,List1B,black,woman,,,,,"{""Q0"":""beth is being challenged by jane""}","<img src=""stim_listB/challenge8.gif""style=""height:400px;""></stim_listB>",is being challenged by,,,,,,
null,"<div style=""font-size:60px;"">+</div>",,html-keyboard-response,298,1895062,0.0-17.0-0.18,89483,List1B,black,woman,,,,null,,,,,,,,,
null,"<img src=""stim_listB/kiss1.gif""style=""height:400px;""></stim_listB>",,html-keyboard-response,299,1897065,0.0-17.0-1.18,89483,List1B,black,woman,,,,null,,,,,,,,,
null,is kissing,,html-keyboard-response,300,1899067,0.0-17.0-2.18,89483,List1B,black,woman,,,,null,,,,,,,,,
8814.5,,,survey-text,301,1907886,0.0-17.0-3.18,89483,List1B,black,woman,,,,,"{""Q0"":""fred is kissing beth""}","<img src=""stim_listB/kiss1.gif""style=""height:400px;""></stim_listB>",is kissing,,,,,,
null,"<div style=""font-size:60px;"">+</div>",,html-keyboard-response,302,1908398,0.0-17.0-0.19,89483,List1B,black,woman,,,,null,,,,,,,,,
null,"<img src=""stim_listB/copy6.gif""style=""height:400px;""></stim_listB>",,html-keyboard-response,303,1910401,0.0-17.0-1.19,89483,List1B,black,woman,,,,null,,,,,,,,,
null,is being copied by,,html-keyboard-response,304,1912402,0.0-17.0-2.19,89483,List1B,black,woman,,,,null,,,,,,,,,
15663.8,,,survey-text,305,1928071,0.0-17.0-3.19,89483,List1B,black,woman,,,,,"{""Q0"":""fred is being copied by dave""}","<img src=""stim_listB/copy6.gif""style=""height:400px;""></stim_listB>",is being copied by,,,,,,
6771.6,"<img src='img/portrait_matrix_list1.jpg' style='width:900px;height:500px;''></img><p>If you have memorised all the portraits and names and are ready to start, press Continue.</p><p><strong>Please note: Your memory of these faces will be tested 4 times during this experiment.</strong></p>",0,html-button-response,306,1934845,0.0-18.0-0.0,89483,List1B,black,woman,,,,,,,,,,,,,
6507.4,"<img src=""portrait/WW2.jpg""style=""height:400px;""></img>",3,html-button-response,307,1942356,0.0-18.0-1.0,89483,List1B,black,woman,,TRUE,3,,,,,,,,,,
null,CORRECT,,html-keyboard-response,308,1943859,0.0-18.0-2.0-0.0,89483,List1B,black,woman,,,,null,,,,,,,,,
3267.1,"<img src=""portrait/WM1.jpg""style=""height:400px;""></img>",6,html-button-response,309,1947128,0.0-18.0-4.0,89483,List1B,black,woman,,TRUE,6,,,,,,,,,,
null,CORRECT,,html-keyboard-response,310,1948633,0.0-18.0-5.0-0.0,89483,List1B,black,woman,,,,null,,,,,,,,,
2055.5,"<img src=""portrait/BM1.jpg""style=""height:400px;""></img>",4,html-button-response,311,1950690,0.0-18.0-7.0,89483,List1B,black,woman,,TRUE,4,,,,,,,,,,
null,CORRECT,,html-keyboard-response,312,1952203,0.0-18.0-8.0-0.0,89483,List1B,black,woman,,,,null,,,,,,,,,
2788.5,"<img src=""portrait/BW2.jpg""style=""height:400px;""></img>",2,html-button-response,313,1954993,0.0-18.0-10.0,89483,List1B,black,woman,,TRUE,2,,,,,,,,,,
null,CORRECT,,html-keyboard-response,314,1956496,0.0-18.0-11.0-0.0,89483,List1B,black,woman,,,,null,,,,,,,,,
3032.9,"<img src=""portrait/WM2.jpg""style=""height:400px;""></img>",7,html-button-response,315,1959531,0.0-18.0-13.0,89483,List1B,black,woman,,TRUE,7,,,,,,,,,,
null,CORRECT,,html-keyboard-response,316,1961035,0.0-18.0-14.0-0.0,89483,List1B,black,woman,,,,null,,,,,,,,,
2521.5,"<img src=""portrait/WW1.jpg""style=""height:400px;""></img>",1,html-button-response,317,1963558,0.0-18.0-16.0,89483,List1B,black,woman,,TRUE,1,,,,,,,,,,
null,CORRECT,,html-keyboard-response,318,1965067,0.0-18.0-17.0-0.0,89483,List1B,black,woman,,,,null,,,,,,,,,
2660,"<img src=""portrait/BM2.jpg""style=""height:400px;""></img>",5,html-button-response,319,1967728,0.0-18.0-19.0,89483,List1B,black,woman,,TRUE,5,,,,,,,,,,
null,CORRECT,,html-keyboard-response,320,1969232,0.0-18.0-20.0-0.0,89483,List1B,black,woman,,,,null,,,,,,,,,
3978.9,"<img src=""portrait/BW1.jpg""style=""height:400px;""></img>",0,html-button-response,321,1973213,0.0-18.0-22.0,89483,List1B,black,woman,,TRUE,0,,,,,,,,,,
null,CORRECT,,html-keyboard-response,322,1974717,0.0-18.0-23.0-0.0,89483,List1B,black,woman,,,,null,,,,,,,,,
5480.7,<p>You got 8 out of 8 right first time. Press Continue.</p>,0,html-button-response,323,1980200,0.0-18.0-25.0,89483,List1B,black,woman,,,,,,,,,,,,,
null,"<div style=""font-size:60px;"">+</div>",,html-keyboard-response,324,1981705,0.0-19.0-0.0,89483,List1B,black,woman,,,,null,,,,,,,,,
null,"<img src=""stim_listB/oppose7.gif""style=""height:400px;""></stim_listB>",,html-keyboard-response,325,1983709,0.0-19.0-1.0,89483,List1B,black,woman,,,,null,,,,,,,,,
null,is opposing,,html-keyboard-response,326,1985712,0.0-19.0-2.0,89483,List1B,black,woman,,,,null,,,,,,,,,
11806.6,,,survey-text,327,1997523,0.0-19.0-3.0,89483,List1B,black,woman,,,,,"{""Q0"":""kate is opposing jane""}","<img src=""stim_listB/oppose7.gif""style=""height:400px;""></stim_listB>",is opposing,,,,,,
null,"<div style=""font-size:60px;"">+</div>",,html-keyboard-response,328,1998025,0.0-19.0-0.1,89483,List1B,black,woman,,,,null,,,,,,,,,
null,"<img src=""stim_listB/hug5.gif""style=""height:400px;""></stim_listB>",,html-keyboard-response,329,2000028,0.0-19.0-1.1,89483,List1B,black,woman,,,,null,,,,,,,,,
null,is hugging,,html-keyboard-response,330,2002030,0.0-19.0-2.1,89483,List1B,black,woman,,,,null,,,,,,,,,
11911.4,,,survey-text,331,2013946,0.0-19.0-3.1,89483,List1B,black,woman,,,,,"{""Q0"":""fred is hugging luke""}","<img src=""stim_listB/hug5.gif""style=""height:400px;""></stim_listB>",is hugging,,,,,,
null,"<div style=""font-size:60px;"">+</div>",,html-keyboard-response,332,2014456,0.0-19.0-0.2,89483,List1B,black,woman,,,,null,,,,,,,,,
null,"<img src=""stim_listB/copy4.gif""style=""height:400px;""></stim_listB>",,html-keyboard-response,333,2016460,0.0-19.0-1.2,89483,List1B,black,woman,,,,null,,,,,,,,,
null,is being copied by,,html-keyboard-response,334,2018462,0.0-19.0-2.2,89483,List1B,black,woman,,,,null,,,,,,,,,
13419.2,,,survey-text,335,2031886,0.0-19.0-3.2,89483,List1B,black,woman,,,,,"{""Q0"":""jane is being copied by luke""}","<img src=""stim_listB/copy4.gif""style=""height:400px;""></stim_listB>",is being copied by,,,,,,
null,"<div style=""font-size:60px;"">+</div>",,html-keyboard-response,336,2032389,0.0-19.0-0.3,89483,List1B,black,woman,,,,null,,,,,,,,,
null,"<img src=""stim_listB/look5.gif""style=""height:400px;""></stim_listB>",,html-keyboard-response,337,2034393,0.0-19.0-1.3,89483,List1B,black,woman,,,,null,,,,,,,,,
null,is looking at,,html-keyboard-response,338,2036394,0.0-19.0-2.3,89483,List1B,black,woman,,,,null,,,,,,,,,
12054.9,,,survey-text,339,2048454,0.0-19.0-3.3,89483,List1B,black,woman,,,,,"{""Q0"":""fred is looking at luke""}","<img src=""stim_listB/look5.gif""style=""height:400px;""></stim_listB>",is looking at,,,,,,
null,"<div style=""font-size:60px;"">+</div>",,html-keyboard-response,340,2048957,0.0-19.0-0.4,89483,List1B,black,woman,,,,null,,,,,,,,,
null,"<img src=""stim_listB/greet1.gif""style=""height:400px;""></stim_listB>",,html-keyboard-response,341,2050961,0.0-19.0-1.4,89483,List1B,black,woman,,,,null,,,,,,,,,
null,is greeting,,html-keyboard-response,342,2052964,0.0-19.0-2.4,89483,List1B,black,woman,,,,null,,,,,,,,,
10637.1,,,survey-text,343,2063607,0.0-19.0-3.4,89483,List1B,black,woman,,,,,"{""Q0"":""beth is greeting mike""}","<img src=""stim_listB/greet1.gif""style=""height:400px;""></stim_listB>",is greeting,,,,,,
null,"<div style=""font-size:60px;"">+</div>",,html-keyboard-response,344,2064110,0.0-19.0-0.5,89483,List1B,black,woman,,,,null,,,,,,,,,
null,"<img src=""stim_listB/seduce2.gif""style=""height:400px;""></stim_listB>",,html-keyboard-response,345,2066115,0.0-19.0-1.5,89483,List1B,black,woman,,,,null,,,,,,,,,
null,is being seduced by,,html-keyboard-response,346,2068117,0.0-19.0-2.5,89483,List1B,black,woman,,,,null,,,,,,,,,
14408.5,,,survey-text,347,2082530,0.0-19.0-3.5,89483,List1B,black,woman,,,,,"{""Q0"":""beth is being seduced by mike""}","<img src=""stim_listB/seduce2.gif""style=""height:400px;""></stim_listB>",is being seduced by,,,,,,
null,"<div style=""font-size:60px;"">+</div>",,html-keyboard-response,348,2083033,0.0-19.0-0.6,89483,List1B,black,woman,,,,null,,,,,,,,,
null,"<img src=""stim_listB/touch6.gif""style=""height:400px;""></stim_listB>",,html-keyboard-response,349,2085037,0.0-19.0-1.6,89483,List1B,black,woman,,,,null,,,,,,,,,
null,is being touched by,,html-keyboard-response,350,2087040,0.0-19.0-2.6,89483,List1B,black,woman,,,,null,,,,,,,,,
14548.3,,,survey-text,351,2101591,0.0-19.0-3.6,89483,List1B,black,woman,,,,,"{""Q0"":""fred is being touched by luke""}","<img src=""stim_listB/touch6.gif""style=""height:400px;""></stim_listB>",is being touched by,,,,,,
null,"<div style=""font-size:60px;"">+</div>",,html-keyboard-response,352,2102095,0.0-19.0-0.7,89483,List1B,black,woman,,,,null,,,,,,,,,
null,"<img src=""stim_listB/shout8.gif""style=""height:400px;""></stim_listB>",,html-keyboard-response,353,2104099,0.0-19.0-1.7,89483,List1B,black,woman,,,,null,,,,,,,,,
null,is being shouted at by,,html-keyboard-response,354,2106100,0.0-19.0-2.7,89483,List1B,black,woman,,,,null,,,,,,,,,
27063.6,,,survey-text,355,2133170,0.0-19.0-3.7,89483,List1B,black,woman,,,,,"{""Q0"":""kate is being shouted at jane""}","<img src=""stim_listB/shout8.gif""style=""height:400px;""></stim_listB>",is being shouted at by,,,,,,
null,"<div style=""font-size:60px;"">+</div>",,html-keyboard-response,356,2133673,0.0-19.0-0.8,89483,List1B,black,woman,,,,null,,,,,,,,,
null,"<img src=""stim_listB/shout4.gif""style=""height:400px;""></stim_listB>",,html-keyboard-response,357,2135677,0.0-19.0-1.8,89483,List1B,black,woman,,,,null,,,,,,,,,
null,is being shouted at by,,html-keyboard-response,358,2137680,0.0-19.0-2.8,89483,List1B,black,woman,,,,null,,,,,,,,,
23519.5,,,survey-text,359,2161207,0.0-19.0-3.8,89483,List1B,black,woman,,,,,"{""Q0"":""dave is being shouted at by jane""}","<img src=""stim_listB/shout4.gif""style=""height:400px;""></stim_listB>",is being shouted at by,,,,,,
null,"<div style=""font-size:60px;"">+</div>",,html-keyboard-response,360,2161708,0.0-19.0-0.9,89483,List1B,black,woman,,,,null,,,,,,,,,
null,"<img src=""stim_listB/challenge3.gif""style=""height:400px;""></stim_listB>",,html-keyboard-response,361,2163711,0.0-19.0-1.9,89483,List1B,black,woman,,,,null,,,,,,,,,
null,is challenging,,html-keyboard-response,362,2165713,0.0-19.0-2.9,89483,List1B,black,woman,,,,null,,,,,,,,,
10605.1,,,survey-text,363,2176322,0.0-19.0-3.9,89483,List1B,black,woman,,,,,"{""Q0"":""dave is challenging ruth""}","<img src=""stim_listB/challenge3.gif""style=""height:400px;""></stim_listB>",is challenging,,,,,,
null,"<div style=""font-size:60px;"">+</div>",,html-keyboard-response,364,2176824,0.0-19.0-0.10,89483,List1B,black,woman,,,,null,,,,,,,,,
null,"<img src=""stim_listB/challenge7.gif""style=""height:400px;""></stim_listB>",,html-keyboard-response,365,2178827,0.0-19.0-1.10,89483,List1B,black,woman,,,,null,,,,,,,,,
null,is challenging,,html-keyboard-response,366,2180829,0.0-19.0-2.10,89483,List1B,black,woman,,,,null,,,,,,,,,
19585.7,,,survey-text,367,2200420,0.0-19.0-3.10,89483,List1B,black,woman,,,,,"{""Q0"":""ruth is challenging kate""}","<img src=""stim_listB/challenge7.gif""style=""height:400px;""></stim_listB>",is challenging,,,,,,
null,"<div style=""font-size:60px;"">+</div>",,html-keyboard-response,368,2200921,0.0-19.0-0.11,89483,List1B,black,woman,,,,null,,,,,,,,,
null,"<img src=""stim_listB/challenge2.gif""style=""height:400px;""></stim_listB>",,html-keyboard-response,369,2202924,0.0-19.0-1.11,89483,List1B,black,woman,,,,null,,,,,,,,,
null,is being challenged by,,html-keyboard-response,370,2204926,0.0-19.0-2.11,89483,List1B,black,woman,,,,null,,,,,,,,,
20611.1,,,survey-text,371,2225540,0.0-19.0-3.11,89483,List1B,black,woman,,,,,"{""Q0"":""fred is being challenged by kate""}","<img src=""stim_listB/challenge2.gif""style=""height:400px;""></stim_listB>",is being challenged by,,,,,,
null,"<div style=""font-size:60px;"">+</div>",,html-keyboard-response,372,2226041,0.0-19.0-0.12,89483,List1B,black,woman,,,,null,,,,,,,,,
null,"<img src=""stim_listB/kiss2.gif""style=""height:400px;""></stim_listB>",,html-keyboard-response,373,2228044,0.0-19.0-1.12,89483,List1B,black,woman,,,,null,,,,,,,,,
null,is being kissed by,,html-keyboard-response,374,2230046,0.0-19.0-2.12,89483,List1B,black,woman,,,,null,,,,,,,,,
23224.4,,,survey-text,375,2253276,0.0-19.0-3.12,89483,List1B,black,woman,,,,,"{""Q0"":""mike is being kissed by kate""}","<img src=""stim_listB/kiss2.gif""style=""height:400px;""></stim_listB>",is being kissed by,,,,,,
null,"<div style=""font-size:60px;"">+</div>",,html-keyboard-response,376,2253778,0.0-19.0-0.13,89483,List1B,black,woman,,,,null,,,,,,,,,
null,"<img src=""stim_listB/kiss6.gif""style=""height:400px;""></stim_listB>",,html-keyboard-response,377,2255781,0.0-19.0-1.13,89483,List1B,black,woman,,,,null,,,,,,,,,
null,is being kissed by,,html-keyboard-response,378,2257784,0.0-19.0-2.13,89483,List1B,black,woman,,,,null,,,,,,,,,
13202.4,,,survey-text,379,2270992,0.0-19.0-3.13,89483,List1B,black,woman,,,,,"{""Q0"":""dave is being kissed by mike""}","<img src=""stim_listB/kiss6.gif""style=""height:400px;""></stim_listB>",is being kissed by,,,,,,
null,"<div style=""font-size:60px;"">+</div>",,html-keyboard-response,380,2271494,0.0-19.0-0.14,89483,List1B,black,woman,,,,null,,,,,,,,,
null,"<img src=""stim_listB/greet7.gif""style=""height:400px;""></stim_listB>",,html-keyboard-response,381,2273497,0.0-19.0-1.14,89483,List1B,black,woman,,,,null,,,,,,,,,
null,is greeting,,html-keyboard-response,382,2275499,0.0-19.0-2.14,89483,List1B,black,woman,,,,null,,,,,,,,,
23564.6,,,survey-text,383,2299068,0.0-19.0-3.14,89483,List1B,black,woman,,,,,"{""Q0"":""ruth is greeting kate""}","<img src=""stim_listB/greet7.gif""style=""height:400px;""></stim_listB>",is greeting,,,,,,
null,"<div style=""font-size:60px;"">+</div>",,html-keyboard-response,384,2299570,0.0-19.0-0.15,89483,List1B,black,woman,,,,null,,,,,,,,,
null,"<img src=""stim_listB/touch4.gif""style=""height:400px;""></stim_listB>",,html-keyboard-response,385,2301573,0.0-19.0-1.15,89483,List1B,black,woman,,,,null,,,,,,,,,
null,is being touched by,,html-keyboard-response,386,2303575,0.0-19.0-2.15,89483,List1B,black,woman,,,,null,,,,,,,,,
16554,,,survey-text,387,2320135,0.0-19.0-3.15,89483,List1B,black,woman,,,,,"{""Q0"":""ruth is being touched by luke""}","<img src=""stim_listB/touch4.gif""style=""height:400px;""></stim_listB>",is being touched by,,,,,,
null,"<div style=""font-size:60px;"">+</div>",,html-keyboard-response,388,2320637,0.0-19.0-0.16,89483,List1B,black,woman,,,,null,,,,,,,,,
null,"<img src=""stim_listB/challenge5.gif""style=""height:400px;""></stim_listB>",,html-keyboard-response,389,2322640,0.0-19.0-1.16,89483,List1B,black,woman,,,,null,,,,,,,,,
null,is challenging,,html-keyboard-response,390,2324642,0.0-19.0-2.16,89483,List1B,black,woman,,,,null,,,,,,,,,
10760,,,survey-text,391,2335408,0.0-19.0-3.16,89483,List1B,black,woman,,,,,"{""Q0"":""luke is challenging mike""}","<img src=""stim_listB/challenge5.gif""style=""height:400px;""></stim_listB>",is challenging,,,,,,
null,"<div style=""font-size:60px;"">+</div>",,html-keyboard-response,392,2335910,0.0-19.0-0.17,89483,List1B,black,woman,,,,null,,,,,,,,,
null,"<img src=""stim_listB/seduce5.gif""style=""height:400px;""></stim_listB>",,html-keyboard-response,393,2337913,0.0-19.0-1.17,89483,List1B,black,woman,,,,null,,,,,,,,,
null,is seducing,,html-keyboard-response,394,2339915,0.0-19.0-2.17,89483,List1B,black,woman,,,,null,,,,,,,,,
12791.2,,,survey-text,395,2352711,0.0-19.0-3.17,89483,List1B,black,woman,,,,,"{""Q0"":""fred is seducing dave""}","<img src=""stim_listB/seduce5.gif""style=""height:400px;""></stim_listB>",is seducing,,,,,,
null,"<div style=""font-size:60px;"">+</div>",,html-keyboard-response,396,2353213,0.0-19.0-0.18,89483,List1B,black,woman,,,,null,,,,,,,,,
null,"<img src=""stim_listB/touch5.gif""style=""height:400px;""></stim_listB>",,html-keyboard-response,397,2355216,0.0-19.0-1.18,89483,List1B,black,woman,,,,null,,,,,,,,,
null,is touching,,html-keyboard-response,398,2357218,0.0-19.0-2.18,89483,List1B,black,woman,,,,null,,,,,,,,,
13203.4,,,survey-text,399,2370430,0.0-19.0-3.18,89483,List1B,black,woman,,,,,"{""Q0"":""dave is touching mike""}","<img src=""stim_listB/touch5.gif""style=""height:400px;""></stim_listB>",is touching,,,,,,
null,"<div style=""font-size:60px;"">+</div>",,html-keyboard-response,400,2370947,0.0-19.0-0.19,89483,List1B,black,woman,,,,null,,,,,,,,,
null,"<img src=""stim_listB/kiss3.gif""style=""height:400px;""></stim_listB>",,html-keyboard-response,401,2372951,0.0-19.0-1.19,89483,List1B,black,woman,,,,null,,,,,,,,,
null,is kissing,,html-keyboard-response,402,2374954,0.0-19.0-2.19,89483,List1B,black,woman,,,,null,,,,,,,,,
12633.1,,,survey-text,403,2387590,0.0-19.0-3.19,89483,List1B,black,woman,,,,,"{""Q0"":""ruth is kissing luke""}","<img src=""stim_listB/kiss3.gif""style=""height:400px;""></stim_listB>",is kissing,,,,,,
9264.5,<p>Thank you for completing that task.</p><p>The final part of this session is a questionnaire that will take about 4 minutes.</p><p>Press Continue.</p>,0,html-button-response,404,2396857,0.0-20.0,89483,List1B,black,woman,,,,,,,,,,,,,
359537.6,,,survey-text,405,2757414,0.0-21.0,89483,List1B,black,woman,,,,,"{""Q0"":""29"",""Q1"":""English"",""Q2"":""English"",""Q3"":""United States"",""Q4"":""American"",""Q5"":""Black"",""Q6"":""Female""}",,,demographics,,,,,
11183.2,<p>Have you lived in the USA for the last 5 years or more?</p>,0,html-button-response,406,2768600,0.0-22.0,89483,List1B,black,woman,,,,,,,,fiveyears,,,,,
7278.3,<p>Move the slider to show the extent to which you agree with the following statements.</p>,0,html-button-response,407,2776882,0.0-23.0,89483,List1B,black,woman,,,,,,,,,,,,,
19162.4,,,html-slider-response,408,2797051,0.0-24.0-0.0-0.0,89483,List1B,black,woman,,,,,,,,survey_race,91,,,I feel a bond with my race.,bond
8911.6,,,html-slider-response,409,2805966,0.0-24.0-0.0-0.1,89483,List1B,black,woman,,,,,,,,survey_race,80,,,Being my age gives me a good feeling.,filler
5946.4,,,html-slider-response,410,2811915,0.0-24.0-0.0-0.2,89483,List1B,black,woman,,,,,,,,survey_race,99,,,It is pleasant to be my race.,pleasant
6042.8,,,html-slider-response,411,2817961,0.0-24.0-0.0-0.3,89483,List1B,black,woman,,,,,,,,survey_race,74,,,I feel a bond with people the same age as me.,filler
11738.2,,,html-slider-response,412,2829702,0.0-24.0-0.0-0.4,89483,List1B,black,woman,,,,,,,,survey_race,99,,,I think that my race has a lot to be proud of.,proud
17817.1,,,html-slider-response,413,2847522,0.0-24.0-0.0-0.5,89483,List1B,black,woman,,,,,,,,survey_race,94,,,I often think about the fact that I am my race.,often
4317.4,,,html-slider-response,414,2851842,0.0-24.0-0.0-0.6,89483,List1B,black,woman,,,,,,,,survey_race,99,,,I am glad to be my race.,glad
7519.4,,,html-slider-response,415,2859364,0.0-24.0-0.0-0.7,89483,List1B,black,woman,,,,,,,,survey_race,100,,,Being my race gives me a good feeling.,feeling
26877.1,,,html-slider-response,416,2886243,0.0-24.0-0.0-0.8,89483,List1B,black,woman,,,,,,,,survey_race,40,,,I consider myself an introvert.,filler
4169.8,,,html-slider-response,417,2890416,0.0-24.0-0.0-0.9,89483,List1B,black,woman,,,,,,,,survey_race,89,,,I consider myself an extrovert.,filler
6750.1,,,html-slider-response,418,2897168,0.0-24.0-0.0-0.10,89483,List1B,black,woman,,,,,,,,survey_race,75,,,I have a lot in common with people of a similar age to me.,filler
9546.6,,,html-slider-response,419,2906717,0.0-24.0-0.0-0.11,89483,List1B,black,woman,,,,,,,,survey_race,90,,,I feel committed to my race.,committed
3840.2,,,html-slider-response,420,2910560,0.0-24.0-0.0-0.12,89483,List1B,black,woman,,,,,,,,survey_race,90,,,I feel solidarity with my race.,solidarity
6409.2,,,html-slider-response,421,2916971,0.0-24.0-0.0-0.13,89483,List1B,black,woman,,,,,,,,survey_race,70,,,My age is not an important part of who I am.,filler
4056.9,,,html-slider-response,422,2921031,0.0-24.0-0.0-0.14,89483,List1B,black,woman,,,,,,,,survey_race,72,,,I feel solidarity with people the same age as me.,filler
5013.2,,,html-slider-response,423,2926047,0.0-24.0-0.0-0.15,89483,List1B,black,woman,,,,,,,,survey_race,70,,,I am similar to the average person of my race.,similar
6458.3,,,html-slider-response,424,2932508,0.0-24.0-0.0-0.16,89483,List1B,black,woman,,,,,,,,survey_race,82,,,I enjoy being in large groups.,filler
6811.1,,,html-slider-response,425,2939322,0.0-24.0-0.0-0.17,89483,List1B,black,woman,,,,,,,,survey_race,98,,,The fact that I am my race is an important part of my identity.,identity
3998.2,,,html-slider-response,426,2943322,0.0-24.0-0.0-0.18,89483,List1B,black,woman,,,,,,,,survey_race,83,,,"The older I get, the wiser I feel.",filler
5859.5,,,html-slider-response,427,2949184,0.0-24.0-0.0-0.19,89483,List1B,black,woman,,,,,,,,survey_race,77,,,I have a lot in common with the average person of my race.,average
6204.2,,,html-slider-response,428,2955391,0.0-24.0-0.0-0.20,89483,List1B,black,woman,,,,,,,,survey_race,77,,,I often think about the fact that I am my age.,filler
13564.4,,,html-slider-response,429,2968957,0.0-24.0-0.0-0.21,89483,List1B,black,woman,,,,,,,,survey_race,96,,,Being my race is an important part of how I see myself.,important
5151.9,,,html-slider-response,430,2974111,0.0-24.0-0.0-0.22,89483,List1B,black,woman,,,,,,,,survey_race,74,,,People my age have a lot in common with each other.,filler
5477.3,,,html-slider-response,431,2979591,0.0-24.0-0.0-0.23,89483,List1B,black,woman,,,,,,,,survey_race,92,,,I am glad to be my age.,filler
12619.7,,,html-slider-response,432,2992213,0.0-24.0-0.0-0.24,89483,List1B,black,woman,,,,,,,,survey_race,93,,,I am glad to be the age I am.,filler
11047.8,,,html-slider-response,433,3003264,0.0-24.0-0.0-0.25,89483,List1B,black,woman,,,,,,,,survey_race,91,,,People of my race are very similar to each other.,verysimilar
6721.9,,,html-slider-response,434,3009989,0.0-24.0-0.0-0.26,89483,List1B,black,woman,,,,,,,,survey_race,85,,,People of my race have a lot in common with each other.,common
6743,,,html-slider-response,435,3016734,0.0-24.0-0.0-0.27,89483,List1B,black,woman,,,,,,,,survey_race,91,,,Getting older does not worry me.,filler
6268.1,,,html-slider-response,436,3023005,0.0-24.0-1.0-0.0,89483,List1B,black,woman,,,,,,,,survey_gender,100,,,My friends understand me.,filler
5972.3,,,html-slider-response,437,3028980,0.0-24.0-1.0-0.1,89483,List1B,black,woman,,,,,,,,survey_gender,99,,,I feel solidarity with my gender.,solidarity
10090.8,,,html-slider-response,438,3039074,0.0-24.0-1.0-0.2,89483,List1B,black,woman,,,,,,,,survey_gender,83,,,I have a lot in common with the average person of my gender.,average
5471,,,html-slider-response,439,3044547,0.0-24.0-1.0-0.3,89483,List1B,black,woman,,,,,,,,survey_gender,100,,,It is pleasant to be my gender.,pleasant
4488,,,html-slider-response,440,3049037,0.0-24.0-1.0-0.4,89483,List1B,black,woman,,,,,,,,survey_gender,100,,,Being my gender is an important part of how I see myself.,important
8344.8,,,html-slider-response,441,3057384,0.0-24.0-1.0-0.5,89483,List1B,black,woman,,,,,,,,survey_gender,84,,,People of my gender have a lot in common with each other.,common
5560.2,,,html-slider-response,442,3062947,0.0-24.0-1.0-0.6,89483,List1B,black,woman,,,,,,,,survey_gender,87,,,Most of the friends in my life are very similar to me.,filler
4039.3,,,html-slider-response,443,3066989,0.0-24.0-1.0-0.7,89483,List1B,black,woman,,,,,,,,survey_gender,89,,,I have a lot in common with my friends.,filler
6270.3,,,html-slider-response,444,3073262,0.0-24.0-1.0-0.8,89483,List1B,black,woman,,,,,,,,survey_gender,68,,,I am similar to the average person of my gender.,similar
4789,,,html-slider-response,445,3078053,0.0-24.0-1.0-0.9,89483,List1B,black,woman,,,,,,,,survey_gender,82,,,I consider myself a highly empathetic person.,filler
4644.2,,,html-slider-response,446,3082700,0.0-24.0-1.0-0.10,89483,List1B,black,woman,,,,,,,,survey_gender,96,,,Being around my friends gives me a good feeling.,filler
6146.4,,,html-slider-response,447,3088849,0.0-24.0-1.0-0.11,89483,List1B,black,woman,,,,,,,,survey_gender,95,,,My friends have a lot in common with each other.,filler
17662.3,,,html-slider-response,448,3106514,0.0-24.0-1.0-0.12,89483,List1B,black,woman,,,,,,,,survey_gender,53,,,Family is not more important to me than friendship.,filler
5026.4,,,html-slider-response,449,3111543,0.0-24.0-1.0-0.13,89483,List1B,black,woman,,,,,,,,survey_gender,97,,,I think that my gender has a lot to be proud of.,proud
8393.9,,,html-slider-response,450,3119940,0.0-24.0-1.0-0.14,89483,List1B,black,woman,,,,,,,,survey_gender,100,,,The fact that I am my gender is an important part of my identity.,identity
6667.1,,,html-slider-response,451,3126610,0.0-24.0-1.0-0.15,89483,List1B,black,woman,,,,,,,,survey_gender,95,,,I feel committed to my gender.,committed
4979.7,,,html-slider-response,452,3131592,0.0-24.0-1.0-0.16,89483,List1B,black,woman,,,,,,,,survey_gender,90,,,I feel a bond with my gender.,bond
8263,,,html-slider-response,453,3139857,0.0-24.0-1.0-0.17,89483,List1B,black,woman,,,,,,,,survey_gender,97,,,I feel a bond with my friends.,filler
7386.6,,,html-slider-response,454,3147246,0.0-24.0-1.0-0.18,89483,List1B,black,woman,,,,,,,,survey_gender,95,,,I often think about my actions.,filler
10191.6,,,html-slider-response,455,3157441,0.0-24.0-1.0-0.19,89483,List1B,black,woman,,,,,,,,survey_gender,96,,,Being my gender gives me a good feeling.,feeling
6239.6,,,html-slider-response,456,3163683,0.0-24.0-1.0-0.20,89483,List1B,black,woman,,,,,,,,survey_gender,91,,,I often think about the fact that I am my gender.,often
6079.7,,,html-slider-response,457,3169765,0.0-24.0-1.0-0.21,89483,List1B,black,woman,,,,,,,,survey_gender,84,,,People of my gender are very similar to each other.,verysimilar
5214.9,,,html-slider-response,458,3174983,0.0-24.0-1.0-0.22,89483,List1B,black,woman,,,,,,,,survey_gender,52,,,Routine is not important to me.,filler
7547.9,,,html-slider-response,459,3182533,0.0-24.0-1.0-0.23,89483,List1B,black,woman,,,,,,,,survey_gender,100,,,I am glad to be my gender.,glad
5801.6,,,html-slider-response,460,3188338,0.0-24.0-1.0-0.24,89483,List1B,black,woman,,,,,,,,survey_gender,100,,,I am glad to have the friends that I have.,filler
11527.7,,,html-slider-response,461,3199868,0.0-24.0-1.0-0.25,89483,List1B,black,woman,,,,,,,,survey_gender,1,,,I would say I am an animal person.,filler
3402.5,,,html-slider-response,462,3203273,0.0-24.0-1.0-0.26,89483,List1B,black,woman,,,,,,,,survey_gender,100,,,I feel solidarity with my friends.,filler
7359.5,,,html-slider-response,463,3210635,0.0-24.0-1.0-0.27,89483,List1B,black,woman,,,,,,,,survey_gender,84,,,It is not always easy for people to know what I am thinking.,filler
23974.2,,,survey-text,464,3234614,0.0-25.0,89483,List1B,black,woman,,,,,"{""Q0"":""ccc""}",,,worker_id,,,,,
12726.7,,,external-html,465,3247851,0.0-26.0,89483,List1B,black,woman,debrief.html,,,,,,,,,,,,
