rt,stimulus,button_pressed,trial_type,trial_index,time_elapsed,internal_node_id,subject,list,ppt_race,ppt_gender,url,first_guess,correct,key_press,responses,image_type,phrase_type,test_part,response,stimulus1,stimulus2,question_type,survey_item
3239.9,Welcome to the experiment. Press Continue to begin.,0,html-button-response,0,3243,0.0-0.0,89559,List2B,white,man,,,,,,,,,,,,,
75905.1,,,external-html,1,80290,0.0-1.0,89559,List2B,white,man,consent.html,,,,,,,,,,,,
4118.2,"<p>On the next page, you will see portraits of 8 people and their names.</p><p>Your first task is to take a few minutes to memorise the names of these people.</p><p>You will have to recall their names during the rest of the experiment, so it is</p><p>essential that you try to memorise these people and their names as best as you can.</p><br><p><strong>You will then be tested on your memory of these names and portraits.</strong></p><br><p>The experiment will start after you have completed this memory test.</p><br><p>Ready?</p>",0,html-button-response,2,84409,0.0-2.0,89559,List2B,white,man,,,,,,,,,,,,,
56922.3,"<img src='img/portrait_matrix_list2.jpg' style='width:900px;height:500px;''></img><p>If you have memorised all the portraits and names and are ready to start, press Continue.</p><p><strong>Please note: Your memory of these faces will be tested 4 times during this experiment.</strong></p>",0,html-button-response,3,142334,0.0-3.0-0.0,89559,List2B,white,man,,,,,,,,,,,,,
3683.4,"<img src=""portrait/WW1.jpg""style=""height:400px;""></img>",1,html-button-response,4,147021,0.0-3.0-1.0,89559,List2B,white,man,,TRUE,1,,,,,,,,,,
null,CORRECT,,html-keyboard-response,5,148528,0.0-3.0-2.0-0.0,89559,List2B,white,man,,,,null,,,,,,,,,
4637,"<img src=""portrait/WM2.jpg""style=""height:400px;""></img>",6,html-button-response,6,153167,0.0-3.0-4.0,89559,List2B,white,man,,TRUE,7,,,,,,,,,,
8760.5,"<img src=""portrait/WM2.jpg""style=""height:400px;""></img>",7,html-button-response,7,162932,0.0-3.0-6.0-0.0,89559,List2B,white,man,,FALSE,7,,,,,,,,,,
null,CORRECT,,html-keyboard-response,8,164437,0.0-3.0-6.0-1.0-0.0,89559,List2B,white,man,,,,null,,,,,,,,,
2368.3,"<img src=""portrait/WW2.jpg""style=""height:400px;""></img>",3,html-button-response,9,166807,0.0-3.0-7.0,89559,List2B,white,man,,TRUE,3,,,,,,,,,,
null,CORRECT,,html-keyboard-response,10,168312,0.0-3.0-8.0-0.0,89559,List2B,white,man,,,,null,,,,,,,,,
3327.3,"<img src=""portrait/BM2.jpg""style=""height:400px;""></img>",5,html-button-response,11,171641,0.0-3.0-10.0,89559,List2B,white,man,,TRUE,5,,,,,,,,,,
null,CORRECT,,html-keyboard-response,12,173142,0.0-3.0-11.0-0.0,89559,List2B,white,man,,,,null,,,,,,,,,
6465.3,"<img src=""portrait/BM1.jpg""style=""height:400px;""></img>",4,html-button-response,13,179609,0.0-3.0-13.0,89559,List2B,white,man,,TRUE,4,,,,,,,,,,
null,CORRECT,,html-keyboard-response,14,181111,0.0-3.0-14.0-0.0,89559,List2B,white,man,,,,null,,,,,,,,,
9899.7,"<img src=""portrait/BW1.jpg""style=""height:400px;""></img>",0,html-button-response,15,191012,0.0-3.0-16.0,89559,List2B,white,man,,TRUE,0,,,,,,,,,,
null,CORRECT,,html-keyboard-response,16,192515,0.0-3.0-17.0-0.0,89559,List2B,white,man,,,,null,,,,,,,,,
4555.1,"<img src=""portrait/BW2.jpg""style=""height:400px;""></img>",2,html-button-response,17,197072,0.0-3.0-19.0,89559,List2B,white,man,,TRUE,2,,,,,,,,,,
null,CORRECT,,html-keyboard-response,18,198580,0.0-3.0-20.0-0.0,89559,List2B,white,man,,,,null,,,,,,,,,
3202.5,"<img src=""portrait/WM1.jpg""style=""height:400px;""></img>",6,html-button-response,19,201784,0.0-3.0-22.0,89559,List2B,white,man,,TRUE,6,,,,,,,,,,
null,CORRECT,,html-keyboard-response,20,203286,0.0-3.0-23.0-0.0,89559,List2B,white,man,,,,null,,,,,,,,,
2467.5,<p>You got 7 out of 8 right first time. Press Continue.</p>,0,html-button-response,21,205755,0.0-3.0-25.0,89559,List2B,white,man,,,,,,,,,,,,,
3867.7,"As you did not score 100%, the memory game will repeat. Press Continue.",0,html-button-response,22,210640,0.0-3.0-26.0-0.0,89559,List2B,white,man,,,,,,,,,,,,,
11628.2,"<img src='img/portrait_matrix_list2.jpg' style='width:900px;height:500px;''></img><p>If you have memorised all the portraits and names and are ready to start, press Continue.</p><p><strong>Please note: Your memory of these faces will be tested 4 times during this experiment.</strong></p>",0,html-button-response,23,223273,0.0-3.1-0.1,89559,List2B,white,man,,,,,,,,,,,,,
2579,"<img src=""portrait/WW1.jpg""style=""height:400px;""></img>",1,html-button-response,24,226854,0.0-3.1-1.1,89559,List2B,white,man,,TRUE,1,,,,,,,,,,
null,CORRECT,,html-keyboard-response,25,228357,0.0-3.1-2.1-0.1,89559,List2B,white,man,,,,null,,,,,,,,,
2651.7,"<img src=""portrait/WM2.jpg""style=""height:400px;""></img>",7,html-button-response,26,231010,0.0-3.1-4.1,89559,List2B,white,man,,TRUE,7,,,,,,,,,,
null,CORRECT,,html-keyboard-response,27,232515,0.0-3.1-5.1-0.1,89559,List2B,white,man,,,,null,,,,,,,,,
1573.5,"<img src=""portrait/WW2.jpg""style=""height:400px;""></img>",3,html-button-response,28,234091,0.0-3.1-7.1,89559,List2B,white,man,,TRUE,3,,,,,,,,,,
null,CORRECT,,html-keyboard-response,29,235594,0.0-3.1-8.1-0.1,89559,List2B,white,man,,,,null,,,,,,,,,
2040.6,"<img src=""portrait/BM2.jpg""style=""height:400px;""></img>",5,html-button-response,30,237636,0.0-3.1-10.1,89559,List2B,white,man,,TRUE,5,,,,,,,,,,
null,CORRECT,,html-keyboard-response,31,239137,0.0-3.1-11.1-0.1,89559,List2B,white,man,,,,null,,,,,,,,,
1776.3,"<img src=""portrait/BM1.jpg""style=""height:400px;""></img>",6,html-button-response,32,240915,0.0-3.1-13.1,89559,List2B,white,man,,TRUE,4,,,,,,,,,,
1107.2,"<img src=""portrait/BM1.jpg""style=""height:400px;""></img>",4,html-button-response,33,243025,0.0-3.1-15.1-0.1,89559,List2B,white,man,,FALSE,4,,,,,,,,,,
null,CORRECT,,html-keyboard-response,34,244527,0.0-3.1-15.1-1.1-0.1,89559,List2B,white,man,,,,null,,,,,,,,,
6603.1,"<img src=""portrait/BW1.jpg""style=""height:400px;""></img>",0,html-button-response,35,251132,0.0-3.1-16.1,89559,List2B,white,man,,TRUE,0,,,,,,,,,,
null,CORRECT,,html-keyboard-response,36,252635,0.0-3.1-17.1-0.1,89559,List2B,white,man,,,,null,,,,,,,,,
1452.8,"<img src=""portrait/BW2.jpg""style=""height:400px;""></img>",2,html-button-response,37,254090,0.0-3.1-19.1,89559,List2B,white,man,,TRUE,2,,,,,,,,,,
null,CORRECT,,html-keyboard-response,38,255592,0.0-3.1-20.1-0.1,89559,List2B,white,man,,,,null,,,,,,,,,
5011,"<img src=""portrait/WM1.jpg""style=""height:400px;""></img>",6,html-button-response,39,260604,0.0-3.1-22.1,89559,List2B,white,man,,TRUE,6,,,,,,,,,,
null,CORRECT,,html-keyboard-response,40,262108,0.0-3.1-23.1-0.1,89559,List2B,white,man,,,,null,,,,,,,,,
1474.9,<p>You got 7 out of 8 right first time. Press Continue.</p>,0,html-button-response,41,263584,0.0-3.1-25.1,89559,List2B,white,man,,,,,,,,,,,,,
1838.6,"As you did not score 100%, the memory game will repeat. Press Continue.",0,html-button-response,42,266427,0.0-3.1-26.1-0.1,89559,List2B,white,man,,,,,,,,,,,,,
11644.9,"<img src='img/portrait_matrix_list2.jpg' style='width:900px;height:500px;''></img><p>If you have memorised all the portraits and names and are ready to start, press Continue.</p><p><strong>Please note: Your memory of these faces will be tested 4 times during this experiment.</strong></p>",0,html-button-response,43,279075,0.0-3.2-0.2,89559,List2B,white,man,,,,,,,,,,,,,
1402.5,"<img src=""portrait/WW1.jpg""style=""height:400px;""></img>",1,html-button-response,44,281481,0.0-3.2-1.2,89559,List2B,white,man,,TRUE,1,,,,,,,,,,
null,CORRECT,,html-keyboard-response,45,282983,0.0-3.2-2.2-0.2,89559,List2B,white,man,,,,null,,,,,,,,,
4407.7,"<img src=""portrait/WM2.jpg""style=""height:400px;""></img>",7,html-button-response,46,287392,0.0-3.2-4.2,89559,List2B,white,man,,TRUE,7,,,,,,,,,,
null,CORRECT,,html-keyboard-response,47,288894,0.0-3.2-5.2-0.2,89559,List2B,white,man,,,,null,,,,,,,,,
1507.9,"<img src=""portrait/WW2.jpg""style=""height:400px;""></img>",3,html-button-response,48,290404,0.0-3.2-7.2,89559,List2B,white,man,,TRUE,3,,,,,,,,,,
null,CORRECT,,html-keyboard-response,49,291908,0.0-3.2-8.2-0.2,89559,List2B,white,man,,,,null,,,,,,,,,
2483,"<img src=""portrait/BM2.jpg""style=""height:400px;""></img>",5,html-button-response,50,294392,0.0-3.2-10.2,89559,List2B,white,man,,TRUE,5,,,,,,,,,,
null,CORRECT,,html-keyboard-response,51,295896,0.0-3.2-11.2-0.2,89559,List2B,white,man,,,,null,,,,,,,,,
1059.4,"<img src=""portrait/BM1.jpg""style=""height:400px;""></img>",4,html-button-response,52,296957,0.0-3.2-13.2,89559,List2B,white,man,,TRUE,4,,,,,,,,,,
null,CORRECT,,html-keyboard-response,53,298459,0.0-3.2-14.2-0.2,89559,List2B,white,man,,,,null,,,,,,,,,
3335.8,"<img src=""portrait/BW1.jpg""style=""height:400px;""></img>",0,html-button-response,54,301796,0.0-3.2-16.2,89559,List2B,white,man,,TRUE,0,,,,,,,,,,
null,CORRECT,,html-keyboard-response,55,303300,0.0-3.2-17.2-0.2,89559,List2B,white,man,,,,null,,,,,,,,,
1324,"<img src=""portrait/BW2.jpg""style=""height:400px;""></img>",2,html-button-response,56,304627,0.0-3.2-19.2,89559,List2B,white,man,,TRUE,2,,,,,,,,,,
null,CORRECT,,html-keyboard-response,57,306129,0.0-3.2-20.2-0.2,89559,List2B,white,man,,,,null,,,,,,,,,
5104.5,"<img src=""portrait/WM1.jpg""style=""height:400px;""></img>",6,html-button-response,58,311235,0.0-3.2-22.2,89559,List2B,white,man,,TRUE,6,,,,,,,,,,
null,CORRECT,,html-keyboard-response,59,312737,0.0-3.2-23.2-0.2,89559,List2B,white,man,,,,null,,,,,,,,,
1285.4,<p>You got 8 out of 8 right first time. Press Continue.</p>,0,html-button-response,60,314024,0.0-3.2-25.2,89559,List2B,white,man,,,,,,,,,,,,,
30811.6,"<p>In this experiment, you will view photographs of the people from the memory game interacting.</p><p>By using the <strong>exact</strong> phrase given <i>after</i> the photograph appears and recalling the correct names of the people in the photographs, form a sentence describing the interaction. You do not need to capitalise names.</p><p>Type your answer in the space provided. Please complete every sentence before moving onto the next trial.</p><p>You will only have a few seconds to memorise each given photograph and phrase before you can respond, so try your best to focus.</p><p>An example is given below. Press 'Continue' when you are ready.</p><img src='img/speaking_example.jpg' style='width:800px;height:460px;''></img>",0,html-button-response,61,345839,0.0-4.0,89559,List2B,white,man,,,,,,,,,,,,,
4073.2,"<p>Before the experiment starts, you will watch two example trials. Press 'Continue'.</p>",0,html-button-response,62,350914,0.0-5.0,89559,List2B,white,man,,,,,,,,,,,,,
null,<img src='img/play_eg.gif' style='height:400px;''></img>,,html-keyboard-response,63,353917,0.0-6.0,89559,List2B,white,man,,,,null,,,,,,,,,
null,<p>is playing with</p>,,html-keyboard-response,64,355919,0.0-7.0,89559,List2B,white,man,,,,null,,,,,,,,,
5493.8,<p><b>Answer:</b> jane is playing with ruth</p>,0,html-button-response,65,361413,0.0-8.0,89559,List2B,white,man,,,,,,,,,,,,,
null,<img src='img/dance_eg.gif' style='height:400px;''></img>,,html-keyboard-response,66,364417,0.0-9.0,89559,List2B,white,man,,,,null,,,,,,,,,
null,<p>is being entertained by</p>,,html-keyboard-response,67,366418,0.0-10.0,89559,List2B,white,man,,,,null,,,,,,,,,
3920.9,<p><b>Answer:</b> fred is being entertained by mike</p>,0,html-button-response,68,370340,0.0-11.0,89559,List2B,white,man,,,,,,,,,,,,,
2638,"<p>Ready to start the experiment?</p><br><p><strong>Remember to describe the picture using a full sentence,</strong></p><p><strong>that combines the names of the people with the <i>exact</i> phrase given.</strong></p><p><strong>To receive full payment you must do this correctly.</strong></p><p><strong> You do not need to capitalise names or use punctuation.</strong></p><br><p>Press 'Continue' to begin.</p>",0,html-button-response,69,373980,0.0-12.0,89559,List2B,white,man,,,,,,,,,,,,,
null,"<div style=""font-size:60px;"">+</div>",,html-keyboard-response,70,375484,0.0-13.0-0.0,89559,List2B,white,man,,,,null,,,,,,,,,
null,"<img src=""stim_listB/seduce8.gif""style=""height:400px;""></stim_listB>",,html-keyboard-response,71,377487,0.0-13.0-1.0,89559,List2B,white,man,,,,null,,,,,,,,,
null,is being seduced by,,html-keyboard-response,72,379487,0.0-13.0-2.0,89559,List2B,white,man,,,,null,,,,,,,,,
22982,,,survey-text,73,402473,0.0-13.0-3.0,89559,List2B,white,man,,,,,"{""Q0"":""Beth is being seduced by Jane""}","<img src=""stim_listB/seduce8.gif""style=""height:400px;""></stim_listB>",is being seduced by,,,,,,
null,"<div style=""font-size:60px;"">+</div>",,html-keyboard-response,74,402975,0.0-13.0-0.1,89559,List2B,white,man,,,,null,,,,,,,,,
null,"<img src=""stim_listB/challenge5.gif""style=""height:400px;""></stim_listB>",,html-keyboard-response,75,404976,0.0-13.0-1.1,89559,List2B,white,man,,,,null,,,,,,,,,
null,is challenging,,html-keyboard-response,76,406978,0.0-13.0-2.1,89559,List2B,white,man,,,,null,,,,,,,,,
12040,,,survey-text,77,419020,0.0-13.0-3.1,89559,List2B,white,man,,,,,"{""Q0"":""Dave is challenging Luke""}","<img src=""stim_listB/challenge5.gif""style=""height:400px;""></stim_listB>",is challenging,,,,,,
null,"<div style=""font-size:60px;"">+</div>",,html-keyboard-response,78,419522,0.0-13.0-0.2,89559,List2B,white,man,,,,null,,,,,,,,,
null,"<img src=""stim_listB/greet7.gif""style=""height:400px;""></stim_listB>",,html-keyboard-response,79,421524,0.0-13.0-1.2,89559,List2B,white,man,,,,null,,,,,,,,,
null,is greeting,,html-keyboard-response,80,423526,0.0-13.0-2.2,89559,List2B,white,man,,,,null,,,,,,,,,
9784,,,survey-text,81,433314,0.0-13.0-3.2,89559,List2B,white,man,,,,,"{""Q0"":""Jane is greeting Beth""}","<img src=""stim_listB/greet7.gif""style=""height:400px;""></stim_listB>",is greeting,,,,,,
null,"<div style=""font-size:60px;"">+</div>",,html-keyboard-response,82,433816,0.0-13.0-0.3,89559,List2B,white,man,,,,null,,,,,,,,,
null,"<img src=""stim_listB/look6.gif""style=""height:400px;""></stim_listB>",,html-keyboard-response,83,435820,0.0-13.0-1.3,89559,List2B,white,man,,,,null,,,,,,,,,
null,is being looked at by,,html-keyboard-response,84,437821,0.0-13.0-2.3,89559,List2B,white,man,,,,null,,,,,,,,,
15055,,,survey-text,85,452882,0.0-13.0-3.3,89559,List2B,white,man,,,,,"{""Q0"":""Dave is being looked at by Mike""}","<img src=""stim_listB/look6.gif""style=""height:400px;""></stim_listB>",is being looked at by,,,,,,
null,"<div style=""font-size:60px;"">+</div>",,html-keyboard-response,86,453383,0.0-13.0-0.4,89559,List2B,white,man,,,,null,,,,,,,,,
null,"<img src=""stim_listB/seduce3.gif""style=""height:400px;""></stim_listB>",,html-keyboard-response,87,455386,0.0-13.0-1.4,89559,List2B,white,man,,,,null,,,,,,,,,
null,is seducing,,html-keyboard-response,88,457387,0.0-13.0-2.4,89559,List2B,white,man,,,,null,,,,,,,,,
12194.8,,,survey-text,89,469586,0.0-13.0-3.4,89559,List2B,white,man,,,,,"{""Q0"":""Luke is seducing Beth""}","<img src=""stim_listB/seduce3.gif""style=""height:400px;""></stim_listB>",is seducing,,,,,,
null,"<div style=""font-size:60px;"">+</div>",,html-keyboard-response,90,470088,0.0-13.0-0.5,89559,List2B,white,man,,,,null,,,,,,,,,
null,"<img src=""stim_listB/greet1.gif""style=""height:400px;""></stim_listB>",,html-keyboard-response,91,472090,0.0-13.0-1.5,89559,List2B,white,man,,,,null,,,,,,,,,
null,is greeting,,html-keyboard-response,92,474090,0.0-13.0-2.5,89559,List2B,white,man,,,,null,,,,,,,,,
7810.8,,,survey-text,93,481906,0.0-13.0-3.5,89559,List2B,white,man,,,,,"{""Q0"":""Ruth is greeting Dave""}","<img src=""stim_listB/greet1.gif""style=""height:400px;""></stim_listB>",is greeting,,,,,,
null,"<div style=""font-size:60px;"">+</div>",,html-keyboard-response,94,482408,0.0-13.0-0.6,89559,List2B,white,man,,,,null,,,,,,,,,
null,"<img src=""stim_listB/hug7.gif""style=""height:400px;""></stim_listB>",,html-keyboard-response,95,484410,0.0-13.0-1.6,89559,List2B,white,man,,,,null,,,,,,,,,
null,is hugging,,html-keyboard-response,96,486413,0.0-13.0-2.6,89559,List2B,white,man,,,,null,,,,,,,,,
10040.2,,,survey-text,97,496458,0.0-13.0-3.6,89559,List2B,white,man,,,,,"{""Q0"":""Beth is hugging Ruth""}","<img src=""stim_listB/hug7.gif""style=""height:400px;""></stim_listB>",is hugging,,,,,,
null,"<div style=""font-size:60px;"">+</div>",,html-keyboard-response,98,496960,0.0-13.0-0.7,89559,List2B,white,man,,,,null,,,,,,,,,
null,"<img src=""stim_listB/hug5.gif""style=""height:400px;""></stim_listB>",,html-keyboard-response,99,498961,0.0-13.0-1.7,89559,List2B,white,man,,,,null,,,,,,,,,
null,is hugging,,html-keyboard-response,100,500963,0.0-13.0-2.7,89559,List2B,white,man,,,,null,,,,,,,,,
20251.6,,,survey-text,101,521218,0.0-13.0-3.7,89559,List2B,white,man,,,,,"{""Q0"":""Luke is hugging Fred""}","<img src=""stim_listB/hug5.gif""style=""height:400px;""></stim_listB>",is hugging,,,,,,
null,"<div style=""font-size:60px;"">+</div>",,html-keyboard-response,102,521720,0.0-13.0-0.8,89559,List2B,white,man,,,,null,,,,,,,,,
null,"<img src=""stim_listB/copy6.gif""style=""height:400px;""></stim_listB>",,html-keyboard-response,103,523722,0.0-13.0-1.8,89559,List2B,white,man,,,,null,,,,,,,,,
null,is being copied by,,html-keyboard-response,104,525725,0.0-13.0-2.8,89559,List2B,white,man,,,,null,,,,,,,,,
11872.5,,,survey-text,105,537602,0.0-13.0-3.8,89559,List2B,white,man,,,,,"{""Q0"":""Mike Dave""}","<img src=""stim_listB/copy6.gif""style=""height:400px;""></stim_listB>",is being copied by,,,,,,
null,"<div style=""font-size:60px;"">+</div>",,html-keyboard-response,106,538103,0.0-13.0-0.9,89559,List2B,white,man,,,,null,,,,,,,,,
null,"<img src=""stim_listB/challenge6.gif""style=""height:400px;""></stim_listB>",,html-keyboard-response,107,540105,0.0-13.0-1.9,89559,List2B,white,man,,,,null,,,,,,,,,
null,is being challenged by,,html-keyboard-response,108,542107,0.0-13.0-2.9,89559,List2B,white,man,,,,null,,,,,,,,,
16411.5,,,survey-text,109,558523,0.0-13.0-3.9,89559,List2B,white,man,,,,,"{""Q0"":""Mike is being challenged by Dave ""}","<img src=""stim_listB/challenge6.gif""style=""height:400px;""></stim_listB>",is being challenged by,,,,,,
null,"<div style=""font-size:60px;"">+</div>",,html-keyboard-response,110,559026,0.0-13.0-0.10,89559,List2B,white,man,,,,null,,,,,,,,,
null,"<img src=""stim_listB/look1.gif""style=""height:400px;""></stim_listB>",,html-keyboard-response,111,561029,0.0-13.0-1.10,89559,List2B,white,man,,,,null,,,,,,,,,
null,is looking at,,html-keyboard-response,112,563030,0.0-13.0-2.10,89559,List2B,white,man,,,,null,,,,,,,,,
7152.7,,,survey-text,113,570187,0.0-13.0-3.10,89559,List2B,white,man,,,,,"{""Q0"":""Dave is looking at Ruth""}","<img src=""stim_listB/look1.gif""style=""height:400px;""></stim_listB>",is looking at,,,,,,
null,"<div style=""font-size:60px;"">+</div>",,html-keyboard-response,114,570688,0.0-13.0-0.11,89559,List2B,white,man,,,,null,,,,,,,,,
null,"<img src=""stim_listB/kiss2.gif""style=""height:400px;""></stim_listB>",,html-keyboard-response,115,572692,0.0-13.0-1.11,89559,List2B,white,man,,,,null,,,,,,,,,
null,is being kissed by,,html-keyboard-response,116,574694,0.0-13.0-2.11,89559,List2B,white,man,,,,null,,,,,,,,,
17775.4,,,survey-text,117,592475,0.0-13.0-3.11,89559,List2B,white,man,,,,,"{""Q0"":""Jane is being kissed by Luke""}","<img src=""stim_listB/kiss2.gif""style=""height:400px;""></stim_listB>",is being kissed by,,,,,,
null,"<div style=""font-size:60px;"">+</div>",,html-keyboard-response,118,592976,0.0-13.0-0.12,89559,List2B,white,man,,,,null,,,,,,,,,
null,"<img src=""stim_listB/challenge4.gif""style=""height:400px;""></stim_listB>",,html-keyboard-response,119,594978,0.0-13.0-1.12,89559,List2B,white,man,,,,null,,,,,,,,,
null,is being challenged by,,html-keyboard-response,120,596980,0.0-13.0-2.12,89559,List2B,white,man,,,,null,,,,,,,,,
17106.2,,,survey-text,121,614091,0.0-13.0-3.12,89559,List2B,white,man,,,,,"{""Q0"":""Kate is being challenged by Luke""}","<img src=""stim_listB/challenge4.gif""style=""height:400px;""></stim_listB>",is being challenged by,,,,,,
null,"<div style=""font-size:60px;"">+</div>",,html-keyboard-response,122,614593,0.0-13.0-0.13,89559,List2B,white,man,,,,null,,,,,,,,,
null,"<img src=""stim_listB/copy3.gif""style=""height:400px;""></stim_listB>",,html-keyboard-response,123,616596,0.0-13.0-1.13,89559,List2B,white,man,,,,null,,,,,,,,,
null,is copying,,html-keyboard-response,124,618597,0.0-13.0-2.13,89559,List2B,white,man,,,,null,,,,,,,,,
12455.6,,,survey-text,125,631059,0.0-13.0-3.13,89559,List2B,white,man,,,,,"{""Q0"":""Mike is copying Beth""}","<img src=""stim_listB/copy3.gif""style=""height:400px;""></stim_listB>",is copying,,,,,,
null,"<div style=""font-size:60px;"">+</div>",,html-keyboard-response,126,631560,0.0-13.0-0.14,89559,List2B,white,man,,,,null,,,,,,,,,
null,"<img src=""stim_listB/copy7.gif""style=""height:400px;""></stim_listB>",,html-keyboard-response,127,633563,0.0-13.0-1.14,89559,List2B,white,man,,,,null,,,,,,,,,
null,is copying,,html-keyboard-response,128,635565,0.0-13.0-2.14,89559,List2B,white,man,,,,null,,,,,,,,,
8625,,,survey-text,129,644195,0.0-13.0-3.14,89559,List2B,white,man,,,,,"{""Q0"":""Beth is copying Jane""}","<img src=""stim_listB/copy7.gif""style=""height:400px;""></stim_listB>",is copying,,,,,,
null,"<div style=""font-size:60px;"">+</div>",,html-keyboard-response,130,644696,0.0-13.0-0.15,89559,List2B,white,man,,,,null,,,,,,,,,
null,"<img src=""stim_listB/hug2.gif""style=""height:400px;""></stim_listB>",,html-keyboard-response,131,646700,0.0-13.0-1.15,89559,List2B,white,man,,,,null,,,,,,,,,
null,is being hugged by,,html-keyboard-response,132,648701,0.0-13.0-2.15,89559,List2B,white,man,,,,null,,,,,,,,,
16343.4,,,survey-text,133,665051,0.0-13.0-3.15,89559,List2B,white,man,,,,,"{""Q0"":""Jane is being hugged by Dave""}","<img src=""stim_listB/hug2.gif""style=""height:400px;""></stim_listB>",is being hugged by,,,,,,
null,"<div style=""font-size:60px;"">+</div>",,html-keyboard-response,134,665553,0.0-13.0-0.16,89559,List2B,white,man,,,,null,,,,,,,,,
null,"<img src=""stim_listB/shout6.gif""style=""height:400px;""></stim_listB>",,html-keyboard-response,135,667556,0.0-13.0-1.16,89559,List2B,white,man,,,,null,,,,,,,,,
null,is being shouted at by,,html-keyboard-response,136,669558,0.0-13.0-2.16,89559,List2B,white,man,,,,null,,,,,,,,,
17670.5,,,survey-text,137,687234,0.0-13.0-3.16,89559,List2B,white,man,,,,,"{""Q0"":""Mike is being shouted at by Dave""}","<img src=""stim_listB/shout6.gif""style=""height:400px;""></stim_listB>",is being shouted at by,,,,,,
null,"<div style=""font-size:60px;"">+</div>",,html-keyboard-response,138,687736,0.0-13.0-0.17,89559,List2B,white,man,,,,null,,,,,,,,,
null,"<img src=""stim_listB/touch6.gif""style=""height:400px;""></stim_listB>",,html-keyboard-response,139,689738,0.0-13.0-1.17,89559,List2B,white,man,,,,null,,,,,,,,,
null,is being touched by,,html-keyboard-response,140,691740,0.0-13.0-2.17,89559,List2B,white,man,,,,null,,,,,,,,,
10401.7,,,survey-text,141,702146,0.0-13.0-3.17,89559,List2B,white,man,,,,,"{""Q0"":""Luke Fred""}","<img src=""stim_listB/touch6.gif""style=""height:400px;""></stim_listB>",is being touched by,,,,,,
null,"<div style=""font-size:60px;"">+</div>",,html-keyboard-response,142,702648,0.0-13.0-0.18,89559,List2B,white,man,,,,null,,,,,,,,,
null,"<img src=""stim_listB/hug3.gif""style=""height:400px;""></stim_listB>",,html-keyboard-response,143,704651,0.0-13.0-1.18,89559,List2B,white,man,,,,null,,,,,,,,,
null,is hugging,,html-keyboard-response,144,706652,0.0-13.0-2.18,89559,List2B,white,man,,,,null,,,,,,,,,
7970.6,,,survey-text,145,714626,0.0-13.0-3.18,89559,List2B,white,man,,,,,"{""Q0"":""Luke is hugging Beth""}","<img src=""stim_listB/hug3.gif""style=""height:400px;""></stim_listB>",is hugging,,,,,,
null,"<div style=""font-size:60px;"">+</div>",,html-keyboard-response,146,715134,0.0-13.0-0.19,89559,List2B,white,man,,,,null,,,,,,,,,
null,"<img src=""stim_listB/kiss5.gif""style=""height:400px;""></stim_listB>",,html-keyboard-response,147,717136,0.0-13.0-1.19,89559,List2B,white,man,,,,null,,,,,,,,,
null,is kissing,,html-keyboard-response,148,719137,0.0-13.0-2.19,89559,List2B,white,man,,,,null,,,,,,,,,
11403.4,,,survey-text,149,730546,0.0-13.0-3.19,89559,List2B,white,man,,,,,"{""Q0"":""Luke is kissing Fred""}","<img src=""stim_listB/kiss5.gif""style=""height:400px;""></stim_listB>",is kissing,,,,,,
15796.8,"<img src='img/portrait_matrix_list2.jpg' style='width:900px;height:500px;''></img><p>If you have memorised all the portraits and names and are ready to start, press Continue.</p><p><strong>Please note: Your memory of these faces will be tested 4 times during this experiment.</strong></p>",0,html-button-response,150,746345,0.0-14.0-0.0,89559,List2B,white,man,,,,,,,,,,,,,
3402.7,"<img src=""portrait/WW1.jpg""style=""height:400px;""></img>",1,html-button-response,151,750750,0.0-14.0-1.0,89559,List2B,white,man,,TRUE,1,,,,,,,,,,
null,CORRECT,,html-keyboard-response,152,752254,0.0-14.0-2.0-0.0,89559,List2B,white,man,,,,null,,,,,,,,,
4539.6,"<img src=""portrait/BM1.jpg""style=""height:400px;""></img>",4,html-button-response,153,756796,0.0-14.0-4.0,89559,List2B,white,man,,TRUE,4,,,,,,,,,,
null,CORRECT,,html-keyboard-response,154,758299,0.0-14.0-5.0-0.0,89559,List2B,white,man,,,,null,,,,,,,,,
2662.7,"<img src=""portrait/BW1.jpg""style=""height:400px;""></img>",0,html-button-response,155,760963,0.0-14.0-7.0,89559,List2B,white,man,,TRUE,0,,,,,,,,,,
null,CORRECT,,html-keyboard-response,156,762468,0.0-14.0-8.0-0.0,89559,List2B,white,man,,,,null,,,,,,,,,
979.3,"<img src=""portrait/BW2.jpg""style=""height:400px;""></img>",2,html-button-response,157,763449,0.0-14.0-10.0,89559,List2B,white,man,,TRUE,2,,,,,,,,,,
null,CORRECT,,html-keyboard-response,158,764951,0.0-14.0-11.0-0.0,89559,List2B,white,man,,,,null,,,,,,,,,
1970.3,"<img src=""portrait/BM2.jpg""style=""height:400px;""></img>",5,html-button-response,159,766923,0.0-14.0-13.0,89559,List2B,white,man,,TRUE,5,,,,,,,,,,
null,CORRECT,,html-keyboard-response,160,768425,0.0-14.0-14.0-0.0,89559,List2B,white,man,,,,null,,,,,,,,,
3817.4,"<img src=""portrait/WM1.jpg""style=""height:400px;""></img>",6,html-button-response,161,772244,0.0-14.0-16.0,89559,List2B,white,man,,TRUE,6,,,,,,,,,,
null,CORRECT,,html-keyboard-response,162,773748,0.0-14.0-17.0-0.0,89559,List2B,white,man,,,,null,,,,,,,,,
1449.8,"<img src=""portrait/WW2.jpg""style=""height:400px;""></img>",3,html-button-response,163,775200,0.0-14.0-19.0,89559,List2B,white,man,,TRUE,3,,,,,,,,,,
null,CORRECT,,html-keyboard-response,164,776703,0.0-14.0-20.0-0.0,89559,List2B,white,man,,,,null,,,,,,,,,
997.5999999,"<img src=""portrait/WM2.jpg""style=""height:400px;""></img>",7,html-button-response,165,777703,0.0-14.0-22.0,89559,List2B,white,man,,TRUE,7,,,,,,,,,,
null,CORRECT,,html-keyboard-response,166,779206,0.0-14.0-23.0-0.0,89559,List2B,white,man,,,,null,,,,,,,,,
1229.1,<p>You got 8 out of 8 right first time. Press Continue.</p>,0,html-button-response,167,780437,0.0-14.0-25.0,89559,List2B,white,man,,,,,,,,,,,,,
null,"<div style=""font-size:60px;"">+</div>",,html-keyboard-response,168,781939,0.0-15.0-0.0,89559,List2B,white,man,,,,null,,,,,,,,,
null,"<img src=""stim_listB/kiss1.gif""style=""height:400px;""></stim_listB>",,html-keyboard-response,169,783942,0.0-15.0-1.0,89559,List2B,white,man,,,,null,,,,,,,,,
null,is kissing,,html-keyboard-response,170,785944,0.0-15.0-2.0,89559,List2B,white,man,,,,null,,,,,,,,,
11741.1,,,survey-text,171,797691,0.0-15.0-3.0,89559,List2B,white,man,,,,,"{""Q0"":""Luke is kissing Beth""}","<img src=""stim_listB/kiss1.gif""style=""height:400px;""></stim_listB>",is kissing,,,,,,
null,"<div style=""font-size:60px;"">+</div>",,html-keyboard-response,172,798193,0.0-15.0-0.1,89559,List2B,white,man,,,,null,,,,,,,,,
null,"<img src=""stim_listB/challenge8.gif""style=""height:400px;""></stim_listB>",,html-keyboard-response,173,800194,0.0-15.0-1.1,89559,List2B,white,man,,,,null,,,,,,,,,
null,is being challenged by,,html-keyboard-response,174,802196,0.0-15.0-2.1,89559,List2B,white,man,,,,null,,,,,,,,,
21073.2,,,survey-text,175,823274,0.0-15.0-3.1,89559,List2B,white,man,,,,,"{""Q0"":""Kate is being challenged by Beth ""}","<img src=""stim_listB/challenge8.gif""style=""height:400px;""></stim_listB>",is being challenged by,,,,,,
null,"<div style=""font-size:60px;"">+</div>",,html-keyboard-response,176,823779,0.0-15.0-0.2,89559,List2B,white,man,,,,null,,,,,,,,,
null,"<img src=""stim_listB/touch3.gif""style=""height:400px;""></stim_listB>",,html-keyboard-response,177,825783,0.0-15.0-1.2,89559,List2B,white,man,,,,null,,,,,,,,,
null,is touching,,html-keyboard-response,178,827784,0.0-15.0-2.2,89559,List2B,white,man,,,,null,,,,,,,,,
7034.3,,,survey-text,179,834826,0.0-15.0-3.2,89559,List2B,white,man,,,,,"{""Q0"":""Mike is touching Kate""}","<img src=""stim_listB/touch3.gif""style=""height:400px;""></stim_listB>",is touching,,,,,,
null,"<div style=""font-size:60px;"">+</div>",,html-keyboard-response,180,835328,0.0-15.0-0.3,89559,List2B,white,man,,,,null,,,,,,,,,
null,"<img src=""stim_listB/copy4.gif""style=""height:400px;""></stim_listB>",,html-keyboard-response,181,837329,0.0-15.0-1.3,89559,List2B,white,man,,,,null,,,,,,,,,
null,is being copied by,,html-keyboard-response,182,839330,0.0-15.0-2.3,89559,List2B,white,man,,,,null,,,,,,,,,
6483.5,,,survey-text,183,845818,0.0-15.0-3.3,89559,List2B,white,man,,,,,"{""Q0"":""Fred is copying Kate""}","<img src=""stim_listB/copy4.gif""style=""height:400px;""></stim_listB>",is being copied by,,,,,,
null,"<div style=""font-size:60px;"">+</div>",,html-keyboard-response,184,846320,0.0-15.0-0.4,89559,List2B,white,man,,,,null,,,,,,,,,
null,"<img src=""stim_listB/seduce7.gif""style=""height:400px;""></stim_listB>",,html-keyboard-response,185,848323,0.0-15.0-1.4,89559,List2B,white,man,,,,null,,,,,,,,,
null,is seducing,,html-keyboard-response,186,850325,0.0-15.0-2.4,89559,List2B,white,man,,,,null,,,,,,,,,
7480.9,,,survey-text,187,857810,0.0-15.0-3.4,89559,List2B,white,man,,,,,"{""Q0"":""Kate is seducing Beth""}","<img src=""stim_listB/seduce7.gif""style=""height:400px;""></stim_listB>",is seducing,,,,,,
null,"<div style=""font-size:60px;"">+</div>",,html-keyboard-response,188,858311,0.0-15.0-0.5,89559,List2B,white,man,,,,null,,,,,,,,,
null,"<img src=""stim_listB/kiss4.gif""style=""height:400px;""></stim_listB>",,html-keyboard-response,189,860314,0.0-15.0-1.5,89559,List2B,white,man,,,,null,,,,,,,,,
null,is being kissed by,,html-keyboard-response,190,862316,0.0-15.0-2.5,89559,List2B,white,man,,,,null,,,,,,,,,
13477.2,,,survey-text,191,875802,0.0-15.0-3.5,89559,List2B,white,man,,,,,"{""Q0"":""Kate being kissed by Mike""}","<img src=""stim_listB/kiss4.gif""style=""height:400px;""></stim_listB>",is being kissed by,,,,,,
null,"<div style=""font-size:60px;"">+</div>",,html-keyboard-response,192,876304,0.0-15.0-0.6,89559,List2B,white,man,,,,null,,,,,,,,,
null,"<img src=""stim_listB/challenge3.gif""style=""height:400px;""></stim_listB>",,html-keyboard-response,193,878306,0.0-15.0-1.6,89559,List2B,white,man,,,,null,,,,,,,,,
null,is challenging,,html-keyboard-response,194,880307,0.0-15.0-2.6,89559,List2B,white,man,,,,null,,,,,,,,,
10010.6,,,survey-text,195,890321,0.0-15.0-3.6,89559,List2B,white,man,,,,,"{""Q0"":""Mike is challenging Beth""}","<img src=""stim_listB/challenge3.gif""style=""height:400px;""></stim_listB>",is challenging,,,,,,
null,"<div style=""font-size:60px;"">+</div>",,html-keyboard-response,196,890823,0.0-15.0-0.7,89559,List2B,white,man,,,,null,,,,,,,,,
null,"<img src=""stim_listB/oppose8.gif""style=""height:400px;""></stim_listB>",,html-keyboard-response,197,892827,0.0-15.0-1.7,89559,List2B,white,man,,,,null,,,,,,,,,
null,is being opposed by,,html-keyboard-response,198,894829,0.0-15.0-2.7,89559,List2B,white,man,,,,null,,,,,,,,,
9432.8,,,survey-text,199,904266,0.0-15.0-3.7,89559,List2B,white,man,,,,,"{""Q0"":""Ruth is being opposed by Beth""}","<img src=""stim_listB/oppose8.gif""style=""height:400px;""></stim_listB>",is being opposed by,,,,,,
null,"<div style=""font-size:60px;"">+</div>",,html-keyboard-response,200,904768,0.0-15.0-0.8,89559,List2B,white,man,,,,null,,,,,,,,,
null,"<img src=""stim_listB/shout2.gif""style=""height:400px;""></stim_listB>",,html-keyboard-response,201,906771,0.0-15.0-1.8,89559,List2B,white,man,,,,null,,,,,,,,,
null,is being shouted at by,,html-keyboard-response,202,908773,0.0-15.0-2.8,89559,List2B,white,man,,,,null,,,,,,,,,
13231.7,,,survey-text,203,922011,0.0-15.0-3.8,89559,List2B,white,man,,,,,"{""Q0"":""Dave is being shouted at by Jane""}","<img src=""stim_listB/shout2.gif""style=""height:400px;""></stim_listB>",is being shouted at by,,,,,,
null,"<div style=""font-size:60px;"">+</div>",,html-keyboard-response,204,922514,0.0-15.0-0.9,89559,List2B,white,man,,,,null,,,,,,,,,
null,"<img src=""stim_listB/greet5.gif""style=""height:400px;""></stim_listB>",,html-keyboard-response,205,924516,0.0-15.0-1.9,89559,List2B,white,man,,,,null,,,,,,,,,
null,is greeting,,html-keyboard-response,206,926518,0.0-15.0-2.9,89559,List2B,white,man,,,,null,,,,,,,,,
8976.2,,,survey-text,207,935499,0.0-15.0-3.9,89559,List2B,white,man,,,,,"{""Q0"":""Dave is greeting Fred""}","<img src=""stim_listB/greet5.gif""style=""height:400px;""></stim_listB>",is greeting,,,,,,
null,"<div style=""font-size:60px;"">+</div>",,html-keyboard-response,208,936001,0.0-15.0-0.10,89559,List2B,white,man,,,,null,,,,,,,,,
null,"<img src=""stim_listB/oppose1.gif""style=""height:400px;""></stim_listB>",,html-keyboard-response,209,938004,0.0-15.0-1.10,89559,List2B,white,man,,,,null,,,,,,,,,
null,is opposing,,html-keyboard-response,210,940007,0.0-15.0-2.10,89559,List2B,white,man,,,,null,,,,,,,,,
4887.2,,,survey-text,211,944899,0.0-15.0-3.10,89559,List2B,white,man,,,,,"{""Q0"":""Dave is opposing Jane""}","<img src=""stim_listB/oppose1.gif""style=""height:400px;""></stim_listB>",is opposing,,,,,,
null,"<div style=""font-size:60px;"">+</div>",,html-keyboard-response,212,945401,0.0-15.0-0.11,89559,List2B,white,man,,,,null,,,,,,,,,
null,"<img src=""stim_listB/touch5.gif""style=""height:400px;""></stim_listB>",,html-keyboard-response,213,947403,0.0-15.0-1.11,89559,List2B,white,man,,,,null,,,,,,,,,
null,is touching,,html-keyboard-response,214,949404,0.0-15.0-2.11,89559,List2B,white,man,,,,null,,,,,,,,,
6945.3,,,survey-text,215,956355,0.0-15.0-3.11,89559,List2B,white,man,,,,,"{""Q0"":""Mike is touching Dave""}","<img src=""stim_listB/touch5.gif""style=""height:400px;""></stim_listB>",is touching,,,,,,
null,"<div style=""font-size:60px;"">+</div>",,html-keyboard-response,216,956857,0.0-15.0-0.12,89559,List2B,white,man,,,,null,,,,,,,,,
null,"<img src=""stim_listB/challenge7.gif""style=""height:400px;""></stim_listB>",,html-keyboard-response,217,958860,0.0-15.0-1.12,89559,List2B,white,man,,,,null,,,,,,,,,
null,is challenging,,html-keyboard-response,218,960862,0.0-15.0-2.12,89559,List2B,white,man,,,,null,,,,,,,,,
8239,,,survey-text,219,969107,0.0-15.0-3.12,89559,List2B,white,man,,,,,"{""Q0"":""Jane is challenging Beth""}","<img src=""stim_listB/challenge7.gif""style=""height:400px;""></stim_listB>",is challenging,,,,,,
null,"<div style=""font-size:60px;"">+</div>",,html-keyboard-response,220,969609,0.0-15.0-0.13,89559,List2B,white,man,,,,null,,,,,,,,,
null,"<img src=""stim_listB/look3.gif""style=""height:400px;""></stim_listB>",,html-keyboard-response,221,971612,0.0-15.0-1.13,89559,List2B,white,man,,,,null,,,,,,,,,
null,is looking at,,html-keyboard-response,222,973614,0.0-15.0-2.13,89559,List2B,white,man,,,,null,,,,,,,,,
9639,,,survey-text,223,983259,0.0-15.0-3.13,89559,List2B,white,man,,,,,"{""Q0"":""Fred is looking at Beth""}","<img src=""stim_listB/look3.gif""style=""height:400px;""></stim_listB>",is looking at,,,,,,
null,"<div style=""font-size:60px;"">+</div>",,html-keyboard-response,224,983761,0.0-15.0-0.14,89559,List2B,white,man,,,,null,,,,,,,,,
null,"<img src=""stim_listB/oppose3.gif""style=""height:400px;""></stim_listB>",,html-keyboard-response,225,985771,0.0-15.0-1.14,89559,List2B,white,man,,,,null,,,,,,,,,
null,is opposing,,html-keyboard-response,226,987774,0.0-15.0-2.14,89559,List2B,white,man,,,,null,,,,,,,,,
5053,,,survey-text,227,992834,0.0-15.0-3.14,89559,List2B,white,man,,,,,"{""Q0"":""Kate is opposing Mike""}","<img src=""stim_listB/oppose3.gif""style=""height:400px;""></stim_listB>",is opposing,,,,,,
null,"<div style=""font-size:60px;"">+</div>",,html-keyboard-response,228,993336,0.0-15.0-0.15,89559,List2B,white,man,,,,null,,,,,,,,,
null,"<img src=""stim_listB/greet3.gif""style=""height:400px;""></stim_listB>",,html-keyboard-response,229,995339,0.0-15.0-1.15,89559,List2B,white,man,,,,null,,,,,,,,,
null,is greeting,,html-keyboard-response,230,997341,0.0-15.0-2.15,89559,List2B,white,man,,,,null,,,,,,,,,
8409.6,,,survey-text,231,1005755,0.0-15.0-3.15,89559,List2B,white,man,,,,,"{""Q0"":""Mike is greeting Beth""}","<img src=""stim_listB/greet3.gif""style=""height:400px;""></stim_listB>",is greeting,,,,,,
null,"<div style=""font-size:60px;"">+</div>",,html-keyboard-response,232,1006258,0.0-15.0-0.16,89559,List2B,white,man,,,,null,,,,,,,,,
null,"<img src=""stim_listB/hug4.gif""style=""height:400px;""></stim_listB>",,html-keyboard-response,233,1008260,0.0-15.0-1.16,89559,List2B,white,man,,,,null,,,,,,,,,
null,is being hugged by,,html-keyboard-response,234,1010263,0.0-15.0-2.16,89559,List2B,white,man,,,,null,,,,,,,,,
8694.3,,,survey-text,235,1018963,0.0-15.0-3.16,89559,List2B,white,man,,,,,"{""Q0"":""Kate is being hugged by Mike""}","<img src=""stim_listB/hug4.gif""style=""height:400px;""></stim_listB>",is being hugged by,,,,,,
null,"<div style=""font-size:60px;"">+</div>",,html-keyboard-response,236,1019466,0.0-15.0-0.17,89559,List2B,white,man,,,,null,,,,,,,,,
null,"<img src=""stim_listB/touch1.gif""style=""height:400px;""></stim_listB>",,html-keyboard-response,237,1021470,0.0-15.0-1.17,89559,List2B,white,man,,,,null,,,,,,,,,
null,is touching,,html-keyboard-response,238,1023471,0.0-15.0-2.17,89559,List2B,white,man,,,,null,,,,,,,,,
10335.6,,,survey-text,239,1033812,0.0-15.0-3.17,89559,List2B,white,man,,,,,"{""Q0"":""Dave is touching Jane""}","<img src=""stim_listB/touch1.gif""style=""height:400px;""></stim_listB>",is touching,,,,,,
null,"<div style=""font-size:60px;"">+</div>",,html-keyboard-response,240,1034314,0.0-15.0-0.18,89559,List2B,white,man,,,,null,,,,,,,,,
null,"<img src=""stim_listB/kiss6.gif""style=""height:400px;""></stim_listB>",,html-keyboard-response,241,1036317,0.0-15.0-1.18,89559,List2B,white,man,,,,null,,,,,,,,,
null,is being kissed by,,html-keyboard-response,242,1038319,0.0-15.0-2.18,89559,List2B,white,man,,,,null,,,,,,,,,
6229.9,,,survey-text,243,1044554,0.0-15.0-3.18,89559,List2B,white,man,,,,,"{""Q0"":""Dave is kissing Mike""}","<img src=""stim_listB/kiss6.gif""style=""height:400px;""></stim_listB>",is being kissed by,,,,,,
null,"<div style=""font-size:60px;"">+</div>",,html-keyboard-response,244,1045056,0.0-15.0-0.19,89559,List2B,white,man,,,,null,,,,,,,,,
null,"<img src=""stim_listB/oppose7.gif""style=""height:400px;""></stim_listB>",,html-keyboard-response,245,1047059,0.0-15.0-1.19,89559,List2B,white,man,,,,null,,,,,,,,,
null,is opposing,,html-keyboard-response,246,1049061,0.0-15.0-2.19,89559,List2B,white,man,,,,null,,,,,,,,,
7065.1,,,survey-text,247,1056130,0.0-15.0-3.19,89559,List2B,white,man,,,,,"{""Q0"":""Jane is opposing Kate""}","<img src=""stim_listB/oppose7.gif""style=""height:400px;""></stim_listB>",is opposing,,,,,,
3439.7,"<img src='img/portrait_matrix_list2.jpg' style='width:900px;height:500px;''></img><p>If you have memorised all the portraits and names and are ready to start, press Continue.</p><p><strong>Please note: Your memory of these faces will be tested 4 times during this experiment.</strong></p>",0,html-button-response,248,1059571,0.0-16.0-0.0,89559,List2B,white,man,,,,,,,,,,,,,
1678.4,"<img src=""portrait/WW1.jpg""style=""height:400px;""></img>",1,html-button-response,249,1062253,0.0-16.0-1.0,89559,List2B,white,man,,TRUE,1,,,,,,,,,,
null,CORRECT,,html-keyboard-response,250,1063756,0.0-16.0-2.0-0.0,89559,List2B,white,man,,,,null,,,,,,,,,
1529.2,"<img src=""portrait/BM2.jpg""style=""height:400px;""></img>",5,html-button-response,251,1065287,0.0-16.0-4.0,89559,List2B,white,man,,TRUE,5,,,,,,,,,,
null,CORRECT,,html-keyboard-response,252,1066793,0.0-16.0-5.0-0.0,89559,List2B,white,man,,,,null,,,,,,,,,
1274.2,"<img src=""portrait/WM2.jpg""style=""height:400px;""></img>",7,html-button-response,253,1068069,0.0-16.0-7.0,89559,List2B,white,man,,TRUE,7,,,,,,,,,,
null,CORRECT,,html-keyboard-response,254,1069572,0.0-16.0-8.0-0.0,89559,List2B,white,man,,,,null,,,,,,,,,
1272,"<img src=""portrait/BM1.jpg""style=""height:400px;""></img>",4,html-button-response,255,1070845,0.0-16.0-10.0,89559,List2B,white,man,,TRUE,4,,,,,,,,,,
null,CORRECT,,html-keyboard-response,256,1072350,0.0-16.0-11.0-0.0,89559,List2B,white,man,,,,null,,,,,,,,,
1723,"<img src=""portrait/WW2.jpg""style=""height:400px;""></img>",3,html-button-response,257,1074075,0.0-16.0-13.0,89559,List2B,white,man,,TRUE,3,,,,,,,,,,
null,CORRECT,,html-keyboard-response,258,1075578,0.0-16.0-14.0-0.0,89559,List2B,white,man,,,,null,,,,,,,,,
1190.8,"<img src=""portrait/BW2.jpg""style=""height:400px;""></img>",2,html-button-response,259,1076771,0.0-16.0-16.0,89559,List2B,white,man,,TRUE,2,,,,,,,,,,
null,CORRECT,,html-keyboard-response,260,1078276,0.0-16.0-17.0-0.0,89559,List2B,white,man,,,,null,,,,,,,,,
1723.4,"<img src=""portrait/WM1.jpg""style=""height:400px;""></img>",6,html-button-response,261,1080000,0.0-16.0-19.0,89559,List2B,white,man,,TRUE,6,,,,,,,,,,
null,CORRECT,,html-keyboard-response,262,1081503,0.0-16.0-20.0-0.0,89559,List2B,white,man,,,,null,,,,,,,,,
1716.6,"<img src=""portrait/BW1.jpg""style=""height:400px;""></img>",0,html-button-response,263,1083222,0.0-16.0-22.0,89559,List2B,white,man,,TRUE,0,,,,,,,,,,
null,CORRECT,,html-keyboard-response,264,1084725,0.0-16.0-23.0-0.0,89559,List2B,white,man,,,,null,,,,,,,,,
1079.5,<p>You got 8 out of 8 right first time. Press Continue.</p>,0,html-button-response,265,1085806,0.0-16.0-25.0,89559,List2B,white,man,,,,,,,,,,,,,
null,"<div style=""font-size:60px;"">+</div>",,html-keyboard-response,266,1087311,0.0-17.0-0.0,89559,List2B,white,man,,,,null,,,,,,,,,
null,"<img src=""stim_listB/seduce1.gif""style=""height:400px;""></stim_listB>",,html-keyboard-response,267,1089314,0.0-17.0-1.0,89559,List2B,white,man,,,,null,,,,,,,,,
null,is seducing,,html-keyboard-response,268,1091315,0.0-17.0-2.0,89559,List2B,white,man,,,,null,,,,,,,,,
11697.2,,,survey-text,269,1103019,0.0-17.0-3.0,89559,List2B,white,man,,,,,"{""Q0"":""Jane is seducing Luke""}","<img src=""stim_listB/seduce1.gif""style=""height:400px;""></stim_listB>",is seducing,,,,,,
null,"<div style=""font-size:60px;"">+</div>",,html-keyboard-response,270,1103521,0.0-17.0-0.1,89559,List2B,white,man,,,,null,,,,,,,,,
null,"<img src=""stim_listB/hug8.gif""style=""height:400px;""></stim_listB>",,html-keyboard-response,271,1105523,0.0-17.0-1.1,89559,List2B,white,man,,,,null,,,,,,,,,
null,is being hugged by,,html-keyboard-response,272,1107525,0.0-17.0-2.1,89559,List2B,white,man,,,,null,,,,,,,,,
12120.2,,,survey-text,273,1119650,0.0-17.0-3.1,89559,List2B,white,man,,,,,"{""Q0"":""Kate is being hugged by Jane""}","<img src=""stim_listB/hug8.gif""style=""height:400px;""></stim_listB>",is being hugged by,,,,,,
null,"<div style=""font-size:60px;"">+</div>",,html-keyboard-response,274,1120153,0.0-17.0-0.2,89559,List2B,white,man,,,,null,,,,,,,,,
null,"<img src=""stim_listB/touch4.gif""style=""height:400px;""></stim_listB>",,html-keyboard-response,275,1122156,0.0-17.0-1.2,89559,List2B,white,man,,,,null,,,,,,,,,
null,is being touched by,,html-keyboard-response,276,1124157,0.0-17.0-2.2,89559,List2B,white,man,,,,null,,,,,,,,,
5601.1,,,survey-text,277,1129764,0.0-17.0-3.2,89559,List2B,white,man,,,,,"{""Q0"":""Fred is touching Beth""}","<img src=""stim_listB/touch4.gif""style=""height:400px;""></stim_listB>",is being touched by,,,,,,
null,"<div style=""font-size:60px;"">+</div>",,html-keyboard-response,278,1130265,0.0-17.0-0.3,89559,List2B,white,man,,,,null,,,,,,,,,
null,"<img src=""stim_listB/look5.gif""style=""height:400px;""></stim_listB>",,html-keyboard-response,279,1132267,0.0-17.0-1.3,89559,List2B,white,man,,,,null,,,,,,,,,
null,is looking at,,html-keyboard-response,280,1134269,0.0-17.0-2.3,89559,List2B,white,man,,,,null,,,,,,,,,
11584.9,,,survey-text,281,1145866,0.0-17.0-3.3,89559,List2B,white,man,,,,,"{""Q0"":""Luke is looking at Fred""}","<img src=""stim_listB/look5.gif""style=""height:400px;""></stim_listB>",is looking at,,,,,,
null,"<div style=""font-size:60px;"">+</div>",,html-keyboard-response,282,1146368,0.0-17.0-0.4,89559,List2B,white,man,,,,null,,,,,,,,,
null,"<img src=""stim_listB/kiss7.gif""style=""height:400px;""></stim_listB>",,html-keyboard-response,283,1148372,0.0-17.0-1.4,89559,List2B,white,man,,,,null,,,,,,,,,
null,is kissing,,html-keyboard-response,284,1150373,0.0-17.0-2.4,89559,List2B,white,man,,,,null,,,,,,,,,
7216.3,,,survey-text,285,1157595,0.0-17.0-3.4,89559,List2B,white,man,,,,,"{""Q0"":""Ruth is kissing Beth""}","<img src=""stim_listB/kiss7.gif""style=""height:400px;""></stim_listB>",is kissing,,,,,,
null,"<div style=""font-size:60px;"">+</div>",,html-keyboard-response,286,1158097,0.0-17.0-0.5,89559,List2B,white,man,,,,null,,,,,,,,,
null,"<img src=""stim_listB/touch8.gif""style=""height:400px;""></stim_listB>",,html-keyboard-response,287,1160101,0.0-17.0-1.5,89559,List2B,white,man,,,,null,,,,,,,,,
null,is being touched by,,html-keyboard-response,288,1162102,0.0-17.0-2.5,89559,List2B,white,man,,,,null,,,,,,,,,
10689.8,,,survey-text,289,1172794,0.0-17.0-3.5,89559,List2B,white,man,,,,,"{""Q0"":""Ruth is being touched by Beth""}","<img src=""stim_listB/touch8.gif""style=""height:400px;""></stim_listB>",is being touched by,,,,,,
null,"<div style=""font-size:60px;"">+</div>",,html-keyboard-response,290,1173310,0.0-17.0-0.6,89559,List2B,white,man,,,,null,,,,,,,,,
null,"<img src=""stim_listB/seduce4.gif""style=""height:400px;""></stim_listB>",,html-keyboard-response,291,1175313,0.0-17.0-1.6,89559,List2B,white,man,,,,null,,,,,,,,,
null,is being seduced by,,html-keyboard-response,292,1177314,0.0-17.0-2.6,89559,List2B,white,man,,,,null,,,,,,,,,
14633.9,,,survey-text,293,1191954,0.0-17.0-3.6,89559,List2B,white,man,,,,,"{""Q0"":""Mike is being seduced by Ruth""}","<img src=""stim_listB/seduce4.gif""style=""height:400px;""></stim_listB>",is being seduced by,,,,,,
null,"<div style=""font-size:60px;"">+</div>",,html-keyboard-response,294,1192456,0.0-17.0-0.7,89559,List2B,white,man,,,,null,,,,,,,,,
null,"<img src=""stim_listB/shout8.gif""style=""height:400px;""></stim_listB>",,html-keyboard-response,295,1194458,0.0-17.0-1.7,89559,List2B,white,man,,,,null,,,,,,,,,
null,is being shouted at by,,html-keyboard-response,296,1196460,0.0-17.0-2.7,89559,List2B,white,man,,,,null,,,,,,,,,
14162.2,,,survey-text,297,1210627,0.0-17.0-3.7,89559,List2B,white,man,,,,,"{""Q0"":""Jane is being shouted at by Kate""}","<img src=""stim_listB/shout8.gif""style=""height:400px;""></stim_listB>",is being shouted at by,,,,,,
null,"<div style=""font-size:60px;"">+</div>",,html-keyboard-response,298,1211129,0.0-17.0-0.8,89559,List2B,white,man,,,,null,,,,,,,,,
null,"<img src=""stim_listB/oppose5.gif""style=""height:400px;""></stim_listB>",,html-keyboard-response,299,1213130,0.0-17.0-1.8,89559,List2B,white,man,,,,null,,,,,,,,,
null,is opposing,,html-keyboard-response,300,1215132,0.0-17.0-2.8,89559,List2B,white,man,,,,null,,,,,,,,,
10561.6,,,survey-text,301,1225698,0.0-17.0-3.8,89559,List2B,white,man,,,,,"{""Q0"":""Mike is opposing Dave""}","<img src=""stim_listB/oppose5.gif""style=""height:400px;""></stim_listB>",is opposing,,,,,,
null,"<div style=""font-size:60px;"">+</div>",,html-keyboard-response,302,1226200,0.0-17.0-0.9,89559,List2B,white,man,,,,null,,,,,,,,,
null,"<img src=""stim_listB/copy1.gif""style=""height:400px;""></stim_listB>",,html-keyboard-response,303,1228203,0.0-17.0-1.9,89559,List2B,white,man,,,,null,,,,,,,,,
null,is copying,,html-keyboard-response,304,1230205,0.0-17.0-2.9,89559,List2B,white,man,,,,null,,,,,,,,,
13824,,,survey-text,305,1244035,0.0-17.0-3.9,89559,List2B,white,man,,,,,"{""Q0"":""Ruth is copying Dave""}","<img src=""stim_listB/copy1.gif""style=""height:400px;""></stim_listB>",is copying,,,,,,
null,"<div style=""font-size:60px;"">+</div>",,html-keyboard-response,306,1244537,0.0-17.0-0.10,89559,List2B,white,man,,,,null,,,,,,,,,
null,"<img src=""stim_listB/seduce2.gif""style=""height:400px;""></stim_listB>",,html-keyboard-response,307,1246539,0.0-17.0-1.10,89559,List2B,white,man,,,,null,,,,,,,,,
null,is being seduced by,,html-keyboard-response,308,1248541,0.0-17.0-2.10,89559,List2B,white,man,,,,null,,,,,,,,,
15179.3,,,survey-text,309,1263723,0.0-17.0-3.10,89559,List2B,white,man,,,,,"{""Q0"":""Ruth is being seduced by ""}","<img src=""stim_listB/seduce2.gif""style=""height:400px;""></stim_listB>",is being seduced by,,,,,,
null,"<div style=""font-size:60px;"">+</div>",,html-keyboard-response,310,1264225,0.0-17.0-0.11,89559,List2B,white,man,,,,null,,,,,,,,,
null,"<img src=""stim_listB/copy8.gif""style=""height:400px;""></stim_listB>",,html-keyboard-response,311,1266228,0.0-17.0-1.11,89559,List2B,white,man,,,,null,,,,,,,,,
null,is being copied by,,html-keyboard-response,312,1268231,0.0-17.0-2.11,89559,List2B,white,man,,,,null,,,,,,,,,
14702.3,,,survey-text,313,1282938,0.0-17.0-3.11,89559,List2B,white,man,,,,,"{""Q0"":""Ruth is copying Kate""}","<img src=""stim_listB/copy8.gif""style=""height:400px;""></stim_listB>",is being copied by,,,,,,
null,"<div style=""font-size:60px;"">+</div>",,html-keyboard-response,314,1283440,0.0-17.0-0.12,89559,List2B,white,man,,,,null,,,,,,,,,
null,"<img src=""stim_listB/copy2.gif""style=""height:400px;""></stim_listB>",,html-keyboard-response,315,1285442,0.0-17.0-1.12,89559,List2B,white,man,,,,null,,,,,,,,,
null,is being copied by,,html-keyboard-response,316,1287443,0.0-17.0-2.12,89559,List2B,white,man,,,,null,,,,,,,,,
36826,,,survey-text,317,1324274,0.0-17.0-3.12,89559,List2B,white,man,,,,,"{""Q0"":""I was distracted by my dog""}","<img src=""stim_listB/copy2.gif""style=""height:400px;""></stim_listB>",is being copied by,,,,,,
null,"<div style=""font-size:60px;"">+</div>",,html-keyboard-response,318,1324776,0.0-17.0-0.13,89559,List2B,white,man,,,,null,,,,,,,,,
null,"<img src=""stim_listB/oppose2.gif""style=""height:400px;""></stim_listB>",,html-keyboard-response,319,1326779,0.0-17.0-1.13,89559,List2B,white,man,,,,null,,,,,,,,,
null,is being opposed by,,html-keyboard-response,320,1328782,0.0-17.0-2.13,89559,List2B,white,man,,,,null,,,,,,,,,
15952.4,,,survey-text,321,1344739,0.0-17.0-3.13,89559,List2B,white,man,,,,,"{""Q0"":""Luke is being opposed by Ruth""}","<img src=""stim_listB/oppose2.gif""style=""height:400px;""></stim_listB>",is being opposed by,,,,,,
null,"<div style=""font-size:60px;"">+</div>",,html-keyboard-response,322,1345241,0.0-17.0-0.14,89559,List2B,white,man,,,,null,,,,,,,,,
null,"<img src=""stim_listB/shout1.gif""style=""height:400px;""></stim_listB>",,html-keyboard-response,323,1347244,0.0-17.0-1.14,89559,List2B,white,man,,,,null,,,,,,,,,
null,is shouting at,,html-keyboard-response,324,1349246,0.0-17.0-2.14,89559,List2B,white,man,,,,null,,,,,,,,,
12086.9,,,survey-text,325,1361339,0.0-17.0-3.14,89559,List2B,white,man,,,,,"{""Q0"":""Ruth is shouting at Luke""}","<img src=""stim_listB/shout1.gif""style=""height:400px;""></stim_listB>",is shouting at,,,,,,
null,"<div style=""font-size:60px;"">+</div>",,html-keyboard-response,326,1361841,0.0-17.0-0.15,89559,List2B,white,man,,,,null,,,,,,,,,
null,"<img src=""stim_listB/shout7.gif""style=""height:400px;""></stim_listB>",,html-keyboard-response,327,1363843,0.0-17.0-1.15,89559,List2B,white,man,,,,null,,,,,,,,,
null,is shouting at,,html-keyboard-response,328,1365845,0.0-17.0-2.15,89559,List2B,white,man,,,,null,,,,,,,,,
6928.4,,,survey-text,329,1372779,0.0-17.0-3.15,89559,List2B,white,man,,,,,"{""Q0"":""Ruth is shouting at Beth""}","<img src=""stim_listB/shout7.gif""style=""height:400px;""></stim_listB>",is shouting at,,,,,,
null,"<div style=""font-size:60px;"">+</div>",,html-keyboard-response,330,1373281,0.0-17.0-0.16,89559,List2B,white,man,,,,null,,,,,,,,,
null,"<img src=""stim_listB/kiss3.gif""style=""height:400px;""></stim_listB>",,html-keyboard-response,331,1375283,0.0-17.0-1.16,89559,List2B,white,man,,,,null,,,,,,,,,
null,is kissing,,html-keyboard-response,332,1377285,0.0-17.0-2.16,89559,List2B,white,man,,,,null,,,,,,,,,
5336.4,,,survey-text,333,1382626,0.0-17.0-3.16,89559,List2B,white,man,,,,,"{""Q0"":""Beth is kissing Fred""}","<img src=""stim_listB/kiss3.gif""style=""height:400px;""></stim_listB>",is kissing,,,,,,
null,"<div style=""font-size:60px;"">+</div>",,html-keyboard-response,334,1383128,0.0-17.0-0.17,89559,List2B,white,man,,,,null,,,,,,,,,
null,"<img src=""stim_listB/hug1.gif""style=""height:400px;""></stim_listB>",,html-keyboard-response,335,1385132,0.0-17.0-1.17,89559,List2B,white,man,,,,null,,,,,,,,,
null,is hugging,,html-keyboard-response,336,1387133,0.0-17.0-2.17,89559,List2B,white,man,,,,null,,,,,,,,,
7480.5,,,survey-text,337,1394619,0.0-17.0-3.17,89559,List2B,white,man,,,,,"{""Q0"":""Luke is hugging Ruth""}","<img src=""stim_listB/hug1.gif""style=""height:400px;""></stim_listB>",is hugging,,,,,,
null,"<div style=""font-size:60px;"">+</div>",,html-keyboard-response,338,1395122,0.0-17.0-0.18,89559,List2B,white,man,,,,null,,,,,,,,,
null,"<img src=""stim_listB/greet8.gif""style=""height:400px;""></stim_listB>",,html-keyboard-response,339,1397125,0.0-17.0-1.18,89559,List2B,white,man,,,,null,,,,,,,,,
null,is being greeted by,,html-keyboard-response,340,1399126,0.0-17.0-2.18,89559,List2B,white,man,,,,null,,,,,,,,,
11113.8,,,survey-text,341,1410242,0.0-17.0-3.18,89559,List2B,white,man,,,,,"{""Q0"":""Kate is being greeted by Ruth""}","<img src=""stim_listB/greet8.gif""style=""height:400px;""></stim_listB>",is being greeted by,,,,,,
null,"<div style=""font-size:60px;"">+</div>",,html-keyboard-response,342,1410744,0.0-17.0-0.19,89559,List2B,white,man,,,,null,,,,,,,,,
null,"<img src=""stim_listB/challenge1.gif""style=""height:400px;""></stim_listB>",,html-keyboard-response,343,1412747,0.0-17.0-1.19,89559,List2B,white,man,,,,null,,,,,,,,,
null,is challenging,,html-keyboard-response,344,1414749,0.0-17.0-2.19,89559,List2B,white,man,,,,null,,,,,,,,,
12833.7,,,survey-text,345,1427586,0.0-17.0-3.19,89559,List2B,white,man,,,,,"{""Q0"":""Dave is challenging Ruth""}","<img src=""stim_listB/challenge1.gif""style=""height:400px;""></stim_listB>",is challenging,,,,,,
4961.8,"<img src='img/portrait_matrix_list2.jpg' style='width:900px;height:500px;''></img><p>If you have memorised all the portraits and names and are ready to start, press Continue.</p><p><strong>Please note: Your memory of these faces will be tested 4 times during this experiment.</strong></p>",0,html-button-response,346,1432549,0.0-18.0-0.0,89559,List2B,white,man,,,,,,,,,,,,,
1219.8,"<img src=""portrait/BW2.jpg""style=""height:400px;""></img>",2,html-button-response,347,1434772,0.0-18.0-1.0,89559,List2B,white,man,,TRUE,2,,,,,,,,,,
null,CORRECT,,html-keyboard-response,348,1436275,0.0-18.0-2.0-0.0,89559,List2B,white,man,,,,null,,,,,,,,,
1589.4,"<img src=""portrait/BM2.jpg""style=""height:400px;""></img>",5,html-button-response,349,1437867,0.0-18.0-4.0,89559,List2B,white,man,,TRUE,5,,,,,,,,,,
null,CORRECT,,html-keyboard-response,350,1439369,0.0-18.0-5.0-0.0,89559,List2B,white,man,,,,null,,,,,,,,,
1231.5,"<img src=""portrait/WM2.jpg""style=""height:400px;""></img>",7,html-button-response,351,1440603,0.0-18.0-7.0,89559,List2B,white,man,,TRUE,7,,,,,,,,,,
null,CORRECT,,html-keyboard-response,352,1442106,0.0-18.0-8.0-0.0,89559,List2B,white,man,,,,null,,,,,,,,,
1601,"<img src=""portrait/BW1.jpg""style=""height:400px;""></img>",0,html-button-response,353,1443708,0.0-18.0-10.0,89559,List2B,white,man,,TRUE,0,,,,,,,,,,
null,CORRECT,,html-keyboard-response,354,1445212,0.0-18.0-11.0-0.0,89559,List2B,white,man,,,,null,,,,,,,,,
1284.6,"<img src=""portrait/WW2.jpg""style=""height:400px;""></img>",3,html-button-response,355,1446498,0.0-18.0-13.0,89559,List2B,white,man,,TRUE,3,,,,,,,,,,
null,CORRECT,,html-keyboard-response,356,1448002,0.0-18.0-14.0-0.0,89559,List2B,white,man,,,,null,,,,,,,,,
2457.1,"<img src=""portrait/WM1.jpg""style=""height:400px;""></img>",6,html-button-response,357,1450460,0.0-18.0-16.0,89559,List2B,white,man,,TRUE,6,,,,,,,,,,
null,CORRECT,,html-keyboard-response,358,1451965,0.0-18.0-17.0-0.0,89559,List2B,white,man,,,,null,,,,,,,,,
884,"<img src=""portrait/BM1.jpg""style=""height:400px;""></img>",4,html-button-response,359,1452851,0.0-18.0-19.0,89559,List2B,white,man,,TRUE,4,,,,,,,,,,
null,CORRECT,,html-keyboard-response,360,1454353,0.0-18.0-20.0-0.0,89559,List2B,white,man,,,,null,,,,,,,,,
2635.6,"<img src=""portrait/WW1.jpg""style=""height:400px;""></img>",1,html-button-response,361,1456990,0.0-18.0-22.0,89559,List2B,white,man,,TRUE,1,,,,,,,,,,
null,CORRECT,,html-keyboard-response,362,1458493,0.0-18.0-23.0-0.0,89559,List2B,white,man,,,,null,,,,,,,,,
1108.9,<p>You got 8 out of 8 right first time. Press Continue.</p>,0,html-button-response,363,1459604,0.0-18.0-25.0,89559,List2B,white,man,,,,,,,,,,,,,
null,"<div style=""font-size:60px;"">+</div>",,html-keyboard-response,364,1461108,0.0-19.0-0.0,89559,List2B,white,man,,,,null,,,,,,,,,
null,"<img src=""stim_listB/copy5.gif""style=""height:400px;""></stim_listB>",,html-keyboard-response,365,1463110,0.0-19.0-1.0,89559,List2B,white,man,,,,null,,,,,,,,,
null,is copying,,html-keyboard-response,366,1465113,0.0-19.0-2.0,89559,List2B,white,man,,,,null,,,,,,,,,
13939.5,,,survey-text,367,1479058,0.0-19.0-3.0,89559,List2B,white,man,,,,,"{""Q0"":""Fred is copying Dave""}","<img src=""stim_listB/copy5.gif""style=""height:400px;""></stim_listB>",is copying,,,,,,
null,"<div style=""font-size:60px;"">+</div>",,html-keyboard-response,368,1479560,0.0-19.0-0.1,89559,List2B,white,man,,,,null,,,,,,,,,
null,"<img src=""stim_listB/look8.gif""style=""height:400px;""></stim_listB>",,html-keyboard-response,369,1481562,0.0-19.0-1.1,89559,List2B,white,man,,,,null,,,,,,,,,
null,is being looked at by,,html-keyboard-response,370,1483564,0.0-19.0-2.1,89559,List2B,white,man,,,,null,,,,,,,,,
8394.2,,,survey-text,371,1491962,0.0-19.0-3.1,89559,List2B,white,man,,,,,"{""Q0"":""Jane is being looked at by Kate""}","<img src=""stim_listB/look8.gif""style=""height:400px;""></stim_listB>",is being looked at by,,,,,,
null,"<div style=""font-size:60px;"">+</div>",,html-keyboard-response,372,1492463,0.0-19.0-0.2,89559,List2B,white,man,,,,null,,,,,,,,,
null,"<img src=""stim_listB/greet6.gif""style=""height:400px;""></stim_listB>",,html-keyboard-response,373,1494467,0.0-19.0-1.2,89559,List2B,white,man,,,,null,,,,,,,,,
null,is being greeted by,,html-keyboard-response,374,1496468,0.0-19.0-2.2,89559,List2B,white,man,,,,null,,,,,,,,,
11145.7,,,survey-text,375,1507618,0.0-19.0-3.2,89559,List2B,white,man,,,,,"{""Q0"":""Luke is being greeted by Mike""}","<img src=""stim_listB/greet6.gif""style=""height:400px;""></stim_listB>",is being greeted by,,,,,,
null,"<div style=""font-size:60px;"">+</div>",,html-keyboard-response,376,1508119,0.0-19.0-0.3,89559,List2B,white,man,,,,null,,,,,,,,,
null,"<img src=""stim_listB/greet4.gif""style=""height:400px;""></stim_listB>",,html-keyboard-response,377,1510122,0.0-19.0-1.3,89559,List2B,white,man,,,,null,,,,,,,,,
null,is being greeted by,,html-keyboard-response,378,1512124,0.0-19.0-2.3,89559,List2B,white,man,,,,null,,,,,,,,,
13058.5,,,survey-text,379,1525187,0.0-19.0-3.3,89559,List2B,white,man,,,,,"{""Q0"":""Kate is being greeted by Luke""}","<img src=""stim_listB/greet4.gif""style=""height:400px;""></stim_listB>",is being greeted by,,,,,,
null,"<div style=""font-size:60px;"">+</div>",,html-keyboard-response,380,1525688,0.0-19.0-0.4,89559,List2B,white,man,,,,null,,,,,,,,,
null,"<img src=""stim_listB/oppose4.gif""style=""height:400px;""></stim_listB>",,html-keyboard-response,381,1527690,0.0-19.0-1.4,89559,List2B,white,man,,,,null,,,,,,,,,
null,is being opposed by,,html-keyboard-response,382,1529693,0.0-19.0-2.4,89559,List2B,white,man,,,,null,,,,,,,,,
17606.8,,,survey-text,383,1547306,0.0-19.0-3.4,89559,List2B,white,man,,,,,"{""Q0"":""Fred is being opposed by Kate""}","<img src=""stim_listB/oppose4.gif""style=""height:400px;""></stim_listB>",is being opposed by,,,,,,
null,"<div style=""font-size:60px;"">+</div>",,html-keyboard-response,384,1547818,0.0-19.0-0.5,89559,List2B,white,man,,,,null,,,,,,,,,
null,"<img src=""stim_listB/seduce5.gif""style=""height:400px;""></stim_listB>",,html-keyboard-response,385,1549821,0.0-19.0-1.5,89559,List2B,white,man,,,,null,,,,,,,,,
null,is seducing,,html-keyboard-response,386,1551823,0.0-19.0-2.5,89559,List2B,white,man,,,,null,,,,,,,,,
8229.8,,,survey-text,387,1560059,0.0-19.0-3.5,89559,List2B,white,man,,,,,"{""Q0"":""Mike is seducing Luke""}","<img src=""stim_listB/seduce5.gif""style=""height:400px;""></stim_listB>",is seducing,,,,,,
null,"<div style=""font-size:60px;"">+</div>",,html-keyboard-response,388,1560560,0.0-19.0-0.6,89559,List2B,white,man,,,,null,,,,,,,,,
null,"<img src=""stim_listB/look2.gif""style=""height:400px;""></stim_listB>",,html-keyboard-response,389,1562563,0.0-19.0-1.6,89559,List2B,white,man,,,,null,,,,,,,,,
null,is being looked at by,,html-keyboard-response,390,1564565,0.0-19.0-2.6,89559,List2B,white,man,,,,null,,,,,,,,,
8848.9,,,survey-text,391,1573418,0.0-19.0-3.6,89559,List2B,white,man,,,,,"{""Q0"":""Jane is looking at Dave""}","<img src=""stim_listB/look2.gif""style=""height:400px;""></stim_listB>",is being looked at by,,,,,,
null,"<div style=""font-size:60px;"">+</div>",,html-keyboard-response,392,1573920,0.0-19.0-0.7,89559,List2B,white,man,,,,null,,,,,,,,,
null,"<img src=""stim_listB/look4.gif""style=""height:400px;""></stim_listB>",,html-keyboard-response,393,1575922,0.0-19.0-1.7,89559,List2B,white,man,,,,null,,,,,,,,,
null,is being looked at by,,html-keyboard-response,394,1577923,0.0-19.0-2.7,89559,List2B,white,man,,,,null,,,,,,,,,
10618.1,,,survey-text,395,1588546,0.0-19.0-3.7,89559,List2B,white,man,,,,,"{""Q0"":""Kate is being looked at by Mike""}","<img src=""stim_listB/look4.gif""style=""height:400px;""></stim_listB>",is being looked at by,,,,,,
null,"<div style=""font-size:60px;"">+</div>",,html-keyboard-response,396,1589049,0.0-19.0-0.8,89559,List2B,white,man,,,,null,,,,,,,,,
null,"<img src=""stim_listB/kiss8.gif""style=""height:400px;""></stim_listB>",,html-keyboard-response,397,1591052,0.0-19.0-1.8,89559,List2B,white,man,,,,null,,,,,,,,,
null,is being kissed by,,html-keyboard-response,398,1593053,0.0-19.0-2.8,89559,List2B,white,man,,,,null,,,,,,,,,
7712,,,survey-text,399,1600770,0.0-19.0-3.8,89559,List2B,white,man,,,,,"{""Q0"":""Jane is being kissed by Kate""}","<img src=""stim_listB/kiss8.gif""style=""height:400px;""></stim_listB>",is being kissed by,,,,,,
null,"<div style=""font-size:60px;"">+</div>",,html-keyboard-response,400,1601272,0.0-19.0-0.9,89559,List2B,white,man,,,,null,,,,,,,,,
null,"<img src=""stim_listB/greet2.gif""style=""height:400px;""></stim_listB>",,html-keyboard-response,401,1603275,0.0-19.0-1.9,89559,List2B,white,man,,,,null,,,,,,,,,
null,is being greeted by,,html-keyboard-response,402,1605276,0.0-19.0-2.9,89559,List2B,white,man,,,,null,,,,,,,,,
37919.3,,,survey-text,403,1643202,0.0-19.0-3.9,89559,List2B,white,man,,,,,"{""Q0"":""I got distracted by my dog""}","<img src=""stim_listB/greet2.gif""style=""height:400px;""></stim_listB>",is being greeted by,,,,,,
null,"<div style=""font-size:60px;"">+</div>",,html-keyboard-response,404,1643704,0.0-19.0-0.10,89559,List2B,white,man,,,,null,,,,,,,,,
null,"<img src=""stim_listB/touch7.gif""style=""height:400px;""></stim_listB>",,html-keyboard-response,405,1645708,0.0-19.0-1.10,89559,List2B,white,man,,,,null,,,,,,,,,
null,is touching,,html-keyboard-response,406,1647712,0.0-19.0-2.10,89559,List2B,white,man,,,,null,,,,,,,,,
7019.4,,,survey-text,407,1654738,0.0-19.0-3.10,89559,List2B,white,man,,,,,"{""Q0"":""Kate is touching Jane""}","<img src=""stim_listB/touch7.gif""style=""height:400px;""></stim_listB>",is touching,,,,,,
null,"<div style=""font-size:60px;"">+</div>",,html-keyboard-response,408,1655253,0.0-19.0-0.11,89559,List2B,white,man,,,,null,,,,,,,,,
null,"<img src=""stim_listB/oppose6.gif""style=""height:400px;""></stim_listB>",,html-keyboard-response,409,1657257,0.0-19.0-1.11,89559,List2B,white,man,,,,null,,,,,,,,,
null,is being opposed by,,html-keyboard-response,410,1659259,0.0-19.0-2.11,89559,List2B,white,man,,,,null,,,,,,,,,
11298.4,,,survey-text,411,1670562,0.0-19.0-3.11,89559,List2B,white,man,,,,,"{""Q0"":""Luke is being opposed by Fred""}","<img src=""stim_listB/oppose6.gif""style=""height:400px;""></stim_listB>",is being opposed by,,,,,,
null,"<div style=""font-size:60px;"">+</div>",,html-keyboard-response,412,1671064,0.0-19.0-0.12,89559,List2B,white,man,,,,null,,,,,,,,,
null,"<img src=""stim_listB/touch2.gif""style=""height:400px;""></stim_listB>",,html-keyboard-response,413,1673067,0.0-19.0-1.12,89559,List2B,white,man,,,,null,,,,,,,,,
null,is being touched by,,html-keyboard-response,414,1675068,0.0-19.0-2.12,89559,List2B,white,man,,,,null,,,,,,,,,
12329,,,survey-text,415,1687403,0.0-19.0-3.12,89559,List2B,white,man,,,,,"{""Q0"":""Luke is being touched by Ruth""}","<img src=""stim_listB/touch2.gif""style=""height:400px;""></stim_listB>",is being touched by,,,,,,
null,"<div style=""font-size:60px;"">+</div>",,html-keyboard-response,416,1687904,0.0-19.0-0.13,89559,List2B,white,man,,,,null,,,,,,,,,
null,"<img src=""stim_listB/challenge2.gif""style=""height:400px;""></stim_listB>",,html-keyboard-response,417,1689907,0.0-19.0-1.13,89559,List2B,white,man,,,,null,,,,,,,,,
null,is being challenged by,,html-keyboard-response,418,1691909,0.0-19.0-2.13,89559,List2B,white,man,,,,null,,,,,,,,,
13312.2,,,survey-text,419,1705227,0.0-19.0-3.13,89559,List2B,white,man,,,,,"{""Q0"":""Luke is being challenged by Jane""}","<img src=""stim_listB/challenge2.gif""style=""height:400px;""></stim_listB>",is being challenged by,,,,,,
null,"<div style=""font-size:60px;"">+</div>",,html-keyboard-response,420,1705732,0.0-19.0-0.14,89559,List2B,white,man,,,,null,,,,,,,,,
null,"<img src=""stim_listB/seduce6.gif""style=""height:400px;""></stim_listB>",,html-keyboard-response,421,1707735,0.0-19.0-1.14,89559,List2B,white,man,,,,null,,,,,,,,,
null,is being seduced by,,html-keyboard-response,422,1709737,0.0-19.0-2.14,89559,List2B,white,man,,,,null,,,,,,,,,
10167.6,,,survey-text,423,1719907,0.0-19.0-3.14,89559,List2B,white,man,,,,,"{""Q0"":""Dave is being seduced by Fred""}","<img src=""stim_listB/seduce6.gif""style=""height:400px;""></stim_listB>",is being seduced by,,,,,,
null,"<div style=""font-size:60px;"">+</div>",,html-keyboard-response,424,1720409,0.0-19.0-0.15,89559,List2B,white,man,,,,null,,,,,,,,,
null,"<img src=""stim_listB/hug6.gif""style=""height:400px;""></stim_listB>",,html-keyboard-response,425,1722413,0.0-19.0-1.15,89559,List2B,white,man,,,,null,,,,,,,,,
null,is being hugged by,,html-keyboard-response,426,1724414,0.0-19.0-2.15,89559,List2B,white,man,,,,null,,,,,,,,,
11255,,,survey-text,427,1735674,0.0-19.0-3.15,89559,List2B,white,man,,,,,"{""Q0"":""Mike is being hugged by Dave""}","<img src=""stim_listB/hug6.gif""style=""height:400px;""></stim_listB>",is being hugged by,,,,,,
null,"<div style=""font-size:60px;"">+</div>",,html-keyboard-response,428,1736175,0.0-19.0-0.16,89559,List2B,white,man,,,,null,,,,,,,,,
null,"<img src=""stim_listB/shout4.gif""style=""height:400px;""></stim_listB>",,html-keyboard-response,429,1738177,0.0-19.0-1.16,89559,List2B,white,man,,,,null,,,,,,,,,
null,is being shouted at by,,html-keyboard-response,430,1740181,0.0-19.0-2.16,89559,List2B,white,man,,,,null,,,,,,,,,
12520,,,survey-text,431,1752707,0.0-19.0-3.16,89559,List2B,white,man,,,,,"{""Q0"":""Mike is being shouted at by Kate""}","<img src=""stim_listB/shout4.gif""style=""height:400px;""></stim_listB>",is being shouted at by,,,,,,
null,"<div style=""font-size:60px;"">+</div>",,html-keyboard-response,432,1753208,0.0-19.0-0.17,89559,List2B,white,man,,,,null,,,,,,,,,
null,"<img src=""stim_listB/shout3.gif""style=""height:400px;""></stim_listB>",,html-keyboard-response,433,1755212,0.0-19.0-1.17,89559,List2B,white,man,,,,null,,,,,,,,,
null,is shouting at,,html-keyboard-response,434,1757213,0.0-19.0-2.17,89559,List2B,white,man,,,,null,,,,,,,,,
10326.7,,,survey-text,435,1767546,0.0-19.0-3.17,89559,List2B,white,man,,,,,"{""Q0"":""Fred is shouting at Beth""}","<img src=""stim_listB/shout3.gif""style=""height:400px;""></stim_listB>",is shouting at,,,,,,
null,"<div style=""font-size:60px;"">+</div>",,html-keyboard-response,436,1768048,0.0-19.0-0.18,89559,List2B,white,man,,,,null,,,,,,,,,
null,"<img src=""stim_listB/look7.gif""style=""height:400px;""></stim_listB>",,html-keyboard-response,437,1770051,0.0-19.0-1.18,89559,List2B,white,man,,,,null,,,,,,,,,
null,is looking at,,html-keyboard-response,438,1772052,0.0-19.0-2.18,89559,List2B,white,man,,,,null,,,,,,,,,
8835.1,,,survey-text,439,1780898,0.0-19.0-3.18,89559,List2B,white,man,,,,,"{""Q0"":""Ruth is looking at Beth""}","<img src=""stim_listB/look7.gif""style=""height:400px;""></stim_listB>",is looking at,,,,,,
null,"<div style=""font-size:60px;"">+</div>",,html-keyboard-response,440,1781399,0.0-19.0-0.19,89559,List2B,white,man,,,,null,,,,,,,,,
null,"<img src=""stim_listB/shout5.gif""style=""height:400px;""></stim_listB>",,html-keyboard-response,441,1783402,0.0-19.0-1.19,89559,List2B,white,man,,,,null,,,,,,,,,
null,is shouting at,,html-keyboard-response,442,1785403,0.0-19.0-2.19,89559,List2B,white,man,,,,null,,,,,,,,,
9460,,,survey-text,443,1794867,0.0-19.0-3.19,89559,List2B,white,man,,,,,"{""Q0"":""Fred is shouting at Luke""}","<img src=""stim_listB/shout5.gif""style=""height:400px;""></stim_listB>",is shouting at,,,,,,
5032.9,<p>Thank you for completing that task.</p><p>The final part of this session is a questionnaire that will take about 4 minutes.</p><p>Press Continue.</p>,0,html-button-response,444,1799902,0.0-20.0,89559,List2B,white,man,,,,,,,,,,,,,
38087.3,,,survey-text,445,1838999,0.0-21.0,89559,List2B,white,man,,,,,"{""Q0"":""20"",""Q1"":""English"",""Q2"":""English"",""Q3"":""United States"",""Q4"":""American"",""Q5"":""White"",""Q6"":""Male""}",,,demographics,,,,,
3048.4,<p>Have you lived in the USA for the last 5 years or more?</p>,0,html-button-response,446,1842050,0.0-22.0,89559,List2B,white,man,,,,,,,,fiveyears,,,,,
3538,<p>Move the slider to show the extent to which you agree with the following statements.</p>,0,html-button-response,447,1846592,0.0-23.0,89559,List2B,white,man,,,,,,,,,,,,,
8837.4,,,html-slider-response,448,1856432,0.0-24.0-0.0-0.0,89559,List2B,white,man,,,,,,,,survey_race,51,,,I am glad to be my race.,glad
9382,,,html-slider-response,449,1865815,0.0-24.0-0.0-0.1,89559,List2B,white,man,,,,,,,,survey_race,49,,,I have a lot in common with the average person of my race.,average
5481.4,,,html-slider-response,450,1871298,0.0-24.0-0.0-0.2,89559,List2B,white,man,,,,,,,,survey_race,70,,,I have a lot in common with people of a similar age to me.,filler
9369.2,,,html-slider-response,451,1880669,0.0-24.0-0.0-0.3,89559,List2B,white,man,,,,,,,,survey_race,50,,,I often think about the fact that I am my race.,often
4937,,,html-slider-response,452,1885608,0.0-24.0-0.0-0.4,89559,List2B,white,man,,,,,,,,survey_race,50,,,Being my race gives me a good feeling.,feeling
4737.9,,,html-slider-response,453,1890347,0.0-24.0-0.0-0.5,89559,List2B,white,man,,,,,,,,survey_race,80,,,Being my age gives me a good feeling.,filler
8981.2,,,html-slider-response,454,1899329,0.0-24.0-0.0-0.6,89559,List2B,white,man,,,,,,,,survey_race,8,,,I feel solidarity with my race.,solidarity
7927.4,,,html-slider-response,455,1907258,0.0-24.0-0.0-0.7,89559,List2B,white,man,,,,,,,,survey_race,92,,,Getting older does not worry me.,filler
3500.8,,,html-slider-response,456,1910761,0.0-24.0-0.0-0.8,89559,List2B,white,man,,,,,,,,survey_race,56,,,I feel a bond with people the same age as me.,filler
3294,,,html-slider-response,457,1914057,0.0-24.0-0.0-0.9,89559,List2B,white,man,,,,,,,,survey_race,79,,,I consider myself an introvert.,filler
4918.7,,,html-slider-response,458,1918977,0.0-24.0-0.0-0.10,89559,List2B,white,man,,,,,,,,survey_race,9,,,The fact that I am my race is an important part of my identity.,identity
7156.6,,,html-slider-response,459,1926136,0.0-24.0-0.0-0.11,89559,List2B,white,man,,,,,,,,survey_race,62,,,People of my race are very similar to each other.,verysimilar
6171.8,,,html-slider-response,460,1932309,0.0-24.0-0.0-0.12,89559,List2B,white,man,,,,,,,,survey_race,11,,,I think that my race has a lot to be proud of.,proud
6883.9,,,html-slider-response,461,1939194,0.0-24.0-0.0-0.13,89559,List2B,white,man,,,,,,,,survey_race,56,,,People of my race have a lot in common with each other.,common
22441.2,,,html-slider-response,462,1961637,0.0-24.0-0.0-0.14,89559,List2B,white,man,,,,,,,,survey_race,50,,,I am similar to the average person of my race.,similar
7596.3,,,html-slider-response,463,1969234,0.0-24.0-0.0-0.15,89559,List2B,white,man,,,,,,,,survey_race,50,,,It is pleasant to be my race.,pleasant
3893.9,,,html-slider-response,464,1973130,0.0-24.0-0.0-0.16,89559,List2B,white,man,,,,,,,,survey_race,66,,,I feel solidarity with people the same age as me.,filler
2854.1,,,html-slider-response,465,1975986,0.0-24.0-0.0-0.17,89559,List2B,white,man,,,,,,,,survey_race,81,,,I am glad to be my age.,filler
2908.1,,,html-slider-response,466,1978895,0.0-24.0-0.0-0.18,89559,List2B,white,man,,,,,,,,survey_race,16,,,Being my race is an important part of how I see myself.,important
3599.8,,,html-slider-response,467,1982496,0.0-24.0-0.0-0.19,89559,List2B,white,man,,,,,,,,survey_race,52,,,My age is not an important part of who I am.,filler
3071.3,,,html-slider-response,468,1985569,0.0-24.0-0.0-0.20,89559,List2B,white,man,,,,,,,,survey_race,24,,,I feel a bond with my race.,bond
5068.3,,,html-slider-response,469,1990639,0.0-24.0-0.0-0.21,89559,List2B,white,man,,,,,,,,survey_race,22,,,I often think about the fact that I am my age.,filler
2958.4,,,html-slider-response,470,1993599,0.0-24.0-0.0-0.22,89559,List2B,white,man,,,,,,,,survey_race,56,,,People my age have a lot in common with each other.,filler
3003.3,,,html-slider-response,471,1996603,0.0-24.0-0.0-0.23,89559,List2B,white,man,,,,,,,,survey_race,1,,,I consider myself an extrovert.,filler
4679,,,html-slider-response,472,2001284,0.0-24.0-0.0-0.24,89559,List2B,white,man,,,,,,,,survey_race,57,,,I am glad to be the age I am.,filler
3072.7,,,html-slider-response,473,2004358,0.0-24.0-0.0-0.25,89559,List2B,white,man,,,,,,,,survey_race,4,,,I enjoy being in large groups.,filler
3648.2,,,html-slider-response,474,2008008,0.0-24.0-0.0-0.26,89559,List2B,white,man,,,,,,,,survey_race,63,,,"The older I get, the wiser I feel.",filler
2972.4,,,html-slider-response,475,2010982,0.0-24.0-0.0-0.27,89559,List2B,white,man,,,,,,,,survey_race,1,,,I feel committed to my race.,committed
7158.6,,,html-slider-response,476,2018142,0.0-24.0-1.0-0.0,89559,List2B,white,man,,,,,,,,survey_gender,28,,,I have a lot in common with the average person of my gender.,average
3754.2,,,html-slider-response,477,2021898,0.0-24.0-1.0-0.1,89559,List2B,white,man,,,,,,,,survey_gender,26,,,I am similar to the average person of my gender.,similar
2599.9,,,html-slider-response,478,2024499,0.0-24.0-1.0-0.2,89559,List2B,white,man,,,,,,,,survey_gender,23,,,I feel solidarity with my gender.,solidarity
4074.9,,,html-slider-response,479,2028575,0.0-24.0-1.0-0.3,89559,List2B,white,man,,,,,,,,survey_gender,100,,,I am glad to have the friends that I have.,filler
6385.5,,,html-slider-response,480,2034962,0.0-24.0-1.0-0.4,89559,List2B,white,man,,,,,,,,survey_gender,83,,,Most of the friends in my life are very similar to me.,filler
2637.8,,,html-slider-response,481,2037602,0.0-24.0-1.0-0.5,89559,List2B,white,man,,,,,,,,survey_gender,97,,,My friends understand me.,filler
3605.4,,,html-slider-response,482,2041209,0.0-24.0-1.0-0.6,89559,List2B,white,man,,,,,,,,survey_gender,81,,,I would say I am an animal person.,filler
3601.8,,,html-slider-response,483,2044812,0.0-24.0-1.0-0.7,89559,List2B,white,man,,,,,,,,survey_gender,97,,,I consider myself a highly empathetic person.,filler
3061.2,,,html-slider-response,484,2047875,0.0-24.0-1.0-0.8,89559,List2B,white,man,,,,,,,,survey_gender,74,,,I often think about my actions.,filler
6295.6,,,html-slider-response,485,2054172,0.0-24.0-1.0-0.9,89559,List2B,white,man,,,,,,,,survey_gender,50,,,I am glad to be my gender.,glad
3319.8,,,html-slider-response,486,2057493,0.0-24.0-1.0-0.10,89559,List2B,white,man,,,,,,,,survey_gender,10,,,The fact that I am my gender is an important part of my identity.,identity
4105,,,html-slider-response,487,2061600,0.0-24.0-1.0-0.11,89559,List2B,white,man,,,,,,,,survey_gender,79,,,I feel solidarity with my friends.,filler
4348.5,,,html-slider-response,488,2065951,0.0-24.0-1.0-0.12,89559,List2B,white,man,,,,,,,,survey_gender,53,,,People of my gender have a lot in common with each other.,common
6162.7,,,html-slider-response,489,2072115,0.0-24.0-1.0-0.13,89559,List2B,white,man,,,,,,,,survey_gender,67,,,Routine is not important to me.,filler
4052.9,,,html-slider-response,490,2076169,0.0-24.0-1.0-0.14,89559,List2B,white,man,,,,,,,,survey_gender,56,,,People of my gender are very similar to each other.,verysimilar
5245,,,html-slider-response,491,2081416,0.0-24.0-1.0-0.15,89559,List2B,white,man,,,,,,,,survey_gender,18,,,I think that my gender has a lot to be proud of.,proud
5158.4,,,html-slider-response,492,2086576,0.0-24.0-1.0-0.16,89559,List2B,white,man,,,,,,,,survey_gender,1,,,I often think about the fact that I am my gender.,often
5579.3,,,html-slider-response,493,2092157,0.0-24.0-1.0-0.17,89559,List2B,white,man,,,,,,,,survey_gender,51,,,It is pleasant to be my gender.,pleasant
5136.6,,,html-slider-response,494,2097295,0.0-24.0-1.0-0.18,89559,List2B,white,man,,,,,,,,survey_gender,91,,,I have a lot in common with my friends.,filler
3533.5,,,html-slider-response,495,2100830,0.0-24.0-1.0-0.19,89559,List2B,white,man,,,,,,,,survey_gender,13,,,I feel a bond with my gender.,bond
3761.8,,,html-slider-response,496,2104594,0.0-24.0-1.0-0.20,89559,List2B,white,man,,,,,,,,survey_gender,12,,,Being my gender gives me a good feeling.,feeling
6739.5,,,html-slider-response,497,2111335,0.0-24.0-1.0-0.21,89559,List2B,white,man,,,,,,,,survey_gender,88,,,My friends have a lot in common with each other.,filler
5789,,,html-slider-response,498,2117126,0.0-24.0-1.0-0.22,89559,List2B,white,man,,,,,,,,survey_gender,5,,,Being my gender is an important part of how I see myself.,important
5815.9,,,html-slider-response,499,2122944,0.0-24.0-1.0-0.23,89559,List2B,white,man,,,,,,,,survey_gender,4,,,Family is not more important to me than friendship.,filler
3375.9,,,html-slider-response,500,2126321,0.0-24.0-1.0-0.24,89559,List2B,white,man,,,,,,,,survey_gender,98,,,Being around my friends gives me a good feeling.,filler
6253.3,,,html-slider-response,501,2132576,0.0-24.0-1.0-0.25,89559,List2B,white,man,,,,,,,,survey_gender,50,,,I feel committed to my gender.,committed
7468.6,,,html-slider-response,502,2140047,0.0-24.0-1.0-0.26,89559,List2B,white,man,,,,,,,,survey_gender,84,,,It is not always easy for people to know what I am thinking.,filler
2230.9,,,html-slider-response,503,2142279,0.0-24.0-1.0-0.27,89559,List2B,white,man,,,,,,,,survey_gender,99,,,I feel a bond with my friends.,filler
5743.2,,,survey-text,504,2148026,0.0-25.0,89559,List2B,white,man,,,,,"{""Q0"":""ccc""}",,,worker_id,,,,,
16787.6,,,external-html,505,2165280,0.0-26.0,89559,List2B,white,man,debrief.html,,,,,,,,,,,,
