rt,stimulus,button_pressed,trial_type,trial_index,time_elapsed,internal_node_id,subject,list,ppt_race,ppt_gender,url,first_guess,correct,key_press,responses,image_type,phrase_type,test_part,response,stimulus1,stimulus2,question_type,survey_item
4472,Welcome to the experiment. Press Continue to begin.,0,html-button-response,0,4476,0.0-0.0,89965,List1A,white,man,,,,,,,,,,,,,
9223.5,,,external-html,1,17355,0.0-1.0,89965,List1A,white,man,consent.html,,,,,,,,,,,,
17995.8,"<p>On the next page, you will see portraits of 8 people and their names.</p><p>Your first task is to take a few minutes to memorise the names of these people.</p><p>You will have to recall their names during the rest of the experiment, so it is</p><p>essential that you try to memorise these people and their names as best as you can.</p><br><p><strong>You will then be tested on your memory of these names and portraits.</strong></p><br><p>The experiment will start after you have completed this memory test.</p><br><p>Ready?</p>",0,html-button-response,2,35353,0.0-2.0,89965,List1A,white,man,,,,,,,,,,,,,
22115,"<img src='img/portrait_matrix_list1.jpg' style='width:900px;height:500px;''></img><p>If you have memorised all the portraits and names and are ready to start, press Continue.</p><p><strong>Please note: Your memory of these faces will be tested 4 times during this experiment.</strong></p>",0,html-button-response,3,58472,0.0-3.0-0.0,89965,List1A,white,man,,,,,,,,,,,,,
14948.4,"<img src=""portrait/WM1.jpg""style=""height:400px;""></img>",6,html-button-response,4,74425,0.0-3.0-1.0,89965,List1A,white,man,,TRUE,6,,,,,,,,,,
null,CORRECT,,html-keyboard-response,5,75938,0.0-3.0-2.0-0.0,89965,List1A,white,man,,,,null,,,,,,,,,
7298.5,"<img src=""portrait/BM1.jpg""style=""height:400px;""></img>",4,html-button-response,6,83241,0.0-3.0-4.0,89965,List1A,white,man,,TRUE,4,,,,,,,,,,
null,CORRECT,,html-keyboard-response,7,84762,0.0-3.0-5.0-0.0,89965,List1A,white,man,,,,null,,,,,,,,,
7468.8,"<img src=""portrait/WM2.jpg""style=""height:400px;""></img>",7,html-button-response,8,92232,0.0-3.0-7.0,89965,List1A,white,man,,TRUE,7,,,,,,,,,,
null,CORRECT,,html-keyboard-response,9,93745,0.0-3.0-8.0-0.0,89965,List1A,white,man,,,,null,,,,,,,,,
6308.3,"<img src=""portrait/BW2.jpg""style=""height:400px;""></img>",2,html-button-response,10,100056,0.0-3.0-10.0,89965,List1A,white,man,,TRUE,2,,,,,,,,,,
null,CORRECT,,html-keyboard-response,11,101576,0.0-3.0-11.0-0.0,89965,List1A,white,man,,,,null,,,,,,,,,
4828.6,"<img src=""portrait/WW2.jpg""style=""height:400px;""></img>",3,html-button-response,12,106408,0.0-3.0-13.0,89965,List1A,white,man,,TRUE,3,,,,,,,,,,
null,CORRECT,,html-keyboard-response,13,107930,0.0-3.0-14.0-0.0,89965,List1A,white,man,,,,null,,,,,,,,,
5874.8,"<img src=""portrait/WW1.jpg""style=""height:400px;""></img>",1,html-button-response,14,113807,0.0-3.0-16.0,89965,List1A,white,man,,TRUE,1,,,,,,,,,,
null,CORRECT,,html-keyboard-response,15,115319,0.0-3.0-17.0-0.0,89965,List1A,white,man,,,,null,,,,,,,,,
12197.1,"<img src=""portrait/BW1.jpg""style=""height:400px;""></img>",0,html-button-response,16,127519,0.0-3.0-19.0,89965,List1A,white,man,,TRUE,0,,,,,,,,,,
null,CORRECT,,html-keyboard-response,17,129027,0.0-3.0-20.0-0.0,89965,List1A,white,man,,,,null,,,,,,,,,
9690,"<img src=""portrait/BM2.jpg""style=""height:400px;""></img>",5,html-button-response,18,138719,0.0-3.0-22.0,89965,List1A,white,man,,TRUE,5,,,,,,,,,,
null,CORRECT,,html-keyboard-response,19,140247,0.0-3.0-23.0-0.0,89965,List1A,white,man,,,,null,,,,,,,,,
3715.2,<p>You got 8 out of 8 right first time. Press Continue.</p>,0,html-button-response,20,143967,0.0-3.0-25.0,89965,List1A,white,man,,,,,,,,,,,,,
36209,"<p>In this experiment, you will view photographs of the people from the memory game interacting.</p><p>By using the <strong>exact</strong> phrase given <i>after</i> the photograph appears and recalling the correct names of the people in the photographs, form a sentence describing the interaction. You do not need to capitalise names.</p><p>Type your answer in the space provided. Please complete every sentence before moving onto the next trial.</p><p>You will only have a few seconds to memorise each given photograph and phrase before you can respond, so try your best to focus.</p><p>An example is given below. Press 'Continue' when you are ready.</p><img src='img/speaking_example.jpg' style='width:800px;height:460px;''></img>",0,html-button-response,21,181190,0.0-4.0,89965,List1A,white,man,,,,,,,,,,,,,
7188.4,"<p>Before the experiment starts, you will watch two example trials. Press 'Continue'.</p>",0,html-button-response,22,189381,0.0-5.0,89965,List1A,white,man,,,,,,,,,,,,,
null,<img src='img/play_eg.gif' style='height:400px;''></img>,,html-keyboard-response,23,192396,0.0-6.0,89965,List1A,white,man,,,,null,,,,,,,,,
null,<p>is playing with</p>,,html-keyboard-response,24,194403,0.0-7.0,89965,List1A,white,man,,,,null,,,,,,,,,
3343.5,<p><b>Answer:</b> kate is playing with beth</p>,0,html-button-response,25,197749,0.0-8.0,89965,List1A,white,man,,,,,,,,,,,,,
null,<img src='img/dance_eg.gif' style='height:400px;''></img>,,html-keyboard-response,26,200771,0.0-9.0,89965,List1A,white,man,,,,null,,,,,,,,,
null,<p>is being entertained by</p>,,html-keyboard-response,27,202778,0.0-10.0,89965,List1A,white,man,,,,null,,,,,,,,,
8896.4,<p><b>Answer:</b> luke is being entertained by dave</p>,0,html-button-response,28,211676,0.0-11.0,89965,List1A,white,man,,,,,,,,,,,,,
17447.8,"<p>Ready to start the experiment?</p><br><p><strong>Remember to describe the picture using a full sentence,</strong></p><p><strong>that combines the names of the people with the <i>exact</i> phrase given.</strong></p><p><strong>To receive full payment you must do this correctly.</strong></p><p><strong> You do not need to capitalise names or use punctuation.</strong></p><br><p>Press 'Continue' to begin.</p>",0,html-button-response,29,230132,0.0-12.0,89965,List1A,white,man,,,,,,,,,,,,,
null,"<div style=""font-size:60px;"">+</div>",,html-keyboard-response,30,231654,0.0-13.0-0.0,89965,List1A,white,man,,,,null,,,,,,,,,
null,"<img src=""stim_listA/hug8.gif""style=""height:400px;""></stim_listA>",,html-keyboard-response,31,233668,0.0-13.0-1.0,89965,List1A,white,man,,,,null,,,,,,,,,
null,is being hugged by,,html-keyboard-response,32,235673,0.0-13.0-2.0,89965,List1A,white,man,,,,null,,,,,,,,,
31580.6,,,survey-text,33,267274,0.0-13.0-3.0,89965,List1A,white,man,,,,,"{""Q0"":""Kate is playing with jane""}","<img src=""stim_listA/hug8.gif""style=""height:400px;""></stim_listA>",is being hugged by,,,,,,
null,"<div style=""font-size:60px;"">+</div>",,html-keyboard-response,34,267779,0.0-13.0-0.1,89965,List1A,white,man,,,,null,,,,,,,,,
null,"<img src=""stim_listA/shout5.gif""style=""height:400px;""></stim_listA>",,html-keyboard-response,35,269796,0.0-13.0-1.1,89965,List1A,white,man,,,,null,,,,,,,,,
null,is shouting at,,html-keyboard-response,36,271813,0.0-13.0-2.1,89965,List1A,white,man,,,,null,,,,,,,,,
26392,,,survey-text,37,298209,0.0-13.0-3.1,89965,List1A,white,man,,,,,"{""Q0"":""fred is shouting at luke""}","<img src=""stim_listA/shout5.gif""style=""height:400px;""></stim_listA>",is shouting at,,,,,,
null,"<div style=""font-size:60px;"">+</div>",,html-keyboard-response,38,298726,0.0-13.0-0.2,89965,List1A,white,man,,,,null,,,,,,,,,
null,"<img src=""stim_listA/challenge6.gif""style=""height:400px;""></stim_listA>",,html-keyboard-response,39,300736,0.0-13.0-1.2,89965,List1A,white,man,,,,null,,,,,,,,,
null,is being challenged by,,html-keyboard-response,40,302753,0.0-13.0-2.2,89965,List1A,white,man,,,,null,,,,,,,,,
28315.1,,,survey-text,41,331073,0.0-13.0-3.2,89965,List1A,white,man,,,,,"{""Q0"":""Fred is challenging Dave""}","<img src=""stim_listA/challenge6.gif""style=""height:400px;""></stim_listA>",is being challenged by,,,,,,
null,"<div style=""font-size:60px;"">+</div>",,html-keyboard-response,42,331578,0.0-13.0-0.3,89965,List1A,white,man,,,,null,,,,,,,,,
null,"<img src=""stim_listA/challenge8.gif""style=""height:400px;""></stim_listA>",,html-keyboard-response,43,333597,0.0-13.0-1.3,89965,List1A,white,man,,,,null,,,,,,,,,
null,is being challenged by,,html-keyboard-response,44,335611,0.0-13.0-2.3,89965,List1A,white,man,,,,null,,,,,,,,,
19113,,,survey-text,45,354728,0.0-13.0-3.3,89965,List1A,white,man,,,,,"{""Q0"":""jane is been challenged by kate""}","<img src=""stim_listA/challenge8.gif""style=""height:400px;""></stim_listA>",is being challenged by,,,,,,
null,"<div style=""font-size:60px;"">+</div>",,html-keyboard-response,46,355236,0.0-13.0-0.4,89965,List1A,white,man,,,,null,,,,,,,,,
null,"<img src=""stim_listA/shout8.gif""style=""height:400px;""></stim_listA>",,html-keyboard-response,47,357251,0.0-13.0-1.4,89965,List1A,white,man,,,,null,,,,,,,,,
null,is being shouted at by,,html-keyboard-response,48,359257,0.0-13.0-2.4,89965,List1A,white,man,,,,null,,,,,,,,,
31385.3,,,survey-text,49,390647,0.0-13.0-3.4,89965,List1A,white,man,,,,,"{""Q0"":""jane is been shout by kate""}","<img src=""stim_listA/shout8.gif""style=""height:400px;""></stim_listA>",is being shouted at by,,,,,,
null,"<div style=""font-size:60px;"">+</div>",,html-keyboard-response,50,391149,0.0-13.0-0.5,89965,List1A,white,man,,,,null,,,,,,,,,
null,"<img src=""stim_listA/kiss7.gif""style=""height:400px;""></stim_listA>",,html-keyboard-response,51,393161,0.0-13.0-1.5,89965,List1A,white,man,,,,null,,,,,,,,,
null,is kissing,,html-keyboard-response,52,395174,0.0-13.0-2.5,89965,List1A,white,man,,,,null,,,,,,,,,
32940.4,,,survey-text,53,428118,0.0-13.0-3.5,89965,List1A,white,man,,,,,"{""Q0"":""ruth is been peg by beth""}","<img src=""stim_listA/kiss7.gif""style=""height:400px;""></stim_listA>",is kissing,,,,,,
null,"<div style=""font-size:60px;"">+</div>",,html-keyboard-response,54,428620,0.0-13.0-0.6,89965,List1A,white,man,,,,null,,,,,,,,,
null,"<img src=""stim_listA/copy5.gif""style=""height:400px;""></stim_listA>",,html-keyboard-response,55,430630,0.0-13.0-1.6,89965,List1A,white,man,,,,null,,,,,,,,,
null,is copying,,html-keyboard-response,56,432636,0.0-13.0-2.6,89965,List1A,white,man,,,,null,,,,,,,,,
23444.9,,,survey-text,57,456085,0.0-13.0-3.6,89965,List1A,white,man,,,,,"{""Q0"":""mike is copied by luke""}","<img src=""stim_listA/copy5.gif""style=""height:400px;""></stim_listA>",is copying,,,,,,
null,"<div style=""font-size:60px;"">+</div>",,html-keyboard-response,58,456587,0.0-13.0-0.7,89965,List1A,white,man,,,,null,,,,,,,,,
null,"<img src=""stim_listA/shout4.gif""style=""height:400px;""></stim_listA>",,html-keyboard-response,59,458594,0.0-13.0-1.7,89965,List1A,white,man,,,,null,,,,,,,,,
null,is being shouted at by,,html-keyboard-response,60,460597,0.0-13.0-2.7,89965,List1A,white,man,,,,null,,,,,,,,,
20626.6,,,survey-text,61,481228,0.0-13.0-3.7,89965,List1A,white,man,,,,,"{""Q0"":""dave is shouting for jane""}","<img src=""stim_listA/shout4.gif""style=""height:400px;""></stim_listA>",is being shouted at by,,,,,,
null,"<div style=""font-size:60px;"">+</div>",,html-keyboard-response,62,481733,0.0-13.0-0.8,89965,List1A,white,man,,,,null,,,,,,,,,
null,"<img src=""stim_listA/seduce5.gif""style=""height:400px;""></stim_listA>",,html-keyboard-response,63,483744,0.0-13.0-1.8,89965,List1A,white,man,,,,null,,,,,,,,,
null,is seducing,,html-keyboard-response,64,485752,0.0-13.0-2.8,89965,List1A,white,man,,,,null,,,,,,,,,
41318.1,,,survey-text,65,527074,0.0-13.0-3.8,89965,List1A,white,man,,,,,"{""Q0"":""Fred is seducing Dave""}","<img src=""stim_listA/seduce5.gif""style=""height:400px;""></stim_listA>",is seducing,,,,,,
null,"<div style=""font-size:60px;"">+</div>",,html-keyboard-response,66,527577,0.0-13.0-0.9,89965,List1A,white,man,,,,null,,,,,,,,,
null,"<img src=""stim_listA/look3.gif""style=""height:400px;""></stim_listA>",,html-keyboard-response,67,529581,0.0-13.0-1.9,89965,List1A,white,man,,,,null,,,,,,,,,
null,is looking at,,html-keyboard-response,68,531596,0.0-13.0-2.9,89965,List1A,white,man,,,,null,,,,,,,,,
22274.2,,,survey-text,69,553874,0.0-13.0-3.9,89965,List1A,white,man,,,,,"{""Q0"":""ruth is looking luke""}","<img src=""stim_listA/look3.gif""style=""height:400px;""></stim_listA>",is looking at,,,,,,
null,"<div style=""font-size:60px;"">+</div>",,html-keyboard-response,70,554391,0.0-13.0-0.10,89965,List1A,white,man,,,,null,,,,,,,,,
null,"<img src=""stim_listA/seduce2.gif""style=""height:400px;""></stim_listA>",,html-keyboard-response,71,556400,0.0-13.0-1.10,89965,List1A,white,man,,,,null,,,,,,,,,
null,is being seduced by,,html-keyboard-response,72,558403,0.0-13.0-2.10,89965,List1A,white,man,,,,null,,,,,,,,,
17848.6,,,survey-text,73,576256,0.0-13.0-3.10,89965,List1A,white,man,,,,,"{""Q0"":""beth is looking at mike""}","<img src=""stim_listA/seduce2.gif""style=""height:400px;""></stim_listA>",is being seduced by,,,,,,
null,"<div style=""font-size:60px;"">+</div>",,html-keyboard-response,74,576759,0.0-13.0-0.11,89965,List1A,white,man,,,,null,,,,,,,,,
null,"<img src=""stim_listA/kiss2.gif""style=""height:400px;""></stim_listA>",,html-keyboard-response,75,578770,0.0-13.0-1.11,89965,List1A,white,man,,,,null,,,,,,,,,
null,is being kissed by,,html-keyboard-response,76,580773,0.0-13.0-2.11,89965,List1A,white,man,,,,null,,,,,,,,,
19452,,,survey-text,77,600230,0.0-13.0-3.11,89965,List1A,white,man,,,,,"{""Q0"":""mike kiss beth""}","<img src=""stim_listA/kiss2.gif""style=""height:400px;""></stim_listA>",is being kissed by,,,,,,
null,"<div style=""font-size:60px;"">+</div>",,html-keyboard-response,78,600738,0.0-13.0-0.12,89965,List1A,white,man,,,,null,,,,,,,,,
null,"<img src=""stim_listA/touch4.gif""style=""height:400px;""></stim_listA>",,html-keyboard-response,79,602748,0.0-13.0-1.12,89965,List1A,white,man,,,,null,,,,,,,,,
null,is being touched by,,html-keyboard-response,80,604753,0.0-13.0-2.12,89965,List1A,white,man,,,,null,,,,,,,,,
30796.3,,,survey-text,81,635555,0.0-13.0-3.12,89965,List1A,white,man,,,,,"{""Q0"":""ruth is being touch by luke""}","<img src=""stim_listA/touch4.gif""style=""height:400px;""></stim_listA>",is being touched by,,,,,,
null,"<div style=""font-size:60px;"">+</div>",,html-keyboard-response,82,636058,0.0-13.0-0.13,89965,List1A,white,man,,,,null,,,,,,,,,
null,"<img src=""stim_listA/copy2.gif""style=""height:400px;""></stim_listA>",,html-keyboard-response,83,638076,0.0-13.0-1.13,89965,List1A,white,man,,,,null,,,,,,,,,
null,is being copied by,,html-keyboard-response,84,640079,0.0-13.0-2.13,89965,List1A,white,man,,,,null,,,,,,,,,
27244.7,,,survey-text,85,667329,0.0-13.0-3.13,89965,List1A,white,man,,,,,"{""Q0"":""mike is being copied by kate""}","<img src=""stim_listA/copy2.gif""style=""height:400px;""></stim_listA>",is being copied by,,,,,,
null,"<div style=""font-size:60px;"">+</div>",,html-keyboard-response,86,667837,0.0-13.0-0.14,89965,List1A,white,man,,,,null,,,,,,,,,
null,"<img src=""stim_listA/seduce4.gif""style=""height:400px;""></stim_listA>",,html-keyboard-response,87,669854,0.0-13.0-1.14,89965,List1A,white,man,,,,null,,,,,,,,,
null,is being seduced by,,html-keyboard-response,88,671861,0.0-13.0-2.14,89965,List1A,white,man,,,,null,,,,,,,,,
53287,,,survey-text,89,725153,0.0-13.0-3.14,89965,List1A,white,man,,,,,"{""Q0"":""ruth is seceded by dave  ""}","<img src=""stim_listA/seduce4.gif""style=""height:400px;""></stim_listA>",is being seduced by,,,,,,
null,"<div style=""font-size:60px;"">+</div>",,html-keyboard-response,90,725663,0.0-13.0-0.15,89965,List1A,white,man,,,,null,,,,,,,,,
null,"<img src=""stim_listA/look1.gif""style=""height:400px;""></stim_listA>",,html-keyboard-response,91,727674,0.0-13.0-1.15,89965,List1A,white,man,,,,null,,,,,,,,,
null,is looking at,,html-keyboard-response,92,729689,0.0-13.0-2.15,89965,List1A,white,man,,,,null,,,,,,,,,
15843.9,,,survey-text,93,745538,0.0-13.0-3.15,89965,List1A,white,man,,,,,"{""Q0"":""fred is looking at beth""}","<img src=""stim_listA/look1.gif""style=""height:400px;""></stim_listA>",is looking at,,,,,,
null,"<div style=""font-size:60px;"">+</div>",,html-keyboard-response,94,746046,0.0-13.0-0.16,89965,List1A,white,man,,,,null,,,,,,,,,
null,"<img src=""stim_listA/oppose3.gif""style=""height:400px;""></stim_listA>",,html-keyboard-response,95,748054,0.0-13.0-1.16,89965,List1A,white,man,,,,null,,,,,,,,,
null,is opposing,,html-keyboard-response,96,750056,0.0-13.0-2.16,89965,List1A,white,man,,,,null,,,,,,,,,
19933,,,survey-text,97,769991,0.0-13.0-3.16,89965,List1A,white,man,,,,,"{""Q0"":""dave is  opposing ruth""}","<img src=""stim_listA/oppose3.gif""style=""height:400px;""></stim_listA>",is opposing,,,,,,
null,"<div style=""font-size:60px;"">+</div>",,html-keyboard-response,98,770495,0.0-13.0-0.17,89965,List1A,white,man,,,,null,,,,,,,,,
null,"<img src=""stim_listA/copy4.gif""style=""height:400px;""></stim_listA>",,html-keyboard-response,99,772508,0.0-13.0-1.17,89965,List1A,white,man,,,,null,,,,,,,,,
null,is being copied by,,html-keyboard-response,100,774515,0.0-13.0-2.17,89965,List1A,white,man,,,,null,,,,,,,,,
20108.1,,,survey-text,101,794627,0.0-13.0-3.17,89965,List1A,white,man,,,,,"{""Q0"":""luke is being copied by jane""}","<img src=""stim_listA/copy4.gif""style=""height:400px;""></stim_listA>",is being copied by,,,,,,
null,"<div style=""font-size:60px;"">+</div>",,html-keyboard-response,102,795133,0.0-13.0-0.18,89965,List1A,white,man,,,,null,,,,,,,,,
null,"<img src=""stim_listA/greet8.gif""style=""height:400px;""></stim_listA>",,html-keyboard-response,103,797142,0.0-13.0-1.18,89965,List1A,white,man,,,,null,,,,,,,,,
null,is being greeted by,,html-keyboard-response,104,799144,0.0-13.0-2.18,89965,List1A,white,man,,,,null,,,,,,,,,
22181.6,,,survey-text,105,821330,0.0-13.0-3.18,89965,List1A,white,man,,,,,"{""Q0"":""kate is greeted by jane""}","<img src=""stim_listA/greet8.gif""style=""height:400px;""></stim_listA>",is being greeted by,,,,,,
null,"<div style=""font-size:60px;"">+</div>",,html-keyboard-response,106,821845,0.0-13.0-0.19,89965,List1A,white,man,,,,null,,,,,,,,,
null,"<img src=""stim_listA/kiss4.gif""style=""height:400px;""></stim_listA>",,html-keyboard-response,107,823857,0.0-13.0-1.19,89965,List1A,white,man,,,,null,,,,,,,,,
null,is being kissed by,,html-keyboard-response,108,825865,0.0-13.0-2.19,89965,List1A,white,man,,,,null,,,,,,,,,
20116,,,survey-text,109,845985,0.0-13.0-3.19,89965,List1A,white,man,,,,,"{""Q0"":""jane is being kissed by dave""}","<img src=""stim_listA/kiss4.gif""style=""height:400px;""></stim_listA>",is being kissed by,,,,,,
12989.2,"<img src='img/portrait_matrix_list1.jpg' style='width:900px;height:500px;''></img><p>If you have memorised all the portraits and names and are ready to start, press Continue.</p><p><strong>Please note: Your memory of these faces will be tested 4 times during this experiment.</strong></p>",0,html-button-response,110,858977,0.0-14.0-0.0,89965,List1A,white,man,,,,,,,,,,,,,
8140.9,"<img src=""portrait/WW2.jpg""style=""height:400px;""></img>",3,html-button-response,111,868121,0.0-14.0-1.0,89965,List1A,white,man,,TRUE,3,,,,,,,,,,
null,CORRECT,,html-keyboard-response,112,869650,0.0-14.0-2.0-0.0,89965,List1A,white,man,,,,null,,,,,,,,,
5140.7,"<img src=""portrait/WM1.jpg""style=""height:400px;""></img>",6,html-button-response,113,874793,0.0-14.0-4.0,89965,List1A,white,man,,TRUE,6,,,,,,,,,,
null,CORRECT,,html-keyboard-response,114,876308,0.0-14.0-5.0-0.0,89965,List1A,white,man,,,,null,,,,,,,,,
4129.1,"<img src=""portrait/BW2.jpg""style=""height:400px;""></img>",2,html-button-response,115,880440,0.0-14.0-7.0,89965,List1A,white,man,,TRUE,2,,,,,,,,,,
null,CORRECT,,html-keyboard-response,116,881944,0.0-14.0-8.0-0.0,89965,List1A,white,man,,,,null,,,,,,,,,
9830,"<img src=""portrait/WM2.jpg""style=""height:400px;""></img>",7,html-button-response,117,891776,0.0-14.0-10.0,89965,List1A,white,man,,TRUE,7,,,,,,,,,,
null,CORRECT,,html-keyboard-response,118,893294,0.0-14.0-11.0-0.0,89965,List1A,white,man,,,,null,,,,,,,,,
4079.4,"<img src=""portrait/BW1.jpg""style=""height:400px;""></img>",0,html-button-response,119,897376,0.0-14.0-13.0,89965,List1A,white,man,,TRUE,0,,,,,,,,,,
null,CORRECT,,html-keyboard-response,120,898904,0.0-14.0-14.0-0.0,89965,List1A,white,man,,,,null,,,,,,,,,
4636.1,"<img src=""portrait/BM2.jpg""style=""height:400px;""></img>",5,html-button-response,121,903543,0.0-14.0-16.0,89965,List1A,white,man,,TRUE,5,,,,,,,,,,
null,CORRECT,,html-keyboard-response,122,905047,0.0-14.0-17.0-0.0,89965,List1A,white,man,,,,null,,,,,,,,,
4541.5,"<img src=""portrait/BM1.jpg""style=""height:400px;""></img>",4,html-button-response,123,909591,0.0-14.0-19.0,89965,List1A,white,man,,TRUE,4,,,,,,,,,,
null,CORRECT,,html-keyboard-response,124,911118,0.0-14.0-20.0-0.0,89965,List1A,white,man,,,,null,,,,,,,,,
5494.7,"<img src=""portrait/WW1.jpg""style=""height:400px;""></img>",1,html-button-response,125,916615,0.0-14.0-22.0,89965,List1A,white,man,,TRUE,1,,,,,,,,,,
null,CORRECT,,html-keyboard-response,126,918125,0.0-14.0-23.0-0.0,89965,List1A,white,man,,,,null,,,,,,,,,
1893.7,<p>You got 8 out of 8 right first time. Press Continue.</p>,0,html-button-response,127,920022,0.0-14.0-25.0,89965,List1A,white,man,,,,,,,,,,,,,
null,"<div style=""font-size:60px;"">+</div>",,html-keyboard-response,128,921529,0.0-15.0-0.0,89965,List1A,white,man,,,,null,,,,,,,,,
null,"<img src=""stim_listA/oppose1.gif""style=""height:400px;""></stim_listA>",,html-keyboard-response,129,923545,0.0-15.0-1.0,89965,List1A,white,man,,,,null,,,,,,,,,
null,is opposing,,html-keyboard-response,130,925553,0.0-15.0-2.0,89965,List1A,white,man,,,,null,,,,,,,,,
23279.1,,,survey-text,131,948837,0.0-15.0-3.0,89965,List1A,white,man,,,,,"{""Q0"":""mike is opposing kate""}","<img src=""stim_listA/oppose1.gif""style=""height:400px;""></stim_listA>",is opposing,,,,,,
null,"<div style=""font-size:60px;"">+</div>",,html-keyboard-response,132,949349,0.0-15.0-0.1,89965,List1A,white,man,,,,null,,,,,,,,,
null,"<img src=""stim_listA/kiss3.gif""style=""height:400px;""></stim_listA>",,html-keyboard-response,133,951355,0.0-15.0-1.1,89965,List1A,white,man,,,,null,,,,,,,,,
null,is kissing,,html-keyboard-response,134,953362,0.0-15.0-2.1,89965,List1A,white,man,,,,null,,,,,,,,,
29228.7,,,survey-text,135,982595,0.0-15.0-3.1,89965,List1A,white,man,,,,,"{""Q0"":""luke is kissing jane""}","<img src=""stim_listA/kiss3.gif""style=""height:400px;""></stim_listA>",is kissing,,,,,,
null,"<div style=""font-size:60px;"">+</div>",,html-keyboard-response,136,983100,0.0-15.0-0.2,89965,List1A,white,man,,,,null,,,,,,,,,
null,"<img src=""stim_listA/touch5.gif""style=""height:400px;""></stim_listA>",,html-keyboard-response,137,985109,0.0-15.0-1.2,89965,List1A,white,man,,,,null,,,,,,,,,
null,is touching,,html-keyboard-response,138,987125,0.0-15.0-2.2,89965,List1A,white,man,,,,null,,,,,,,,,
16500.3,,,survey-text,139,1003627,0.0-15.0-3.2,89965,List1A,white,man,,,,,"{""Q0"":""dave is touching mike""}","<img src=""stim_listA/touch5.gif""style=""height:400px;""></stim_listA>",is touching,,,,,,
null,"<div style=""font-size:60px;"">+</div>",,html-keyboard-response,140,1004137,0.0-15.0-0.3,89965,List1A,white,man,,,,null,,,,,,,,,
null,"<img src=""stim_listA/greet5.gif""style=""height:400px;""></stim_listA>",,html-keyboard-response,141,1006149,0.0-15.0-1.3,89965,List1A,white,man,,,,null,,,,,,,,,
null,is greeting,,html-keyboard-response,142,1008159,0.0-15.0-2.3,89965,List1A,white,man,,,,null,,,,,,,,,
18911.4,,,survey-text,143,1027075,0.0-15.0-3.3,89965,List1A,white,man,,,,,"{""Q0"":""luke is copying mike""}","<img src=""stim_listA/greet5.gif""style=""height:400px;""></stim_listA>",is greeting,,,,,,
null,"<div style=""font-size:60px;"">+</div>",,html-keyboard-response,144,1027591,0.0-15.0-0.4,89965,List1A,white,man,,,,null,,,,,,,,,
null,"<img src=""stim_listA/hug3.gif""style=""height:400px;""></stim_listA>",,html-keyboard-response,145,1029598,0.0-15.0-1.4,89965,List1A,white,man,,,,null,,,,,,,,,
null,is hugging,,html-keyboard-response,146,1031614,0.0-15.0-2.4,89965,List1A,white,man,,,,null,,,,,,,,,
24358.3,,,survey-text,147,1055977,0.0-15.0-3.4,89965,List1A,white,man,,,,,"{""Q0"":""luke is hugging jane""}","<img src=""stim_listA/hug3.gif""style=""height:400px;""></stim_listA>",is hugging,,,,,,
null,"<div style=""font-size:60px;"">+</div>",,html-keyboard-response,148,1056494,0.0-15.0-0.5,89965,List1A,white,man,,,,null,,,,,,,,,
null,"<img src=""stim_listA/hug1.gif""style=""height:400px;""></stim_listA>",,html-keyboard-response,149,1058499,0.0-15.0-1.5,89965,List1A,white,man,,,,null,,,,,,,,,
null,is hugging,,html-keyboard-response,150,1060507,0.0-15.0-2.5,89965,List1A,white,man,,,,null,,,,,,,,,
15130.7,,,survey-text,151,1075640,0.0-15.0-3.5,89965,List1A,white,man,,,,,"{""Q0"":""fred is hugging beth""}","<img src=""stim_listA/hug1.gif""style=""height:400px;""></stim_listA>",is hugging,,,,,,
null,"<div style=""font-size:60px;"">+</div>",,html-keyboard-response,152,1076156,0.0-15.0-0.6,89965,List1A,white,man,,,,null,,,,,,,,,
null,"<img src=""stim_listA/shout7.gif""style=""height:400px;""></stim_listA>",,html-keyboard-response,153,1078166,0.0-15.0-1.6,89965,List1A,white,man,,,,null,,,,,,,,,
null,is shouting at,,html-keyboard-response,154,1080174,0.0-15.0-2.6,89965,List1A,white,man,,,,null,,,,,,,,,
16636.6,,,survey-text,155,1096815,0.0-15.0-3.6,89965,List1A,white,man,,,,,"{""Q0"":""beth is shouting for ruth""}","<img src=""stim_listA/shout7.gif""style=""height:400px;""></stim_listA>",is shouting at,,,,,,
null,"<div style=""font-size:60px;"">+</div>",,html-keyboard-response,156,1097319,0.0-15.0-0.7,89965,List1A,white,man,,,,null,,,,,,,,,
null,"<img src=""stim_listA/shout1.gif""style=""height:400px;""></stim_listA>",,html-keyboard-response,157,1099333,0.0-15.0-1.7,89965,List1A,white,man,,,,null,,,,,,,,,
null,is shouting at,,html-keyboard-response,158,1101346,0.0-15.0-2.7,89965,List1A,white,man,,,,null,,,,,,,,,
15337.7,,,survey-text,159,1116689,0.0-15.0-3.7,89965,List1A,white,man,,,,,"{""Q0"":""fred is shouting for beth""}","<img src=""stim_listA/shout1.gif""style=""height:400px;""></stim_listA>",is shouting at,,,,,,
null,"<div style=""font-size:60px;"">+</div>",,html-keyboard-response,160,1117191,0.0-15.0-0.8,89965,List1A,white,man,,,,null,,,,,,,,,
null,"<img src=""stim_listA/look4.gif""style=""height:400px;""></stim_listA>",,html-keyboard-response,161,1119200,0.0-15.0-1.8,89965,List1A,white,man,,,,null,,,,,,,,,
null,is being looked at by,,html-keyboard-response,162,1121206,0.0-15.0-2.8,89965,List1A,white,man,,,,null,,,,,,,,,
16648.8,,,survey-text,163,1137860,0.0-15.0-3.8,89965,List1A,white,man,,,,,"{""Q0"":""jane is looked by dave""}","<img src=""stim_listA/look4.gif""style=""height:400px;""></stim_listA>",is being looked at by,,,,,,
null,"<div style=""font-size:60px;"">+</div>",,html-keyboard-response,164,1138375,0.0-15.0-0.9,89965,List1A,white,man,,,,null,,,,,,,,,
null,"<img src=""stim_listA/kiss8.gif""style=""height:400px;""></stim_listA>",,html-keyboard-response,165,1140382,0.0-15.0-1.9,89965,List1A,white,man,,,,null,,,,,,,,,
null,is being kissed by,,html-keyboard-response,166,1142399,0.0-15.0-2.9,89965,List1A,white,man,,,,null,,,,,,,,,
12847.2,,,survey-text,167,1155251,0.0-15.0-3.9,89965,List1A,white,man,,,,,"{""Q0"":""jane is kissed by kate ""}","<img src=""stim_listA/kiss8.gif""style=""height:400px;""></stim_listA>",is being kissed by,,,,,,
null,"<div style=""font-size:60px;"">+</div>",,html-keyboard-response,168,1155763,0.0-15.0-0.10,89965,List1A,white,man,,,,null,,,,,,,,,
null,"<img src=""stim_listA/seduce1.gif""style=""height:400px;""></stim_listA>",,html-keyboard-response,169,1157768,0.0-15.0-1.10,89965,List1A,white,man,,,,null,,,,,,,,,
null,is seducing,,html-keyboard-response,170,1159777,0.0-15.0-2.10,89965,List1A,white,man,,,,null,,,,,,,,,
37822.5,,,survey-text,171,1197606,0.0-15.0-3.10,89965,List1A,white,man,,,,,"{""Q0"":""mike is seducing kate ""}","<img src=""stim_listA/seduce1.gif""style=""height:400px;""></stim_listA>",is seducing,,,,,,
null,"<div style=""font-size:60px;"">+</div>",,html-keyboard-response,172,1198111,0.0-15.0-0.11,89965,List1A,white,man,,,,null,,,,,,,,,
null,"<img src=""stim_listA/hug6.gif""style=""height:400px;""></stim_listA>",,html-keyboard-response,173,1200123,0.0-15.0-1.11,89965,List1A,white,man,,,,null,,,,,,,,,
null,is being hugged by,,html-keyboard-response,174,1202127,0.0-15.0-2.11,89965,List1A,white,man,,,,null,,,,,,,,,
14890.3,,,survey-text,175,1217022,0.0-15.0-3.11,89965,List1A,white,man,,,,,"{""Q0"":""mike is hugged dave""}","<img src=""stim_listA/hug6.gif""style=""height:400px;""></stim_listA>",is being hugged by,,,,,,
null,"<div style=""font-size:60px;"">+</div>",,html-keyboard-response,176,1217533,0.0-15.0-0.12,89965,List1A,white,man,,,,null,,,,,,,,,
null,"<img src=""stim_listA/seduce8.gif""style=""height:400px;""></stim_listA>",,html-keyboard-response,177,1219547,0.0-15.0-1.12,89965,List1A,white,man,,,,null,,,,,,,,,
null,is being seduced by,,html-keyboard-response,178,1221550,0.0-15.0-2.12,89965,List1A,white,man,,,,null,,,,,,,,,
23506.3,,,survey-text,179,1245061,0.0-15.0-3.12,89965,List1A,white,man,,,,,"{""Q0"":""kate is secduced by jane""}","<img src=""stim_listA/seduce8.gif""style=""height:400px;""></stim_listA>",is being seduced by,,,,,,
null,"<div style=""font-size:60px;"">+</div>",,html-keyboard-response,180,1245577,0.0-15.0-0.13,89965,List1A,white,man,,,,null,,,,,,,,,
null,"<img src=""stim_listA/challenge3.gif""style=""height:400px;""></stim_listA>",,html-keyboard-response,181,1247586,0.0-15.0-1.13,89965,List1A,white,man,,,,null,,,,,,,,,
null,is challenging,,html-keyboard-response,182,1249595,0.0-15.0-2.13,89965,List1A,white,man,,,,null,,,,,,,,,
24300.1,,,survey-text,183,1273900,0.0-15.0-3.13,89965,List1A,white,man,,,,,"{""Q0"":""dave is challenging ruth""}","<img src=""stim_listA/challenge3.gif""style=""height:400px;""></stim_listA>",is challenging,,,,,,
null,"<div style=""font-size:60px;"">+</div>",,html-keyboard-response,184,1274415,0.0-15.0-0.14,89965,List1A,white,man,,,,null,,,,,,,,,
null,"<img src=""stim_listA/greet7.gif""style=""height:400px;""></stim_listA>",,html-keyboard-response,185,1276421,0.0-15.0-1.14,89965,List1A,white,man,,,,null,,,,,,,,,
null,is greeting,,html-keyboard-response,186,1278437,0.0-15.0-2.14,89965,List1A,white,man,,,,null,,,,,,,,,
11854,,,survey-text,187,1290295,0.0-15.0-3.14,89965,List1A,white,man,,,,,"{""Q0"":""ruth is greeting kate ""}","<img src=""stim_listA/greet7.gif""style=""height:400px;""></stim_listA>",is greeting,,,,,,
null,"<div style=""font-size:60px;"">+</div>",,html-keyboard-response,188,1290810,0.0-15.0-0.15,89965,List1A,white,man,,,,null,,,,,,,,,
null,"<img src=""stim_listA/touch3.gif""style=""height:400px;""></stim_listA>",,html-keyboard-response,189,1292825,0.0-15.0-1.15,89965,List1A,white,man,,,,null,,,,,,,,,
null,is touching,,html-keyboard-response,190,1294836,0.0-15.0-2.15,89965,List1A,white,man,,,,null,,,,,,,,,
23588,,,survey-text,191,1318428,0.0-15.0-3.15,89965,List1A,white,man,,,,,"{""Q0"":""dave is touching kate ""}","<img src=""stim_listA/touch3.gif""style=""height:400px;""></stim_listA>",is touching,,,,,,
null,"<div style=""font-size:60px;"">+</div>",,html-keyboard-response,192,1318932,0.0-15.0-0.16,89965,List1A,white,man,,,,null,,,,,,,,,
null,"<img src=""stim_listA/copy7.gif""style=""height:400px;""></stim_listA>",,html-keyboard-response,193,1320939,0.0-15.0-1.16,89965,List1A,white,man,,,,null,,,,,,,,,
null,is copying,,html-keyboard-response,194,1322946,0.0-15.0-2.16,89965,List1A,white,man,,,,null,,,,,,,,,
16678.1,,,survey-text,195,1339632,0.0-15.0-3.16,89965,List1A,white,man,,,,,"{""Q0"":""kate is copying ruth""}","<img src=""stim_listA/copy7.gif""style=""height:400px;""></stim_listA>",is copying,,,,,,
null,"<div style=""font-size:60px;"">+</div>",,html-keyboard-response,196,1340144,0.0-15.0-0.17,89965,List1A,white,man,,,,null,,,,,,,,,
null,"<img src=""stim_listA/challenge1.gif""style=""height:400px;""></stim_listA>",,html-keyboard-response,197,1342152,0.0-15.0-1.17,89965,List1A,white,man,,,,null,,,,,,,,,
null,is challenging,,html-keyboard-response,198,1344163,0.0-15.0-2.17,89965,List1A,white,man,,,,null,,,,,,,,,
19123.3,,,survey-text,199,1363290,0.0-15.0-3.17,89965,List1A,white,man,,,,,"{""Q0"":""beth is copying mike""}","<img src=""stim_listA/challenge1.gif""style=""height:400px;""></stim_listA>",is challenging,,,,,,
null,"<div style=""font-size:60px;"">+</div>",,html-keyboard-response,200,1363797,0.0-15.0-0.18,89965,List1A,white,man,,,,null,,,,,,,,,
null,"<img src=""stim_listA/kiss1.gif""style=""height:400px;""></stim_listA>",,html-keyboard-response,201,1365810,0.0-15.0-1.18,89965,List1A,white,man,,,,null,,,,,,,,,
null,is kissing,,html-keyboard-response,202,1367817,0.0-15.0-2.18,89965,List1A,white,man,,,,null,,,,,,,,,
15832.9,,,survey-text,203,1383654,0.0-15.0-3.18,89965,List1A,white,man,,,,,"{""Q0"":""fred is kissing beth""}","<img src=""stim_listA/kiss1.gif""style=""height:400px;""></stim_listA>",is kissing,,,,,,
null,"<div style=""font-size:60px;"">+</div>",,html-keyboard-response,204,1384169,0.0-15.0-0.19,89965,List1A,white,man,,,,null,,,,,,,,,
null,"<img src=""stim_listA/touch7.gif""style=""height:400px;""></stim_listA>",,html-keyboard-response,205,1386175,0.0-15.0-1.19,89965,List1A,white,man,,,,null,,,,,,,,,
null,is touching,,html-keyboard-response,206,1388178,0.0-15.0-2.19,89965,List1A,white,man,,,,null,,,,,,,,,
11910.4,,,survey-text,207,1400092,0.0-15.0-3.19,89965,List1A,white,man,,,,,"{""Q0"":""kate is touching jane""}","<img src=""stim_listA/touch7.gif""style=""height:400px;""></stim_listA>",is touching,,,,,,
6073.3,"<img src='img/portrait_matrix_list1.jpg' style='width:900px;height:500px;''></img><p>If you have memorised all the portraits and names and are ready to start, press Continue.</p><p><strong>Please note: Your memory of these faces will be tested 4 times during this experiment.</strong></p>",0,html-button-response,208,1406167,0.0-16.0-0.0,89965,List1A,white,man,,,,,,,,,,,,,
6675.8,"<img src=""portrait/WW1.jpg""style=""height:400px;""></img>",1,html-button-response,209,1413847,0.0-16.0-1.0,89965,List1A,white,man,,TRUE,1,,,,,,,,,,
null,CORRECT,,html-keyboard-response,210,1415350,0.0-16.0-2.0-0.0,89965,List1A,white,man,,,,null,,,,,,,,,
3318.5,"<img src=""portrait/BW2.jpg""style=""height:400px;""></img>",2,html-button-response,211,1418671,0.0-16.0-4.0,89965,List1A,white,man,,TRUE,2,,,,,,,,,,
null,CORRECT,,html-keyboard-response,212,1420190,0.0-16.0-5.0-0.0,89965,List1A,white,man,,,,null,,,,,,,,,
3606.1,"<img src=""portrait/BM2.jpg""style=""height:400px;""></img>",5,html-button-response,213,1423799,0.0-16.0-7.0,89965,List1A,white,man,,TRUE,5,,,,,,,,,,
null,CORRECT,,html-keyboard-response,214,1425312,0.0-16.0-8.0-0.0,89965,List1A,white,man,,,,null,,,,,,,,,
4388.1,"<img src=""portrait/BW1.jpg""style=""height:400px;""></img>",0,html-button-response,215,1429703,0.0-16.0-10.0,89965,List1A,white,man,,TRUE,0,,,,,,,,,,
null,CORRECT,,html-keyboard-response,216,1431216,0.0-16.0-11.0-0.0,89965,List1A,white,man,,,,null,,,,,,,,,
4748.1,"<img src=""portrait/WM1.jpg""style=""height:400px;""></img>",6,html-button-response,217,1435967,0.0-16.0-13.0,89965,List1A,white,man,,TRUE,6,,,,,,,,,,
null,CORRECT,,html-keyboard-response,218,1437473,0.0-16.0-14.0-0.0,89965,List1A,white,man,,,,null,,,,,,,,,
3354.9,"<img src=""portrait/BM1.jpg""style=""height:400px;""></img>",4,html-button-response,219,1440830,0.0-16.0-16.0,89965,List1A,white,man,,TRUE,4,,,,,,,,,,
null,CORRECT,,html-keyboard-response,220,1442352,0.0-16.0-17.0-0.0,89965,List1A,white,man,,,,null,,,,,,,,,
2636.7,"<img src=""portrait/WM2.jpg""style=""height:400px;""></img>",7,html-button-response,221,1444990,0.0-16.0-19.0,89965,List1A,white,man,,TRUE,7,,,,,,,,,,
null,CORRECT,,html-keyboard-response,222,1446511,0.0-16.0-20.0-0.0,89965,List1A,white,man,,,,null,,,,,,,,,
7124.8,"<img src=""portrait/WW2.jpg""style=""height:400px;""></img>",3,html-button-response,223,1453638,0.0-16.0-22.0,89965,List1A,white,man,,TRUE,3,,,,,,,,,,
null,CORRECT,,html-keyboard-response,224,1455145,0.0-16.0-23.0-0.0,89965,List1A,white,man,,,,null,,,,,,,,,
1811.1,<p>You got 8 out of 8 right first time. Press Continue.</p>,0,html-button-response,225,1456958,0.0-16.0-25.0,89965,List1A,white,man,,,,,,,,,,,,,
null,"<div style=""font-size:60px;"">+</div>",,html-keyboard-response,226,1458462,0.0-17.0-0.0,89965,List1A,white,man,,,,null,,,,,,,,,
null,"<img src=""stim_listA/copy3.gif""style=""height:400px;""></stim_listA>",,html-keyboard-response,227,1460470,0.0-17.0-1.0,89965,List1A,white,man,,,,null,,,,,,,,,
null,is copying,,html-keyboard-response,228,1462480,0.0-17.0-2.0,89965,List1A,white,man,,,,null,,,,,,,,,
13903.6,,,survey-text,229,1476388,0.0-17.0-3.0,89965,List1A,white,man,,,,,"{""Q0"":""ruth is copying dave""}","<img src=""stim_listA/copy3.gif""style=""height:400px;""></stim_listA>",is copying,,,,,,
null,"<div style=""font-size:60px;"">+</div>",,html-keyboard-response,230,1476893,0.0-17.0-0.1,89965,List1A,white,man,,,,null,,,,,,,,,
null,"<img src=""stim_listA/touch1.gif""style=""height:400px;""></stim_listA>",,html-keyboard-response,231,1478903,0.0-17.0-1.1,89965,List1A,white,man,,,,null,,,,,,,,,
null,is touching,,html-keyboard-response,232,1480912,0.0-17.0-2.1,89965,List1A,white,man,,,,null,,,,,,,,,
10292.7,,,survey-text,233,1491209,0.0-17.0-3.1,89965,List1A,white,man,,,,,"{""Q0"":""kate is touching mike""}","<img src=""stim_listA/touch1.gif""style=""height:400px;""></stim_listA>",is touching,,,,,,
null,"<div style=""font-size:60px;"">+</div>",,html-keyboard-response,234,1491712,0.0-17.0-0.2,89965,List1A,white,man,,,,null,,,,,,,,,
null,"<img src=""stim_listA/challenge5.gif""style=""height:400px;""></stim_listA>",,html-keyboard-response,235,1493719,0.0-17.0-1.2,89965,List1A,white,man,,,,null,,,,,,,,,
null,is challenging,,html-keyboard-response,236,1495726,0.0-17.0-2.2,89965,List1A,white,man,,,,null,,,,,,,,,
20021.9,,,survey-text,237,1515751,0.0-17.0-3.2,89965,List1A,white,man,,,,,"{""Q0"":""mike is challenging luke""}","<img src=""stim_listA/challenge5.gif""style=""height:400px;""></stim_listA>",is challenging,,,,,,
null,"<div style=""font-size:60px;"">+</div>",,html-keyboard-response,238,1516263,0.0-17.0-0.3,89965,List1A,white,man,,,,null,,,,,,,,,
null,"<img src=""stim_listA/kiss5.gif""style=""height:400px;""></stim_listA>",,html-keyboard-response,239,1518268,0.0-17.0-1.3,89965,List1A,white,man,,,,null,,,,,,,,,
null,is kissing,,html-keyboard-response,240,1520270,0.0-17.0-2.3,89965,List1A,white,man,,,,null,,,,,,,,,
19093.7,,,survey-text,241,1539366,0.0-17.0-3.3,89965,List1A,white,man,,,,,"{""Q0"":""luke is  kissing fred""}","<img src=""stim_listA/kiss5.gif""style=""height:400px;""></stim_listA>",is kissing,,,,,,
null,"<div style=""font-size:60px;"">+</div>",,html-keyboard-response,242,1539871,0.0-17.0-0.4,89965,List1A,white,man,,,,null,,,,,,,,,
null,"<img src=""stim_listA/greet3.gif""style=""height:400px;""></stim_listA>",,html-keyboard-response,243,1541884,0.0-17.0-1.4,89965,List1A,white,man,,,,null,,,,,,,,,
null,is greeting,,html-keyboard-response,244,1543886,0.0-17.0-2.4,89965,List1A,white,man,,,,null,,,,,,,,,
15124.9,,,survey-text,245,1559016,0.0-17.0-3.4,89965,List1A,white,man,,,,,"{""Q0"":""dave is greeting ruth""}","<img src=""stim_listA/greet3.gif""style=""height:400px;""></stim_listA>",is greeting,,,,,,
null,"<div style=""font-size:60px;"">+</div>",,html-keyboard-response,246,1559525,0.0-17.0-0.5,89965,List1A,white,man,,,,null,,,,,,,,,
null,"<img src=""stim_listA/look5.gif""style=""height:400px;""></stim_listA>",,html-keyboard-response,247,1561532,0.0-17.0-1.5,89965,List1A,white,man,,,,null,,,,,,,,,
null,is looking at,,html-keyboard-response,248,1563548,0.0-17.0-2.5,89965,List1A,white,man,,,,null,,,,,,,,,
28926.9,,,survey-text,249,1592479,0.0-17.0-3.5,89965,List1A,white,man,,,,,"{""Q0"":""fred is looking at luke""}","<img src=""stim_listA/look5.gif""style=""height:400px;""></stim_listA>",is looking at,,,,,,
null,"<div style=""font-size:60px;"">+</div>",,html-keyboard-response,250,1592985,0.0-17.0-0.6,89965,List1A,white,man,,,,null,,,,,,,,,
null,"<img src=""stim_listA/oppose8.gif""style=""height:400px;""></stim_listA>",,html-keyboard-response,251,1595003,0.0-17.0-1.6,89965,List1A,white,man,,,,null,,,,,,,,,
null,is being opposed by,,html-keyboard-response,252,1597009,0.0-17.0-2.6,89965,List1A,white,man,,,,null,,,,,,,,,
32595.8,,,survey-text,253,1629610,0.0-17.0-3.6,89965,List1A,white,man,,,,,"{""Q0"":""ruth is opposed by beth ""}","<img src=""stim_listA/oppose8.gif""style=""height:400px;""></stim_listA>",is being opposed by,,,,,,
null,"<div style=""font-size:60px;"">+</div>",,html-keyboard-response,254,1630112,0.0-17.0-0.7,89965,List1A,white,man,,,,null,,,,,,,,,
null,"<img src=""stim_listA/seduce3.gif""style=""height:400px;""></stim_listA>",,html-keyboard-response,255,1632116,0.0-17.0-1.7,89965,List1A,white,man,,,,null,,,,,,,,,
null,is seducing,,html-keyboard-response,256,1634117,0.0-17.0-2.7,89965,List1A,white,man,,,,null,,,,,,,,,
20206.5,,,survey-text,257,1654329,0.0-17.0-3.7,89965,List1A,white,man,,,,,"{""Q0"":""luke is seducing jane""}","<img src=""stim_listA/seduce3.gif""style=""height:400px;""></stim_listA>",is seducing,,,,,,
null,"<div style=""font-size:60px;"">+</div>",,html-keyboard-response,258,1654830,0.0-17.0-0.8,89965,List1A,white,man,,,,null,,,,,,,,,
null,"<img src=""stim_listA/oppose5.gif""style=""height:400px;""></stim_listA>",,html-keyboard-response,259,1656836,0.0-17.0-1.8,89965,List1A,white,man,,,,null,,,,,,,,,
null,is opposing,,html-keyboard-response,260,1658849,0.0-17.0-2.8,89965,List1A,white,man,,,,null,,,,,,,,,
15899,,,survey-text,261,1674753,0.0-17.0-3.8,89965,List1A,white,man,,,,,"{""Q0"":""mike is opposing dave""}","<img src=""stim_listA/oppose5.gif""style=""height:400px;""></stim_listA>",is opposing,,,,,,
null,"<div style=""font-size:60px;"">+</div>",,html-keyboard-response,262,1675266,0.0-17.0-0.9,89965,List1A,white,man,,,,null,,,,,,,,,
null,"<img src=""stim_listA/greet6.gif""style=""height:400px;""></stim_listA>",,html-keyboard-response,263,1677277,0.0-17.0-1.9,89965,List1A,white,man,,,,null,,,,,,,,,
null,is being greeted by,,html-keyboard-response,264,1679295,0.0-17.0-2.9,89965,List1A,white,man,,,,null,,,,,,,,,
12491.2,,,survey-text,265,1691791,0.0-17.0-3.9,89965,List1A,white,man,,,,,"{""Q0"":""fred is greeted by dave""}","<img src=""stim_listA/greet6.gif""style=""height:400px;""></stim_listA>",is being greeted by,,,,,,
null,"<div style=""font-size:60px;"">+</div>",,html-keyboard-response,266,1692293,0.0-17.0-0.10,89965,List1A,white,man,,,,null,,,,,,,,,
null,"<img src=""stim_listA/seduce6.gif""style=""height:400px;""></stim_listA>",,html-keyboard-response,267,1694305,0.0-17.0-1.10,89965,List1A,white,man,,,,null,,,,,,,,,
null,is being seduced by,,html-keyboard-response,268,1696319,0.0-17.0-2.10,89965,List1A,white,man,,,,null,,,,,,,,,
15506.9,,,survey-text,269,1711831,0.0-17.0-3.10,89965,List1A,white,man,,,,,"{""Q0"":""luke is seceded by mike""}","<img src=""stim_listA/seduce6.gif""style=""height:400px;""></stim_listA>",is being seduced by,,,,,,
null,"<div style=""font-size:60px;"">+</div>",,html-keyboard-response,270,1712339,0.0-17.0-0.11,89965,List1A,white,man,,,,null,,,,,,,,,
null,"<img src=""stim_listA/oppose6.gif""style=""height:400px;""></stim_listA>",,html-keyboard-response,271,1714342,0.0-17.0-1.11,89965,List1A,white,man,,,,null,,,,,,,,,
null,is being opposed by,,html-keyboard-response,272,1716352,0.0-17.0-2.11,89965,List1A,white,man,,,,null,,,,,,,,,
15948.3,,,survey-text,273,1732305,0.0-17.0-3.11,89965,List1A,white,man,,,,,"{""Q0"":""luke opposed by fred""}","<img src=""stim_listA/oppose6.gif""style=""height:400px;""></stim_listA>",is being opposed by,,,,,,
null,"<div style=""font-size:60px;"">+</div>",,html-keyboard-response,274,1732809,0.0-17.0-0.12,89965,List1A,white,man,,,,null,,,,,,,,,
null,"<img src=""stim_listA/seduce7.gif""style=""height:400px;""></stim_listA>",,html-keyboard-response,275,1734823,0.0-17.0-1.12,89965,List1A,white,man,,,,null,,,,,,,,,
null,is seducing,,html-keyboard-response,276,1736838,0.0-17.0-2.12,89965,List1A,white,man,,,,null,,,,,,,,,
14405.3,,,survey-text,277,1751246,0.0-17.0-3.12,89965,List1A,white,man,,,,,"{""Q0"":""beth is seceded by jane""}","<img src=""stim_listA/seduce7.gif""style=""height:400px;""></stim_listA>",is seducing,,,,,,
null,"<div style=""font-size:60px;"">+</div>",,html-keyboard-response,278,1751753,0.0-17.0-0.13,89965,List1A,white,man,,,,null,,,,,,,,,
null,"<img src=""stim_listA/look2.gif""style=""height:400px;""></stim_listA>",,html-keyboard-response,279,1753766,0.0-17.0-1.13,89965,List1A,white,man,,,,null,,,,,,,,,
null,is being looked at by,,html-keyboard-response,280,1755774,0.0-17.0-2.13,89965,List1A,white,man,,,,null,,,,,,,,,
15147.1,,,survey-text,281,1770926,0.0-17.0-3.13,89965,List1A,white,man,,,,,"{""Q0"":""kate ias looked at by kate""}","<img src=""stim_listA/look2.gif""style=""height:400px;""></stim_listA>",is being looked at by,,,,,,
null,"<div style=""font-size:60px;"">+</div>",,html-keyboard-response,282,1771438,0.0-17.0-0.14,89965,List1A,white,man,,,,null,,,,,,,,,
null,"<img src=""stim_listA/look6.gif""style=""height:400px;""></stim_listA>",,html-keyboard-response,283,1773447,0.0-17.0-1.14,89965,List1A,white,man,,,,null,,,,,,,,,
null,is being looked at by,,html-keyboard-response,284,1775463,0.0-17.0-2.14,89965,List1A,white,man,,,,null,,,,,,,,,
20161.1,,,survey-text,285,1795629,0.0-17.0-3.14,89965,List1A,white,man,,,,,"{""Q0"":""mike is looked by dave""}","<img src=""stim_listA/look6.gif""style=""height:400px;""></stim_listA>",is being looked at by,,,,,,
null,"<div style=""font-size:60px;"">+</div>",,html-keyboard-response,286,1796135,0.0-17.0-0.15,89965,List1A,white,man,,,,null,,,,,,,,,
null,"<img src=""stim_listA/oppose2.gif""style=""height:400px;""></stim_listA>",,html-keyboard-response,287,1798149,0.0-17.0-1.15,89965,List1A,white,man,,,,null,,,,,,,,,
null,is being opposed by,,html-keyboard-response,288,1800155,0.0-17.0-2.15,89965,List1A,white,man,,,,null,,,,,,,,,
12533.9,,,survey-text,289,1812693,0.0-17.0-3.15,89965,List1A,white,man,,,,,"{""Q0"":""beth is opposed by fred ""}","<img src=""stim_listA/oppose2.gif""style=""height:400px;""></stim_listA>",is being opposed by,,,,,,
null,"<div style=""font-size:60px;"">+</div>",,html-keyboard-response,290,1813196,0.0-17.0-0.16,89965,List1A,white,man,,,,null,,,,,,,,,
null,"<img src=""stim_listA/hug2.gif""style=""height:400px;""></stim_listA>",,html-keyboard-response,291,1815204,0.0-17.0-1.16,89965,List1A,white,man,,,,null,,,,,,,,,
null,is being hugged by,,html-keyboard-response,292,1817216,0.0-17.0-2.16,89965,List1A,white,man,,,,null,,,,,,,,,
12844,,,survey-text,293,1830065,0.0-17.0-3.16,89965,List1A,white,man,,,,,"{""Q0"":""kate is hugged by mike""}","<img src=""stim_listA/hug2.gif""style=""height:400px;""></stim_listA>",is being hugged by,,,,,,
null,"<div style=""font-size:60px;"">+</div>",,html-keyboard-response,294,1830580,0.0-17.0-0.17,89965,List1A,white,man,,,,null,,,,,,,,,
null,"<img src=""stim_listA/touch6.gif""style=""height:400px;""></stim_listA>",,html-keyboard-response,295,1832595,0.0-17.0-1.17,89965,List1A,white,man,,,,null,,,,,,,,,
null,is being touched by,,html-keyboard-response,296,1834609,0.0-17.0-2.17,89965,List1A,white,man,,,,null,,,,,,,,,
12806.2,,,survey-text,297,1847420,0.0-17.0-3.17,89965,List1A,white,man,,,,,"{""Q0"":""luke is touched by fred""}","<img src=""stim_listA/touch6.gif""style=""height:400px;""></stim_listA>",is being touched by,,,,,,
null,"<div style=""font-size:60px;"">+</div>",,html-keyboard-response,298,1847923,0.0-17.0-0.18,89965,List1A,white,man,,,,null,,,,,,,,,
null,"<img src=""stim_listA/touch8.gif""style=""height:400px;""></stim_listA>",,html-keyboard-response,299,1849933,0.0-17.0-1.18,89965,List1A,white,man,,,,null,,,,,,,,,
null,is being touched by,,html-keyboard-response,300,1851939,0.0-17.0-2.18,89965,List1A,white,man,,,,null,,,,,,,,,
25069,,,survey-text,301,1877017,0.0-17.0-3.18,89965,List1A,white,man,,,,,"{""Q0"":""ruth is touched by beth ""}","<img src=""stim_listA/touch8.gif""style=""height:400px;""></stim_listA>",is being touched by,,,,,,
null,"<div style=""font-size:60px;"">+</div>",,html-keyboard-response,302,1877528,0.0-17.0-0.19,89965,List1A,white,man,,,,null,,,,,,,,,
null,"<img src=""stim_listA/copy8.gif""style=""height:400px;""></stim_listA>",,html-keyboard-response,303,1879530,0.0-17.0-1.19,89965,List1A,white,man,,,,null,,,,,,,,,
null,is being copied by,,html-keyboard-response,304,1881539,0.0-17.0-2.19,89965,List1A,white,man,,,,null,,,,,,,,,
12665.1,,,survey-text,305,1894209,0.0-17.0-3.19,89965,List1A,white,man,,,,,"{""Q0"":""beth is copied by jane""}","<img src=""stim_listA/copy8.gif""style=""height:400px;""></stim_listA>",is being copied by,,,,,,
2006,"<img src='img/portrait_matrix_list1.jpg' style='width:900px;height:500px;''></img><p>If you have memorised all the portraits and names and are ready to start, press Continue.</p><p><strong>Please note: Your memory of these faces will be tested 4 times during this experiment.</strong></p>",0,html-button-response,306,1896217,0.0-18.0-0.0,89965,List1A,white,man,,,,,,,,,,,,,
3595.8,"<img src=""portrait/WM2.jpg""style=""height:400px;""></img>",7,html-button-response,307,1900817,0.0-18.0-1.0,89965,List1A,white,man,,TRUE,7,,,,,,,,,,
null,CORRECT,,html-keyboard-response,308,1902343,0.0-18.0-2.0-0.0,89965,List1A,white,man,,,,null,,,,,,,,,
4718.9,"<img src=""portrait/WM1.jpg""style=""height:400px;""></img>",6,html-button-response,309,1907065,0.0-18.0-4.0,89965,List1A,white,man,,TRUE,6,,,,,,,,,,
null,CORRECT,,html-keyboard-response,310,1908570,0.0-18.0-5.0-0.0,89965,List1A,white,man,,,,null,,,,,,,,,
3891.8,"<img src=""portrait/BM1.jpg""style=""height:400px;""></img>",4,html-button-response,311,1912465,0.0-18.0-7.0,89965,List1A,white,man,,TRUE,4,,,,,,,,,,
null,CORRECT,,html-keyboard-response,312,1913981,0.0-18.0-8.0-0.0,89965,List1A,white,man,,,,null,,,,,,,,,
2664.5,"<img src=""portrait/WW2.jpg""style=""height:400px;""></img>",3,html-button-response,313,1916649,0.0-18.0-10.0,89965,List1A,white,man,,TRUE,3,,,,,,,,,,
null,CORRECT,,html-keyboard-response,314,1918164,0.0-18.0-11.0-0.0,89965,List1A,white,man,,,,null,,,,,,,,,
4017.7,"<img src=""portrait/WW1.jpg""style=""height:400px;""></img>",1,html-button-response,315,1922184,0.0-18.0-13.0,89965,List1A,white,man,,TRUE,1,,,,,,,,,,
null,CORRECT,,html-keyboard-response,316,1923698,0.0-18.0-14.0-0.0,89965,List1A,white,man,,,,null,,,,,,,,,
3156.8,"<img src=""portrait/BM2.jpg""style=""height:400px;""></img>",5,html-button-response,317,1926857,0.0-18.0-16.0,89965,List1A,white,man,,TRUE,5,,,,,,,,,,
null,CORRECT,,html-keyboard-response,318,1928364,0.0-18.0-17.0-0.0,89965,List1A,white,man,,,,null,,,,,,,,,
2137.8,"<img src=""portrait/BW2.jpg""style=""height:400px;""></img>",2,html-button-response,319,1930504,0.0-18.0-19.0,89965,List1A,white,man,,TRUE,2,,,,,,,,,,
null,CORRECT,,html-keyboard-response,320,1932026,0.0-18.0-20.0-0.0,89965,List1A,white,man,,,,null,,,,,,,,,
3618.8,"<img src=""portrait/BW1.jpg""style=""height:400px;""></img>",0,html-button-response,321,1935648,0.0-18.0-22.0,89965,List1A,white,man,,TRUE,0,,,,,,,,,,
null,CORRECT,,html-keyboard-response,322,1937159,0.0-18.0-23.0-0.0,89965,List1A,white,man,,,,null,,,,,,,,,
1079,<p>You got 8 out of 8 right first time. Press Continue.</p>,0,html-button-response,323,1938239,0.0-18.0-25.0,89965,List1A,white,man,,,,,,,,,,,,,
null,"<div style=""font-size:60px;"">+</div>",,html-keyboard-response,324,1939743,0.0-19.0-0.0,89965,List1A,white,man,,,,null,,,,,,,,,
null,"<img src=""stim_listA/challenge2.gif""style=""height:400px;""></stim_listA>",,html-keyboard-response,325,1941747,0.0-19.0-1.0,89965,List1A,white,man,,,,null,,,,,,,,,
null,is being challenged by,,html-keyboard-response,326,1943751,0.0-19.0-2.0,89965,List1A,white,man,,,,null,,,,,,,,,
21846.5,,,survey-text,327,1965603,0.0-19.0-3.0,89965,List1A,white,man,,,,,"{""Q0"":""kate is being challenged by fred""}","<img src=""stim_listA/challenge2.gif""style=""height:400px;""></stim_listA>",is being challenged by,,,,,,
null,"<div style=""font-size:60px;"">+</div>",,html-keyboard-response,328,1966118,0.0-19.0-0.1,89965,List1A,white,man,,,,null,,,,,,,,,
null,"<img src=""stim_listA/shout2.gif""style=""height:400px;""></stim_listA>",,html-keyboard-response,329,1968120,0.0-19.0-1.1,89965,List1A,white,man,,,,null,,,,,,,,,
null,is being shouted at by,,html-keyboard-response,330,1970121,0.0-19.0-2.1,89965,List1A,white,man,,,,null,,,,,,,,,
59729.9,,,survey-text,331,2029854,0.0-19.0-3.1,89965,List1A,white,man,,,,,"{""Q0"":""fred is touched by kate""}","<img src=""stim_listA/shout2.gif""style=""height:400px;""></stim_listA>",is being shouted at by,,,,,,
null,"<div style=""font-size:60px;"">+</div>",,html-keyboard-response,332,2030361,0.0-19.0-0.2,89965,List1A,white,man,,,,null,,,,,,,,,
null,"<img src=""stim_listA/hug7.gif""style=""height:400px;""></stim_listA>",,html-keyboard-response,333,2032365,0.0-19.0-1.2,89965,List1A,white,man,,,,null,,,,,,,,,
null,is hugging,,html-keyboard-response,334,2034373,0.0-19.0-2.2,89965,List1A,white,man,,,,null,,,,,,,,,
22851.1,,,survey-text,335,2057231,0.0-19.0-3.2,89965,List1A,white,man,,,,,"{""Q0"":""beth is hugged by ruth""}","<img src=""stim_listA/hug7.gif""style=""height:400px;""></stim_listA>",is hugging,,,,,,
null,"<div style=""font-size:60px;"">+</div>",,html-keyboard-response,336,2057744,0.0-19.0-0.3,89965,List1A,white,man,,,,null,,,,,,,,,
null,"<img src=""stim_listA/shout6.gif""style=""height:400px;""></stim_listA>",,html-keyboard-response,337,2059754,0.0-19.0-1.3,89965,List1A,white,man,,,,null,,,,,,,,,
null,is being shouted at by,,html-keyboard-response,338,2061761,0.0-19.0-2.3,89965,List1A,white,man,,,,null,,,,,,,,,
20128.3,,,survey-text,339,2081893,0.0-19.0-3.3,89965,List1A,white,man,,,,,"{""Q0"":""dave is shouting at mike ""}","<img src=""stim_listA/shout6.gif""style=""height:400px;""></stim_listA>",is being shouted at by,,,,,,
null,"<div style=""font-size:60px;"">+</div>",,html-keyboard-response,340,2082403,0.0-19.0-0.4,89965,List1A,white,man,,,,null,,,,,,,,,
null,"<img src=""stim_listA/hug5.gif""style=""height:400px;""></stim_listA>",,html-keyboard-response,341,2084410,0.0-19.0-1.4,89965,List1A,white,man,,,,null,,,,,,,,,
null,is hugging,,html-keyboard-response,342,2086411,0.0-19.0-2.4,89965,List1A,white,man,,,,null,,,,,,,,,
15140.8,,,survey-text,343,2101555,0.0-19.0-3.4,89965,List1A,white,man,,,,,"{""Q0"":""fred is hugging luke ""}","<img src=""stim_listA/hug5.gif""style=""height:400px;""></stim_listA>",is hugging,,,,,,
null,"<div style=""font-size:60px;"">+</div>",,html-keyboard-response,344,2102058,0.0-19.0-0.5,89965,List1A,white,man,,,,null,,,,,,,,,
null,"<img src=""stim_listA/greet4.gif""style=""height:400px;""></stim_listA>",,html-keyboard-response,345,2104061,0.0-19.0-1.5,89965,List1A,white,man,,,,null,,,,,,,,,
null,is being greeted by,,html-keyboard-response,346,2106066,0.0-19.0-2.5,89965,List1A,white,man,,,,null,,,,,,,,,
13920.2,,,survey-text,347,2119989,0.0-19.0-3.5,89965,List1A,white,man,,,,,"{""Q0"":""luke is greeted by jane""}","<img src=""stim_listA/greet4.gif""style=""height:400px;""></stim_listA>",is being greeted by,,,,,,
null,"<div style=""font-size:60px;"">+</div>",,html-keyboard-response,348,2120493,0.0-19.0-0.6,89965,List1A,white,man,,,,null,,,,,,,,,
null,"<img src=""stim_listA/challenge4.gif""style=""height:400px;""></stim_listA>",,html-keyboard-response,349,2122504,0.0-19.0-1.6,89965,List1A,white,man,,,,null,,,,,,,,,
null,is being challenged by,,html-keyboard-response,350,2124508,0.0-19.0-2.6,89965,List1A,white,man,,,,null,,,,,,,,,
12864.2,,,survey-text,351,2137377,0.0-19.0-3.6,89965,List1A,white,man,,,,,"{""Q0"":""jane is challenged by luke ""}","<img src=""stim_listA/challenge4.gif""style=""height:400px;""></stim_listA>",is being challenged by,,,,,,
null,"<div style=""font-size:60px;"">+</div>",,html-keyboard-response,352,2137891,0.0-19.0-0.7,89965,List1A,white,man,,,,null,,,,,,,,,
null,"<img src=""stim_listA/shout3.gif""style=""height:400px;""></stim_listA>",,html-keyboard-response,353,2139901,0.0-19.0-1.7,89965,List1A,white,man,,,,null,,,,,,,,,
null,is shouting at,,html-keyboard-response,354,2141914,0.0-19.0-2.7,89965,List1A,white,man,,,,null,,,,,,,,,
16823.2,,,survey-text,355,2158743,0.0-19.0-3.7,89965,List1A,white,man,,,,,"{""Q0"":""luke is shoutedc by ruth""}","<img src=""stim_listA/shout3.gif""style=""height:400px;""></stim_listA>",is shouting at,,,,,,
null,"<div style=""font-size:60px;"">+</div>",,html-keyboard-response,356,2159259,0.0-19.0-0.8,89965,List1A,white,man,,,,null,,,,,,,,,
null,"<img src=""stim_listA/look8.gif""style=""height:400px;""></stim_listA>",,html-keyboard-response,357,2161264,0.0-19.0-1.8,89965,List1A,white,man,,,,null,,,,,,,,,
null,is being looked at by,,html-keyboard-response,358,2163267,0.0-19.0-2.8,89965,List1A,white,man,,,,null,,,,,,,,,
11967.9,,,survey-text,359,2175238,0.0-19.0-3.8,89965,List1A,white,man,,,,,"{""Q0"":""jane is looked by kate ""}","<img src=""stim_listA/look8.gif""style=""height:400px;""></stim_listA>",is being looked at by,,,,,,
null,"<div style=""font-size:60px;"">+</div>",,html-keyboard-response,360,2175755,0.0-19.0-0.9,89965,List1A,white,man,,,,null,,,,,,,,,
null,"<img src=""stim_listA/touch2.gif""style=""height:400px;""></stim_listA>",,html-keyboard-response,361,2177762,0.0-19.0-1.9,89965,List1A,white,man,,,,null,,,,,,,,,
null,is being touched by,,html-keyboard-response,362,2179771,0.0-19.0-2.9,89965,List1A,white,man,,,,null,,,,,,,,,
14318,,,survey-text,363,2194093,0.0-19.0-3.9,89965,List1A,white,man,,,,,"{""Q0"":""fred is being touched by beth""}","<img src=""stim_listA/touch2.gif""style=""height:400px;""></stim_listA>",is being touched by,,,,,,
null,"<div style=""font-size:60px;"">+</div>",,html-keyboard-response,364,2194607,0.0-19.0-0.10,89965,List1A,white,man,,,,null,,,,,,,,,
null,"<img src=""stim_listA/copy1.gif""style=""height:400px;""></stim_listA>",,html-keyboard-response,365,2196617,0.0-19.0-1.10,89965,List1A,white,man,,,,null,,,,,,,,,
null,is copying,,html-keyboard-response,366,2198619,0.0-19.0-2.10,89965,List1A,white,man,,,,null,,,,,,,,,
11946.3,,,survey-text,367,2210571,0.0-19.0-3.10,89965,List1A,white,man,,,,,"{""Q0"":""beth is copying mike""}","<img src=""stim_listA/copy1.gif""style=""height:400px;""></stim_listA>",is copying,,,,,,
null,"<div style=""font-size:60px;"">+</div>",,html-keyboard-response,368,2211082,0.0-19.0-0.11,89965,List1A,white,man,,,,null,,,,,,,,,
null,"<img src=""stim_listA/oppose4.gif""style=""height:400px;""></stim_listA>",,html-keyboard-response,369,2213097,0.0-19.0-1.11,89965,List1A,white,man,,,,null,,,,,,,,,
null,is being opposed by,,html-keyboard-response,370,2215105,0.0-19.0-2.11,89965,List1A,white,man,,,,null,,,,,,,,,
14028.8,,,survey-text,371,2229137,0.0-19.0-3.11,89965,List1A,white,man,,,,,"{""Q0"":""ruth is opposed by luke ""}","<img src=""stim_listA/oppose4.gif""style=""height:400px;""></stim_listA>",is being opposed by,,,,,,
null,"<div style=""font-size:60px;"">+</div>",,html-keyboard-response,372,2229639,0.0-19.0-0.12,89965,List1A,white,man,,,,null,,,,,,,,,
null,"<img src=""stim_listA/greet2.gif""style=""height:400px;""></stim_listA>",,html-keyboard-response,373,2231645,0.0-19.0-1.12,89965,List1A,white,man,,,,null,,,,,,,,,
null,is being greeted by,,html-keyboard-response,374,2233649,0.0-19.0-2.12,89965,List1A,white,man,,,,null,,,,,,,,,
15036.6,,,survey-text,375,2248691,0.0-19.0-3.12,89965,List1A,white,man,,,,,"{""Q0"":""fred is being greeted by kate ""}","<img src=""stim_listA/greet2.gif""style=""height:400px;""></stim_listA>",is being greeted by,,,,,,
null,"<div style=""font-size:60px;"">+</div>",,html-keyboard-response,376,2249198,0.0-19.0-0.13,89965,List1A,white,man,,,,null,,,,,,,,,
null,"<img src=""stim_listA/kiss6.gif""style=""height:400px;""></stim_listA>",,html-keyboard-response,377,2251207,0.0-19.0-1.13,89965,List1A,white,man,,,,null,,,,,,,,,
null,is being kissed by,,html-keyboard-response,378,2253213,0.0-19.0-2.13,89965,List1A,white,man,,,,null,,,,,,,,,
20789.6,,,survey-text,379,2274007,0.0-19.0-3.13,89965,List1A,white,man,,,,,"{""Q0"":""mike is being kissed by dave""}","<img src=""stim_listA/kiss6.gif""style=""height:400px;""></stim_listA>",is being kissed by,,,,,,
null,"<div style=""font-size:60px;"">+</div>",,html-keyboard-response,380,2274511,0.0-19.0-0.14,89965,List1A,white,man,,,,null,,,,,,,,,
null,"<img src=""stim_listA/challenge7.gif""style=""height:400px;""></stim_listA>",,html-keyboard-response,381,2276517,0.0-19.0-1.14,89965,List1A,white,man,,,,null,,,,,,,,,
null,is challenging,,html-keyboard-response,382,2278523,0.0-19.0-2.14,89965,List1A,white,man,,,,null,,,,,,,,,
12944.9,,,survey-text,383,2291473,0.0-19.0-3.14,89965,List1A,white,man,,,,,"{""Q0"":""ruth is challenged by kate ""}","<img src=""stim_listA/challenge7.gif""style=""height:400px;""></stim_listA>",is challenging,,,,,,
null,"<div style=""font-size:60px;"">+</div>",,html-keyboard-response,384,2291981,0.0-19.0-0.15,89965,List1A,white,man,,,,null,,,,,,,,,
null,"<img src=""stim_listA/look7.gif""style=""height:400px;""></stim_listA>",,html-keyboard-response,385,2293993,0.0-19.0-1.15,89965,List1A,white,man,,,,null,,,,,,,,,
null,is looking at,,html-keyboard-response,386,2295999,0.0-19.0-2.15,89965,List1A,white,man,,,,null,,,,,,,,,
10300.3,,,survey-text,387,2306304,0.0-19.0-3.15,89965,List1A,white,man,,,,,"{""Q0"":""ruth is looked by beth""}","<img src=""stim_listA/look7.gif""style=""height:400px;""></stim_listA>",is looking at,,,,,,
null,"<div style=""font-size:60px;"">+</div>",,html-keyboard-response,388,2306806,0.0-19.0-0.16,89965,List1A,white,man,,,,null,,,,,,,,,
null,"<img src=""stim_listA/hug4.gif""style=""height:400px;""></stim_listA>",,html-keyboard-response,389,2308813,0.0-19.0-1.16,89965,List1A,white,man,,,,null,,,,,,,,,
null,is being hugged by,,html-keyboard-response,390,2310829,0.0-19.0-2.16,89965,List1A,white,man,,,,null,,,,,,,,,
21778.4,,,survey-text,391,2332617,0.0-19.0-3.16,89965,List1A,white,man,,,,,"{""Q0"":""jane is being hugged dave""}","<img src=""stim_listA/hug4.gif""style=""height:400px;""></stim_listA>",is being hugged by,,,,,,
null,"<div style=""font-size:60px;"">+</div>",,html-keyboard-response,392,2333133,0.0-19.0-0.17,89965,List1A,white,man,,,,null,,,,,,,,,
null,"<img src=""stim_listA/copy6.gif""style=""height:400px;""></stim_listA>",,html-keyboard-response,393,2335147,0.0-19.0-1.17,89965,List1A,white,man,,,,null,,,,,,,,,
null,is being copied by,,html-keyboard-response,394,2337158,0.0-19.0-2.17,89965,List1A,white,man,,,,null,,,,,,,,,
11354.8,,,survey-text,395,2348520,0.0-19.0-3.17,89965,List1A,white,man,,,,,"{""Q0"":""dave is copied by fred ""}","<img src=""stim_listA/copy6.gif""style=""height:400px;""></stim_listA>",is being copied by,,,,,,
null,"<div style=""font-size:60px;"">+</div>",,html-keyboard-response,396,2349029,0.0-19.0-0.18,89965,List1A,white,man,,,,null,,,,,,,,,
null,"<img src=""stim_listA/greet1.gif""style=""height:400px;""></stim_listA>",,html-keyboard-response,397,2351044,0.0-19.0-1.18,89965,List1A,white,man,,,,null,,,,,,,,,
null,is greeting,,html-keyboard-response,398,2353049,0.0-19.0-2.18,89965,List1A,white,man,,,,null,,,,,,,,,
16769.8,,,survey-text,399,2369824,0.0-19.0-3.18,89965,List1A,white,man,,,,,"{""Q0"":""mike is greeted by jane ""}","<img src=""stim_listA/greet1.gif""style=""height:400px;""></stim_listA>",is greeting,,,,,,
null,"<div style=""font-size:60px;"">+</div>",,html-keyboard-response,400,2370331,0.0-19.0-0.19,89965,List1A,white,man,,,,null,,,,,,,,,
null,"<img src=""stim_listA/oppose7.gif""style=""height:400px;""></stim_listA>",,html-keyboard-response,401,2372336,0.0-19.0-1.19,89965,List1A,white,man,,,,null,,,,,,,,,
null,is opposing,,html-keyboard-response,402,2374341,0.0-19.0-2.19,89965,List1A,white,man,,,,null,,,,,,,,,
13908.6,,,survey-text,403,2388256,0.0-19.0-3.19,89965,List1A,white,man,,,,,"{""Q0"":""jane is opposing kate""}","<img src=""stim_listA/oppose7.gif""style=""height:400px;""></stim_listA>",is opposing,,,,,,
6086.1,<p>Thank you for completing that task.</p><p>The final part of this session is a questionnaire that will take about 4 minutes.</p><p>Press Continue.</p>,0,html-button-response,404,2394346,0.0-20.0,89965,List1A,white,man,,,,,,,,,,,,,
73354,,,survey-text,405,2468712,0.0-21.0,89965,List1A,white,man,,,,,"{""Q0"":""31"",""Q1"":""English "",""Q2"":""English"",""Q3"":""united state of American "",""Q4"":""American "",""Q5"":""white "",""Q6"":""Male""}",,,demographics,,,,,
2995.2,<p>Have you lived in the USA for the last 5 years or more?</p>,0,html-button-response,406,2471711,0.0-22.0,89965,List1A,white,man,,,,,,,,fiveyears,,,,,
4156.1,<p>Move the slider to show the extent to which you agree with the following statements.</p>,0,html-button-response,407,2476871,0.0-23.0,89965,List1A,white,man,,,,,,,,,,,,,
9219.5,,,html-slider-response,408,2487095,0.0-24.0-0.0-0.0,89965,List1A,white,man,,,,,,,,survey_gender,41,,,Most of the friends in my life are very similar to me.,filler
4029.2,,,html-slider-response,409,2491127,0.0-24.0-0.0-0.1,89965,List1A,white,man,,,,,,,,survey_gender,81,,,It is pleasant to be my gender.,pleasant
4588.4,,,html-slider-response,410,2495718,0.0-24.0-0.0-0.2,89965,List1A,white,man,,,,,,,,survey_gender,72,,,It is not always easy for people to know what I am thinking.,filler
4942,,,html-slider-response,411,2500662,0.0-24.0-0.0-0.3,89965,List1A,white,man,,,,,,,,survey_gender,63,,,Being around my friends gives me a good feeling.,filler
3421.4,,,html-slider-response,412,2504086,0.0-24.0-0.0-0.4,89965,List1A,white,man,,,,,,,,survey_gender,74,,,I consider myself a highly empathetic person.,filler
4365.9,,,html-slider-response,413,2508455,0.0-24.0-0.0-0.5,89965,List1A,white,man,,,,,,,,survey_gender,61,,,I am similar to the average person of my gender.,similar
4813,,,html-slider-response,414,2513270,0.0-24.0-0.0-0.6,89965,List1A,white,man,,,,,,,,survey_gender,58,,,I often think about the fact that I am my gender.,often
5981,,,html-slider-response,415,2519254,0.0-24.0-0.0-0.7,89965,List1A,white,man,,,,,,,,survey_gender,27,,,Family is not more important to me than friendship.,filler
4997,,,html-slider-response,416,2524254,0.0-24.0-0.0-0.8,89965,List1A,white,man,,,,,,,,survey_gender,58,,,I feel a bond with my gender.,bond
4596.9,,,html-slider-response,417,2528854,0.0-24.0-0.0-0.9,89965,List1A,white,man,,,,,,,,survey_gender,56,,,I am glad to be my gender.,glad
5221.2,,,html-slider-response,418,2534077,0.0-24.0-0.0-0.10,89965,List1A,white,man,,,,,,,,survey_gender,67,,,I feel solidarity with my friends.,filler
3277.7,,,html-slider-response,419,2537357,0.0-24.0-0.0-0.11,89965,List1A,white,man,,,,,,,,survey_gender,66,,,My friends have a lot in common with each other.,filler
3165.6,,,html-slider-response,420,2540525,0.0-24.0-0.0-0.12,89965,List1A,white,man,,,,,,,,survey_gender,63,,,I feel committed to my gender.,committed
2478.2,,,html-slider-response,421,2543005,0.0-24.0-0.0-0.13,89965,List1A,white,man,,,,,,,,survey_gender,64,,,People of my gender have a lot in common with each other.,common
2797.6,,,html-slider-response,422,2545805,0.0-24.0-0.0-0.14,89965,List1A,white,man,,,,,,,,survey_gender,63,,,I have a lot in common with the average person of my gender.,average
2973.8,,,html-slider-response,423,2548782,0.0-24.0-0.0-0.15,89965,List1A,white,man,,,,,,,,survey_gender,61,,,I think that my gender has a lot to be proud of.,proud
2814.6,,,html-slider-response,424,2551598,0.0-24.0-0.0-0.16,89965,List1A,white,man,,,,,,,,survey_gender,61,,,Routine is not important to me.,filler
2860.1,,,html-slider-response,425,2554460,0.0-24.0-0.0-0.17,89965,List1A,white,man,,,,,,,,survey_gender,61,,,Being my gender gives me a good feeling.,feeling
2782.4,,,html-slider-response,426,2557245,0.0-24.0-0.0-0.18,89965,List1A,white,man,,,,,,,,survey_gender,58,,,My friends understand me.,filler
2038,,,html-slider-response,427,2559285,0.0-24.0-0.0-0.19,89965,List1A,white,man,,,,,,,,survey_gender,64,,,I feel solidarity with my gender.,solidarity
1813.6,,,html-slider-response,428,2561101,0.0-24.0-0.0-0.20,89965,List1A,white,man,,,,,,,,survey_gender,68,,,I have a lot in common with my friends.,filler
1822.4,,,html-slider-response,429,2562925,0.0-24.0-0.0-0.21,89965,List1A,white,man,,,,,,,,survey_gender,67,,,The fact that I am my gender is an important part of my identity.,identity
1765.5,,,html-slider-response,430,2564693,0.0-24.0-0.0-0.22,89965,List1A,white,man,,,,,,,,survey_gender,60,,,I often think about my actions.,filler
2534.2,,,html-slider-response,431,2567228,0.0-24.0-0.0-0.23,89965,List1A,white,man,,,,,,,,survey_gender,63,,,I feel a bond with my friends.,filler
1621.3,,,html-slider-response,432,2568852,0.0-24.0-0.0-0.24,89965,List1A,white,man,,,,,,,,survey_gender,63,,,I am glad to have the friends that I have.,filler
2590.8,,,html-slider-response,433,2571444,0.0-24.0-0.0-0.25,89965,List1A,white,man,,,,,,,,survey_gender,59,,,I would say I am an animal person.,filler
2189.3,,,html-slider-response,434,2573636,0.0-24.0-0.0-0.26,89965,List1A,white,man,,,,,,,,survey_gender,59,,,People of my gender are very similar to each other.,verysimilar
2022.1,,,html-slider-response,435,2575660,0.0-24.0-0.0-0.27,89965,List1A,white,man,,,,,,,,survey_gender,60,,,Being my gender is an important part of how I see myself.,important
1646.2,,,html-slider-response,436,2577308,0.0-24.0-1.0-0.0,89965,List1A,white,man,,,,,,,,survey_race,65,,,The fact that I am my race is an important part of my identity.,identity
7294.4,,,html-slider-response,437,2584604,0.0-24.0-1.0-0.1,89965,List1A,white,man,,,,,,,,survey_race,63,,,I think that my race has a lot to be proud of.,proud
3165.6,,,html-slider-response,438,2587772,0.0-24.0-1.0-0.2,89965,List1A,white,man,,,,,,,,survey_race,59,,,Getting older does not worry me.,filler
2005.8,,,html-slider-response,439,2589780,0.0-24.0-1.0-0.3,89965,List1A,white,man,,,,,,,,survey_race,56,,,People of my race have a lot in common with each other.,common
6645.8,,,html-slider-response,440,2596428,0.0-24.0-1.0-0.4,89965,List1A,white,man,,,,,,,,survey_race,60,,,Being my race is an important part of how I see myself.,important
1804.9,,,html-slider-response,441,2598235,0.0-24.0-1.0-0.5,89965,List1A,white,man,,,,,,,,survey_race,57,,,I feel solidarity with my race.,solidarity
2078.1,,,html-slider-response,442,2600315,0.0-24.0-1.0-0.6,89965,List1A,white,man,,,,,,,,survey_race,63,,,Being my race gives me a good feeling.,feeling
2486.3,,,html-slider-response,443,2602803,0.0-24.0-1.0-0.7,89965,List1A,white,man,,,,,,,,survey_race,64,,,People my age have a lot in common with each other.,filler
1613.9,,,html-slider-response,444,2604419,0.0-24.0-1.0-0.8,89965,List1A,white,man,,,,,,,,survey_race,63,,,"The older I get, the wiser I feel.",filler
2221.7,,,html-slider-response,445,2606644,0.0-24.0-1.0-0.9,89965,List1A,white,man,,,,,,,,survey_race,62,,,I am glad to be the age I am.,filler
1622.1,,,html-slider-response,446,2608268,0.0-24.0-1.0-0.10,89965,List1A,white,man,,,,,,,,survey_race,57,,,I consider myself an extrovert.,filler
2877.5,,,html-slider-response,447,2611147,0.0-24.0-1.0-0.11,89965,List1A,white,man,,,,,,,,survey_race,58,,,I feel a bond with people the same age as me.,filler
9486.9,,,html-slider-response,448,2620636,0.0-24.0-1.0-0.12,89965,List1A,white,man,,,,,,,,survey_race,43,,,I consider myself an introvert.,filler
1804.5,,,html-slider-response,449,2622443,0.0-24.0-1.0-0.13,89965,List1A,white,man,,,,,,,,survey_race,55,,,I feel committed to my race.,committed
2638.1,,,html-slider-response,450,2625083,0.0-24.0-1.0-0.14,89965,List1A,white,man,,,,,,,,survey_race,60,,,I am glad to be my age.,filler
1789.6,,,html-slider-response,451,2626875,0.0-24.0-1.0-0.15,89965,List1A,white,man,,,,,,,,survey_race,61,,,I often think about the fact that I am my race.,often
1382.6,,,html-slider-response,452,2628259,0.0-24.0-1.0-0.16,89965,List1A,white,man,,,,,,,,survey_race,60,,,Being my age gives me a good feeling.,filler
1742,,,html-slider-response,453,2630003,0.0-24.0-1.0-0.17,89965,List1A,white,man,,,,,,,,survey_race,59,,,I am glad to be my race.,glad
2606.2,,,html-slider-response,454,2632611,0.0-24.0-1.0-0.18,89965,List1A,white,man,,,,,,,,survey_race,58,,,I feel a bond with my race.,bond
3750.3,,,html-slider-response,455,2636363,0.0-24.0-1.0-0.19,89965,List1A,white,man,,,,,,,,survey_race,58,,,I often think about the fact that I am my age.,filler
3164.6,,,html-slider-response,456,2639531,0.0-24.0-1.0-0.20,89965,List1A,white,man,,,,,,,,survey_race,55,,,It is pleasant to be my race.,pleasant
1947.6,,,html-slider-response,457,2641482,0.0-24.0-1.0-0.21,89965,List1A,white,man,,,,,,,,survey_race,57,,,I have a lot in common with people of a similar age to me.,filler
2366.2,,,html-slider-response,458,2643850,0.0-24.0-1.0-0.22,89965,List1A,white,man,,,,,,,,survey_race,58,,,I have a lot in common with the average person of my race.,average
1581.5,,,html-slider-response,459,2645434,0.0-24.0-1.0-0.23,89965,List1A,white,man,,,,,,,,survey_race,62,,,I am similar to the average person of my race.,similar
1790.2,,,html-slider-response,460,2647227,0.0-24.0-1.0-0.24,89965,List1A,white,man,,,,,,,,survey_race,64,,,My age is not an important part of who I am.,filler
1662,,,html-slider-response,461,2648890,0.0-24.0-1.0-0.25,89965,List1A,white,man,,,,,,,,survey_race,62,,,People of my race are very similar to each other.,verysimilar
1238.1,,,html-slider-response,462,2650130,0.0-24.0-1.0-0.26,89965,List1A,white,man,,,,,,,,survey_race,64,,,I feel solidarity with people the same age as me.,filler
1566.3,,,html-slider-response,463,2651698,0.0-24.0-1.0-0.27,89965,List1A,white,man,,,,,,,,survey_race,62,,,I enjoy being in large groups.,filler
3453,,,survey-text,464,2655155,0.0-25.0,89965,List1A,white,man,,,,,"{""Q0"":""ccc""}",,,worker_id,,,,,
4723.9,,,external-html,465,2663562,0.0-26.0,89965,List1A,white,man,debrief.html,,,,,,,,,,,,
