"rt","stimulus","button_pressed","trial_type","trial_index","time_elapsed","internal_node_id","subject","list","ppt_race","ppt_gender","url","first_guess","correct","key_press","responses","image_type","phrase_type","test_part","response","stimulus1","stimulus2","question_type","survey_item"
"95934.39999999106","Welcome to the experiment. Press Continue to begin.","0","html-button-response","0","95948","0.0-0.0","90084","List2B","black","woman","","","","","","","","","","","","",""
"4035.699999988079","","","external-html","1","102772","0.0-1.0","90084","List2B","black","woman","consent.html","","","","","","","","","","","",""
"36828","<p>On the next page, you will see portraits of 8 people and their names.</p><p>Your first task is to take a few minutes to memorise the names of these people.</p><p>You will have to recall their names during the rest of the experiment, so it is</p><p>essential that you try to memorise these people and their names as best as you can.</p><br><p><strong>You will then be tested on your memory of these names and portraits.</strong></p><br><p>The experiment will start after you have completed this memory test.</p><br><p>Ready?</p>","0","html-button-response","2","139603","0.0-2.0","90084","List2B","black","woman","","","","","","","","","","","","",""
"50803.30000001192","<img src='img/portrait_matrix_list2.jpg' style='width:900px;height:500px;''></img><p>If you have memorised all the portraits and names and are ready to start, press Continue.</p><p><strong>Please note: Your memory of these faces will be tested 4 times during this experiment.</strong></p>","0","html-button-response","3","191411","0.0-3.0-0.0","90084","List2B","black","woman","","","","","","","","","","","","",""
"19540.89999999106","<img src=""portrait/BM1.jpg""style=""height:400px;""></img>","4","html-button-response","4","211955","0.0-3.0-1.0","90084","List2B","black","woman","","true","4","","","","","","","","","",""
"null","CORRECT","","html-keyboard-response","5","213477","0.0-3.0-2.0-0.0","90084","List2B","black","woman","","","","null","","","","","","","","",""
"21218.90000000596","<img src=""portrait/BW1.jpg""style=""height:400px;""></img>","0","html-button-response","6","234699","0.0-3.0-4.0","90084","List2B","black","woman","","true","0","","","","","","","","","",""
"null","CORRECT","","html-keyboard-response","7","236214","0.0-3.0-5.0-0.0","90084","List2B","black","woman","","","","null","","","","","","","","",""
"7274.800000011921","<img src=""portrait/BW2.jpg""style=""height:400px;""></img>","2","html-button-response","8","243491","0.0-3.0-7.0","90084","List2B","black","woman","","true","2","","","","","","","","","",""
"null","CORRECT","","html-keyboard-response","9","245010","0.0-3.0-8.0-0.0","90084","List2B","black","woman","","","","null","","","","","","","","",""
"7407","<img src=""portrait/WW1.jpg""style=""height:400px;""></img>","1","html-button-response","10","252419","0.0-3.0-10.0","90084","List2B","black","woman","","true","1","","","","","","","","","",""
"null","CORRECT","","html-keyboard-response","11","253933","0.0-3.0-11.0-0.0","90084","List2B","black","woman","","","","null","","","","","","","","",""
"11628.10000000894","<img src=""portrait/WM1.jpg""style=""height:400px;""></img>","6","html-button-response","12","265563","0.0-3.0-13.0","90084","List2B","black","woman","","true","6","","","","","","","","","",""
"null","CORRECT","","html-keyboard-response","13","267076","0.0-3.0-14.0-0.0","90084","List2B","black","woman","","","","null","","","","","","","","",""
"7485.100000008941","<img src=""portrait/BM2.jpg""style=""height:400px;""></img>","5","html-button-response","14","274563","0.0-3.0-16.0","90084","List2B","black","woman","","true","5","","","","","","","","","",""
"null","CORRECT","","html-keyboard-response","15","276066","0.0-3.0-17.0-0.0","90084","List2B","black","woman","","","","null","","","","","","","","",""
"24662.69999998808","<img src=""portrait/WW2.jpg""style=""height:400px;""></img>","3","html-button-response","16","300732","0.0-3.0-19.0","90084","List2B","black","woman","","true","3","","","","","","","","","",""
"null","CORRECT","","html-keyboard-response","17","302236","0.0-3.0-20.0-0.0","90084","List2B","black","woman","","","","null","","","","","","","","",""
"4916.9000000059605","<img src=""portrait/WM2.jpg""style=""height:400px;""></img>","7","html-button-response","18","307156","0.0-3.0-22.0","90084","List2B","black","woman","","true","7","","","","","","","","","",""
"null","CORRECT","","html-keyboard-response","19","308678","0.0-3.0-23.0-0.0","90084","List2B","black","woman","","","","null","","","","","","","","",""
"10170","<p>You got 8 out of 8 right first time. Press Continue.</p>","0","html-button-response","20","318851","0.0-3.0-25.0","90084","List2B","black","woman","","","","","","","","","","","","",""
"51630.80000001192","<p>In this experiment, you will view photographs of the people from the memory game interacting.</p><p>By using the <strong>exact</strong> phrase given <i>after</i> the photograph appears and recalling the correct names of the people in the photographs, form a sentence describing the interaction. You do not need to capitalise names.</p><p>Type your answer in the space provided. Please complete every sentence before moving onto the next trial.</p><p>You will only have a few seconds to memorise each given photograph and phrase before you can respond, so try your best to focus.</p><p>An example is given below. Press 'Continue' when you are ready.</p><img src='img/speaking_example.jpg' style='width:800px;height:460px;''></img>","0","html-button-response","21","371491","0.0-4.0","90084","List2B","black","woman","","","","","","","","","","","","",""
"6709.399999991059","<p>Before the experiment starts, you will watch two example trials. Press 'Continue'.</p>","0","html-button-response","22","379202","0.0-5.0","90084","List2B","black","woman","","","","","","","","","","","","",""
"null","<img src='img/play_eg.gif' style='height:400px;''></img>","","html-keyboard-response","23","382219","0.0-6.0","90084","List2B","black","woman","","","","null","","","","","","","","",""
"null","<p>is playing with</p>","","html-keyboard-response","24","384224","0.0-7.0","90084","List2B","black","woman","","","","null","","","","","","","","",""
"12528.5","<p><b>Answer:</b> jane is playing with ruth</p>","0","html-button-response","25","396754","0.0-8.0","90084","List2B","black","woman","","","","","","","","","","","","",""
"null","<img src='img/dance_eg.gif' style='height:400px;''></img>","","html-keyboard-response","26","399771","0.0-9.0","90084","List2B","black","woman","","","","null","","","","","","","","",""
"null","<p>is being entertained by</p>","","html-keyboard-response","27","401780","0.0-10.0","90084","List2B","black","woman","","","","null","","","","","","","","",""
"16828","<p><b>Answer:</b> fred is being entertained by mike</p>","0","html-button-response","28","418610","0.0-11.0","90084","List2B","black","woman","","","","","","","","","","","","",""
"11243.800000011921","<p>Ready to start the experiment?</p><br><p><strong>Remember to describe the picture using a full sentence,</strong></p><p><strong>that combines the names of the people with the <i>exact</i> phrase given.</strong></p><p><strong>To receive full payment you must do this correctly.</strong></p><p><strong> You do not need to capitalise names or use punctuation.</strong></p><br><p>Press 'Continue' to begin.</p>","0","html-button-response","29","430866","0.0-12.0","90084","List2B","black","woman","","","","","","","","","","","","",""
"null","<div style=""font-size:60px;"">+</div>","","html-keyboard-response","30","432384","0.0-13.0-0.0","90084","List2B","black","woman","","","","null","","","","","","","","",""
"null","<img src=""stim_listB/greet4.gif""style=""height:400px;""></stim_listB>","","html-keyboard-response","31","434400","0.0-13.0-1.0","90084","List2B","black","woman","","","","null","","","","","","","","",""
"null","is being greeted by","","html-keyboard-response","32","436405","0.0-13.0-2.0","90084","List2B","black","woman","","","","null","","","","","","","","",""
"22872.80000001192","","","survey-text","33","459283","0.0-13.0-3.0","90084","List2B","black","woman","","","","","{""Q0"":""fred is being greeted by kate""}","<img src=""stim_listB/greet4.gif""style=""height:400px;""></stim_listB>","is being greeted by","","","","","",""
"null","<div style=""font-size:60px;"">+</div>","","html-keyboard-response","34","459786","0.0-13.0-0.1","90084","List2B","black","woman","","","","null","","","","","","","","",""
"null","<img src=""stim_listB/hug2.gif""style=""height:400px;""></stim_listB>","","html-keyboard-response","35","461797","0.0-13.0-1.1","90084","List2B","black","woman","","","","null","","","","","","","","",""
"null","is being hugged by","","html-keyboard-response","36","463799","0.0-13.0-2.1","90084","List2B","black","woman","","","","null","","","","","","","","",""
"119728.09999999404","","","survey-text","37","583531","0.0-13.0-3.1","90084","List2B","black","woman","","","","","{""Q0"":"" dave is being hugged by jane""}","<img src=""stim_listB/hug2.gif""style=""height:400px;""></stim_listB>","is being hugged by","","","","","",""
"null","<div style=""font-size:60px;"">+</div>","","html-keyboard-response","38","584033","0.0-13.0-0.2","90084","List2B","black","woman","","","","null","","","","","","","","",""
"null","<img src=""stim_listB/oppose6.gif""style=""height:400px;""></stim_listB>","","html-keyboard-response","39","586037","0.0-13.0-1.2","90084","List2B","black","woman","","","","null","","","","","","","","",""
"null","is being opposed by","","html-keyboard-response","40","588043","0.0-13.0-2.2","90084","List2B","black","woman","","","","null","","","","","","","","",""
"25011.70000000298","","","survey-text","41","613059","0.0-13.0-3.2","90084","List2B","black","woman","","","","","{""Q0"":""luke is being opposed by fred""}","<img src=""stim_listB/oppose6.gif""style=""height:400px;""></stim_listB>","is being opposed by","","","","","",""
"null","<div style=""font-size:60px;"">+</div>","","html-keyboard-response","42","613561","0.0-13.0-0.3","90084","List2B","black","woman","","","","null","","","","","","","","",""
"null","<img src=""stim_listB/challenge2.gif""style=""height:400px;""></stim_listB>","","html-keyboard-response","43","615569","0.0-13.0-1.3","90084","List2B","black","woman","","","","null","","","","","","","","",""
"null","is being challenged by","","html-keyboard-response","44","617584","0.0-13.0-2.3","90084","List2B","black","woman","","","","null","","","","","","","","",""
"17335.5","","","survey-text","45","634923","0.0-13.0-3.3","90084","List2B","black","woman","","","","","{""Q0"":""luke is being challenged by jane""}","<img src=""stim_listB/challenge2.gif""style=""height:400px;""></stim_listB>","is being challenged by","","","","","",""
"null","<div style=""font-size:60px;"">+</div>","","html-keyboard-response","46","635426","0.0-13.0-0.4","90084","List2B","black","woman","","","","null","","","","","","","","",""
"null","<img src=""stim_listB/seduce6.gif""style=""height:400px;""></stim_listB>","","html-keyboard-response","47","637429","0.0-13.0-1.4","90084","List2B","black","woman","","","","null","","","","","","","","",""
"null","is being seduced by","","html-keyboard-response","48","639431","0.0-13.0-2.4","90084","List2B","black","woman","","","","null","","","","","","","","",""
"36031.70000000298","","","survey-text","49","675468","0.0-13.0-3.4","90084","List2B","black","woman","","","","","{""Q0"":""dave is being seduced by fred""}","<img src=""stim_listB/seduce6.gif""style=""height:400px;""></stim_listB>","is being seduced by","","","","","",""
"null","<div style=""font-size:60px;"">+</div>","","html-keyboard-response","50","675971","0.0-13.0-0.5","90084","List2B","black","woman","","","","null","","","","","","","","",""
"null","<img src=""stim_listB/shout4.gif""style=""height:400px;""></stim_listB>","","html-keyboard-response","51","677988","0.0-13.0-1.5","90084","List2B","black","woman","","","","null","","","","","","","","",""
"null","is being shouted at by","","html-keyboard-response","52","679990","0.0-13.0-2.5","90084","List2B","black","woman","","","","null","","","","","","","","",""
"21921.29999999702","","","survey-text","53","701914","0.0-13.0-3.5","90084","List2B","black","woman","","","","","{""Q0"":""mike was being shouted at by kate""}","<img src=""stim_listB/shout4.gif""style=""height:400px;""></stim_listB>","is being shouted at by","","","","","",""
"null","<div style=""font-size:60px;"">+</div>","","html-keyboard-response","54","702431","0.0-13.0-0.6","90084","List2B","black","woman","","","","null","","","","","","","","",""
"null","<img src=""stim_listB/hug4.gif""style=""height:400px;""></stim_listB>","","html-keyboard-response","55","704441","0.0-13.0-1.6","90084","List2B","black","woman","","","","null","","","","","","","","",""
"null","is being hugged by","","html-keyboard-response","56","706443","0.0-13.0-2.6","90084","List2B","black","woman","","","","null","","","","","","","","",""
"17901","","","survey-text","57","724348","0.0-13.0-3.6","90084","List2B","black","woman","","","","","{""Q0"":""mike was being hugged by kate""}","<img src=""stim_listB/hug4.gif""style=""height:400px;""></stim_listB>","is being hugged by","","","","","",""
"null","<div style=""font-size:60px;"">+</div>","","html-keyboard-response","58","724852","0.0-13.0-0.7","90084","List2B","black","woman","","","","null","","","","","","","","",""
"null","<img src=""stim_listB/oppose2.gif""style=""height:400px;""></stim_listB>","","html-keyboard-response","59","726855","0.0-13.0-1.7","90084","List2B","black","woman","","","","null","","","","","","","","",""
"null","is being opposed by","","html-keyboard-response","60","728868","0.0-13.0-2.7","90084","List2B","black","woman","","","","null","","","","","","","","",""
"21947.29999999702","","","survey-text","61","750819","0.0-13.0-3.7","90084","List2B","black","woman","","","","","{""Q0"":""luke was being opposed by ruth""}","<img src=""stim_listB/oppose2.gif""style=""height:400px;""></stim_listB>","is being opposed by","","","","","",""
"null","<div style=""font-size:60px;"">+</div>","","html-keyboard-response","62","751334","0.0-13.0-0.8","90084","List2B","black","woman","","","","null","","","","","","","","",""
"null","<img src=""stim_listB/look3.gif""style=""height:400px;""></stim_listB>","","html-keyboard-response","63","753344","0.0-13.0-1.8","90084","List2B","black","woman","","","","null","","","","","","","","",""
"null","is looking at","","html-keyboard-response","64","755346","0.0-13.0-2.8","90084","List2B","black","woman","","","","null","","","","","","","","",""
"36189.40000000596","","","survey-text","65","791539","0.0-13.0-3.8","90084","List2B","black","woman","","","","","{""Q0"":""beth was looking at fred""}","<img src=""stim_listB/look3.gif""style=""height:400px;""></stim_listB>","is looking at","","","","","",""
"null","<div style=""font-size:60px;"">+</div>","","html-keyboard-response","66","792053","0.0-13.0-0.9","90084","List2B","black","woman","","","","null","","","","","","","","",""
"null","<img src=""stim_listB/oppose8.gif""style=""height:400px;""></stim_listB>","","html-keyboard-response","67","794070","0.0-13.0-1.9","90084","List2B","black","woman","","","","null","","","","","","","","",""
"null","is being opposed by","","html-keyboard-response","68","796086","0.0-13.0-2.9","90084","List2B","black","woman","","","","null","","","","","","","","",""
"29377.20000000298","","","survey-text","69","825467","0.0-13.0-3.9","90084","List2B","black","woman","","","","","{""Q0"":""ruth is being opposed by beth""}","<img src=""stim_listB/oppose8.gif""style=""height:400px;""></stim_listB>","is being opposed by","","","","","",""
"null","<div style=""font-size:60px;"">+</div>","","html-keyboard-response","70","825982","0.0-13.0-0.10","90084","List2B","black","woman","","","","null","","","","","","","","",""
"null","<img src=""stim_listB/look2.gif""style=""height:400px;""></stim_listB>","","html-keyboard-response","71","827985","0.0-13.0-1.10","90084","List2B","black","woman","","","","null","","","","","","","","",""
"null","is being looked at by","","html-keyboard-response","72","829995","0.0-13.0-2.10","90084","List2B","black","woman","","","","null","","","","","","","","",""
"29050.5","","","survey-text","73","859052","0.0-13.0-3.10","90084","List2B","black","woman","","","","","{""Q0"":""dave is being looked at by dave""}","<img src=""stim_listB/look2.gif""style=""height:400px;""></stim_listB>","is being looked at by","","","","","",""
"null","<div style=""font-size:60px;"">+</div>","","html-keyboard-response","74","859565","0.0-13.0-0.11","90084","List2B","black","woman","","","","null","","","","","","","","",""
"null","<img src=""stim_listB/kiss3.gif""style=""height:400px;""></stim_listB>","","html-keyboard-response","75","861571","0.0-13.0-1.11","90084","List2B","black","woman","","","","null","","","","","","","","",""
"null","is kissing","","html-keyboard-response","76","863573","0.0-13.0-2.11","90084","List2B","black","woman","","","","null","","","","","","","","",""
"12755","","","survey-text","77","876331","0.0-13.0-3.11","90084","List2B","black","woman","","","","","{""Q0"":""beth is kissing fred""}","<img src=""stim_listB/kiss3.gif""style=""height:400px;""></stim_listB>","is kissing","","","","","",""
"null","<div style=""font-size:60px;"">+</div>","","html-keyboard-response","78","876834","0.0-13.0-0.12","90084","List2B","black","woman","","","","null","","","","","","","","",""
"null","<img src=""stim_listB/challenge5.gif""style=""height:400px;""></stim_listB>","","html-keyboard-response","79","878837","0.0-13.0-1.12","90084","List2B","black","woman","","","","null","","","","","","","","",""
"null","is challenging","","html-keyboard-response","80","880839","0.0-13.0-2.12","90084","List2B","black","woman","","","","null","","","","","","","","",""
"13256.5","","","survey-text","81","894099","0.0-13.0-3.12","90084","List2B","black","woman","","","","","{""Q0"":""fred is challenging dave""}","<img src=""stim_listB/challenge5.gif""style=""height:400px;""></stim_listB>","is challenging","","","","","",""
"null","<div style=""font-size:60px;"">+</div>","","html-keyboard-response","82","894602","0.0-13.0-0.13","90084","List2B","black","woman","","","","null","","","","","","","","",""
"null","<img src=""stim_listB/seduce3.gif""style=""height:400px;""></stim_listB>","","html-keyboard-response","83","896619","0.0-13.0-1.13","90084","List2B","black","woman","","","","null","","","","","","","","",""
"null","is seducing","","html-keyboard-response","84","898622","0.0-13.0-2.13","90084","List2B","black","woman","","","","null","","","","","","","","",""
"20081.10000000894","","","survey-text","85","918707","0.0-13.0-3.13","90084","List2B","black","woman","","","","","{""Q0"":""kate is seducing fred""}","<img src=""stim_listB/seduce3.gif""style=""height:400px;""></stim_listB>","is seducing","","","","","",""
"null","<div style=""font-size:60px;"">+</div>","","html-keyboard-response","86","919210","0.0-13.0-0.14","90084","List2B","black","woman","","","","null","","","","","","","","",""
"null","<img src=""stim_listB/kiss7.gif""style=""height:400px;""></stim_listB>","","html-keyboard-response","87","921215","0.0-13.0-1.14","90084","List2B","black","woman","","","","null","","","","","","","","",""
"null","is kissing","","html-keyboard-response","88","923221","0.0-13.0-2.14","90084","List2B","black","woman","","","","null","","","","","","","","",""
"25699.20000000298","","","survey-text","89","948923","0.0-13.0-3.14","90084","List2B","black","woman","","","","","{""Q0"":""beth is kissing ruth""}","<img src=""stim_listB/kiss7.gif""style=""height:400px;""></stim_listB>","is kissing","","","","","",""
"null","<div style=""font-size:60px;"">+</div>","","html-keyboard-response","90","949426","0.0-13.0-0.15","90084","List2B","black","woman","","","","null","","","","","","","","",""
"null","<img src=""stim_listB/greet8.gif""style=""height:400px;""></stim_listB>","","html-keyboard-response","91","951435","0.0-13.0-1.15","90084","List2B","black","woman","","","","null","","","","","","","","",""
"null","is being greeted by","","html-keyboard-response","92","953437","0.0-13.0-2.15","90084","List2B","black","woman","","","","null","","","","","","","","",""
"23491.20000000298","","","survey-text","93","976933","0.0-13.0-3.15","90084","List2B","black","woman","","","","","{""Q0"":""ruth is being greeted by kate ""}","<img src=""stim_listB/greet8.gif""style=""height:400px;""></stim_listB>","is being greeted by","","","","","",""
"null","<div style=""font-size:60px;"">+</div>","","html-keyboard-response","94","977446","0.0-13.0-0.16","90084","List2B","black","woman","","","","null","","","","","","","","",""
"null","<img src=""stim_listB/copy5.gif""style=""height:400px;""></stim_listB>","","html-keyboard-response","95","979454","0.0-13.0-1.16","90084","List2B","black","woman","","","","null","","","","","","","","",""
"null","is copying","","html-keyboard-response","96","981456","0.0-13.0-2.16","90084","List2B","black","woman","","","","null","","","","","","","","",""
"9119.89999999106","","","survey-text","97","990579","0.0-13.0-3.16","90084","List2B","black","woman","","","","","{""Q0"":""fred is copying dave""}","<img src=""stim_listB/copy5.gif""style=""height:400px;""></stim_listB>","is copying","","","","","",""
"null","<div style=""font-size:60px;"">+</div>","","html-keyboard-response","98","991085","0.0-13.0-0.17","90084","List2B","black","woman","","","","null","","","","","","","","",""
"null","<img src=""stim_listB/oppose7.gif""style=""height:400px;""></stim_listB>","","html-keyboard-response","99","993089","0.0-13.0-1.17","90084","List2B","black","woman","","","","null","","","","","","","","",""
"null","is opposing","","html-keyboard-response","100","995105","0.0-13.0-2.17","90084","List2B","black","woman","","","","null","","","","","","","","",""
"27151.40000000596","","","survey-text","101","1022261","0.0-13.0-3.17","90084","List2B","black","woman","","","","","{""Q0"":""kate is opposing jane""}","<img src=""stim_listB/oppose7.gif""style=""height:400px;""></stim_listB>","is opposing","","","","","",""
"null","<div style=""font-size:60px;"">+</div>","","html-keyboard-response","102","1022763","0.0-13.0-0.18","90084","List2B","black","woman","","","","null","","","","","","","","",""
"null","<img src=""stim_listB/kiss4.gif""style=""height:400px;""></stim_listB>","","html-keyboard-response","103","1024777","0.0-13.0-1.18","90084","List2B","black","woman","","","","null","","","","","","","","",""
"null","is being kissed by","","html-keyboard-response","104","1026779","0.0-13.0-2.18","90084","List2B","black","woman","","","","null","","","","","","","","",""
"30948.10000000894","","","survey-text","105","1057731","0.0-13.0-3.18","90084","List2B","black","woman","","","","","{""Q0"":""mike is being kissed by kate""}","<img src=""stim_listB/kiss4.gif""style=""height:400px;""></stim_listB>","is being kissed by","","","","","",""
"null","<div style=""font-size:60px;"">+</div>","","html-keyboard-response","106","1058248","0.0-13.0-0.19","90084","List2B","black","woman","","","","null","","","","","","","","",""
"null","<img src=""stim_listB/greet6.gif""style=""height:400px;""></stim_listB>","","html-keyboard-response","107","1060251","0.0-13.0-1.19","90084","List2B","black","woman","","","","null","","","","","","","","",""
"null","is being greeted by","","html-keyboard-response","108","1062267","0.0-13.0-2.19","90084","List2B","black","woman","","","","null","","","","","","","","",""
"16772.39999999106","","","survey-text","109","1079043","0.0-13.0-3.19","90084","List2B","black","woman","","","","","{""Q0"":""luke is being greeted by mike""}","<img src=""stim_listB/greet6.gif""style=""height:400px;""></stim_listB>","is being greeted by","","","","","",""
"17685.80000001192","<img src='img/portrait_matrix_list2.jpg' style='width:900px;height:500px;''></img><p>If you have memorised all the portraits and names and are ready to start, press Continue.</p><p><strong>Please note: Your memory of these faces will be tested 4 times during this experiment.</strong></p>","0","html-button-response","110","1096731","0.0-14.0-0.0","90084","List2B","black","woman","","","","","","","","","","","","",""
"3019.2999999970198","<img src=""portrait/WM1.jpg""style=""height:400px;""></img>","6","html-button-response","111","1100755","0.0-14.0-1.0","90084","List2B","black","woman","","true","6","","","","","","","","","",""
"null","CORRECT","","html-keyboard-response","112","1102266","0.0-14.0-2.0-0.0","90084","List2B","black","woman","","","","null","","","","","","","","",""
"1887.2000000029802","<img src=""portrait/BM1.jpg""style=""height:400px;""></img>","4","html-button-response","113","1104156","0.0-14.0-4.0","90084","List2B","black","woman","","true","4","","","","","","","","","",""
"null","CORRECT","","html-keyboard-response","114","1105659","0.0-14.0-5.0-0.0","90084","List2B","black","woman","","","","null","","","","","","","","",""
"3077.2000000029802","<img src=""portrait/WM2.jpg""style=""height:400px;""></img>","7","html-button-response","115","1108739","0.0-14.0-7.0","90084","List2B","black","woman","","true","7","","","","","","","","","",""
"null","CORRECT","","html-keyboard-response","116","1110263","0.0-14.0-8.0-0.0","90084","List2B","black","woman","","","","null","","","","","","","","",""
"3521.2000000029802","<img src=""portrait/BW1.jpg""style=""height:400px;""></img>","0","html-button-response","117","1113787","0.0-14.0-10.0","90084","List2B","black","woman","","true","0","","","","","","","","","",""
"null","CORRECT","","html-keyboard-response","118","1115300","0.0-14.0-11.0-0.0","90084","List2B","black","woman","","","","null","","","","","","","","",""
"1676.5999999940395","<img src=""portrait/BW2.jpg""style=""height:400px;""></img>","2","html-button-response","119","1116979","0.0-14.0-13.0","90084","List2B","black","woman","","true","2","","","","","","","","","",""
"null","CORRECT","","html-keyboard-response","120","1118508","0.0-14.0-14.0-0.0","90084","List2B","black","woman","","","","null","","","","","","","","",""
"1676.7000000029802","<img src=""portrait/WW1.jpg""style=""height:400px;""></img>","1","html-button-response","121","1120187","0.0-14.0-16.0","90084","List2B","black","woman","","true","1","","","","","","","","","",""
"null","CORRECT","","html-keyboard-response","122","1121708","0.0-14.0-17.0-0.0","90084","List2B","black","woman","","","","null","","","","","","","","",""
"2276.5","<img src=""portrait/BM2.jpg""style=""height:400px;""></img>","5","html-button-response","123","1123987","0.0-14.0-19.0","90084","List2B","black","woman","","true","5","","","","","","","","","",""
"null","CORRECT","","html-keyboard-response","124","1125502","0.0-14.0-20.0-0.0","90084","List2B","black","woman","","","","null","","","","","","","","",""
"5587.399999991059","<img src=""portrait/WW2.jpg""style=""height:400px;""></img>","3","html-button-response","125","1131091","0.0-14.0-22.0","90084","List2B","black","woman","","true","3","","","","","","","","","",""
"null","CORRECT","","html-keyboard-response","126","1132609","0.0-14.0-23.0-0.0","90084","List2B","black","woman","","","","null","","","","","","","","",""
"2719","<p>You got 8 out of 8 right first time. Press Continue.</p>","0","html-button-response","127","1135331","0.0-14.0-25.0","90084","List2B","black","woman","","","","","","","","","","","","",""
"null","<div style=""font-size:60px;"">+</div>","","html-keyboard-response","128","1136846","0.0-15.0-0.0","90084","List2B","black","woman","","","","null","","","","","","","","",""
"null","<img src=""stim_listB/touch3.gif""style=""height:400px;""></stim_listB>","","html-keyboard-response","129","1138861","0.0-15.0-1.0","90084","List2B","black","woman","","","","null","","","","","","","","",""
"null","is touching","","html-keyboard-response","130","1140878","0.0-15.0-2.0","90084","List2B","black","woman","","","","null","","","","","","","","",""
"8179.5999999940395","","","survey-text","131","1149062","0.0-15.0-3.0","90084","List2B","black","woman","","","","","{""Q0"":""kate is touching mike""}","<img src=""stim_listB/touch3.gif""style=""height:400px;""></stim_listB>","is touching","","","","","",""
"null","<div style=""font-size:60px;"">+</div>","","html-keyboard-response","132","1149564","0.0-15.0-0.1","90084","List2B","black","woman","","","","null","","","","","","","","",""
"null","<img src=""stim_listB/look7.gif""style=""height:400px;""></stim_listB>","","html-keyboard-response","133","1151579","0.0-15.0-1.1","90084","List2B","black","woman","","","","null","","","","","","","","",""
"null","is looking at","","html-keyboard-response","134","1153583","0.0-15.0-2.1","90084","List2B","black","woman","","","","null","","","","","","","","",""
"6690.800000011921","","","survey-text","135","1160278","0.0-15.0-3.1","90084","List2B","black","woman","","","","","{""Q0"":""beth is looking at ruth""}","<img src=""stim_listB/look7.gif""style=""height:400px;""></stim_listB>","is looking at","","","","","",""
"null","<div style=""font-size:60px;"">+</div>","","html-keyboard-response","136","1160783","0.0-15.0-0.2","90084","List2B","black","woman","","","","null","","","","","","","","",""
"null","<img src=""stim_listB/shout8.gif""style=""height:400px;""></stim_listB>","","html-keyboard-response","137","1162796","0.0-15.0-1.2","90084","List2B","black","woman","","","","null","","","","","","","","",""
"null","is being shouted at by","","html-keyboard-response","138","1164807","0.0-15.0-2.2","90084","List2B","black","woman","","","","null","","","","","","","","",""
"10922.60000000894","","","survey-text","139","1175733","0.0-15.0-3.2","90084","List2B","black","woman","","","","","{""Q0"":""jane is being shouted at by kate""}","<img src=""stim_listB/shout8.gif""style=""height:400px;""></stim_listB>","is being shouted at by","","","","","",""
"null","<div style=""font-size:60px;"">+</div>","","html-keyboard-response","140","1176236","0.0-15.0-0.3","90084","List2B","black","woman","","","","null","","","","","","","","",""
"null","<img src=""stim_listB/seduce2.gif""style=""height:400px;""></stim_listB>","","html-keyboard-response","141","1178250","0.0-15.0-1.3","90084","List2B","black","woman","","","","null","","","","","","","","",""
"null","is being seduced by","","html-keyboard-response","142","1180264","0.0-15.0-2.3","90084","List2B","black","woman","","","","null","","","","","","","","",""
"9161.10000000894","","","survey-text","143","1189430","0.0-15.0-3.3","90084","List2B","black","woman","","","","","{""Q0"":""dave is being seduced by ruth""}","<img src=""stim_listB/seduce2.gif""style=""height:400px;""></stim_listB>","is being seduced by","","","","","",""
"null","<div style=""font-size:60px;"">+</div>","","html-keyboard-response","144","1189945","0.0-15.0-0.4","90084","List2B","black","woman","","","","null","","","","","","","","",""
"null","<img src=""stim_listB/challenge4.gif""style=""height:400px;""></stim_listB>","","html-keyboard-response","145","1191953","0.0-15.0-1.4","90084","List2B","black","woman","","","","null","","","","","","","","",""
"null","is being challenged by","","html-keyboard-response","146","1193961","0.0-15.0-2.4","90084","List2B","black","woman","","","","null","","","","","","","","",""
"8105.20000000298","","","survey-text","147","1202070","0.0-15.0-3.4","90084","List2B","black","woman","","","","","{""Q0"":""fred is being challenged by kate""}","<img src=""stim_listB/challenge4.gif""style=""height:400px;""></stim_listB>","is being challenged by","","","","","",""
"null","<div style=""font-size:60px;"">+</div>","","html-keyboard-response","148","1202587","0.0-15.0-0.5","90084","List2B","black","woman","","","","null","","","","","","","","",""
"null","<img src=""stim_listB/shout6.gif""style=""height:400px;""></stim_listB>","","html-keyboard-response","149","1204604","0.0-15.0-1.5","90084","List2B","black","woman","","","","null","","","","","","","","",""
"null","is being shouted at by","","html-keyboard-response","150","1206605","0.0-15.0-2.5","90084","List2B","black","woman","","","","null","","","","","","","","",""
"8244.29999999702","","","survey-text","151","1214853","0.0-15.0-3.5","90084","List2B","black","woman","","","","","{""Q0"":""dave is being shouted at by mike""}","<img src=""stim_listB/shout6.gif""style=""height:400px;""></stim_listB>","is being shouted at by","","","","","",""
"null","<div style=""font-size:60px;"">+</div>","","html-keyboard-response","152","1215357","0.0-15.0-0.6","90084","List2B","black","woman","","","","null","","","","","","","","",""
"null","<img src=""stim_listB/challenge1.gif""style=""height:400px;""></stim_listB>","","html-keyboard-response","153","1217372","0.0-15.0-1.6","90084","List2B","black","woman","","","","null","","","","","","","","",""
"null","is challenging","","html-keyboard-response","154","1219389","0.0-15.0-2.6","90084","List2B","black","woman","","","","null","","","","","","","","",""
"7715.899999991059","","","survey-text","155","1227109","0.0-15.0-3.6","90084","List2B","black","woman","","","","","{""Q0"":""ruth is challenging dave""}","<img src=""stim_listB/challenge1.gif""style=""height:400px;""></stim_listB>","is challenging","","","","","",""
"null","<div style=""font-size:60px;"">+</div>","","html-keyboard-response","156","1227624","0.0-15.0-0.7","90084","List2B","black","woman","","","","null","","","","","","","","",""
"null","<img src=""stim_listB/oppose1.gif""style=""height:400px;""></stim_listB>","","html-keyboard-response","157","1229641","0.0-15.0-1.7","90084","List2B","black","woman","","","","null","","","","","","","","",""
"null","is opposing","","html-keyboard-response","158","1231642","0.0-15.0-2.7","90084","List2B","black","woman","","","","null","","","","","","","","",""
"7111.5999999940395","","","survey-text","159","1238758","0.0-15.0-3.7","90084","List2B","black","woman","","","","","{""Q0"":""kate is opposing dave""}","<img src=""stim_listB/oppose1.gif""style=""height:400px;""></stim_listB>","is opposing","","","","","",""
"null","<div style=""font-size:60px;"">+</div>","","html-keyboard-response","160","1239273","0.0-15.0-0.8","90084","List2B","black","woman","","","","null","","","","","","","","",""
"null","<img src=""stim_listB/challenge3.gif""style=""height:400px;""></stim_listB>","","html-keyboard-response","161","1241276","0.0-15.0-1.8","90084","List2B","black","woman","","","","null","","","","","","","","",""
"null","is challenging","","html-keyboard-response","162","1243279","0.0-15.0-2.8","90084","List2B","black","woman","","","","null","","","","","","","","",""
"6833.899999991059","","","survey-text","163","1250118","0.0-15.0-3.8","90084","List2B","black","woman","","","","","{""Q0"":""beth is challenging mike""}","<img src=""stim_listB/challenge3.gif""style=""height:400px;""></stim_listB>","is challenging","","","","","",""
"null","<div style=""font-size:60px;"">+</div>","","html-keyboard-response","164","1250628","0.0-15.0-0.9","90084","List2B","black","woman","","","","null","","","","","","","","",""
"null","<img src=""stim_listB/copy2.gif""style=""height:400px;""></stim_listB>","","html-keyboard-response","165","1252643","0.0-15.0-1.9","90084","List2B","black","woman","","","","null","","","","","","","","",""
"null","is being copied by","","html-keyboard-response","166","1254647","0.0-15.0-2.9","90084","List2B","black","woman","","","","null","","","","","","","","",""
"22432","","","survey-text","167","1277083","0.0-15.0-3.9","90084","List2B","black","woman","","","","","{""Q0"":""luke is being copied by jane""}","<img src=""stim_listB/copy2.gif""style=""height:400px;""></stim_listB>","is being copied by","","","","","",""
"null","<div style=""font-size:60px;"">+</div>","","html-keyboard-response","168","1277598","0.0-15.0-0.10","90084","List2B","black","woman","","","","null","","","","","","","","",""
"null","<img src=""stim_listB/copy7.gif""style=""height:400px;""></stim_listB>","","html-keyboard-response","169","1279614","0.0-15.0-1.10","90084","List2B","black","woman","","","","null","","","","","","","","",""
"null","is copying","","html-keyboard-response","170","1281618","0.0-15.0-2.10","90084","List2B","black","woman","","","","null","","","","","","","","",""
"7319.29999999702","","","survey-text","171","1288941","0.0-15.0-3.10","90084","List2B","black","woman","","","","","{""Q0"":""beth is copying jane""}","<img src=""stim_listB/copy7.gif""style=""height:400px;""></stim_listB>","is copying","","","","","",""
"null","<div style=""font-size:60px;"">+</div>","","html-keyboard-response","172","1289450","0.0-15.0-0.11","90084","List2B","black","woman","","","","null","","","","","","","","",""
"null","<img src=""stim_listB/touch4.gif""style=""height:400px;""></stim_listB>","","html-keyboard-response","173","1291466","0.0-15.0-1.11","90084","List2B","black","woman","","","","null","","","","","","","","",""
"null","is being touched by","","html-keyboard-response","174","1293484","0.0-15.0-2.11","90084","List2B","black","woman","","","","null","","","","","","","","",""
"9421.79999999702","","","survey-text","175","1302910","0.0-15.0-3.11","90084","List2B","black","woman","","","","","{""Q0"":""fred is being touched by beth""}","<img src=""stim_listB/touch4.gif""style=""height:400px;""></stim_listB>","is being touched by","","","","","",""
"null","<div style=""font-size:60px;"">+</div>","","html-keyboard-response","176","1303421","0.0-15.0-0.12","90084","List2B","black","woman","","","","null","","","","","","","","",""
"null","<img src=""stim_listB/look5.gif""style=""height:400px;""></stim_listB>","","html-keyboard-response","177","1305434","0.0-15.0-1.12","90084","List2B","black","woman","","","","null","","","","","","","","",""
"null","is looking at","","html-keyboard-response","178","1307437","0.0-15.0-2.12","90084","List2B","black","woman","","","","null","","","","","","","","",""
"6482.79999999702","","","survey-text","179","1313924","0.0-15.0-3.12","90084","List2B","black","woman","","","","","{""Q0"":""fred is looking at luke""}","<img src=""stim_listB/look5.gif""style=""height:400px;""></stim_listB>","is looking at","","","","","",""
"null","<div style=""font-size:60px;"">+</div>","","html-keyboard-response","180","1314437","0.0-15.0-0.13","90084","List2B","black","woman","","","","null","","","","","","","","",""
"null","<img src=""stim_listB/seduce1.gif""style=""height:400px;""></stim_listB>","","html-keyboard-response","181","1316447","0.0-15.0-1.13","90084","List2B","black","woman","","","","null","","","","","","","","",""
"null","is seducing","","html-keyboard-response","182","1318455","0.0-15.0-2.13","90084","List2B","black","woman","","","","null","","","","","","","","",""
"5816.70000000298","","","survey-text","183","1324275","0.0-15.0-3.13","90084","List2B","black","woman","","","","","{""Q0"":""jane is seducing luke""}","<img src=""stim_listB/seduce1.gif""style=""height:400px;""></stim_listB>","is seducing","","","","","",""
"null","<div style=""font-size:60px;"">+</div>","","html-keyboard-response","184","1324789","0.0-15.0-0.14","90084","List2B","black","woman","","","","null","","","","","","","","",""
"null","<img src=""stim_listB/kiss2.gif""style=""height:400px;""></stim_listB>","","html-keyboard-response","185","1326805","0.0-15.0-1.14","90084","List2B","black","woman","","","","null","","","","","","","","",""
"null","is being kissed by","","html-keyboard-response","186","1328809","0.0-15.0-2.14","90084","List2B","black","woman","","","","null","","","","","","","","",""
"7832.29999999702","","","survey-text","187","1336646","0.0-15.0-3.14","90084","List2B","black","woman","","","","","{""Q0"":""dave is being kissed by jane""}","<img src=""stim_listB/kiss2.gif""style=""height:400px;""></stim_listB>","is being kissed by","","","","","",""
"null","<div style=""font-size:60px;"">+</div>","","html-keyboard-response","188","1337156","0.0-15.0-0.15","90084","List2B","black","woman","","","","null","","","","","","","","",""
"null","<img src=""stim_listB/look4.gif""style=""height:400px;""></stim_listB>","","html-keyboard-response","189","1339174","0.0-15.0-1.15","90084","List2B","black","woman","","","","null","","","","","","","","",""
"null","is being looked at by","","html-keyboard-response","190","1341176","0.0-15.0-2.15","90084","List2B","black","woman","","","","null","","","","","","","","",""
"10585.5","","","survey-text","191","1351766","0.0-15.0-3.15","90084","List2B","black","woman","","","","","{""Q0"":""mike is being looked at by kate""}","<img src=""stim_listB/look4.gif""style=""height:400px;""></stim_listB>","is being looked at by","","","","","",""
"null","<div style=""font-size:60px;"">+</div>","","html-keyboard-response","192","1352277","0.0-15.0-0.16","90084","List2B","black","woman","","","","null","","","","","","","","",""
"null","<img src=""stim_listB/seduce4.gif""style=""height:400px;""></stim_listB>","","html-keyboard-response","193","1354293","0.0-15.0-1.16","90084","List2B","black","woman","","","","null","","","","","","","","",""
"null","is being seduced by","","html-keyboard-response","194","1356307","0.0-15.0-2.16","90084","List2B","black","woman","","","","null","","","","","","","","",""
"8414.79999999702","","","survey-text","195","1364725","0.0-15.0-3.16","90084","List2B","black","woman","","","","","{""Q0"":""mike is being seduced by beth""}","<img src=""stim_listB/seduce4.gif""style=""height:400px;""></stim_listB>","is being seduced by","","","","","",""
"null","<div style=""font-size:60px;"">+</div>","","html-keyboard-response","196","1365227","0.0-15.0-0.17","90084","List2B","black","woman","","","","null","","","","","","","","",""
"null","<img src=""stim_listB/hug8.gif""style=""height:400px;""></stim_listB>","","html-keyboard-response","197","1367243","0.0-15.0-1.17","90084","List2B","black","woman","","","","null","","","","","","","","",""
"null","is being hugged by","","html-keyboard-response","198","1369248","0.0-15.0-2.17","90084","List2B","black","woman","","","","null","","","","","","","","",""
"6849.20000000298","","","survey-text","199","1376101","0.0-15.0-3.17","90084","List2B","black","woman","","","","","{""Q0"":""jane is being hugged by kate""}","<img src=""stim_listB/hug8.gif""style=""height:400px;""></stim_listB>","is being hugged by","","","","","",""
"null","<div style=""font-size:60px;"">+</div>","","html-keyboard-response","200","1376611","0.0-15.0-0.18","90084","List2B","black","woman","","","","null","","","","","","","","",""
"null","<img src=""stim_listB/touch8.gif""style=""height:400px;""></stim_listB>","","html-keyboard-response","201","1378627","0.0-15.0-1.18","90084","List2B","black","woman","","","","null","","","","","","","","",""
"null","is being touched by","","html-keyboard-response","202","1380632","0.0-15.0-2.18","90084","List2B","black","woman","","","","null","","","","","","","","",""
"7265.4000000059605","","","survey-text","203","1387901","0.0-15.0-3.18","90084","List2B","black","woman","","","","","{""Q0"":""ruth is being touched by beth""}","<img src=""stim_listB/touch8.gif""style=""height:400px;""></stim_listB>","is being touched by","","","","","",""
"null","<div style=""font-size:60px;"">+</div>","","html-keyboard-response","204","1388414","0.0-15.0-0.19","90084","List2B","black","woman","","","","null","","","","","","","","",""
"null","<img src=""stim_listB/kiss1.gif""style=""height:400px;""></stim_listB>","","html-keyboard-response","205","1390419","0.0-15.0-1.19","90084","List2B","black","woman","","","","null","","","","","","","","",""
"null","is kissing","","html-keyboard-response","206","1392422","0.0-15.0-2.19","90084","List2B","black","woman","","","","null","","","","","","","","",""
"11698.89999999106","","","survey-text","207","1404125","0.0-15.0-3.19","90084","List2B","black","woman","","","","","{""Q0"":""ruth is kissing luke""}","<img src=""stim_listB/kiss1.gif""style=""height:400px;""></stim_listB>","is kissing","","","","","",""
"3851.2999999970198","<img src='img/portrait_matrix_list2.jpg' style='width:900px;height:500px;''></img><p>If you have memorised all the portraits and names and are ready to start, press Continue.</p><p><strong>Please note: Your memory of these faces will be tested 4 times during this experiment.</strong></p>","0","html-button-response","208","1407979","0.0-16.0-0.0","90084","List2B","black","woman","","","","","","","","","","","","",""
"5064.79999999702","<img src=""portrait/BW2.jpg""style=""height:400px;""></img>","2","html-button-response","209","1414051","0.0-16.0-1.0","90084","List2B","black","woman","","true","2","","","","","","","","","",""
"null","CORRECT","","html-keyboard-response","210","1415570","0.0-16.0-2.0-0.0","90084","List2B","black","woman","","","","null","","","","","","","","",""
"2365.7999999970198","<img src=""portrait/BM2.jpg""style=""height:400px;""></img>","5","html-button-response","211","1417939","0.0-16.0-4.0","90084","List2B","black","woman","","true","5","","","","","","","","","",""
"null","CORRECT","","html-keyboard-response","212","1419443","0.0-16.0-5.0-0.0","90084","List2B","black","woman","","","","null","","","","","","","","",""
"4005.7000000029802","<img src=""portrait/WW2.jpg""style=""height:400px;""></img>","3","html-button-response","213","1423452","0.0-16.0-7.0","90084","List2B","black","woman","","true","3","","","","","","","","","",""
"null","CORRECT","","html-keyboard-response","214","1424970","0.0-16.0-8.0-0.0","90084","List2B","black","woman","","","","null","","","","","","","","",""
"1702.4000000059605","<img src=""portrait/BM1.jpg""style=""height:400px;""></img>","4","html-button-response","215","1426675","0.0-16.0-10.0","90084","List2B","black","woman","","true","4","","","","","","","","","",""
"null","CORRECT","","html-keyboard-response","216","1428184","0.0-16.0-11.0-0.0","90084","List2B","black","woman","","","","null","","","","","","","","",""
"2264.9000000059605","<img src=""portrait/BW1.jpg""style=""height:400px;""></img>","0","html-button-response","217","1430451","0.0-16.0-13.0","90084","List2B","black","woman","","true","0","","","","","","","","","",""
"null","CORRECT","","html-keyboard-response","218","1431966","0.0-16.0-14.0-0.0","90084","List2B","black","woman","","","","null","","","","","","","","",""
"2106.5","<img src=""portrait/WM1.jpg""style=""height:400px;""></img>","6","html-button-response","219","1434075","0.0-16.0-16.0","90084","List2B","black","woman","","true","6","","","","","","","","","",""
"null","CORRECT","","html-keyboard-response","220","1435577","0.0-16.0-17.0-0.0","90084","List2B","black","woman","","","","null","","","","","","","","",""
"4199","<img src=""portrait/WW1.jpg""style=""height:400px;""></img>","1","html-button-response","221","1439779","0.0-16.0-19.0","90084","List2B","black","woman","","true","1","","","","","","","","","",""
"null","CORRECT","","html-keyboard-response","222","1441289","0.0-16.0-20.0-0.0","90084","List2B","black","woman","","","","null","","","","","","","","",""
"1791","<img src=""portrait/WM2.jpg""style=""height:400px;""></img>","7","html-button-response","223","1443084","0.0-16.0-22.0","90084","List2B","black","woman","","true","7","","","","","","","","","",""
"null","CORRECT","","html-keyboard-response","224","1444588","0.0-16.0-23.0-0.0","90084","List2B","black","woman","","","","null","","","","","","","","",""
"2196.0999999940395","<p>You got 8 out of 8 right first time. Press Continue.</p>","0","html-button-response","225","1446787","0.0-16.0-25.0","90084","List2B","black","woman","","","","","","","","","","","","",""
"null","<div style=""font-size:60px;"">+</div>","","html-keyboard-response","226","1448306","0.0-17.0-0.0","90084","List2B","black","woman","","","","null","","","","","","","","",""
"null","<img src=""stim_listB/kiss5.gif""style=""height:400px;""></stim_listB>","","html-keyboard-response","227","1450325","0.0-17.0-1.0","90084","List2B","black","woman","","","","null","","","","","","","","",""
"null","is kissing","","html-keyboard-response","228","1452341","0.0-17.0-2.0","90084","List2B","black","woman","","","","null","","","","","","","","",""
"5124.79999999702","","","survey-text","229","1457470","0.0-17.0-3.0","90084","List2B","black","woman","","","","","{""Q0"":""fred is kissing luke""}","<img src=""stim_listB/kiss5.gif""style=""height:400px;""></stim_listB>","is kissing","","","","","",""
"null","<div style=""font-size:60px;"">+</div>","","html-keyboard-response","230","1457975","0.0-17.0-0.1","90084","List2B","black","woman","","","","null","","","","","","","","",""
"null","<img src=""stim_listB/copy1.gif""style=""height:400px;""></stim_listB>","","html-keyboard-response","231","1459986","0.0-17.0-1.1","90084","List2B","black","woman","","","","null","","","","","","","","",""
"null","is copying","","html-keyboard-response","232","1461992","0.0-17.0-2.1","90084","List2B","black","woman","","","","null","","","","","","","","",""
"8017.20000000298","","","survey-text","233","1470014","0.0-17.0-3.1","90084","List2B","black","woman","","","","","{""Q0"":""rurh is copying dave""}","<img src=""stim_listB/copy1.gif""style=""height:400px;""></stim_listB>","is copying","","","","","",""
"null","<div style=""font-size:60px;"">+</div>","","html-keyboard-response","234","1470525","0.0-17.0-0.2","90084","List2B","black","woman","","","","null","","","","","","","","",""
"null","<img src=""stim_listB/oppose3.gif""style=""height:400px;""></stim_listB>","","html-keyboard-response","235","1472542","0.0-17.0-1.2","90084","List2B","black","woman","","","","null","","","","","","","","",""
"null","is opposing","","html-keyboard-response","236","1474546","0.0-17.0-2.2","90084","List2B","black","woman","","","","null","","","","","","","","",""
"12327.39999999106","","","survey-text","237","1486877","0.0-17.0-3.2","90084","List2B","black","woman","","","","","{""Q0"":""kate is opposing mike""}","<img src=""stim_listB/oppose3.gif""style=""height:400px;""></stim_listB>","is opposing","","","","","",""
"null","<div style=""font-size:60px;"">+</div>","","html-keyboard-response","238","1487380","0.0-17.0-0.3","90084","List2B","black","woman","","","","null","","","","","","","","",""
"null","<img src=""stim_listB/oppose5.gif""style=""height:400px;""></stim_listB>","","html-keyboard-response","239","1489393","0.0-17.0-1.3","90084","List2B","black","woman","","","","null","","","","","","","","",""
"null","is opposing","","html-keyboard-response","240","1491402","0.0-17.0-2.3","90084","List2B","black","woman","","","","null","","","","","","","","",""
"11214.59999999404","","","survey-text","241","1502621","0.0-17.0-3.3","90084","List2B","black","woman","","","","","{""Q0"":""mike is opposing dave""}","<img src=""stim_listB/oppose5.gif""style=""height:400px;""></stim_listB>","is opposing","","","","","",""
"null","<div style=""font-size:60px;"">+</div>","","html-keyboard-response","242","1503131","0.0-17.0-0.4","90084","List2B","black","woman","","","","null","","","","","","","","",""
"null","<img src=""stim_listB/hug1.gif""style=""height:400px;""></stim_listB>","","html-keyboard-response","243","1505139","0.0-17.0-1.4","90084","List2B","black","woman","","","","null","","","","","","","","",""
"null","is hugging","","html-keyboard-response","244","1507147","0.0-17.0-2.4","90084","List2B","black","woman","","","","null","","","","","","","","",""
"6173.800000011921","","","survey-text","245","1513325","0.0-17.0-3.4","90084","List2B","black","woman","","","","","{""Q0"":""ruth is hugging luke""}","<img src=""stim_listB/hug1.gif""style=""height:400px;""></stim_listB>","is hugging","","","","","",""
"null","<div style=""font-size:60px;"">+</div>","","html-keyboard-response","246","1513840","0.0-17.0-0.5","90084","List2B","black","woman","","","","null","","","","","","","","",""
"null","<img src=""stim_listB/seduce5.gif""style=""height:400px;""></stim_listB>","","html-keyboard-response","247","1515847","0.0-17.0-1.5","90084","List2B","black","woman","","","","null","","","","","","","","",""
"null","is seducing","","html-keyboard-response","248","1517857","0.0-17.0-2.5","90084","List2B","black","woman","","","","null","","","","","","","","",""
"5271.4000000059605","","","survey-text","249","1523133","0.0-17.0-3.5","90084","List2B","black","woman","","","","","{""Q0"":""mike is seducing luke""}","<img src=""stim_listB/seduce5.gif""style=""height:400px;""></stim_listB>","is seducing","","","","","",""
"null","<div style=""font-size:60px;"">+</div>","","html-keyboard-response","250","1523648","0.0-17.0-0.6","90084","List2B","black","woman","","","","null","","","","","","","","",""
"null","<img src=""stim_listB/hug3.gif""style=""height:400px;""></stim_listB>","","html-keyboard-response","251","1525652","0.0-17.0-1.6","90084","List2B","black","woman","","","","null","","","","","","","","",""
"null","is hugging","","html-keyboard-response","252","1527657","0.0-17.0-2.6","90084","List2B","black","woman","","","","null","","","","","","","","",""
"20272.59999999404","","","survey-text","253","1547934","0.0-17.0-3.6","90084","List2B","black","woman","","","","","{""Q0"":""beth is hugging fred""}","<img src=""stim_listB/hug3.gif""style=""height:400px;""></stim_listB>","is hugging","","","","","",""
"null","<div style=""font-size:60px;"">+</div>","","html-keyboard-response","254","1548439","0.0-17.0-0.7","90084","List2B","black","woman","","","","null","","","","","","","","",""
"null","<img src=""stim_listB/touch2.gif""style=""height:400px;""></stim_listB>","","html-keyboard-response","255","1550453","0.0-17.0-1.7","90084","List2B","black","woman","","","","null","","","","","","","","",""
"null","is being touched by","","html-keyboard-response","256","1552455","0.0-17.0-2.7","90084","List2B","black","woman","","","","null","","","","","","","","",""
"11650.5","","","survey-text","257","1564109","0.0-17.0-3.7","90084","List2B","black","woman","","","","","{""Q0"":""luke is being touched by luke""}","<img src=""stim_listB/touch2.gif""style=""height:400px;""></stim_listB>","is being touched by","","","","","",""
"null","<div style=""font-size:60px;"">+</div>","","html-keyboard-response","258","1564623","0.0-17.0-0.8","90084","List2B","black","woman","","","","null","","","","","","","","",""
"null","<img src=""stim_listB/oppose4.gif""style=""height:400px;""></stim_listB>","","html-keyboard-response","259","1566638","0.0-17.0-1.8","90084","List2B","black","woman","","","","null","","","","","","","","",""
"null","is being opposed by","","html-keyboard-response","260","1568642","0.0-17.0-2.8","90084","List2B","black","woman","","","","null","","","","","","","","",""
"16855.20000000298","","","survey-text","261","1585501","0.0-17.0-3.8","90084","List2B","black","woman","","","","","{""Q0"":""fred is being opposed by beth""}","<img src=""stim_listB/oppose4.gif""style=""height:400px;""></stim_listB>","is being opposed by","","","","","",""
"null","<div style=""font-size:60px;"">+</div>","","html-keyboard-response","262","1586011","0.0-17.0-0.9","90084","List2B","black","woman","","","","null","","","","","","","","",""
"null","<img src=""stim_listB/challenge7.gif""style=""height:400px;""></stim_listB>","","html-keyboard-response","263","1588025","0.0-17.0-1.9","90084","List2B","black","woman","","","","null","","","","","","","","",""
"null","is challenging","","html-keyboard-response","264","1590028","0.0-17.0-2.9","90084","List2B","black","woman","","","","null","","","","","","","","",""
"7597.5","","","survey-text","265","1597629","0.0-17.0-3.9","90084","List2B","black","woman","","","","","{""Q0"":""beth is challenging jane""}","<img src=""stim_listB/challenge7.gif""style=""height:400px;""></stim_listB>","is challenging","","","","","",""
"null","<div style=""font-size:60px;"">+</div>","","html-keyboard-response","266","1598145","0.0-17.0-0.10","90084","List2B","black","woman","","","","null","","","","","","","","",""
"null","<img src=""stim_listB/hug5.gif""style=""height:400px;""></stim_listB>","","html-keyboard-response","267","1600161","0.0-17.0-1.10","90084","List2B","black","woman","","","","null","","","","","","","","",""
"null","is hugging","","html-keyboard-response","268","1602163","0.0-17.0-2.10","90084","List2B","black","woman","","","","null","","","","","","","","",""
"10526.79999999702","","","survey-text","269","1612693","0.0-17.0-3.10","90084","List2B","black","woman","","","","","{""Q0"":""fred is hugging luke""}","<img src=""stim_listB/hug5.gif""style=""height:400px;""></stim_listB>","is hugging","","","","","",""
"null","<div style=""font-size:60px;"">+</div>","","html-keyboard-response","270","1613197","0.0-17.0-0.11","90084","List2B","black","woman","","","","null","","","","","","","","",""
"null","<img src=""stim_listB/copy3.gif""style=""height:400px;""></stim_listB>","","html-keyboard-response","271","1615211","0.0-17.0-1.11","90084","List2B","black","woman","","","","null","","","","","","","","",""
"null","is copying","","html-keyboard-response","272","1617224","0.0-17.0-2.11","90084","List2B","black","woman","","","","null","","","","","","","","",""
"25929.59999999404","","","survey-text","273","1643158","0.0-17.0-3.11","90084","List2B","black","woman","","","","","{""Q0"":""beth is copying mike""}","<img src=""stim_listB/copy3.gif""style=""height:400px;""></stim_listB>","is copying","","","","","",""
"null","<div style=""font-size:60px;"">+</div>","","html-keyboard-response","274","1643669","0.0-17.0-0.12","90084","List2B","black","woman","","","","null","","","","","","","","",""
"null","<img src=""stim_listB/look6.gif""style=""height:400px;""></stim_listB>","","html-keyboard-response","275","1645683","0.0-17.0-1.12","90084","List2B","black","woman","","","","null","","","","","","","","",""
"null","is being looked at by","","html-keyboard-response","276","1647690","0.0-17.0-2.12","90084","List2B","black","woman","","","","null","","","","","","","","",""
"24447.29999999702","","","survey-text","277","1672142","0.0-17.0-3.12","90084","List2B","black","woman","","","","","{""Q0"":""dave is being looked at by mike""}","<img src=""stim_listB/look6.gif""style=""height:400px;""></stim_listB>","is being looked at by","","","","","",""
"null","<div style=""font-size:60px;"">+</div>","","html-keyboard-response","278","1672654","0.0-17.0-0.13","90084","List2B","black","woman","","","","null","","","","","","","","",""
"null","<img src=""stim_listB/seduce7.gif""style=""height:400px;""></stim_listB>","","html-keyboard-response","279","1674673","0.0-17.0-1.13","90084","List2B","black","woman","","","","null","","","","","","","","",""
"null","is seducing","","html-keyboard-response","280","1676690","0.0-17.0-2.13","90084","List2B","black","woman","","","","null","","","","","","","","",""
"9526.90000000596","","","survey-text","281","1686221","0.0-17.0-3.13","90084","List2B","black","woman","","","","","{""Q0"":""kate is seducing ruth""}","<img src=""stim_listB/seduce7.gif""style=""height:400px;""></stim_listB>","is seducing","","","","","",""
"null","<div style=""font-size:60px;"">+</div>","","html-keyboard-response","282","1686725","0.0-17.0-0.14","90084","List2B","black","woman","","","","null","","","","","","","","",""
"null","<img src=""stim_listB/greet3.gif""style=""height:400px;""></stim_listB>","","html-keyboard-response","283","1688728","0.0-17.0-1.14","90084","List2B","black","woman","","","","null","","","","","","","","",""
"null","is greeting","","html-keyboard-response","284","1690730","0.0-17.0-2.14","90084","List2B","black","woman","","","","null","","","","","","","","",""
"11063.40000000596","","","survey-text","285","1701797","0.0-17.0-3.14","90084","List2B","black","woman","","","","","{""Q0"":""beth is greeting mike""}","<img src=""stim_listB/greet3.gif""style=""height:400px;""></stim_listB>","is greeting","","","","","",""
"null","<div style=""font-size:60px;"">+</div>","","html-keyboard-response","286","1702309","0.0-17.0-0.15","90084","List2B","black","woman","","","","null","","","","","","","","",""
"null","<img src=""stim_listB/greet5.gif""style=""height:400px;""></stim_listB>","","html-keyboard-response","287","1704326","0.0-17.0-1.15","90084","List2B","black","woman","","","","null","","","","","","","","",""
"null","is greeting","","html-keyboard-response","288","1706342","0.0-17.0-2.15","90084","List2B","black","woman","","","","null","","","","","","","","",""
"5530.20000000298","","","survey-text","289","1711877","0.0-17.0-3.15","90084","List2B","black","woman","","","","","{""Q0"":""fred is greeting dave""}","<img src=""stim_listB/greet5.gif""style=""height:400px;""></stim_listB>","is greeting","","","","","",""
"null","<div style=""font-size:60px;"">+</div>","","html-keyboard-response","290","1712379","0.0-17.0-0.16","90084","List2B","black","woman","","","","null","","","","","","","","",""
"null","<img src=""stim_listB/touch1.gif""style=""height:400px;""></stim_listB>","","html-keyboard-response","291","1714393","0.0-17.0-1.16","90084","List2B","black","woman","","","","null","","","","","","","","",""
"null","is touching","","html-keyboard-response","292","1716396","0.0-17.0-2.16","90084","List2B","black","woman","","","","null","","","","","","","","",""
"7709.4000000059605","","","survey-text","293","1724110","0.0-17.0-3.16","90084","List2B","black","woman","","","","","{""Q0"":""jane is touching dave""}","<img src=""stim_listB/touch1.gif""style=""height:400px;""></stim_listB>","is touching","","","","","",""
"null","<div style=""font-size:60px;"">+</div>","","html-keyboard-response","294","1724615","0.0-17.0-0.17","90084","List2B","black","woman","","","","null","","","","","","","","",""
"null","<img src=""stim_listB/greet7.gif""style=""height:400px;""></stim_listB>","","html-keyboard-response","295","1726621","0.0-17.0-1.17","90084","List2B","black","woman","","","","null","","","","","","","","",""
"null","is greeting","","html-keyboard-response","296","1728631","0.0-17.0-2.17","90084","List2B","black","woman","","","","null","","","","","","","","",""
"6178","","","survey-text","297","1734813","0.0-17.0-3.17","90084","List2B","black","woman","","","","","{""Q0"":""beth is greeting jane""}","<img src=""stim_listB/greet7.gif""style=""height:400px;""></stim_listB>","is greeting","","","","","",""
"null","<div style=""font-size:60px;"">+</div>","","html-keyboard-response","298","1735330","0.0-17.0-0.18","90084","List2B","black","woman","","","","null","","","","","","","","",""
"null","<img src=""stim_listB/look8.gif""style=""height:400px;""></stim_listB>","","html-keyboard-response","299","1737346","0.0-17.0-1.18","90084","List2B","black","woman","","","","null","","","","","","","","",""
"null","is being looked at by","","html-keyboard-response","300","1739357","0.0-17.0-2.18","90084","List2B","black","woman","","","","null","","","","","","","","",""
"8827.39999999106","","","survey-text","301","1748189","0.0-17.0-3.18","90084","List2B","black","woman","","","","","{""Q0"":""jane is being looking at by kate""}","<img src=""stim_listB/look8.gif""style=""height:400px;""></stim_listB>","is being looked at by","","","","","",""
"null","<div style=""font-size:60px;"">+</div>","","html-keyboard-response","302","1748700","0.0-17.0-0.19","90084","List2B","black","woman","","","","null","","","","","","","","",""
"null","<img src=""stim_listB/shout2.gif""style=""height:400px;""></stim_listB>","","html-keyboard-response","303","1750718","0.0-17.0-1.19","90084","List2B","black","woman","","","","null","","","","","","","","",""
"null","is being shouted at by","","html-keyboard-response","304","1752732","0.0-17.0-2.19","90084","List2B","black","woman","","","","null","","","","","","","","",""
"15709.20000000298","","","survey-text","305","1768446","0.0-17.0-3.19","90084","List2B","black","woman","","","","","{""Q0"":""dave is being shouted at by jane""}","<img src=""stim_listB/shout2.gif""style=""height:400px;""></stim_listB>","is being shouted at by","","","","","",""
"6832.5","<img src='img/portrait_matrix_list2.jpg' style='width:900px;height:500px;''></img><p>If you have memorised all the portraits and names and are ready to start, press Continue.</p><p><strong>Please note: Your memory of these faces will be tested 4 times during this experiment.</strong></p>","0","html-button-response","306","1775283","0.0-18.0-0.0","90084","List2B","black","woman","","","","","","","","","","","","",""
"3259.199999988079","<img src=""portrait/WM1.jpg""style=""height:400px;""></img>","6","html-button-response","307","1779556","0.0-18.0-1.0","90084","List2B","black","woman","","true","6","","","","","","","","","",""
"null","CORRECT","","html-keyboard-response","308","1781080","0.0-18.0-2.0-0.0","90084","List2B","black","woman","","","","null","","","","","","","","",""
"2127.0999999940395","<img src=""portrait/WW1.jpg""style=""height:400px;""></img>","1","html-button-response","309","1783211","0.0-18.0-4.0","90084","List2B","black","woman","","true","1","","","","","","","","","",""
"null","CORRECT","","html-keyboard-response","310","1784735","0.0-18.0-5.0-0.0","90084","List2B","black","woman","","","","null","","","","","","","","",""
"2072.5","<img src=""portrait/BM2.jpg""style=""height:400px;""></img>","5","html-button-response","311","1786803","0.0-18.0-7.0","90084","List2B","black","woman","","true","5","","","","","","","","","",""
"null","CORRECT","","html-keyboard-response","312","1788318","0.0-18.0-8.0-0.0","90084","List2B","black","woman","","","","null","","","","","","","","",""
"2337.6000000089407","<img src=""portrait/BW2.jpg""style=""height:400px;""></img>","2","html-button-response","313","1790659","0.0-18.0-10.0","90084","List2B","black","woman","","true","2","","","","","","","","","",""
"null","CORRECT","","html-keyboard-response","314","1792168","0.0-18.0-11.0-0.0","90084","List2B","black","woman","","","","null","","","","","","","","",""
"4136.5","<img src=""portrait/WM2.jpg""style=""height:400px;""></img>","7","html-button-response","315","1796306","0.0-18.0-13.0","90084","List2B","black","woman","","true","7","","","","","","","","","",""
"null","CORRECT","","html-keyboard-response","316","1797815","0.0-18.0-14.0-0.0","90084","List2B","black","woman","","","","null","","","","","","","","",""
"1736.7999999970198","<img src=""portrait/BM1.jpg""style=""height:400px;""></img>","4","html-button-response","317","1799554","0.0-18.0-16.0","90084","List2B","black","woman","","true","4","","","","","","","","","",""
"null","CORRECT","","html-keyboard-response","318","1801060","0.0-18.0-17.0-0.0","90084","List2B","black","woman","","","","null","","","","","","","","",""
"1924.5","<img src=""portrait/BW1.jpg""style=""height:400px;""></img>","0","html-button-response","319","1802987","0.0-18.0-19.0","90084","List2B","black","woman","","true","0","","","","","","","","","",""
"null","CORRECT","","html-keyboard-response","320","1804509","0.0-18.0-20.0-0.0","90084","List2B","black","woman","","","","null","","","","","","","","",""
"2339.5999999940395","<img src=""portrait/WW2.jpg""style=""height:400px;""></img>","3","html-button-response","321","1806851","0.0-18.0-22.0","90084","List2B","black","woman","","true","3","","","","","","","","","",""
"null","CORRECT","","html-keyboard-response","322","1808383","0.0-18.0-23.0-0.0","90084","List2B","black","woman","","","","null","","","","","","","","",""
"1234.1000000089407","<p>You got 8 out of 8 right first time. Press Continue.</p>","0","html-button-response","323","1809619","0.0-18.0-25.0","90084","List2B","black","woman","","","","","","","","","","","","",""
"null","<div style=""font-size:60px;"">+</div>","","html-keyboard-response","324","1811133","0.0-19.0-0.0","90084","List2B","black","woman","","","","null","","","","","","","","",""
"null","<img src=""stim_listB/challenge8.gif""style=""height:400px;""></stim_listB>","","html-keyboard-response","325","1813150","0.0-19.0-1.0","90084","List2B","black","woman","","","","null","","","","","","","","",""
"null","is being challenged by","","html-keyboard-response","326","1815152","0.0-19.0-2.0","90084","List2B","black","woman","","","","null","","","","","","","","",""
"14993.59999999404","","","survey-text","327","1830150","0.0-19.0-3.0","90084","List2B","black","woman","","","","","{""Q0"":""ruth is being challenged by kate""}","<img src=""stim_listB/challenge8.gif""style=""height:400px;""></stim_listB>","is being challenged by","","","","","",""
"null","<div style=""font-size:60px;"">+</div>","","html-keyboard-response","328","1830655","0.0-19.0-0.1","90084","List2B","black","woman","","","","null","","","","","","","","",""
"null","<img src=""stim_listB/copy6.gif""style=""height:400px;""></stim_listB>","","html-keyboard-response","329","1832670","0.0-19.0-1.1","90084","List2B","black","woman","","","","null","","","","","","","","",""
"null","is being copied by","","html-keyboard-response","330","1834683","0.0-19.0-2.1","90084","List2B","black","woman","","","","null","","","","","","","","",""
"9933.90000000596","","","survey-text","331","1844621","0.0-19.0-3.1","90084","List2B","black","woman","","","","","{""Q0"":""luke is being copied by mike""}","<img src=""stim_listB/copy6.gif""style=""height:400px;""></stim_listB>","is being copied by","","","","","",""
"null","<div style=""font-size:60px;"">+</div>","","html-keyboard-response","332","1845123","0.0-19.0-0.2","90084","List2B","black","woman","","","","null","","","","","","","","",""
"null","<img src=""stim_listB/hug6.gif""style=""height:400px;""></stim_listB>","","html-keyboard-response","333","1847146","0.0-19.0-1.2","90084","List2B","black","woman","","","","null","","","","","","","","",""
"null","is being hugged by","","html-keyboard-response","334","1849148","0.0-19.0-2.2","90084","List2B","black","woman","","","","null","","","","","","","","",""
"8796.70000000298","","","survey-text","335","1857949","0.0-19.0-3.2","90084","List2B","black","woman","","","","","{""Q0"":""dave is being hugged by mike""}","<img src=""stim_listB/hug6.gif""style=""height:400px;""></stim_listB>","is being hugged by","","","","","",""
"null","<div style=""font-size:60px;"">+</div>","","html-keyboard-response","336","1858465","0.0-19.0-0.3","90084","List2B","black","woman","","","","null","","","","","","","","",""
"null","<img src=""stim_listB/shout5.gif""style=""height:400px;""></stim_listB>","","html-keyboard-response","337","1860480","0.0-19.0-1.3","90084","List2B","black","woman","","","","null","","","","","","","","",""
"null","is shouting at","","html-keyboard-response","338","1862482","0.0-19.0-2.3","90084","List2B","black","woman","","","","null","","","","","","","","",""
"13991.20000000298","","","survey-text","339","1876478","0.0-19.0-3.3","90084","List2B","black","woman","","","","","{""Q0"":""fred is shouting at luke""}","<img src=""stim_listB/shout5.gif""style=""height:400px;""></stim_listB>","is shouting at","","","","","",""
"null","<div style=""font-size:60px;"">+</div>","","html-keyboard-response","340","1876986","0.0-19.0-0.4","90084","List2B","black","woman","","","","null","","","","","","","","",""
"null","<img src=""stim_listB/copy8.gif""style=""height:400px;""></stim_listB>","","html-keyboard-response","341","1879001","0.0-19.0-1.4","90084","List2B","black","woman","","","","null","","","","","","","","",""
"null","is being copied by","","html-keyboard-response","342","1881002","0.0-19.0-2.4","90084","List2B","black","woman","","","","null","","","","","","","","",""
"8382.89999999106","","","survey-text","343","1889389","0.0-19.0-3.4","90084","List2B","black","woman","","","","","{""Q0"":""ruth is being copied by kate""}","<img src=""stim_listB/copy8.gif""style=""height:400px;""></stim_listB>","is being copied by","","","","","",""
"null","<div style=""font-size:60px;"">+</div>","","html-keyboard-response","344","1889904","0.0-19.0-0.5","90084","List2B","black","woman","","","","null","","","","","","","","",""
"null","<img src=""stim_listB/touch5.gif""style=""height:400px;""></stim_listB>","","html-keyboard-response","345","1891920","0.0-19.0-1.5","90084","List2B","black","woman","","","","null","","","","","","","","",""
"null","is touching","","html-keyboard-response","346","1893921","0.0-19.0-2.5","90084","List2B","black","woman","","","","null","","","","","","","","",""
"6503.5","","","survey-text","347","1900429","0.0-19.0-3.5","90084","List2B","black","woman","","","","","{""Q0"":""mike is touching dave""}","<img src=""stim_listB/touch5.gif""style=""height:400px;""></stim_listB>","is touching","","","","","",""
"null","<div style=""font-size:60px;"">+</div>","","html-keyboard-response","348","1900939","0.0-19.0-0.6","90084","List2B","black","woman","","","","null","","","","","","","","",""
"null","<img src=""stim_listB/touch7.gif""style=""height:400px;""></stim_listB>","","html-keyboard-response","349","1902954","0.0-19.0-1.6","90084","List2B","black","woman","","","","null","","","","","","","","",""
"null","is touching","","html-keyboard-response","350","1904956","0.0-19.0-2.6","90084","List2B","black","woman","","","","null","","","","","","","","",""
"4125.4000000059605","","","survey-text","351","1909085","0.0-19.0-3.6","90084","List2B","black","woman","","","","","{""Q0"":"" touching jane""}","<img src=""stim_listB/touch7.gif""style=""height:400px;""></stim_listB>","is touching","","","","","",""
"null","<div style=""font-size:60px;"">+</div>","","html-keyboard-response","352","1909590","0.0-19.0-0.7","90084","List2B","black","woman","","","","null","","","","","","","","",""
"null","<img src=""stim_listB/greet2.gif""style=""height:400px;""></stim_listB>","","html-keyboard-response","353","1911606","0.0-19.0-1.7","90084","List2B","black","woman","","","","null","","","","","","","","",""
"null","is being greeted by","","html-keyboard-response","354","1913611","0.0-19.0-2.7","90084","List2B","black","woman","","","","null","","","","","","","","",""
"7470.20000000298","","","survey-text","355","1921085","0.0-19.0-3.7","90084","List2B","black","woman","","","","","{""Q0"":""luke is being greeted by jane""}","<img src=""stim_listB/greet2.gif""style=""height:400px;""></stim_listB>","is being greeted by","","","","","",""
"null","<div style=""font-size:60px;"">+</div>","","html-keyboard-response","356","1921601","0.0-19.0-0.8","90084","List2B","black","woman","","","","null","","","","","","","","",""
"null","<img src=""stim_listB/seduce8.gif""style=""height:400px;""></stim_listB>","","html-keyboard-response","357","1923610","0.0-19.0-1.8","90084","List2B","black","woman","","","","null","","","","","","","","",""
"null","is being seduced by","","html-keyboard-response","358","1925626","0.0-19.0-2.8","90084","List2B","black","woman","","","","null","","","","","","","","",""
"7510.70000000298","","","survey-text","359","1933142","0.0-19.0-3.8","90084","List2B","black","woman","","","","","{""Q0"":""jane is being seduced by beth""}","<img src=""stim_listB/seduce8.gif""style=""height:400px;""></stim_listB>","is being seduced by","","","","","",""
"null","<div style=""font-size:60px;"">+</div>","","html-keyboard-response","360","1933659","0.0-19.0-0.9","90084","List2B","black","woman","","","","null","","","","","","","","",""
"null","<img src=""stim_listB/look1.gif""style=""height:400px;""></stim_listB>","","html-keyboard-response","361","1935675","0.0-19.0-1.9","90084","List2B","black","woman","","","","null","","","","","","","","",""
"null","is looking at","","html-keyboard-response","362","1937688","0.0-19.0-2.9","90084","List2B","black","woman","","","","null","","","","","","","","",""
"13185.20000000298","","","survey-text","363","1950878","0.0-19.0-3.9","90084","List2B","black","woman","","","","","{""Q0"":""luke is looking at ruth""}","<img src=""stim_listB/look1.gif""style=""height:400px;""></stim_listB>","is looking at","","","","","",""
"null","<div style=""font-size:60px;"">+</div>","","html-keyboard-response","364","1951395","0.0-19.0-0.10","90084","List2B","black","woman","","","","null","","","","","","","","",""
"null","<img src=""stim_listB/kiss6.gif""style=""height:400px;""></stim_listB>","","html-keyboard-response","365","1953412","0.0-19.0-1.10","90084","List2B","black","woman","","","","null","","","","","","","","",""
"null","is being kissed by","","html-keyboard-response","366","1955426","0.0-19.0-2.10","90084","List2B","black","woman","","","","null","","","","","","","","",""
"7583.0999999940395","","","survey-text","367","1963014","0.0-19.0-3.10","90084","List2B","black","woman","","","","","{""Q0"":""dave is being kissed by mike""}","<img src=""stim_listB/kiss6.gif""style=""height:400px;""></stim_listB>","is being kissed by","","","","","",""
"null","<div style=""font-size:60px;"">+</div>","","html-keyboard-response","368","1963529","0.0-19.0-0.11","90084","List2B","black","woman","","","","null","","","","","","","","",""
"null","<img src=""stim_listB/greet1.gif""style=""height:400px;""></stim_listB>","","html-keyboard-response","369","1965547","0.0-19.0-1.11","90084","List2B","black","woman","","","","null","","","","","","","","",""
"null","is greeting","","html-keyboard-response","370","1967551","0.0-19.0-2.11","90084","List2B","black","woman","","","","null","","","","","","","","",""
"7450.0999999940395","","","survey-text","371","1975005","0.0-19.0-3.11","90084","List2B","black","woman","","","","","{""Q0"":""ruth is greeting dave""}","<img src=""stim_listB/greet1.gif""style=""height:400px;""></stim_listB>","is greeting","","","","","",""
"null","<div style=""font-size:60px;"">+</div>","","html-keyboard-response","372","1975514","0.0-19.0-0.12","90084","List2B","black","woman","","","","null","","","","","","","","",""
"null","<img src=""stim_listB/hug7.gif""style=""height:400px;""></stim_listB>","","html-keyboard-response","373","1977532","0.0-19.0-1.12","90084","List2B","black","woman","","","","null","","","","","","","","",""
"null","is hugging","","html-keyboard-response","374","1979539","0.0-19.0-2.12","90084","List2B","black","woman","","","","null","","","","","","","","",""
"7302","","","survey-text","375","1986845","0.0-19.0-3.12","90084","List2B","black","woman","","","","","{""Q0"":""beth is hugging ruth""}","<img src=""stim_listB/hug7.gif""style=""height:400px;""></stim_listB>","is hugging","","","","","",""
"null","<div style=""font-size:60px;"">+</div>","","html-keyboard-response","376","1987352","0.0-19.0-0.13","90084","List2B","black","woman","","","","null","","","","","","","","",""
"null","<img src=""stim_listB/shout1.gif""style=""height:400px;""></stim_listB>","","html-keyboard-response","377","1989358","0.0-19.0-1.13","90084","List2B","black","woman","","","","null","","","","","","","","",""
"null","is shouting at","","html-keyboard-response","378","1991366","0.0-19.0-2.13","90084","List2B","black","woman","","","","null","","","","","","","","",""
"11411","","","survey-text","379","2002782","0.0-19.0-3.13","90084","List2B","black","woman","","","","","{""Q0"":""ruth is shouting at luke""}","<img src=""stim_listB/shout1.gif""style=""height:400px;""></stim_listB>","is shouting at","","","","","",""
"null","<div style=""font-size:60px;"">+</div>","","html-keyboard-response","380","2003286","0.0-19.0-0.14","90084","List2B","black","woman","","","","null","","","","","","","","",""
"null","<img src=""stim_listB/shout7.gif""style=""height:400px;""></stim_listB>","","html-keyboard-response","381","2005293","0.0-19.0-1.14","90084","List2B","black","woman","","","","null","","","","","","","","",""
"null","is shouting at","","html-keyboard-response","382","2007306","0.0-19.0-2.14","90084","List2B","black","woman","","","","null","","","","","","","","",""
"7710.20000000298","","","survey-text","383","2015021","0.0-19.0-3.14","90084","List2B","black","woman","","","","","{""Q0"":""beth is shouting at ruth""}","<img src=""stim_listB/shout7.gif""style=""height:400px;""></stim_listB>","is shouting at","","","","","",""
"null","<div style=""font-size:60px;"">+</div>","","html-keyboard-response","384","2015538","0.0-19.0-0.15","90084","List2B","black","woman","","","","null","","","","","","","","",""
"null","<img src=""stim_listB/kiss8.gif""style=""height:400px;""></stim_listB>","","html-keyboard-response","385","2017554","0.0-19.0-1.15","90084","List2B","black","woman","","","","null","","","","","","","","",""
"null","is being kissed by","","html-keyboard-response","386","2019571","0.0-19.0-2.15","90084","List2B","black","woman","","","","null","","","","","","","","",""
"6893.79999999702","","","survey-text","387","2026470","0.0-19.0-3.15","90084","List2B","black","woman","","","","","{""Q0"":""jane is being kissed by kate""}","<img src=""stim_listB/kiss8.gif""style=""height:400px;""></stim_listB>","is being kissed by","","","","","",""
"null","<div style=""font-size:60px;"">+</div>","","html-keyboard-response","388","2026974","0.0-19.0-0.16","90084","List2B","black","woman","","","","null","","","","","","","","",""
"null","<img src=""stim_listB/challenge6.gif""style=""height:400px;""></stim_listB>","","html-keyboard-response","389","2028989","0.0-19.0-1.16","90084","List2B","black","woman","","","","null","","","","","","","","",""
"null","is being challenged by","","html-keyboard-response","390","2030993","0.0-19.0-2.16","90084","List2B","black","woman","","","","null","","","","","","","","",""
"8357.800000011921","","","survey-text","391","2039358","0.0-19.0-3.16","90084","List2B","black","woman","","","","","{""Q0"":""luke is being challenged by mike""}","<img src=""stim_listB/challenge6.gif""style=""height:400px;""></stim_listB>","is being challenged by","","","","","",""
"null","<div style=""font-size:60px;"">+</div>","","html-keyboard-response","392","2039875","0.0-19.0-0.17","90084","List2B","black","woman","","","","null","","","","","","","","",""
"null","<img src=""stim_listB/copy4.gif""style=""height:400px;""></stim_listB>","","html-keyboard-response","393","2041890","0.0-19.0-1.17","90084","List2B","black","woman","","","","null","","","","","","","","",""
"null","is being copied by","","html-keyboard-response","394","2043901","0.0-19.0-2.17","90084","List2B","black","woman","","","","null","","","","","","","","",""
"9891.90000000596","","","survey-text","395","2053797","0.0-19.0-3.17","90084","List2B","black","woman","","","","","{""Q0"":""fred is being copied by kate""}","<img src=""stim_listB/copy4.gif""style=""height:400px;""></stim_listB>","is being copied by","","","","","",""
"null","<div style=""font-size:60px;"">+</div>","","html-keyboard-response","396","2054311","0.0-19.0-0.18","90084","List2B","black","woman","","","","null","","","","","","","","",""
"null","<img src=""stim_listB/shout3.gif""style=""height:400px;""></stim_listB>","","html-keyboard-response","397","2056315","0.0-19.0-1.18","90084","List2B","black","woman","","","","null","","","","","","","","",""
"null","is shouting at","","html-keyboard-response","398","2058328","0.0-19.0-2.18","90084","List2B","black","woman","","","","null","","","","","","","","",""
"7664.100000008941","","","survey-text","399","2065997","0.0-19.0-3.18","90084","List2B","black","woman","","","","","{""Q0"":""beth is shouting at fred""}","<img src=""stim_listB/shout3.gif""style=""height:400px;""></stim_listB>","is shouting at","","","","","",""
"null","<div style=""font-size:60px;"">+</div>","","html-keyboard-response","400","2066501","0.0-19.0-0.19","90084","List2B","black","woman","","","","null","","","","","","","","",""
"null","<img src=""stim_listB/touch6.gif""style=""height:400px;""></stim_listB>","","html-keyboard-response","401","2068513","0.0-19.0-1.19","90084","List2B","black","woman","","","","null","","","","","","","","",""
"null","is being touched by","","html-keyboard-response","402","2070529","0.0-19.0-2.19","90084","List2B","black","woman","","","","null","","","","","","","","",""
"6952.699999988079","","","survey-text","403","2077486","0.0-19.0-3.19","90084","List2B","black","woman","","","","","{""Q0"":""luke is being touched by fred""}","<img src=""stim_listB/touch6.gif""style=""height:400px;""></stim_listB>","is being touched by","","","","","",""
"5770.600000008941","<p>Thank you for completing that task.</p><p>The final part of this session is a questionnaire that will take about 4 minutes.</p><p>Press Continue.</p>","0","html-button-response","404","2083259","0.0-20.0","90084","List2B","black","woman","","","","","","","","","","","","",""
"64954.89999999106","","","survey-text","405","2149236","0.0-21.0","90084","List2B","black","woman","","","","","{""Q0"":""27"",""Q1"":""English"",""Q2"":""English"",""Q3"":""UNITED STATE OF AMERICA"",""Q4"":""Ghanaian"",""Q5"":""Black"",""Q6"":""Female""}","","","demographics","","","","",""
"3386","<p>Have you lived in the USA for the last 5 years or more?</p>","0","html-button-response","406","2152627","0.0-22.0","90084","List2B","black","woman","","","","","","","","fiveyears","","","","",""
"2910.8999999910593","<p>Move the slider to show the extent to which you agree with the following statements.</p>","0","html-button-response","407","2156547","0.0-23.0","90084","List2B","black","woman","","","","","","","","","","","","",""
"4831.79999999702","","","html-slider-response","408","2162395","0.0-24.0-0.0-0.0","90084","List2B","black","woman","","","","","","","","survey_gender","100","","","It is pleasant to be my gender.","pleasant"
"8531.70000000298","","","html-slider-response","409","2170931","0.0-24.0-0.0-0.1","90084","List2B","black","woman","","","","","","","","survey_gender","70","","","I have a lot in common with the average person of my gender.","average"
"6004.20000000298","","","html-slider-response","410","2176939","0.0-24.0-0.0-0.2","90084","List2B","black","woman","","","","","","","","survey_gender","54","","","I am similar to the average person of my gender.","similar"
"3499.8999999910593","","","html-slider-response","411","2180443","0.0-24.0-0.0-0.3","90084","List2B","black","woman","","","","","","","","survey_gender","100","","","I feel solidarity with my friends.","filler"
"4532.0999999940395","","","html-slider-response","412","2184978","0.0-24.0-0.0-0.4","90084","List2B","black","woman","","","","","","","","survey_gender","100","","","Being around my friends gives me a good feeling.","filler"
"3972.3999999910593","","","html-slider-response","413","2188954","0.0-24.0-0.0-0.5","90084","List2B","black","woman","","","","","","","","survey_gender","86","","","I consider myself a highly empathetic person.","filler"
"4541.5","","","html-slider-response","414","2193498","0.0-24.0-0.0-0.6","90084","List2B","black","woman","","","","","","","","survey_gender","81","","","People of my gender have a lot in common with each other.","common"
"10396.300000011921","","","html-slider-response","415","2203899","0.0-24.0-0.0-0.7","90084","List2B","black","woman","","","","","","","","survey_gender","20","","","Family is not more important to me than friendship.","filler"
"4860","","","html-slider-response","416","2208764","0.0-24.0-0.0-0.8","90084","List2B","black","woman","","","","","","","","survey_gender","71","","","My friends understand me.","filler"
"4443.899999991059","","","html-slider-response","417","2213211","0.0-24.0-0.0-0.9","90084","List2B","black","woman","","","","","","","","survey_gender","65","","","I feel committed to my gender.","committed"
"3522.7999999970198","","","html-slider-response","418","2216739","0.0-24.0-0.0-0.10","90084","List2B","black","woman","","","","","","","","survey_gender","90","","","I often think about my actions.","filler"
"3357.5999999940395","","","html-slider-response","419","2220100","0.0-24.0-0.0-0.11","90084","List2B","black","woman","","","","","","","","survey_gender","100","","","I am glad to have the friends that I have.","filler"
"3867.7999999970198","","","html-slider-response","420","2223971","0.0-24.0-0.0-0.12","90084","List2B","black","woman","","","","","","","","survey_gender","100","","","The fact that I am my gender is an important part of my identity.","identity"
"4596.800000011921","","","html-slider-response","421","2228571","0.0-24.0-0.0-0.13","90084","List2B","black","woman","","","","","","","","survey_gender","85","","","Most of the friends in my life are very similar to me.","filler"
"4812.29999999702","","","html-slider-response","422","2233387","0.0-24.0-0.0-0.14","90084","List2B","black","woman","","","","","","","","survey_gender","98","","","Being my gender gives me a good feeling.","feeling"
"2860.7999999970198","","","html-slider-response","423","2236252","0.0-24.0-0.0-0.15","90084","List2B","black","woman","","","","","","","","survey_gender","100","","","I feel solidarity with my gender.","solidarity"
"2853.0999999940395","","","html-slider-response","424","2239108","0.0-24.0-0.0-0.16","90084","List2B","black","woman","","","","","","","","survey_gender","100","","","I feel a bond with my friends.","filler"
"5244.20000000298","","","html-slider-response","425","2244355","0.0-24.0-0.0-0.17","90084","List2B","black","woman","","","","","","","","survey_gender","55","","","People of my gender are very similar to each other.","verysimilar"
"8396.300000011921","","","html-slider-response","426","2252755","0.0-24.0-0.0-0.18","90084","List2B","black","woman","","","","","","","","survey_gender","61","","","I often think about the fact that I am my gender.","often"
"5092.4000000059605","","","html-slider-response","427","2257852","0.0-24.0-0.0-0.19","90084","List2B","black","woman","","","","","","","","survey_gender","61","","","My friends have a lot in common with each other.","filler"
"4651","","","html-slider-response","428","2262507","0.0-24.0-0.0-0.20","90084","List2B","black","woman","","","","","","","","survey_gender","24","","","Routine is not important to me.","filler"
"4348.399999991059","","","html-slider-response","429","2266859","0.0-24.0-0.0-0.21","90084","List2B","black","woman","","","","","","","","survey_gender","61","","","I feel a bond with my gender.","bond"
"2988.8999999910593","","","html-slider-response","430","2269851","0.0-24.0-0.0-0.22","90084","List2B","black","woman","","","","","","","","survey_gender","100","","","I am glad to be my gender.","glad"
"6270.5","","","html-slider-response","431","2276124","0.0-24.0-0.0-0.23","90084","List2B","black","woman","","","","","","","","survey_gender","76","","","It is not always easy for people to know what I am thinking.","filler"
"4523.4000000059605","","","html-slider-response","432","2280651","0.0-24.0-0.0-0.24","90084","List2B","black","woman","","","","","","","","survey_gender","100","","","Being my gender is an important part of how I see myself.","important"
"8131.79999999702","","","html-slider-response","433","2288787","0.0-24.0-0.0-0.25","90084","List2B","black","woman","","","","","","","","survey_gender","56","","","I would say I am an animal person.","filler"
"4092","","","html-slider-response","434","2292883","0.0-24.0-0.0-0.26","90084","List2B","black","woman","","","","","","","","survey_gender","100","","","I think that my gender has a lot to be proud of.","proud"
"4891.5999999940395","","","html-slider-response","435","2297779","0.0-24.0-0.0-0.27","90084","List2B","black","woman","","","","","","","","survey_gender","75","","","I have a lot in common with my friends.","filler"
"7700.600000008941","","","html-slider-response","436","2305482","0.0-24.0-1.0-0.0","90084","List2B","black","woman","","","","","","","","survey_race","51","","","People my age have a lot in common with each other.","filler"
"4364.399999991059","","","html-slider-response","437","2309851","0.0-24.0-1.0-0.1","90084","List2B","black","woman","","","","","","","","survey_race","73","","","Being my race gives me a good feeling.","feeling"
"6956.800000011921","","","html-slider-response","438","2316811","0.0-24.0-1.0-0.2","90084","List2B","black","woman","","","","","","","","survey_race","82","","","People of my race have a lot in common with each other.","common"
"2936.7000000029802","","","html-slider-response","439","2319755","0.0-24.0-1.0-0.3","90084","List2B","black","woman","","","","","","","","survey_race","68","","","I am glad to be my race.","glad"
"3330.2000000029802","","","html-slider-response","440","2323091","0.0-24.0-1.0-0.4","90084","List2B","black","woman","","","","","","","","survey_race","67","","","The fact that I am my race is an important part of my identity.","identity"
"2637.5","","","html-slider-response","441","2325731","0.0-24.0-1.0-0.5","90084","List2B","black","woman","","","","","","","","survey_race","64","","","I feel solidarity with my race.","solidarity"
"4932.70000000298","","","html-slider-response","442","2330667","0.0-24.0-1.0-0.6","90084","List2B","black","woman","","","","","","","","survey_race","53","","","I have a lot in common with the average person of my race.","average"
"5500","","","html-slider-response","443","2336171","0.0-24.0-1.0-0.7","90084","List2B","black","woman","","","","","","","","survey_race","41","","","I am similar to the average person of my race.","similar"
"7612.4000000059605","","","html-slider-response","444","2343787","0.0-24.0-1.0-0.8","90084","List2B","black","woman","","","","","","","","survey_race","55","","","I feel solidarity with people the same age as me.","filler"
"5971.300000011921","","","html-slider-response","445","2349763","0.0-24.0-1.0-0.9","90084","List2B","black","woman","","","","","","","","survey_race","89","","","Being my race is an important part of how I see myself.","important"
"4636.800000011921","","","html-slider-response","446","2354403","0.0-24.0-1.0-0.10","90084","List2B","black","woman","","","","","","","","survey_race","39","","","Being my age gives me a good feeling.","filler"
"7837.0999999940395","","","html-slider-response","447","2362244","0.0-24.0-1.0-0.11","90084","List2B","black","woman","","","","","","","","survey_race","38","","","I feel a bond with people the same age as me.","filler"
"3987.5999999940395","","","html-slider-response","448","2366235","0.0-24.0-1.0-0.12","90084","List2B","black","woman","","","","","","","","survey_race","33","","","I consider myself an introvert.","filler"
"6780.70000000298","","","html-slider-response","449","2373019","0.0-24.0-1.0-0.13","90084","List2B","black","woman","","","","","","","","survey_race","65","","","I often think about the fact that I am my age.","filler"
"4467.9000000059605","","","html-slider-response","450","2377491","0.0-24.0-1.0-0.14","90084","List2B","black","woman","","","","","","","","survey_race","62","","","My age is not an important part of who I am.","filler"
"5436.100000008941","","","html-slider-response","451","2382931","0.0-24.0-1.0-0.15","90084","List2B","black","woman","","","","","","","","survey_race","85","","","I often think about the fact that I am my race.","often"
"3868.699999988079","","","html-slider-response","452","2386803","0.0-24.0-1.0-0.16","90084","List2B","black","woman","","","","","","","","survey_race","76","","","I feel a bond with my race.","bond"
"5043.600000008941","","","html-slider-response","453","2391851","0.0-24.0-1.0-0.17","90084","List2B","black","woman","","","","","","","","survey_race","52","","","I am glad to be my age.","filler"
"6372.29999999702","","","html-slider-response","454","2398227","0.0-24.0-1.0-0.18","90084","List2B","black","woman","","","","","","","","survey_race","40","","","People of my race are very similar to each other.","verysimilar"
"5532.70000000298","","","html-slider-response","455","2403764","0.0-24.0-1.0-0.19","90084","List2B","black","woman","","","","","","","","survey_race","31","","","I enjoy being in large groups.","filler"
"3498.7999999970198","","","html-slider-response","456","2407267","0.0-24.0-1.0-0.20","90084","List2B","black","woman","","","","","","","","survey_race","55","","","It is pleasant to be my race.","pleasant"
"3125.1000000089407","","","html-slider-response","457","2410396","0.0-24.0-1.0-0.21","90084","List2B","black","woman","","","","","","","","survey_race","38","","","I am glad to be the age I am.","filler"
"4756.5","","","html-slider-response","458","2415155","0.0-24.0-1.0-0.22","90084","List2B","black","woman","","","","","","","","survey_race","72","","","I consider myself an extrovert.","filler"
"3300","","","html-slider-response","459","2418459","0.0-24.0-1.0-0.23","90084","List2B","black","woman","","","","","","","","survey_race","79","","","I feel committed to my race.","committed"
"4228.79999999702","","","html-slider-response","460","2422691","0.0-24.0-1.0-0.24","90084","List2B","black","woman","","","","","","","","survey_race","26","","","Getting older does not worry me.","filler"
"6843.800000011921","","","html-slider-response","461","2429539","0.0-24.0-1.0-0.25","90084","List2B","black","woman","","","","","","","","survey_race","71","","","I think that my race has a lot to be proud of.","proud"
"3755.9000000059605","","","html-slider-response","462","2433300","0.0-24.0-1.0-0.26","90084","List2B","black","woman","","","","","","","","survey_race","85","","","The older I get, the wiser I feel.","filler"
"7309.199999988079","","","html-slider-response","463","2440611","0.0-24.0-1.0-0.27","90084","List2B","black","woman","","","","","","","","survey_race","57","","","I have a lot in common with people of a similar age to me.","filler"
"20106","","","survey-text","464","2460724","0.0-25.0","90084","List2B","black","woman","","","","","{""Q0"":""614c9111fba6343ab1e06012""}","","","worker_id","","","","",""
"13451.59999999404","","","external-html","465","2482972","0.0-26.0","90084","List2B","black","woman","debrief.html","","","","","","","","","","","",""
