rt,stimulus,button_pressed,trial_type,trial_index,time_elapsed,internal_node_id,subject,list,ppt_race,ppt_gender,url,first_guess,correct,key_press,responses,image_type,phrase_type,test_part,response,stimulus1,stimulus2,question_type,survey_item
4889.6,Welcome to the experiment. Press Continue to begin.,0,html-button-response,0,4892,0.0-0.0,9060,List2A,black,woman,,,,,,,,,,,,,
174593.5,,,external-html,1,180786,0.0-1.0,9060,List2A,black,woman,consent.html,,,,,,,,,,,,
26871.4,"<p>On the next page, you will see portraits of 8 people and their names.</p><p>Your first task is to take a few minutes to memorise the names of these people.</p><p>You will have to recall their names during the rest of the experiment, so it is</p><p>essential that you try to memorise these people and their names as best as you can.</p><br><p><strong>You will then be tested on your memory of these names and portraits.</strong></p><br><p>The experiment will start after you have completed this memory test.</p><br><p>Ready?</p>",0,html-button-response,2,207659,0.0-2.0,9060,List2A,black,woman,,,,,,,,,,,,,
124361,"<img src='img/portrait_matrix_list2.jpg' style='width:900px;height:500px;''></img><p>If you have memorised all the portraits and names and are ready to start, press Continue.</p><p><strong>Please note: Your memory of these faces will be tested 4 times during this experiment.</strong></p>",0,html-button-response,3,333023,0.0-3.0-0.0,9060,List2A,black,woman,,,,,,,,,,,,,
8966.6,"<img src=""portrait/BM1.jpg""style=""height:400px;""></img>",4,html-button-response,4,342992,0.0-3.0-1.0,9060,List2A,black,woman,,TRUE,4,,,,,,,,,,
null,CORRECT,,html-keyboard-response,5,344499,0.0-3.0-2.0-0.0,9060,List2A,black,woman,,,,null,,,,,,,,,
5393.4,"<img src=""portrait/BW1.jpg""style=""height:400px;""></img>",0,html-button-response,6,349894,0.0-3.0-4.0,9060,List2A,black,woman,,TRUE,0,,,,,,,,,,
null,CORRECT,,html-keyboard-response,7,351406,0.0-3.0-5.0-0.0,9060,List2A,black,woman,,,,null,,,,,,,,,
4665.9,"<img src=""portrait/WW1.jpg""style=""height:400px;""></img>",1,html-button-response,8,356074,0.0-3.0-7.0,9060,List2A,black,woman,,TRUE,1,,,,,,,,,,
null,CORRECT,,html-keyboard-response,9,357576,0.0-3.0-8.0-0.0,9060,List2A,black,woman,,,,null,,,,,,,,,
5136.2,"<img src=""portrait/WW2.jpg""style=""height:400px;""></img>",2,html-button-response,10,362714,0.0-3.0-10.0,9060,List2A,black,woman,,TRUE,3,,,,,,,,,,
2015,"<img src=""portrait/WW2.jpg""style=""height:400px;""></img>",3,html-button-response,11,365735,0.0-3.0-12.0-0.0,9060,List2A,black,woman,,FALSE,3,,,,,,,,,,
null,CORRECT,,html-keyboard-response,12,367244,0.0-3.0-12.0-1.0-0.0,9060,List2A,black,woman,,,,null,,,,,,,,,
28147.7,"<img src=""portrait/BW2.jpg""style=""height:400px;""></img>",2,html-button-response,13,395393,0.0-3.0-13.0,9060,List2A,black,woman,,TRUE,2,,,,,,,,,,
null,CORRECT,,html-keyboard-response,14,396905,0.0-3.0-14.0-0.0,9060,List2A,black,woman,,,,null,,,,,,,,,
3566.8,"<img src=""portrait/WM2.jpg""style=""height:400px;""></img>",7,html-button-response,15,400473,0.0-3.0-16.0,9060,List2A,black,woman,,TRUE,7,,,,,,,,,,
null,CORRECT,,html-keyboard-response,16,401976,0.0-3.0-17.0-0.0,9060,List2A,black,woman,,,,null,,,,,,,,,
4446.1,"<img src=""portrait/BM2.jpg""style=""height:400px;""></img>",4,html-button-response,17,406424,0.0-3.0-19.0,9060,List2A,black,woman,,TRUE,5,,,,,,,,,,
1092.7,"<img src=""portrait/BM2.jpg""style=""height:400px;""></img>",5,html-button-response,18,408524,0.0-3.0-21.0-0.0,9060,List2A,black,woman,,FALSE,5,,,,,,,,,,
null,CORRECT,,html-keyboard-response,19,410029,0.0-3.0-21.0-1.0-0.0,9060,List2A,black,woman,,,,null,,,,,,,,,
12946.3,"<img src=""portrait/WM1.jpg""style=""height:400px;""></img>",6,html-button-response,20,422977,0.0-3.0-22.0,9060,List2A,black,woman,,TRUE,6,,,,,,,,,,
null,CORRECT,,html-keyboard-response,21,424487,0.0-3.0-23.0-0.0,9060,List2A,black,woman,,,,null,,,,,,,,,
28131.3,<p>You got 6 out of 8 right first time. Press Continue.</p>,0,html-button-response,22,452620,0.0-3.0-25.0,9060,List2A,black,woman,,,,,,,,,,,,,
8275.2,"As you did not score 100%, the memory game will repeat. Press Continue.",0,html-button-response,23,461899,0.0-3.0-26.0-0.0,9060,List2A,black,woman,,,,,,,,,,,,,
6193.6,"<img src='img/portrait_matrix_list2.jpg' style='width:900px;height:500px;''></img><p>If you have memorised all the portraits and names and are ready to start, press Continue.</p><p><strong>Please note: Your memory of these faces will be tested 4 times during this experiment.</strong></p>",0,html-button-response,24,469098,0.0-3.1-0.1,9060,List2A,black,woman,,,,,,,,,,,,,
2200.3,"<img src=""portrait/BM1.jpg""style=""height:400px;""></img>",4,html-button-response,25,472305,0.0-3.1-1.1,9060,List2A,black,woman,,TRUE,4,,,,,,,,,,
null,CORRECT,,html-keyboard-response,26,473816,0.0-3.1-2.1-0.1,9060,List2A,black,woman,,,,null,,,,,,,,,
2976.6,"<img src=""portrait/BW1.jpg""style=""height:400px;""></img>",0,html-button-response,27,476794,0.0-3.1-4.1,9060,List2A,black,woman,,TRUE,0,,,,,,,,,,
null,CORRECT,,html-keyboard-response,28,478298,0.0-3.1-5.1-0.1,9060,List2A,black,woman,,,,null,,,,,,,,,
2623.1,"<img src=""portrait/WW1.jpg""style=""height:400px;""></img>",1,html-button-response,29,480922,0.0-3.1-7.1,9060,List2A,black,woman,,TRUE,1,,,,,,,,,,
null,CORRECT,,html-keyboard-response,30,482427,0.0-3.1-8.1-0.1,9060,List2A,black,woman,,,,null,,,,,,,,,
3155.3,"<img src=""portrait/WW2.jpg""style=""height:400px;""></img>",3,html-button-response,31,485583,0.0-3.1-10.1,9060,List2A,black,woman,,TRUE,3,,,,,,,,,,
null,CORRECT,,html-keyboard-response,32,487090,0.0-3.1-11.1-0.1,9060,List2A,black,woman,,,,null,,,,,,,,,
7763.8,"<img src=""portrait/BW2.jpg""style=""height:400px;""></img>",2,html-button-response,33,494855,0.0-3.1-13.1,9060,List2A,black,woman,,TRUE,2,,,,,,,,,,
null,CORRECT,,html-keyboard-response,34,496363,0.0-3.1-14.1-0.1,9060,List2A,black,woman,,,,null,,,,,,,,,
11756.7,"<img src=""portrait/WM2.jpg""style=""height:400px;""></img>",7,html-button-response,35,508121,0.0-3.1-16.1,9060,List2A,black,woman,,TRUE,7,,,,,,,,,,
null,CORRECT,,html-keyboard-response,36,509627,0.0-3.1-17.1-0.1,9060,List2A,black,woman,,,,null,,,,,,,,,
2475.3,"<img src=""portrait/BM2.jpg""style=""height:400px;""></img>",5,html-button-response,37,512103,0.0-3.1-19.1,9060,List2A,black,woman,,TRUE,5,,,,,,,,,,
null,CORRECT,,html-keyboard-response,38,513609,0.0-3.1-20.1-0.1,9060,List2A,black,woman,,,,null,,,,,,,,,
2790.7,"<img src=""portrait/WM1.jpg""style=""height:400px;""></img>",6,html-button-response,39,516401,0.0-3.1-22.1,9060,List2A,black,woman,,TRUE,6,,,,,,,,,,
null,CORRECT,,html-keyboard-response,40,517909,0.0-3.1-23.1-0.1,9060,List2A,black,woman,,,,null,,,,,,,,,
1810.3,<p>You got 8 out of 8 right first time. Press Continue.</p>,0,html-button-response,41,519720,0.0-3.1-25.1,9060,List2A,black,woman,,,,,,,,,,,,,
75838.4,"<p>In this experiment, you will view photographs of the people from the memory game interacting.</p><p>By using the <strong>exact</strong> phrase given <i>after</i> the photograph appears and recalling the correct names of the people in the photographs, form a sentence describing the interaction. You do not need to capitalise names.</p><p>Type your answer in the space provided. Please complete every sentence before moving onto the next trial.</p><p>You will only have a few seconds to memorise each given photograph and phrase before you can respond, so try your best to focus.</p><p>An example is given below. Press 'Continue' when you are ready.</p><img src='img/speaking_example.jpg' style='width:800px;height:460px;''></img>",0,html-button-response,42,596563,0.0-4.0,9060,List2A,black,woman,,,,,,,,,,,,,
1665.7,"<p>Before the experiment starts, you will watch two example trials. Press 'Continue'.</p>",0,html-button-response,43,599232,0.0-5.0,9060,List2A,black,woman,,,,,,,,,,,,,
null,<img src='img/play_eg.gif' style='height:400px;''></img>,,html-keyboard-response,44,602239,0.0-6.0,9060,List2A,black,woman,,,,null,,,,,,,,,
null,<p>is playing with</p>,,html-keyboard-response,45,604241,0.0-7.0,9060,List2A,black,woman,,,,null,,,,,,,,,
1935.1,<p><b>Answer:</b> jane is playing with ruth</p>,0,html-button-response,46,606177,0.0-8.0,9060,List2A,black,woman,,,,,,,,,,,,,
null,<img src='img/dance_eg.gif' style='height:400px;''></img>,,html-keyboard-response,47,609184,0.0-9.0,9060,List2A,black,woman,,,,null,,,,,,,,,
null,<p>is being entertained by</p>,,html-keyboard-response,48,611188,0.0-10.0,9060,List2A,black,woman,,,,null,,,,,,,,,
1032.3,<p><b>Answer:</b> fred is being entertained by mike</p>,0,html-button-response,49,612221,0.0-11.0,9060,List2A,black,woman,,,,,,,,,,,,,
30450.1,"<p>Ready to start the experiment?</p><br><p><strong>Remember to describe the picture using a full sentence,</strong></p><p><strong>that combines the names of the people with the <i>exact</i> phrase given.</strong></p><p><strong>To receive full payment you must do this correctly.</strong></p><p><strong> You do not need to capitalise names or use punctuation.</strong></p><br><p>Press 'Continue' to begin.</p>",0,html-button-response,50,643674,0.0-12.0,9060,List2A,black,woman,,,,,,,,,,,,,
null,"<div style=""font-size:60px;"">+</div>",,html-keyboard-response,51,645183,0.0-13.0-0.0,9060,List2A,black,woman,,,,null,,,,,,,,,
null,"<img src=""stim_listA/seduce4.gif""style=""height:400px;""></stim_listA>",,html-keyboard-response,52,647185,0.0-13.0-1.0,9060,List2A,black,woman,,,,null,,,,,,,,,
null,is being seduced by,,html-keyboard-response,53,649187,0.0-13.0-2.0,9060,List2A,black,woman,,,,null,,,,,,,,,
19246.4,,,survey-text,54,668436,0.0-13.0-3.0,9060,List2A,black,woman,,,,,"{""Q0"":""beth is seduced by mikr""}","<img src=""stim_listA/seduce4.gif""style=""height:400px;""></stim_listA>",is being seduced by,,,,,,
null,"<div style=""font-size:60px;"">+</div>",,html-keyboard-response,55,668938,0.0-13.0-0.1,9060,List2A,black,woman,,,,null,,,,,,,,,
null,"<img src=""stim_listA/touch7.gif""style=""height:400px;""></stim_listA>",,html-keyboard-response,56,670943,0.0-13.0-1.1,9060,List2A,black,woman,,,,null,,,,,,,,,
null,is touching,,html-keyboard-response,57,672949,0.0-13.0-2.1,9060,List2A,black,woman,,,,null,,,,,,,,,
13374.8,,,survey-text,58,686326,0.0-13.0-3.1,9060,List2A,black,woman,,,,,"{""Q0"":""Jane is touching Kate""}","<img src=""stim_listA/touch7.gif""style=""height:400px;""></stim_listA>",is touching,,,,,,
null,"<div style=""font-size:60px;"">+</div>",,html-keyboard-response,59,686832,0.0-13.0-0.2,9060,List2A,black,woman,,,,null,,,,,,,,,
null,"<img src=""stim_listA/hug3.gif""style=""height:400px;""></stim_listA>",,html-keyboard-response,60,688840,0.0-13.0-1.2,9060,List2A,black,woman,,,,null,,,,,,,,,
null,is hugging,,html-keyboard-response,61,690841,0.0-13.0-2.2,9060,List2A,black,woman,,,,null,,,,,,,,,
6562.8,,,survey-text,62,697406,0.0-13.0-3.2,9060,List2A,black,woman,,,,,"{""Q0"":""beth is hugging fred""}","<img src=""stim_listA/hug3.gif""style=""height:400px;""></stim_listA>",is hugging,,,,,,
null,"<div style=""font-size:60px;"">+</div>",,html-keyboard-response,63,697907,0.0-13.0-0.3,9060,List2A,black,woman,,,,null,,,,,,,,,
null,"<img src=""stim_listA/copy1.gif""style=""height:400px;""></stim_listA>",,html-keyboard-response,64,699913,0.0-13.0-1.3,9060,List2A,black,woman,,,,null,,,,,,,,,
null,is copying,,html-keyboard-response,65,701915,0.0-13.0-2.3,9060,List2A,black,woman,,,,null,,,,,,,,,
9869.4,,,survey-text,66,711786,0.0-13.0-3.3,9060,List2A,black,woman,,,,,"{""Q0"":""Ruth is copying Dave""}","<img src=""stim_listA/copy1.gif""style=""height:400px;""></stim_listA>",is copying,,,,,,
null,"<div style=""font-size:60px;"">+</div>",,html-keyboard-response,67,712288,0.0-13.0-0.4,9060,List2A,black,woman,,,,null,,,,,,,,,
null,"<img src=""stim_listA/seduce2.gif""style=""height:400px;""></stim_listA>",,html-keyboard-response,68,714293,0.0-13.0-1.4,9060,List2A,black,woman,,,,null,,,,,,,,,
null,is being seduced by,,html-keyboard-response,69,716299,0.0-13.0-2.4,9060,List2A,black,woman,,,,null,,,,,,,,,
11060.2,,,survey-text,70,727361,0.0-13.0-3.4,9060,List2A,black,woman,,,,,"{""Q0"":""Ruth is seduced by Dave""}","<img src=""stim_listA/seduce2.gif""style=""height:400px;""></stim_listA>",is being seduced by,,,,,,
null,"<div style=""font-size:60px;"">+</div>",,html-keyboard-response,71,727865,0.0-13.0-0.5,9060,List2A,black,woman,,,,null,,,,,,,,,
null,"<img src=""stim_listA/look2.gif""style=""height:400px;""></stim_listA>",,html-keyboard-response,72,729867,0.0-13.0-1.5,9060,List2A,black,woman,,,,null,,,,,,,,,
null,is being looked at by,,html-keyboard-response,73,731871,0.0-13.0-2.5,9060,List2A,black,woman,,,,null,,,,,,,,,
27819.1,,,survey-text,74,759692,0.0-13.0-3.5,9060,List2A,black,woman,,,,,"{""Q0"":""Jane is being seduced by Dave""}","<img src=""stim_listA/look2.gif""style=""height:400px;""></stim_listA>",is being looked at by,,,,,,
null,"<div style=""font-size:60px;"">+</div>",,html-keyboard-response,75,760197,0.0-13.0-0.6,9060,List2A,black,woman,,,,null,,,,,,,,,
null,"<img src=""stim_listA/look8.gif""style=""height:400px;""></stim_listA>",,html-keyboard-response,76,762203,0.0-13.0-1.6,9060,List2A,black,woman,,,,null,,,,,,,,,
null,is being looked at by,,html-keyboard-response,77,764204,0.0-13.0-2.6,9060,List2A,black,woman,,,,null,,,,,,,,,
11620.6,,,survey-text,78,775827,0.0-13.0-3.6,9060,List2A,black,woman,,,,,"{""Q0"":""Kate is being looked at by Jane""}","<img src=""stim_listA/look8.gif""style=""height:400px;""></stim_listA>",is being looked at by,,,,,,
null,"<div style=""font-size:60px;"">+</div>",,html-keyboard-response,79,776332,0.0-13.0-0.7,9060,List2A,black,woman,,,,null,,,,,,,,,
null,"<img src=""stim_listA/oppose3.gif""style=""height:400px;""></stim_listA>",,html-keyboard-response,80,778337,0.0-13.0-1.7,9060,List2A,black,woman,,,,null,,,,,,,,,
null,is opposing,,html-keyboard-response,81,780341,0.0-13.0-2.7,9060,List2A,black,woman,,,,null,,,,,,,,,
10796.1,,,survey-text,82,791140,0.0-13.0-3.7,9060,List2A,black,woman,,,,,"{""Q0"":""Mike is opposing Kate""}","<img src=""stim_listA/oppose3.gif""style=""height:400px;""></stim_listA>",is opposing,,,,,,
null,"<div style=""font-size:60px;"">+</div>",,html-keyboard-response,83,791643,0.0-13.0-0.8,9060,List2A,black,woman,,,,null,,,,,,,,,
null,"<img src=""stim_listA/oppose2.gif""style=""height:400px;""></stim_listA>",,html-keyboard-response,84,793649,0.0-13.0-1.8,9060,List2A,black,woman,,,,null,,,,,,,,,
null,is being opposed by,,html-keyboard-response,85,795651,0.0-13.0-2.8,9060,List2A,black,woman,,,,null,,,,,,,,,
11802.4,,,survey-text,86,807456,0.0-13.0-3.8,9060,List2A,black,woman,,,,,"{""Q0"":""Ruth is being opposed by Luke""}","<img src=""stim_listA/oppose2.gif""style=""height:400px;""></stim_listA>",is being opposed by,,,,,,
null,"<div style=""font-size:60px;"">+</div>",,html-keyboard-response,87,807962,0.0-13.0-0.9,9060,List2A,black,woman,,,,null,,,,,,,,,
null,"<img src=""stim_listA/kiss7.gif""style=""height:400px;""></stim_listA>",,html-keyboard-response,88,809965,0.0-13.0-1.9,9060,List2A,black,woman,,,,null,,,,,,,,,
null,is kissing,,html-keyboard-response,89,811967,0.0-13.0-2.9,9060,List2A,black,woman,,,,null,,,,,,,,,
59502.4,,,survey-text,90,871471,0.0-13.0-3.9,9060,List2A,black,woman,,,,,"{""Q0"":""Beth ""}","<img src=""stim_listA/kiss7.gif""style=""height:400px;""></stim_listA>",is kissing,,,,,,
null,"<div style=""font-size:60px;"">+</div>",,html-keyboard-response,91,871973,0.0-13.0-0.10,9060,List2A,black,woman,,,,null,,,,,,,,,
null,"<img src=""stim_listA/shout4.gif""style=""height:400px;""></stim_listA>",,html-keyboard-response,92,873976,0.0-13.0-1.10,9060,List2A,black,woman,,,,null,,,,,,,,,
null,is being shouted at by,,html-keyboard-response,93,875982,0.0-13.0-2.10,9060,List2A,black,woman,,,,null,,,,,,,,,
31802.9,,,survey-text,94,907787,0.0-13.0-3.10,9060,List2A,black,woman,,,,,"{""Q0"":""Mike is being shouted at by Kate""}","<img src=""stim_listA/shout4.gif""style=""height:400px;""></stim_listA>",is being shouted at by,,,,,,
null,"<div style=""font-size:60px;"">+</div>",,html-keyboard-response,95,908290,0.0-13.0-0.11,9060,List2A,black,woman,,,,null,,,,,,,,,
null,"<img src=""stim_listA/hug4.gif""style=""height:400px;""></stim_listA>",,html-keyboard-response,96,910297,0.0-13.0-1.11,9060,List2A,black,woman,,,,null,,,,,,,,,
null,is being hugged by,,html-keyboard-response,97,912297,0.0-13.0-2.11,9060,List2A,black,woman,,,,null,,,,,,,,,
6606.5,,,survey-text,98,918906,0.0-13.0-3.11,9060,List2A,black,woman,,,,,"{""Q0"":""Kate is being hugged by Mike""}","<img src=""stim_listA/hug4.gif""style=""height:400px;""></stim_listA>",is being hugged by,,,,,,
null,"<div style=""font-size:60px;"">+</div>",,html-keyboard-response,99,919410,0.0-13.0-0.12,9060,List2A,black,woman,,,,null,,,,,,,,,
null,"<img src=""stim_listA/kiss4.gif""style=""height:400px;""></stim_listA>",,html-keyboard-response,100,921413,0.0-13.0-1.12,9060,List2A,black,woman,,,,null,,,,,,,,,
null,is being kissed by,,html-keyboard-response,101,923414,0.0-13.0-2.12,9060,List2A,black,woman,,,,null,,,,,,,,,
6959.6,,,survey-text,102,930376,0.0-13.0-3.12,9060,List2A,black,woman,,,,,"{""Q0"":""Kate is kissed by Mike""}","<img src=""stim_listA/kiss4.gif""style=""height:400px;""></stim_listA>",is being kissed by,,,,,,
null,"<div style=""font-size:60px;"">+</div>",,html-keyboard-response,103,930881,0.0-13.0-0.13,9060,List2A,black,woman,,,,null,,,,,,,,,
null,"<img src=""stim_listA/copy3.gif""style=""height:400px;""></stim_listA>",,html-keyboard-response,104,932887,0.0-13.0-1.13,9060,List2A,black,woman,,,,null,,,,,,,,,
null,is copying,,html-keyboard-response,105,934888,0.0-13.0-2.13,9060,List2A,black,woman,,,,null,,,,,,,,,
10973.8,,,survey-text,106,945863,0.0-13.0-3.13,9060,List2A,black,woman,,,,,"{""Q0"":""Beth and Mike""}","<img src=""stim_listA/copy3.gif""style=""height:400px;""></stim_listA>",is copying,,,,,,
null,"<div style=""font-size:60px;"">+</div>",,html-keyboard-response,107,946368,0.0-13.0-0.14,9060,List2A,black,woman,,,,null,,,,,,,,,
null,"<img src=""stim_listA/challenge6.gif""style=""height:400px;""></stim_listA>",,html-keyboard-response,108,948373,0.0-13.0-1.14,9060,List2A,black,woman,,,,null,,,,,,,,,
null,is being challenged by,,html-keyboard-response,109,950375,0.0-13.0-2.14,9060,List2A,black,woman,,,,null,,,,,,,,,
8051.5,,,survey-text,110,958428,0.0-13.0-3.14,9060,List2A,black,woman,,,,,"{""Q0"":""Luke is being challenged by Mike""}","<img src=""stim_listA/challenge6.gif""style=""height:400px;""></stim_listA>",is being challenged by,,,,,,
null,"<div style=""font-size:60px;"">+</div>",,html-keyboard-response,111,958929,0.0-13.0-0.15,9060,List2A,black,woman,,,,null,,,,,,,,,
null,"<img src=""stim_listA/look6.gif""style=""height:400px;""></stim_listA>",,html-keyboard-response,112,960935,0.0-13.0-1.15,9060,List2A,black,woman,,,,null,,,,,,,,,
null,is being looked at by,,html-keyboard-response,113,962937,0.0-13.0-2.15,9060,List2A,black,woman,,,,null,,,,,,,,,
9565.9,,,survey-text,114,972505,0.0-13.0-3.15,9060,List2A,black,woman,,,,,"{""Q0"":""Dave is being looked at by Mike""}","<img src=""stim_listA/look6.gif""style=""height:400px;""></stim_listA>",is being looked at by,,,,,,
null,"<div style=""font-size:60px;"">+</div>",,html-keyboard-response,115,973008,0.0-13.0-0.16,9060,List2A,black,woman,,,,null,,,,,,,,,
null,"<img src=""stim_listA/kiss2.gif""style=""height:400px;""></stim_listA>",,html-keyboard-response,116,975010,0.0-13.0-1.16,9060,List2A,black,woman,,,,null,,,,,,,,,
null,is being kissed by,,html-keyboard-response,117,977011,0.0-13.0-2.16,9060,List2A,black,woman,,,,null,,,,,,,,,
7433.1,,,survey-text,118,984447,0.0-13.0-3.16,9060,List2A,black,woman,,,,,"{""Q0"":""Dave is being kissed by Jane""}","<img src=""stim_listA/kiss2.gif""style=""height:400px;""></stim_listA>",is being kissed by,,,,,,
null,"<div style=""font-size:60px;"">+</div>",,html-keyboard-response,119,984953,0.0-13.0-0.17,9060,List2A,black,woman,,,,null,,,,,,,,,
null,"<img src=""stim_listA/touch2.gif""style=""height:400px;""></stim_listA>",,html-keyboard-response,120,986960,0.0-13.0-1.17,9060,List2A,black,woman,,,,null,,,,,,,,,
null,is being touched by,,html-keyboard-response,121,988963,0.0-13.0-2.17,9060,List2A,black,woman,,,,null,,,,,,,,,
8256.5,,,survey-text,122,997222,0.0-13.0-3.17,9060,List2A,black,woman,,,,,"{""Q0"":""Luke is touched by Ruth""}","<img src=""stim_listA/touch2.gif""style=""height:400px;""></stim_listA>",is being touched by,,,,,,
null,"<div style=""font-size:60px;"">+</div>",,html-keyboard-response,123,997728,0.0-13.0-0.18,9060,List2A,black,woman,,,,null,,,,,,,,,
null,"<img src=""stim_listA/oppose6.gif""style=""height:400px;""></stim_listA>",,html-keyboard-response,124,999734,0.0-13.0-1.18,9060,List2A,black,woman,,,,null,,,,,,,,,
null,is being opposed by,,html-keyboard-response,125,1001737,0.0-13.0-2.18,9060,List2A,black,woman,,,,null,,,,,,,,,
7687.1,,,survey-text,126,1009426,0.0-13.0-3.18,9060,List2A,black,woman,,,,,"{""Q0"":""Luke is being opposed by Mike""}","<img src=""stim_listA/oppose6.gif""style=""height:400px;""></stim_listA>",is being opposed by,,,,,,
null,"<div style=""font-size:60px;"">+</div>",,html-keyboard-response,127,1009933,0.0-13.0-0.19,9060,List2A,black,woman,,,,null,,,,,,,,,
null,"<img src=""stim_listA/copy8.gif""style=""height:400px;""></stim_listA>",,html-keyboard-response,128,1011938,0.0-13.0-1.19,9060,List2A,black,woman,,,,null,,,,,,,,,
null,is being copied by,,html-keyboard-response,129,1013944,0.0-13.0-2.19,9060,List2A,black,woman,,,,null,,,,,,,,,
9313.4,,,survey-text,130,1023259,0.0-13.0-3.19,9060,List2A,black,woman,,,,,"{""Q0"":""Kate is being copied by Ruth""}","<img src=""stim_listA/copy8.gif""style=""height:400px;""></stim_listA>",is being copied by,,,,,,
6994.4,"<img src='img/portrait_matrix_list2.jpg' style='width:900px;height:500px;''></img><p>If you have memorised all the portraits and names and are ready to start, press Continue.</p><p><strong>Please note: Your memory of these faces will be tested 4 times during this experiment.</strong></p>",0,html-button-response,131,1030254,0.0-14.0-0.0,9060,List2A,black,woman,,,,,,,,,,,,,
3970.2,"<img src=""portrait/WM1.jpg""style=""height:400px;""></img>",6,html-button-response,132,1035230,0.0-14.0-1.0,9060,List2A,black,woman,,TRUE,6,,,,,,,,,,
null,CORRECT,,html-keyboard-response,133,1036741,0.0-14.0-2.0-0.0,9060,List2A,black,woman,,,,null,,,,,,,,,
2661.9,"<img src=""portrait/BM2.jpg""style=""height:400px;""></img>",5,html-button-response,134,1039405,0.0-14.0-4.0,9060,List2A,black,woman,,TRUE,5,,,,,,,,,,
null,CORRECT,,html-keyboard-response,135,1040915,0.0-14.0-5.0-0.0,9060,List2A,black,woman,,,,null,,,,,,,,,
2694.9,"<img src=""portrait/WW1.jpg""style=""height:400px;""></img>",1,html-button-response,136,1043612,0.0-14.0-7.0,9060,List2A,black,woman,,TRUE,1,,,,,,,,,,
null,CORRECT,,html-keyboard-response,137,1045120,0.0-14.0-8.0-0.0,9060,List2A,black,woman,,,,null,,,,,,,,,
4933.8,"<img src=""portrait/BW2.jpg""style=""height:400px;""></img>",2,html-button-response,138,1050055,0.0-14.0-10.0,9060,List2A,black,woman,,TRUE,2,,,,,,,,,,
null,CORRECT,,html-keyboard-response,139,1051562,0.0-14.0-11.0-0.0,9060,List2A,black,woman,,,,null,,,,,,,,,
5567.4,"<img src=""portrait/WM2.jpg""style=""height:400px;""></img>",7,html-button-response,140,1057130,0.0-14.0-13.0,9060,List2A,black,woman,,TRUE,7,,,,,,,,,,
null,CORRECT,,html-keyboard-response,141,1058639,0.0-14.0-14.0-0.0,9060,List2A,black,woman,,,,null,,,,,,,,,
2343.8,"<img src=""portrait/BM1.jpg""style=""height:400px;""></img>",4,html-button-response,142,1060984,0.0-14.0-16.0,9060,List2A,black,woman,,TRUE,4,,,,,,,,,,
null,CORRECT,,html-keyboard-response,143,1062489,0.0-14.0-17.0-0.0,9060,List2A,black,woman,,,,null,,,,,,,,,
3844.1,"<img src=""portrait/BW1.jpg""style=""height:400px;""></img>",0,html-button-response,144,1066334,0.0-14.0-19.0,9060,List2A,black,woman,,TRUE,0,,,,,,,,,,
null,CORRECT,,html-keyboard-response,145,1067836,0.0-14.0-20.0-0.0,9060,List2A,black,woman,,,,null,,,,,,,,,
1913.5,"<img src=""portrait/WW2.jpg""style=""height:400px;""></img>",3,html-button-response,146,1069751,0.0-14.0-22.0,9060,List2A,black,woman,,TRUE,3,,,,,,,,,,
null,CORRECT,,html-keyboard-response,147,1071255,0.0-14.0-23.0-0.0,9060,List2A,black,woman,,,,null,,,,,,,,,
1227,<p>You got 8 out of 8 right first time. Press Continue.</p>,0,html-button-response,148,1072483,0.0-14.0-25.0,9060,List2A,black,woman,,,,,,,,,,,,,
null,"<div style=""font-size:60px;"">+</div>",,html-keyboard-response,149,1073989,0.0-15.0-0.0,9060,List2A,black,woman,,,,null,,,,,,,,,
null,"<img src=""stim_listA/touch4.gif""style=""height:400px;""></stim_listA>",,html-keyboard-response,150,1075991,0.0-15.0-1.0,9060,List2A,black,woman,,,,null,,,,,,,,,
null,is being touched by,,html-keyboard-response,151,1077998,0.0-15.0-2.0,9060,List2A,black,woman,,,,null,,,,,,,,,
23792.2,,,survey-text,152,1101792,0.0-15.0-3.0,9060,List2A,black,woman,,,,,"{""Q0"":""Beth is being touched by Fred""}","<img src=""stim_listA/touch4.gif""style=""height:400px;""></stim_listA>",is being touched by,,,,,,
null,"<div style=""font-size:60px;"">+</div>",,html-keyboard-response,153,1102294,0.0-15.0-0.1,9060,List2A,black,woman,,,,null,,,,,,,,,
null,"<img src=""stim_listA/greet2.gif""style=""height:400px;""></stim_listA>",,html-keyboard-response,154,1104295,0.0-15.0-1.1,9060,List2A,black,woman,,,,null,,,,,,,,,
null,is being greeted by,,html-keyboard-response,155,1106300,0.0-15.0-2.1,9060,List2A,black,woman,,,,null,,,,,,,,,
290377.1,,,survey-text,156,1396680,0.0-15.0-3.1,9060,List2A,black,woman,,,,,"{""Q0"":""Jane is being touched by Luke""}","<img src=""stim_listA/greet2.gif""style=""height:400px;""></stim_listA>",is being greeted by,,,,,,
null,"<div style=""font-size:60px;"">+</div>",,html-keyboard-response,157,1397185,0.0-15.0-0.2,9060,List2A,black,woman,,,,null,,,,,,,,,
null,"<img src=""stim_listA/kiss6.gif""style=""height:400px;""></stim_listA>",,html-keyboard-response,158,1399188,0.0-15.0-1.2,9060,List2A,black,woman,,,,null,,,,,,,,,
null,is being kissed by,,html-keyboard-response,159,1401194,0.0-15.0-2.2,9060,List2A,black,woman,,,,null,,,,,,,,,
248123.8,,,survey-text,160,1649320,0.0-15.0-3.2,9060,List2A,black,woman,,,,,"{""Q0"":""Beth and Mike""}","<img src=""stim_listA/kiss6.gif""style=""height:400px;""></stim_listA>",is being kissed by,,,,,,
null,"<div style=""font-size:60px;"">+</div>",,html-keyboard-response,161,1649821,0.0-15.0-0.3,9060,List2A,black,woman,,,,null,,,,,,,,,
null,"<img src=""stim_listA/oppose7.gif""style=""height:400px;""></stim_listA>",,html-keyboard-response,162,1651827,0.0-15.0-1.3,9060,List2A,black,woman,,,,null,,,,,,,,,
null,is opposing,,html-keyboard-response,163,1653832,0.0-15.0-2.3,9060,List2A,black,woman,,,,null,,,,,,,,,
6708.1,,,survey-text,164,1660543,0.0-15.0-3.3,9060,List2A,black,woman,,,,,"{""Q0"":""Kate is opposing Jane""}","<img src=""stim_listA/oppose7.gif""style=""height:400px;""></stim_listA>",is opposing,,,,,,
null,"<div style=""font-size:60px;"">+</div>",,html-keyboard-response,165,1661048,0.0-15.0-0.4,9060,List2A,black,woman,,,,null,,,,,,,,,
null,"<img src=""stim_listA/oppose5.gif""style=""height:400px;""></stim_listA>",,html-keyboard-response,166,1663051,0.0-15.0-1.4,9060,List2A,black,woman,,,,null,,,,,,,,,
null,is opposing,,html-keyboard-response,167,1665054,0.0-15.0-2.4,9060,List2A,black,woman,,,,null,,,,,,,,,
8317.3,,,survey-text,168,1673373,0.0-15.0-3.4,9060,List2A,black,woman,,,,,"{""Q0"":""Mike is opposing Dave""}","<img src=""stim_listA/oppose5.gif""style=""height:400px;""></stim_listA>",is opposing,,,,,,
null,"<div style=""font-size:60px;"">+</div>",,html-keyboard-response,169,1673878,0.0-15.0-0.5,9060,List2A,black,woman,,,,null,,,,,,,,,
null,"<img src=""stim_listA/shout6.gif""style=""height:400px;""></stim_listA>",,html-keyboard-response,170,1675882,0.0-15.0-1.5,9060,List2A,black,woman,,,,null,,,,,,,,,
null,is being shouted at by,,html-keyboard-response,171,1677884,0.0-15.0-2.5,9060,List2A,black,woman,,,,null,,,,,,,,,
8593.5,,,survey-text,172,1686479,0.0-15.0-3.5,9060,List2A,black,woman,,,,,"{""Q0"":""Dave is being shouted at by Mike""}","<img src=""stim_listA/shout6.gif""style=""height:400px;""></stim_listA>",is being shouted at by,,,,,,
null,"<div style=""font-size:60px;"">+</div>",,html-keyboard-response,173,1686981,0.0-15.0-0.6,9060,List2A,black,woman,,,,null,,,,,,,,,
null,"<img src=""stim_listA/challenge1.gif""style=""height:400px;""></stim_listA>",,html-keyboard-response,174,1688983,0.0-15.0-1.6,9060,List2A,black,woman,,,,null,,,,,,,,,
null,is challenging,,html-keyboard-response,175,1690987,0.0-15.0-2.6,9060,List2A,black,woman,,,,null,,,,,,,,,
11204.7,,,survey-text,176,1702194,0.0-15.0-3.6,9060,List2A,black,woman,,,,,"{""Q0"":""Ruth is being talked to by Dave""}","<img src=""stim_listA/challenge1.gif""style=""height:400px;""></stim_listA>",is challenging,,,,,,
null,"<div style=""font-size:60px;"">+</div>",,html-keyboard-response,177,1702701,0.0-15.0-0.7,9060,List2A,black,woman,,,,null,,,,,,,,,
null,"<img src=""stim_listA/greet6.gif""style=""height:400px;""></stim_listA>",,html-keyboard-response,178,1704707,0.0-15.0-1.7,9060,List2A,black,woman,,,,null,,,,,,,,,
null,is being greeted by,,html-keyboard-response,179,1706712,0.0-15.0-2.7,9060,List2A,black,woman,,,,null,,,,,,,,,
6038.5,,,survey-text,180,1712753,0.0-15.0-3.7,9060,List2A,black,woman,,,,,"{""Q0"":""Luke is being greeted by Mike""}","<img src=""stim_listA/greet6.gif""style=""height:400px;""></stim_listA>",is being greeted by,,,,,,
null,"<div style=""font-size:60px;"">+</div>",,html-keyboard-response,181,1713258,0.0-15.0-0.8,9060,List2A,black,woman,,,,null,,,,,,,,,
null,"<img src=""stim_listA/seduce7.gif""style=""height:400px;""></stim_listA>",,html-keyboard-response,182,1715262,0.0-15.0-1.8,9060,List2A,black,woman,,,,null,,,,,,,,,
null,is seducing,,html-keyboard-response,183,1717268,0.0-15.0-2.8,9060,List2A,black,woman,,,,null,,,,,,,,,
8049.4,,,survey-text,184,1725320,0.0-15.0-3.8,9060,List2A,black,woman,,,,,"{""Q0"":""Ruth is being seduced by Kate""}","<img src=""stim_listA/seduce7.gif""style=""height:400px;""></stim_listA>",is seducing,,,,,,
null,"<div style=""font-size:60px;"">+</div>",,html-keyboard-response,185,1725826,0.0-15.0-0.9,9060,List2A,black,woman,,,,null,,,,,,,,,
null,"<img src=""stim_listA/shout2.gif""style=""height:400px;""></stim_listA>",,html-keyboard-response,186,1727831,0.0-15.0-1.9,9060,List2A,black,woman,,,,null,,,,,,,,,
null,is being shouted at by,,html-keyboard-response,187,1729833,0.0-15.0-2.9,9060,List2A,black,woman,,,,null,,,,,,,,,
7470.7,,,survey-text,188,1737306,0.0-15.0-3.9,9060,List2A,black,woman,,,,,"{""Q0"":""Jane is being shouted at by Kate""}","<img src=""stim_listA/shout2.gif""style=""height:400px;""></stim_listA>",is being shouted at by,,,,,,
null,"<div style=""font-size:60px;"">+</div>",,html-keyboard-response,189,1737811,0.0-15.0-0.10,9060,List2A,black,woman,,,,null,,,,,,,,,
null,"<img src=""stim_listA/shout7.gif""style=""height:400px;""></stim_listA>",,html-keyboard-response,190,1739816,0.0-15.0-1.10,9060,List2A,black,woman,,,,null,,,,,,,,,
null,is shouting at,,html-keyboard-response,191,1741822,0.0-15.0-2.10,9060,List2A,black,woman,,,,null,,,,,,,,,
7866.6,,,survey-text,192,1749691,0.0-15.0-3.10,9060,List2A,black,woman,,,,,"{""Q0"":""Mike is opposing Beth""}","<img src=""stim_listA/shout7.gif""style=""height:400px;""></stim_listA>",is shouting at,,,,,,
null,"<div style=""font-size:60px;"">+</div>",,html-keyboard-response,193,1750197,0.0-15.0-0.11,9060,List2A,black,woman,,,,null,,,,,,,,,
null,"<img src=""stim_listA/challenge7.gif""style=""height:400px;""></stim_listA>",,html-keyboard-response,194,1752204,0.0-15.0-1.11,9060,List2A,black,woman,,,,null,,,,,,,,,
null,is challenging,,html-keyboard-response,195,1754205,0.0-15.0-2.11,9060,List2A,black,woman,,,,null,,,,,,,,,
8474.2,,,survey-text,196,1762682,0.0-15.0-3.11,9060,List2A,black,woman,,,,,"{""Q0"":""Beth is challenging Jane""}","<img src=""stim_listA/challenge7.gif""style=""height:400px;""></stim_listA>",is challenging,,,,,,
null,"<div style=""font-size:60px;"">+</div>",,html-keyboard-response,197,1763186,0.0-15.0-0.12,9060,List2A,black,woman,,,,null,,,,,,,,,
null,"<img src=""stim_listA/oppose1.gif""style=""height:400px;""></stim_listA>",,html-keyboard-response,198,1765189,0.0-15.0-1.12,9060,List2A,black,woman,,,,null,,,,,,,,,
null,is opposing,,html-keyboard-response,199,1767190,0.0-15.0-2.12,9060,List2A,black,woman,,,,null,,,,,,,,,
6112.2,,,survey-text,200,1773305,0.0-15.0-3.12,9060,List2A,black,woman,,,,,"{""Q0"":""Jane is opposing Kate""}","<img src=""stim_listA/oppose1.gif""style=""height:400px;""></stim_listA>",is opposing,,,,,,
null,"<div style=""font-size:60px;"">+</div>",,html-keyboard-response,201,1773811,0.0-15.0-0.13,9060,List2A,black,woman,,,,null,,,,,,,,,
null,"<img src=""stim_listA/seduce3.gif""style=""height:400px;""></stim_listA>",,html-keyboard-response,202,1775815,0.0-15.0-1.13,9060,List2A,black,woman,,,,null,,,,,,,,,
null,is seducing,,html-keyboard-response,203,1777821,0.0-15.0-2.13,9060,List2A,black,woman,,,,null,,,,,,,,,
7096.5,,,survey-text,204,1784919,0.0-15.0-3.13,9060,List2A,black,woman,,,,,"{""Q0"":""Fred is seducing Kate""}","<img src=""stim_listA/seduce3.gif""style=""height:400px;""></stim_listA>",is seducing,,,,,,
null,"<div style=""font-size:60px;"">+</div>",,html-keyboard-response,205,1785425,0.0-15.0-0.14,9060,List2A,black,woman,,,,null,,,,,,,,,
null,"<img src=""stim_listA/shout3.gif""style=""height:400px;""></stim_listA>",,html-keyboard-response,206,1787427,0.0-15.0-1.14,9060,List2A,black,woman,,,,null,,,,,,,,,
null,is shouting at,,html-keyboard-response,207,1789430,0.0-15.0-2.14,9060,List2A,black,woman,,,,null,,,,,,,,,
5289,,,survey-text,208,1794721,0.0-15.0-3.14,9060,List2A,black,woman,,,,,"{""Q0"":""Beth is shouting at Fred""}","<img src=""stim_listA/shout3.gif""style=""height:400px;""></stim_listA>",is shouting at,,,,,,
null,"<div style=""font-size:60px;"">+</div>",,html-keyboard-response,209,1795224,0.0-15.0-0.15,9060,List2A,black,woman,,,,null,,,,,,,,,
null,"<img src=""stim_listA/copy4.gif""style=""height:400px;""></stim_listA>",,html-keyboard-response,210,1797229,0.0-15.0-1.15,9060,List2A,black,woman,,,,null,,,,,,,,,
null,is being copied by,,html-keyboard-response,211,1799235,0.0-15.0-2.15,9060,List2A,black,woman,,,,null,,,,,,,,,
6684.3,,,survey-text,212,1805921,0.0-15.0-3.15,9060,List2A,black,woman,,,,,"{""Q0"":""Kate is being copied by Fred""}","<img src=""stim_listA/copy4.gif""style=""height:400px;""></stim_listA>",is being copied by,,,,,,
null,"<div style=""font-size:60px;"">+</div>",,html-keyboard-response,213,1806427,0.0-15.0-0.16,9060,List2A,black,woman,,,,null,,,,,,,,,
null,"<img src=""stim_listA/greet4.gif""style=""height:400px;""></stim_listA>",,html-keyboard-response,214,1808429,0.0-15.0-1.16,9060,List2A,black,woman,,,,null,,,,,,,,,
null,is being greeted by,,html-keyboard-response,215,1810431,0.0-15.0-2.16,9060,List2A,black,woman,,,,null,,,,,,,,,
5595.9,,,survey-text,216,1816029,0.0-15.0-3.16,9060,List2A,black,woman,,,,,"{""Q0"":""Kate is being greeted by Fred""}","<img src=""stim_listA/greet4.gif""style=""height:400px;""></stim_listA>",is being greeted by,,,,,,
null,"<div style=""font-size:60px;"">+</div>",,html-keyboard-response,217,1816532,0.0-15.0-0.17,9060,List2A,black,woman,,,,null,,,,,,,,,
null,"<img src=""stim_listA/look7.gif""style=""height:400px;""></stim_listA>",,html-keyboard-response,218,1818539,0.0-15.0-1.17,9060,List2A,black,woman,,,,null,,,,,,,,,
null,is looking at,,html-keyboard-response,219,1820541,0.0-15.0-2.17,9060,List2A,black,woman,,,,null,,,,,,,,,
9605.6,,,survey-text,220,1830149,0.0-15.0-3.17,9060,List2A,black,woman,,,,,"{""Q0"":""Beth is being looked at by Mike""}","<img src=""stim_listA/look7.gif""style=""height:400px;""></stim_listA>",is looking at,,,,,,
null,"<div style=""font-size:60px;"">+</div>",,html-keyboard-response,221,1830651,0.0-15.0-0.18,9060,List2A,black,woman,,,,null,,,,,,,,,
null,"<img src=""stim_listA/greet5.gif""style=""height:400px;""></stim_listA>",,html-keyboard-response,222,1832655,0.0-15.0-1.18,9060,List2A,black,woman,,,,null,,,,,,,,,
null,is greeting,,html-keyboard-response,223,1834657,0.0-15.0-2.18,9060,List2A,black,woman,,,,null,,,,,,,,,
8835.1,,,survey-text,224,1843494,0.0-15.0-3.18,9060,List2A,black,woman,,,,,"{""Q0"":""Kate is opposing Fred""}","<img src=""stim_listA/greet5.gif""style=""height:400px;""></stim_listA>",is greeting,,,,,,
null,"<div style=""font-size:60px;"">+</div>",,html-keyboard-response,225,1844000,0.0-15.0-0.19,9060,List2A,black,woman,,,,null,,,,,,,,,
null,"<img src=""stim_listA/copy2.gif""style=""height:400px;""></stim_listA>",,html-keyboard-response,226,1846001,0.0-15.0-1.19,9060,List2A,black,woman,,,,null,,,,,,,,,
null,is being copied by,,html-keyboard-response,227,1848002,0.0-15.0-2.19,9060,List2A,black,woman,,,,null,,,,,,,,,
8737,,,survey-text,228,1856742,0.0-15.0-3.19,9060,List2A,black,woman,,,,,"{""Q0"":""Jane is being copied by Luke""}","<img src=""stim_listA/copy2.gif""style=""height:400px;""></stim_listA>",is being copied by,,,,,,
3267.8,"<img src='img/portrait_matrix_list2.jpg' style='width:900px;height:500px;''></img><p>If you have memorised all the portraits and names and are ready to start, press Continue.</p><p><strong>Please note: Your memory of these faces will be tested 4 times during this experiment.</strong></p>",0,html-button-response,229,1860011,0.0-16.0-0.0,9060,List2A,black,woman,,,,,,,,,,,,,
4384.5,"<img src=""portrait/WW1.jpg""style=""height:400px;""></img>",1,html-button-response,230,1865398,0.0-16.0-1.0,9060,List2A,black,woman,,TRUE,1,,,,,,,,,,
null,CORRECT,,html-keyboard-response,231,1866906,0.0-16.0-2.0-0.0,9060,List2A,black,woman,,,,null,,,,,,,,,
3078.4,"<img src=""portrait/BM2.jpg""style=""height:400px;""></img>",5,html-button-response,232,1869986,0.0-16.0-4.0,9060,List2A,black,woman,,TRUE,5,,,,,,,,,,
null,CORRECT,,html-keyboard-response,233,1871489,0.0-16.0-5.0-0.0,9060,List2A,black,woman,,,,null,,,,,,,,,
4080,"<img src=""portrait/BW1.jpg""style=""height:400px;""></img>",0,html-button-response,234,1875571,0.0-16.0-7.0,9060,List2A,black,woman,,TRUE,0,,,,,,,,,,
null,CORRECT,,html-keyboard-response,235,1877078,0.0-16.0-8.0-0.0,9060,List2A,black,woman,,,,null,,,,,,,,,
3846.2,"<img src=""portrait/WM2.jpg""style=""height:400px;""></img>",7,html-button-response,236,1880926,0.0-16.0-10.0,9060,List2A,black,woman,,TRUE,7,,,,,,,,,,
null,CORRECT,,html-keyboard-response,237,1882434,0.0-16.0-11.0-0.0,9060,List2A,black,woman,,,,null,,,,,,,,,
3094.5,"<img src=""portrait/WM1.jpg""style=""height:400px;""></img>",6,html-button-response,238,1885530,0.0-16.0-13.0,9060,List2A,black,woman,,TRUE,6,,,,,,,,,,
null,CORRECT,,html-keyboard-response,239,1887036,0.0-16.0-14.0-0.0,9060,List2A,black,woman,,,,null,,,,,,,,,
5947.3,"<img src=""portrait/BM1.jpg""style=""height:400px;""></img>",4,html-button-response,240,1892985,0.0-16.0-16.0,9060,List2A,black,woman,,TRUE,4,,,,,,,,,,
null,CORRECT,,html-keyboard-response,241,1894489,0.0-16.0-17.0-0.0,9060,List2A,black,woman,,,,null,,,,,,,,,
2377.7,"<img src=""portrait/BW2.jpg""style=""height:400px;""></img>",2,html-button-response,242,1896869,0.0-16.0-19.0,9060,List2A,black,woman,,TRUE,2,,,,,,,,,,
null,CORRECT,,html-keyboard-response,243,1898374,0.0-16.0-20.0-0.0,9060,List2A,black,woman,,,,null,,,,,,,,,
3061.3,"<img src=""portrait/WW2.jpg""style=""height:400px;""></img>",3,html-button-response,244,1901437,0.0-16.0-22.0,9060,List2A,black,woman,,TRUE,3,,,,,,,,,,
null,CORRECT,,html-keyboard-response,245,1902948,0.0-16.0-23.0-0.0,9060,List2A,black,woman,,,,null,,,,,,,,,
1632.2,<p>You got 8 out of 8 right first time. Press Continue.</p>,0,html-button-response,246,1904581,0.0-16.0-25.0,9060,List2A,black,woman,,,,,,,,,,,,,
null,"<div style=""font-size:60px;"">+</div>",,html-keyboard-response,247,1906084,0.0-17.0-0.0,9060,List2A,black,woman,,,,null,,,,,,,,,
null,"<img src=""stim_listA/shout5.gif""style=""height:400px;""></stim_listA>",,html-keyboard-response,248,1908086,0.0-17.0-1.0,9060,List2A,black,woman,,,,null,,,,,,,,,
null,is shouting at,,html-keyboard-response,249,1910093,0.0-17.0-2.0,9060,List2A,black,woman,,,,null,,,,,,,,,
8294.5,,,survey-text,250,1918389,0.0-17.0-3.0,9060,List2A,black,woman,,,,,"{""Q0"":""Luke is shouting at Fred""}","<img src=""stim_listA/shout5.gif""style=""height:400px;""></stim_listA>",is shouting at,,,,,,
null,"<div style=""font-size:60px;"">+</div>",,html-keyboard-response,251,1918896,0.0-17.0-0.1,9060,List2A,black,woman,,,,null,,,,,,,,,
null,"<img src=""stim_listA/hug2.gif""style=""height:400px;""></stim_listA>",,html-keyboard-response,252,1920902,0.0-17.0-1.1,9060,List2A,black,woman,,,,null,,,,,,,,,
null,is being hugged by,,html-keyboard-response,253,1922905,0.0-17.0-2.1,9060,List2A,black,woman,,,,null,,,,,,,,,
8899.9,,,survey-text,254,1931807,0.0-17.0-3.1,9060,List2A,black,woman,,,,,"{""Q0"":""Dave is being hugged by Jane""}","<img src=""stim_listA/hug2.gif""style=""height:400px;""></stim_listA>",is being hugged by,,,,,,
null,"<div style=""font-size:60px;"">+</div>",,html-keyboard-response,255,1932313,0.0-17.0-0.2,9060,List2A,black,woman,,,,null,,,,,,,,,
null,"<img src=""stim_listA/copy5.gif""style=""height:400px;""></stim_listA>",,html-keyboard-response,256,1934319,0.0-17.0-1.2,9060,List2A,black,woman,,,,null,,,,,,,,,
null,is copying,,html-keyboard-response,257,1936324,0.0-17.0-2.2,9060,List2A,black,woman,,,,null,,,,,,,,,
6874.6,,,survey-text,258,1943201,0.0-17.0-3.2,9060,List2A,black,woman,,,,,"{""Q0"":""Fred is copying Dave""}","<img src=""stim_listA/copy5.gif""style=""height:400px;""></stim_listA>",is copying,,,,,,
null,"<div style=""font-size:60px;"">+</div>",,html-keyboard-response,259,1943702,0.0-17.0-0.3,9060,List2A,black,woman,,,,null,,,,,,,,,
null,"<img src=""stim_listA/hug1.gif""style=""height:400px;""></stim_listA>",,html-keyboard-response,260,1945709,0.0-17.0-1.3,9060,List2A,black,woman,,,,null,,,,,,,,,
null,is hugging,,html-keyboard-response,261,1947713,0.0-17.0-2.3,9060,List2A,black,woman,,,,null,,,,,,,,,
8722.6,,,survey-text,262,1956438,0.0-17.0-3.3,9060,List2A,black,woman,,,,,"{""Q0"":""Luke is hugging Ruth""}","<img src=""stim_listA/hug1.gif""style=""height:400px;""></stim_listA>",is hugging,,,,,,
null,"<div style=""font-size:60px;"">+</div>",,html-keyboard-response,263,1956941,0.0-17.0-0.4,9060,List2A,black,woman,,,,null,,,,,,,,,
null,"<img src=""stim_listA/kiss8.gif""style=""height:400px;""></stim_listA>",,html-keyboard-response,264,1958943,0.0-17.0-1.4,9060,List2A,black,woman,,,,null,,,,,,,,,
null,is being kissed by,,html-keyboard-response,265,1960948,0.0-17.0-2.4,9060,List2A,black,woman,,,,null,,,,,,,,,
8688.1,,,survey-text,266,1969638,0.0-17.0-3.4,9060,List2A,black,woman,,,,,"{""Q0"":""Jane is being kissed by Kate""}","<img src=""stim_listA/kiss8.gif""style=""height:400px;""></stim_listA>",is being kissed by,,,,,,
null,"<div style=""font-size:60px;"">+</div>",,html-keyboard-response,267,1970141,0.0-17.0-0.5,9060,List2A,black,woman,,,,null,,,,,,,,,
null,"<img src=""stim_listA/hug5.gif""style=""height:400px;""></stim_listA>",,html-keyboard-response,268,1972143,0.0-17.0-1.5,9060,List2A,black,woman,,,,null,,,,,,,,,
null,is hugging,,html-keyboard-response,269,1974144,0.0-17.0-2.5,9060,List2A,black,woman,,,,null,,,,,,,,,
8377,,,survey-text,270,1982523,0.0-17.0-3.5,9060,List2A,black,woman,,,,,"{""Q0"":""Luke is hugged by Fred""}","<img src=""stim_listA/hug5.gif""style=""height:400px;""></stim_listA>",is hugging,,,,,,
null,"<div style=""font-size:60px;"">+</div>",,html-keyboard-response,271,1983025,0.0-17.0-0.6,9060,List2A,black,woman,,,,null,,,,,,,,,
null,"<img src=""stim_listA/greet1.gif""style=""height:400px;""></stim_listA>",,html-keyboard-response,272,1985030,0.0-17.0-1.6,9060,List2A,black,woman,,,,null,,,,,,,,,
null,is greeting,,html-keyboard-response,273,1987032,0.0-17.0-2.6,9060,List2A,black,woman,,,,null,,,,,,,,,
6131.3,,,survey-text,274,1993165,0.0-17.0-3.6,9060,List2A,black,woman,,,,,"{""Q0"":""Ruth is greeting Dave""}","<img src=""stim_listA/greet1.gif""style=""height:400px;""></stim_listA>",is greeting,,,,,,
null,"<div style=""font-size:60px;"">+</div>",,html-keyboard-response,275,1993667,0.0-17.0-0.7,9060,List2A,black,woman,,,,null,,,,,,,,,
null,"<img src=""stim_listA/touch8.gif""style=""height:400px;""></stim_listA>",,html-keyboard-response,276,1995669,0.0-17.0-1.7,9060,List2A,black,woman,,,,null,,,,,,,,,
null,is being touched by,,html-keyboard-response,277,1997670,0.0-17.0-2.7,9060,List2A,black,woman,,,,null,,,,,,,,,
16340.6,,,survey-text,278,2014012,0.0-17.0-3.7,9060,List2A,black,woman,,,,,"{""Q0"":""Ruth is being hugged by Fred""}","<img src=""stim_listA/touch8.gif""style=""height:400px;""></stim_listA>",is being touched by,,,,,,
null,"<div style=""font-size:60px;"">+</div>",,html-keyboard-response,279,2014514,0.0-17.0-0.8,9060,List2A,black,woman,,,,null,,,,,,,,,
null,"<img src=""stim_listA/greet8.gif""style=""height:400px;""></stim_listA>",,html-keyboard-response,280,2016517,0.0-17.0-1.8,9060,List2A,black,woman,,,,null,,,,,,,,,
null,is being greeted by,,html-keyboard-response,281,2018522,0.0-17.0-2.8,9060,List2A,black,woman,,,,null,,,,,,,,,
13248.3,,,survey-text,282,2031773,0.0-17.0-3.8,9060,List2A,black,woman,,,,,"{""Q0"":""Kate is being greeted by Ruth""}","<img src=""stim_listA/greet8.gif""style=""height:400px;""></stim_listA>",is being greeted by,,,,,,
null,"<div style=""font-size:60px;"">+</div>",,html-keyboard-response,283,2032275,0.0-17.0-0.9,9060,List2A,black,woman,,,,null,,,,,,,,,
null,"<img src=""stim_listA/touch3.gif""style=""height:400px;""></stim_listA>",,html-keyboard-response,284,2034278,0.0-17.0-1.9,9060,List2A,black,woman,,,,null,,,,,,,,,
null,is touching,,html-keyboard-response,285,2036279,0.0-17.0-2.9,9060,List2A,black,woman,,,,null,,,,,,,,,
14567,,,survey-text,286,2050849,0.0-17.0-3.9,9060,List2A,black,woman,,,,,"{""Q0"":""Mike is touching Kate""}","<img src=""stim_listA/touch3.gif""style=""height:400px;""></stim_listA>",is touching,,,,,,
null,"<div style=""font-size:60px;"">+</div>",,html-keyboard-response,287,2051353,0.0-17.0-0.10,9060,List2A,black,woman,,,,null,,,,,,,,,
null,"<img src=""stim_listA/hug8.gif""style=""height:400px;""></stim_listA>",,html-keyboard-response,288,2053356,0.0-17.0-1.10,9060,List2A,black,woman,,,,null,,,,,,,,,
null,is being hugged by,,html-keyboard-response,289,2055357,0.0-17.0-2.10,9060,List2A,black,woman,,,,null,,,,,,,,,
7682.6,,,survey-text,290,2063042,0.0-17.0-3.10,9060,List2A,black,woman,,,,,"{""Q0"":""Jane is hugged by Kate""}","<img src=""stim_listA/hug8.gif""style=""height:400px;""></stim_listA>",is being hugged by,,,,,,
null,"<div style=""font-size:60px;"">+</div>",,html-keyboard-response,291,2063546,0.0-17.0-0.11,9060,List2A,black,woman,,,,null,,,,,,,,,
null,"<img src=""stim_listA/hug6.gif""style=""height:400px;""></stim_listA>",,html-keyboard-response,292,2065551,0.0-17.0-1.11,9060,List2A,black,woman,,,,null,,,,,,,,,
null,is being hugged by,,html-keyboard-response,293,2067553,0.0-17.0-2.11,9060,List2A,black,woman,,,,null,,,,,,,,,
5602.1,,,survey-text,294,2073157,0.0-17.0-3.11,9060,List2A,black,woman,,,,,"{""Q0"":""Mike is hugged by Dave""}","<img src=""stim_listA/hug6.gif""style=""height:400px;""></stim_listA>",is being hugged by,,,,,,
null,"<div style=""font-size:60px;"">+</div>",,html-keyboard-response,295,2073662,0.0-17.0-0.12,9060,List2A,black,woman,,,,null,,,,,,,,,
null,"<img src=""stim_listA/seduce8.gif""style=""height:400px;""></stim_listA>",,html-keyboard-response,296,2075665,0.0-17.0-1.12,9060,List2A,black,woman,,,,null,,,,,,,,,
null,is being seduced by,,html-keyboard-response,297,2077670,0.0-17.0-2.12,9060,List2A,black,woman,,,,null,,,,,,,,,
7889.7,,,survey-text,298,2085562,0.0-17.0-3.12,9060,List2A,black,woman,,,,,"{""Q0"":""Beth is seduced by Jane""}","<img src=""stim_listA/seduce8.gif""style=""height:400px;""></stim_listA>",is being seduced by,,,,,,
null,"<div style=""font-size:60px;"">+</div>",,html-keyboard-response,299,2086068,0.0-17.0-0.13,9060,List2A,black,woman,,,,null,,,,,,,,,
null,"<img src=""stim_listA/challenge4.gif""style=""height:400px;""></stim_listA>",,html-keyboard-response,300,2088070,0.0-17.0-1.13,9060,List2A,black,woman,,,,null,,,,,,,,,
null,is being challenged by,,html-keyboard-response,301,2090074,0.0-17.0-2.13,9060,List2A,black,woman,,,,null,,,,,,,,,
10237.7,,,survey-text,302,2100313,0.0-17.0-3.13,9060,List2A,black,woman,,,,,"{""Q0"":""Kate is challenged by Fred""}","<img src=""stim_listA/challenge4.gif""style=""height:400px;""></stim_listA>",is being challenged by,,,,,,
null,"<div style=""font-size:60px;"">+</div>",,html-keyboard-response,303,2100820,0.0-17.0-0.14,9060,List2A,black,woman,,,,null,,,,,,,,,
null,"<img src=""stim_listA/seduce1.gif""style=""height:400px;""></stim_listA>",,html-keyboard-response,304,2102826,0.0-17.0-1.14,9060,List2A,black,woman,,,,null,,,,,,,,,
null,is seducing,,html-keyboard-response,305,2104831,0.0-17.0-2.14,9060,List2A,black,woman,,,,null,,,,,,,,,
88647.1,,,survey-text,306,2193480,0.0-17.0-3.14,9060,List2A,black,woman,,,,,"{""Q0"":""Jane is seducing Luke""}","<img src=""stim_listA/seduce1.gif""style=""height:400px;""></stim_listA>",is seducing,,,,,,
null,"<div style=""font-size:60px;"">+</div>",,html-keyboard-response,307,2193987,0.0-17.0-0.15,9060,List2A,black,woman,,,,null,,,,,,,,,
null,"<img src=""stim_listA/copy6.gif""style=""height:400px;""></stim_listA>",,html-keyboard-response,308,2195993,0.0-17.0-1.15,9060,List2A,black,woman,,,,null,,,,,,,,,
null,is being copied by,,html-keyboard-response,309,2197995,0.0-17.0-2.15,9060,List2A,black,woman,,,,null,,,,,,,,,
10934.4,,,survey-text,310,2208931,0.0-17.0-3.15,9060,List2A,black,woman,,,,,"{""Q0"":""Mike is being challenged by Luke""}","<img src=""stim_listA/copy6.gif""style=""height:400px;""></stim_listA>",is being copied by,,,,,,
null,"<div style=""font-size:60px;"">+</div>",,html-keyboard-response,311,2209434,0.0-17.0-0.16,9060,List2A,black,woman,,,,null,,,,,,,,,
null,"<img src=""stim_listA/copy7.gif""style=""height:400px;""></stim_listA>",,html-keyboard-response,312,2211438,0.0-17.0-1.16,9060,List2A,black,woman,,,,null,,,,,,,,,
null,is copying,,html-keyboard-response,313,2213440,0.0-17.0-2.16,9060,List2A,black,woman,,,,null,,,,,,,,,
7439.4,,,survey-text,314,2220881,0.0-17.0-3.16,9060,List2A,black,woman,,,,,"{""Q0"":""Jane is copying Beth""}","<img src=""stim_listA/copy7.gif""style=""height:400px;""></stim_listA>",is copying,,,,,,
null,"<div style=""font-size:60px;"">+</div>",,html-keyboard-response,315,2221382,0.0-17.0-0.17,9060,List2A,black,woman,,,,null,,,,,,,,,
null,"<img src=""stim_listA/oppose8.gif""style=""height:400px;""></stim_listA>",,html-keyboard-response,316,2223384,0.0-17.0-1.17,9060,List2A,black,woman,,,,null,,,,,,,,,
null,is being opposed by,,html-keyboard-response,317,2225391,0.0-17.0-2.17,9060,List2A,black,woman,,,,null,,,,,,,,,
9658.9,,,survey-text,318,2235052,0.0-17.0-3.17,9060,List2A,black,woman,,,,,"{""Q0"":""Ruth is being opposed by Beth""}","<img src=""stim_listA/oppose8.gif""style=""height:400px;""></stim_listA>",is being opposed by,,,,,,
null,"<div style=""font-size:60px;"">+</div>",,html-keyboard-response,319,2235554,0.0-17.0-0.18,9060,List2A,black,woman,,,,null,,,,,,,,,
null,"<img src=""stim_listA/look5.gif""style=""height:400px;""></stim_listA>",,html-keyboard-response,320,2237560,0.0-17.0-1.18,9060,List2A,black,woman,,,,null,,,,,,,,,
null,is looking at,,html-keyboard-response,321,2239562,0.0-17.0-2.18,9060,List2A,black,woman,,,,null,,,,,,,,,
7455.6,,,survey-text,322,2247019,0.0-17.0-3.18,9060,List2A,black,woman,,,,,"{""Q0"":""Luke is looking at Fred""}","<img src=""stim_listA/look5.gif""style=""height:400px;""></stim_listA>",is looking at,,,,,,
null,"<div style=""font-size:60px;"">+</div>",,html-keyboard-response,323,2247522,0.0-17.0-0.19,9060,List2A,black,woman,,,,null,,,,,,,,,
null,"<img src=""stim_listA/touch5.gif""style=""height:400px;""></stim_listA>",,html-keyboard-response,324,2249527,0.0-17.0-1.19,9060,List2A,black,woman,,,,null,,,,,,,,,
null,is touching,,html-keyboard-response,325,2251533,0.0-17.0-2.19,9060,List2A,black,woman,,,,null,,,,,,,,,
7360.6,,,survey-text,326,2258896,0.0-17.0-3.19,9060,List2A,black,woman,,,,,"{""Q0"":""mike is touching Dave""}","<img src=""stim_listA/touch5.gif""style=""height:400px;""></stim_listA>",is touching,,,,,,
33218.9,"<img src='img/portrait_matrix_list2.jpg' style='width:900px;height:500px;''></img><p>If you have memorised all the portraits and names and are ready to start, press Continue.</p><p><strong>Please note: Your memory of these faces will be tested 4 times during this experiment.</strong></p>",0,html-button-response,327,2292116,0.0-18.0-0.0,9060,List2A,black,woman,,,,,,,,,,,,,
3975.4,"<img src=""portrait/WM1.jpg""style=""height:400px;""></img>",6,html-button-response,328,2297098,0.0-18.0-1.0,9060,List2A,black,woman,,TRUE,6,,,,,,,,,,
null,CORRECT,,html-keyboard-response,329,2298610,0.0-18.0-2.0-0.0,9060,List2A,black,woman,,,,null,,,,,,,,,
2063.5,"<img src=""portrait/WW2.jpg""style=""height:400px;""></img>",3,html-button-response,330,2300675,0.0-18.0-4.0,9060,List2A,black,woman,,TRUE,3,,,,,,,,,,
null,CORRECT,,html-keyboard-response,331,2302184,0.0-18.0-5.0-0.0,9060,List2A,black,woman,,,,null,,,,,,,,,
3395.9,"<img src=""portrait/WM2.jpg""style=""height:400px;""></img>",7,html-button-response,332,2305581,0.0-18.0-7.0,9060,List2A,black,woman,,TRUE,7,,,,,,,,,,
null,CORRECT,,html-keyboard-response,333,2307088,0.0-18.0-8.0-0.0,9060,List2A,black,woman,,,,null,,,,,,,,,
3077.8,"<img src=""portrait/WW1.jpg""style=""height:400px;""></img>",1,html-button-response,334,2310167,0.0-18.0-10.0,9060,List2A,black,woman,,TRUE,1,,,,,,,,,,
null,CORRECT,,html-keyboard-response,335,2311674,0.0-18.0-11.0-0.0,9060,List2A,black,woman,,,,null,,,,,,,,,
3182.4,"<img src=""portrait/BM1.jpg""style=""height:400px;""></img>",4,html-button-response,336,2314858,0.0-18.0-13.0,9060,List2A,black,woman,,TRUE,4,,,,,,,,,,
null,CORRECT,,html-keyboard-response,337,2316362,0.0-18.0-14.0-0.0,9060,List2A,black,woman,,,,null,,,,,,,,,
2719.2,"<img src=""portrait/BW2.jpg""style=""height:400px;""></img>",2,html-button-response,338,2319083,0.0-18.0-16.0,9060,List2A,black,woman,,TRUE,2,,,,,,,,,,
null,CORRECT,,html-keyboard-response,339,2320592,0.0-18.0-17.0-0.0,9060,List2A,black,woman,,,,null,,,,,,,,,
4547.1,"<img src=""portrait/BW1.jpg""style=""height:400px;""></img>",0,html-button-response,340,2325140,0.0-18.0-19.0,9060,List2A,black,woman,,TRUE,0,,,,,,,,,,
null,CORRECT,,html-keyboard-response,341,2326646,0.0-18.0-20.0-0.0,9060,List2A,black,woman,,,,null,,,,,,,,,
3264.2,"<img src=""portrait/BM2.jpg""style=""height:400px;""></img>",5,html-button-response,342,2329911,0.0-18.0-22.0,9060,List2A,black,woman,,TRUE,5,,,,,,,,,,
null,CORRECT,,html-keyboard-response,343,2331421,0.0-18.0-23.0-0.0,9060,List2A,black,woman,,,,null,,,,,,,,,
3884.7,<p>You got 8 out of 8 right first time. Press Continue.</p>,0,html-button-response,344,2335307,0.0-18.0-25.0,9060,List2A,black,woman,,,,,,,,,,,,,
null,"<div style=""font-size:60px;"">+</div>",,html-keyboard-response,345,2336814,0.0-19.0-0.0,9060,List2A,black,woman,,,,null,,,,,,,,,
null,"<img src=""stim_listA/seduce5.gif""style=""height:400px;""></stim_listA>",,html-keyboard-response,346,2338821,0.0-19.0-1.0,9060,List2A,black,woman,,,,null,,,,,,,,,
null,is seducing,,html-keyboard-response,347,2340824,0.0-19.0-2.0,9060,List2A,black,woman,,,,null,,,,,,,,,
25852.4,,,survey-text,348,2366678,0.0-19.0-3.0,9060,List2A,black,woman,,,,,"{""Q0"":""Mike is seducing Luke""}","<img src=""stim_listA/seduce5.gif""style=""height:400px;""></stim_listA>",is seducing,,,,,,
null,"<div style=""font-size:60px;"">+</div>",,html-keyboard-response,349,2367180,0.0-19.0-0.1,9060,List2A,black,woman,,,,null,,,,,,,,,
null,"<img src=""stim_listA/hug7.gif""style=""height:400px;""></stim_listA>",,html-keyboard-response,350,2369182,0.0-19.0-1.1,9060,List2A,black,woman,,,,null,,,,,,,,,
null,is hugging,,html-keyboard-response,351,2371184,0.0-19.0-2.1,9060,List2A,black,woman,,,,null,,,,,,,,,
21247.6,,,survey-text,352,2392434,0.0-19.0-3.1,9060,List2A,black,woman,,,,,"{""Q0"":""Beth is seducing Ruth""}","<img src=""stim_listA/hug7.gif""style=""height:400px;""></stim_listA>",is hugging,,,,,,
null,"<div style=""font-size:60px;"">+</div>",,html-keyboard-response,353,2392940,0.0-19.0-0.2,9060,List2A,black,woman,,,,null,,,,,,,,,
null,"<img src=""stim_listA/shout1.gif""style=""height:400px;""></stim_listA>",,html-keyboard-response,354,2394946,0.0-19.0-1.2,9060,List2A,black,woman,,,,null,,,,,,,,,
null,is shouting at,,html-keyboard-response,355,2396951,0.0-19.0-2.2,9060,List2A,black,woman,,,,null,,,,,,,,,
19300,,,survey-text,356,2416253,0.0-19.0-3.2,9060,List2A,black,woman,,,,,"{""Q0"":""Ruth is shouting at Luke""}","<img src=""stim_listA/shout1.gif""style=""height:400px;""></stim_listA>",is shouting at,,,,,,
null,"<div style=""font-size:60px;"">+</div>",,html-keyboard-response,357,2416759,0.0-19.0-0.3,9060,List2A,black,woman,,,,null,,,,,,,,,
null,"<img src=""stim_listA/seduce6.gif""style=""height:400px;""></stim_listA>",,html-keyboard-response,358,2418764,0.0-19.0-1.3,9060,List2A,black,woman,,,,null,,,,,,,,,
null,is being seduced by,,html-keyboard-response,359,2420765,0.0-19.0-2.3,9060,List2A,black,woman,,,,null,,,,,,,,,
127369.6,,,survey-text,360,2548137,0.0-19.0-3.3,9060,List2A,black,woman,,,,,"{""Q0"":""Dave is seduced by Luke""}","<img src=""stim_listA/seduce6.gif""style=""height:400px;""></stim_listA>",is being seduced by,,,,,,
null,"<div style=""font-size:60px;"">+</div>",,html-keyboard-response,361,2548641,0.0-19.0-0.4,9060,List2A,black,woman,,,,null,,,,,,,,,
null,"<img src=""stim_listA/kiss5.gif""style=""height:400px;""></stim_listA>",,html-keyboard-response,362,2550648,0.0-19.0-1.4,9060,List2A,black,woman,,,,null,,,,,,,,,
null,is kissing,,html-keyboard-response,363,2552650,0.0-19.0-2.4,9060,List2A,black,woman,,,,null,,,,,,,,,
20052.4,,,survey-text,364,2572704,0.0-19.0-3.4,9060,List2A,black,woman,,,,,"{""Q0"":""Luke is kissing Fred""}","<img src=""stim_listA/kiss5.gif""style=""height:400px;""></stim_listA>",is kissing,,,,,,
null,"<div style=""font-size:60px;"">+</div>",,html-keyboard-response,365,2573206,0.0-19.0-0.5,9060,List2A,black,woman,,,,null,,,,,,,,,
null,"<img src=""stim_listA/kiss1.gif""style=""height:400px;""></stim_listA>",,html-keyboard-response,366,2575212,0.0-19.0-1.5,9060,List2A,black,woman,,,,null,,,,,,,,,
null,is kissing,,html-keyboard-response,367,2577217,0.0-19.0-2.5,9060,List2A,black,woman,,,,null,,,,,,,,,
11688.3,,,survey-text,368,2588907,0.0-19.0-3.5,9060,List2A,black,woman,,,,,"{""Q0"":""Ruth is kissing Luke""}","<img src=""stim_listA/kiss1.gif""style=""height:400px;""></stim_listA>",is kissing,,,,,,
null,"<div style=""font-size:60px;"">+</div>",,html-keyboard-response,369,2589412,0.0-19.0-0.6,9060,List2A,black,woman,,,,null,,,,,,,,,
null,"<img src=""stim_listA/challenge3.gif""style=""height:400px;""></stim_listA>",,html-keyboard-response,370,2591419,0.0-19.0-1.6,9060,List2A,black,woman,,,,null,,,,,,,,,
null,is challenging,,html-keyboard-response,371,2593424,0.0-19.0-2.6,9060,List2A,black,woman,,,,null,,,,,,,,,
51042.3,,,survey-text,372,2644468,0.0-19.0-3.6,9060,List2A,black,woman,,,,,"{""Q0"":""Beth is challenging Mike""}","<img src=""stim_listA/challenge3.gif""style=""height:400px;""></stim_listA>",is challenging,,,,,,
null,"<div style=""font-size:60px;"">+</div>",,html-keyboard-response,373,2644974,0.0-19.0-0.7,9060,List2A,black,woman,,,,null,,,,,,,,,
null,"<img src=""stim_listA/challenge8.gif""style=""height:400px;""></stim_listA>",,html-keyboard-response,374,2646980,0.0-19.0-1.7,9060,List2A,black,woman,,,,null,,,,,,,,,
null,is being challenged by,,html-keyboard-response,375,2648982,0.0-19.0-2.7,9060,List2A,black,woman,,,,null,,,,,,,,,
19388.1,,,survey-text,376,2668372,0.0-19.0-3.7,9060,List2A,black,woman,,,,,"{""Q0"":""Kate is being challenged by Ruth""}","<img src=""stim_listA/challenge8.gif""style=""height:400px;""></stim_listA>",is being challenged by,,,,,,
null,"<div style=""font-size:60px;"">+</div>",,html-keyboard-response,377,2668876,0.0-19.0-0.8,9060,List2A,black,woman,,,,null,,,,,,,,,
null,"<img src=""stim_listA/touch1.gif""style=""height:400px;""></stim_listA>",,html-keyboard-response,378,2670881,0.0-19.0-1.8,9060,List2A,black,woman,,,,null,,,,,,,,,
null,is touching,,html-keyboard-response,379,2672882,0.0-19.0-2.8,9060,List2A,black,woman,,,,null,,,,,,,,,
21981.4,,,survey-text,380,2694865,0.0-19.0-3.8,9060,List2A,black,woman,,,,,"{""Q0"":""Jane is touching Kate""}","<img src=""stim_listA/touch1.gif""style=""height:400px;""></stim_listA>",is touching,,,,,,
null,"<div style=""font-size:60px;"">+</div>",,html-keyboard-response,381,2695370,0.0-19.0-0.9,9060,List2A,black,woman,,,,null,,,,,,,,,
null,"<img src=""stim_listA/touch6.gif""style=""height:400px;""></stim_listA>",,html-keyboard-response,382,2697374,0.0-19.0-1.9,9060,List2A,black,woman,,,,null,,,,,,,,,
null,is being touched by,,html-keyboard-response,383,2699375,0.0-19.0-2.9,9060,List2A,black,woman,,,,null,,,,,,,,,
14159,,,survey-text,384,2713536,0.0-19.0-3.9,9060,List2A,black,woman,,,,,"{""Q0"":""Fred is touching Luke""}","<img src=""stim_listA/touch6.gif""style=""height:400px;""></stim_listA>",is being touched by,,,,,,
null,"<div style=""font-size:60px;"">+</div>",,html-keyboard-response,385,2714041,0.0-19.0-0.10,9060,List2A,black,woman,,,,null,,,,,,,,,
null,"<img src=""stim_listA/look3.gif""style=""height:400px;""></stim_listA>",,html-keyboard-response,386,2716047,0.0-19.0-1.10,9060,List2A,black,woman,,,,null,,,,,,,,,
null,is looking at,,html-keyboard-response,387,2718050,0.0-19.0-2.10,9060,List2A,black,woman,,,,null,,,,,,,,,
17506,,,survey-text,388,2735557,0.0-19.0-3.10,9060,List2A,black,woman,,,,,"{""Q0"":""Beth is looking at Fred""}","<img src=""stim_listA/look3.gif""style=""height:400px;""></stim_listA>",is looking at,,,,,,
null,"<div style=""font-size:60px;"">+</div>",,html-keyboard-response,389,2736059,0.0-19.0-0.11,9060,List2A,black,woman,,,,null,,,,,,,,,
null,"<img src=""stim_listA/greet3.gif""style=""height:400px;""></stim_listA>",,html-keyboard-response,390,2738065,0.0-19.0-1.11,9060,List2A,black,woman,,,,null,,,,,,,,,
null,is greeting,,html-keyboard-response,391,2740071,0.0-19.0-2.11,9060,List2A,black,woman,,,,null,,,,,,,,,
8513.8,,,survey-text,392,2748586,0.0-19.0-3.11,9060,List2A,black,woman,,,,,"{""Q0"":""Beth is greeting Mike""}","<img src=""stim_listA/greet3.gif""style=""height:400px;""></stim_listA>",is greeting,,,,,,
null,"<div style=""font-size:60px;"">+</div>",,html-keyboard-response,393,2749089,0.0-19.0-0.12,9060,List2A,black,woman,,,,null,,,,,,,,,
null,"<img src=""stim_listA/look4.gif""style=""height:400px;""></stim_listA>",,html-keyboard-response,394,2751090,0.0-19.0-1.12,9060,List2A,black,woman,,,,null,,,,,,,,,
null,is being looked at by,,html-keyboard-response,395,2753096,0.0-19.0-2.12,9060,List2A,black,woman,,,,null,,,,,,,,,
6336.8,,,survey-text,396,2759435,0.0-19.0-3.12,9060,List2A,black,woman,,,,,"{""Q0"":""Mike is being looked at by Kate""}","<img src=""stim_listA/look4.gif""style=""height:400px;""></stim_listA>",is being looked at by,,,,,,
null,"<div style=""font-size:60px;"">+</div>",,html-keyboard-response,397,2759939,0.0-19.0-0.13,9060,List2A,black,woman,,,,null,,,,,,,,,
null,"<img src=""stim_listA/look1.gif""style=""height:400px;""></stim_listA>",,html-keyboard-response,398,2761944,0.0-19.0-1.13,9060,List2A,black,woman,,,,null,,,,,,,,,
null,is looking at,,html-keyboard-response,399,2763949,0.0-19.0-2.13,9060,List2A,black,woman,,,,null,,,,,,,,,
8158.9,,,survey-text,400,2772110,0.0-19.0-3.13,9060,List2A,black,woman,,,,,"{""Q0"":""Ruth is looking at Luke""}","<img src=""stim_listA/look1.gif""style=""height:400px;""></stim_listA>",is looking at,,,,,,
null,"<div style=""font-size:60px;"">+</div>",,html-keyboard-response,401,2772616,0.0-19.0-0.14,9060,List2A,black,woman,,,,null,,,,,,,,,
null,"<img src=""stim_listA/greet7.gif""style=""height:400px;""></stim_listA>",,html-keyboard-response,402,2774622,0.0-19.0-1.14,9060,List2A,black,woman,,,,null,,,,,,,,,
null,is greeting,,html-keyboard-response,403,2776623,0.0-19.0-2.14,9060,List2A,black,woman,,,,null,,,,,,,,,
4439.3,,,survey-text,404,2781065,0.0-19.0-3.14,9060,List2A,black,woman,,,,,"{""Q0"":""Beth is greeting Jane""}","<img src=""stim_listA/greet7.gif""style=""height:400px;""></stim_listA>",is greeting,,,,,,
null,"<div style=""font-size:60px;"">+</div>",,html-keyboard-response,405,2781566,0.0-19.0-0.15,9060,List2A,black,woman,,,,null,,,,,,,,,
null,"<img src=""stim_listA/challenge2.gif""style=""height:400px;""></stim_listA>",,html-keyboard-response,406,2783573,0.0-19.0-1.15,9060,List2A,black,woman,,,,null,,,,,,,,,
null,is being challenged by,,html-keyboard-response,407,2785574,0.0-19.0-2.15,9060,List2A,black,woman,,,,null,,,,,,,,,
10703.1,,,survey-text,408,2796278,0.0-19.0-3.15,9060,List2A,black,woman,,,,,"{""Q0"":""Luke is being challenged by Jane""}","<img src=""stim_listA/challenge2.gif""style=""height:400px;""></stim_listA>",is being challenged by,,,,,,
null,"<div style=""font-size:60px;"">+</div>",,html-keyboard-response,409,2796783,0.0-19.0-0.16,9060,List2A,black,woman,,,,null,,,,,,,,,
null,"<img src=""stim_listA/shout8.gif""style=""height:400px;""></stim_listA>",,html-keyboard-response,410,2798787,0.0-19.0-1.16,9060,List2A,black,woman,,,,null,,,,,,,,,
null,is being shouted at by,,html-keyboard-response,411,2800789,0.0-19.0-2.16,9060,List2A,black,woman,,,,null,,,,,,,,,
7991.2,,,survey-text,412,2808783,0.0-19.0-3.16,9060,List2A,black,woman,,,,,"{""Q0"":""Jane is being shouted at by Kate""}","<img src=""stim_listA/shout8.gif""style=""height:400px;""></stim_listA>",is being shouted at by,,,,,,
null,"<div style=""font-size:60px;"">+</div>",,html-keyboard-response,413,2809288,0.0-19.0-0.17,9060,List2A,black,woman,,,,null,,,,,,,,,
null,"<img src=""stim_listA/oppose4.gif""style=""height:400px;""></stim_listA>",,html-keyboard-response,414,2811290,0.0-19.0-1.17,9060,List2A,black,woman,,,,null,,,,,,,,,
null,is being opposed by,,html-keyboard-response,415,2813295,0.0-19.0-2.17,9060,List2A,black,woman,,,,null,,,,,,,,,
8254.3,,,survey-text,416,2821551,0.0-19.0-3.17,9060,List2A,black,woman,,,,,"{""Q0"":""Beth is being opposed by Fred.""}","<img src=""stim_listA/oppose4.gif""style=""height:400px;""></stim_listA>",is being opposed by,,,,,,
null,"<div style=""font-size:60px;"">+</div>",,html-keyboard-response,417,2822056,0.0-19.0-0.18,9060,List2A,black,woman,,,,null,,,,,,,,,
null,"<img src=""stim_listA/challenge5.gif""style=""height:400px;""></stim_listA>",,html-keyboard-response,418,2824063,0.0-19.0-1.18,9060,List2A,black,woman,,,,null,,,,,,,,,
null,is challenging,,html-keyboard-response,419,2826068,0.0-19.0-2.18,9060,List2A,black,woman,,,,null,,,,,,,,,
13088.1,,,survey-text,420,2839158,0.0-19.0-3.18,9060,List2A,black,woman,,,,,"{""Q0"":""Dave is challenging Fred""}","<img src=""stim_listA/challenge5.gif""style=""height:400px;""></stim_listA>",is challenging,,,,,,
null,"<div style=""font-size:60px;"">+</div>",,html-keyboard-response,421,2839665,0.0-19.0-0.19,9060,List2A,black,woman,,,,null,,,,,,,,,
null,"<img src=""stim_listA/kiss3.gif""style=""height:400px;""></stim_listA>",,html-keyboard-response,422,2841667,0.0-19.0-1.19,9060,List2A,black,woman,,,,null,,,,,,,,,
null,is kissing,,html-keyboard-response,423,2843671,0.0-19.0-2.19,9060,List2A,black,woman,,,,null,,,,,,,,,
5292.9,,,survey-text,424,2848966,0.0-19.0-3.19,9060,List2A,black,woman,,,,,"{""Q0"":""Fred is kissing Beth""}","<img src=""stim_listA/kiss3.gif""style=""height:400px;""></stim_listA>",is kissing,,,,,,
1823.9,<p>Thank you for completing that task.</p><p>The final part of this session is a questionnaire that will take about 4 minutes.</p><p>Press Continue.</p>,0,html-button-response,425,2850791,0.0-20.0,9060,List2A,black,woman,,,,,,,,,,,,,
44698,,,survey-text,426,2896495,0.0-21.0,9060,List2A,black,woman,,,,,"{""Q0"":""21"",""Q1"":""English"",""Q2"":""English"",""Q3"":""United States"",""Q4"":""American"",""Q5"":""black"",""Q6"":""Female""}",,,demographics,,,,,
6186.1,<p>Have you lived in the USA for the last 5 years or more?</p>,0,html-button-response,427,2902682,0.0-22.0,9060,List2A,black,woman,,,,,,,,fiveyears,,,,,
10532.8,<p>Move the slider to show the extent to which you agree with the following statements.</p>,0,html-button-response,428,2914218,0.0-23.0,9060,List2A,black,woman,,,,,,,,,,,,,
12609.1,,,html-slider-response,429,2927832,0.0-24.0-0.0-0.0,9060,List2A,black,woman,,,,,,,,survey_gender,96,,,My friends have a lot in common with each other.,filler
2348.9,,,html-slider-response,430,2930183,0.0-24.0-0.0-0.1,9060,List2A,black,woman,,,,,,,,survey_gender,68,,,I often think about my actions.,filler
5532.8,,,html-slider-response,431,2935717,0.0-24.0-0.0-0.2,9060,List2A,black,woman,,,,,,,,survey_gender,75,,,I have a lot in common with the average person of my gender.,average
2333.1,,,html-slider-response,432,2938052,0.0-24.0-0.0-0.3,9060,List2A,black,woman,,,,,,,,survey_gender,95,,,I have a lot in common with my friends.,filler
2970.8,,,html-slider-response,433,2941024,0.0-24.0-0.0-0.4,9060,List2A,black,woman,,,,,,,,survey_gender,94,,,I feel solidarity with my gender.,solidarity
3294.4,,,html-slider-response,434,2944320,0.0-24.0-0.0-0.5,9060,List2A,black,woman,,,,,,,,survey_gender,60,,,Being my gender is an important part of how I see myself.,important
2348.4,,,html-slider-response,435,2946670,0.0-24.0-0.0-0.6,9060,List2A,black,woman,,,,,,,,survey_gender,99,,,I feel committed to my gender.,committed
2406.4,,,html-slider-response,436,2949078,0.0-24.0-0.0-0.7,9060,List2A,black,woman,,,,,,,,survey_gender,29,,,Routine is not important to me.,filler
2810.3,,,html-slider-response,437,2951889,0.0-24.0-0.0-0.8,9060,List2A,black,woman,,,,,,,,survey_gender,93,,,My friends understand me.,filler
19335.2,,,html-slider-response,438,2971226,0.0-24.0-0.0-0.9,9060,List2A,black,woman,,,,,,,,survey_gender,98,,,I am glad to have the friends that I have.,filler
4449.2,,,html-slider-response,439,2975677,0.0-24.0-0.0-0.10,9060,List2A,black,woman,,,,,,,,survey_gender,52,,,It is not always easy for people to know what I am thinking.,filler
2268.5,,,html-slider-response,440,2977947,0.0-24.0-0.0-0.11,9060,List2A,black,woman,,,,,,,,survey_gender,84,,,Most of the friends in my life are very similar to me.,filler
13605.8,,,html-slider-response,441,2991554,0.0-24.0-0.0-0.12,9060,List2A,black,woman,,,,,,,,survey_gender,89,,,Being around my friends gives me a good feeling.,filler
10403.1,,,html-slider-response,442,3001959,0.0-24.0-0.0-0.13,9060,List2A,black,woman,,,,,,,,survey_gender,24,,,Family is not more important to me than friendship.,filler
6751.9,,,html-slider-response,443,3008713,0.0-24.0-0.0-0.14,9060,List2A,black,woman,,,,,,,,survey_gender,56,,,It is pleasant to be my gender.,pleasant
2655.3,,,html-slider-response,444,3011370,0.0-24.0-0.0-0.15,9060,List2A,black,woman,,,,,,,,survey_gender,68,,,Being my gender gives me a good feeling.,feeling
4200.1,,,html-slider-response,445,3015571,0.0-24.0-0.0-0.16,9060,List2A,black,woman,,,,,,,,survey_gender,67,,,I am similar to the average person of my gender.,similar
2777.2,,,html-slider-response,446,3018350,0.0-24.0-0.0-0.17,9060,List2A,black,woman,,,,,,,,survey_gender,28,,,I often think about the fact that I am my gender.,often
2235.4,,,html-slider-response,447,3020587,0.0-24.0-0.0-0.18,9060,List2A,black,woman,,,,,,,,survey_gender,62,,,I am glad to be my gender.,glad
6579.1,,,html-slider-response,448,3027167,0.0-24.0-0.0-0.19,9060,List2A,black,woman,,,,,,,,survey_gender,76,,,I would say I am an animal person.,filler
3431,,,html-slider-response,449,3030600,0.0-24.0-0.0-0.20,9060,List2A,black,woman,,,,,,,,survey_gender,99,,,I feel a bond with my friends.,filler
3173.5,,,html-slider-response,450,3033775,0.0-24.0-0.0-0.21,9060,List2A,black,woman,,,,,,,,survey_gender,43,,,People of my gender have a lot in common with each other.,common
1921.3,,,html-slider-response,451,3035697,0.0-24.0-0.0-0.22,9060,List2A,black,woman,,,,,,,,survey_gender,99,,,I consider myself a highly empathetic person.,filler
2794,,,html-slider-response,452,3038493,0.0-24.0-0.0-0.23,9060,List2A,black,woman,,,,,,,,survey_gender,71,,,The fact that I am my gender is an important part of my identity.,identity
2389.5,,,html-slider-response,453,3040884,0.0-24.0-0.0-0.24,9060,List2A,black,woman,,,,,,,,survey_gender,68,,,I feel a bond with my gender.,bond
2608.2,,,html-slider-response,454,3043493,0.0-24.0-0.0-0.25,9060,List2A,black,woman,,,,,,,,survey_gender,53,,,People of my gender are very similar to each other.,verysimilar
3544.5,,,html-slider-response,455,3047039,0.0-24.0-0.0-0.26,9060,List2A,black,woman,,,,,,,,survey_gender,85,,,I feel solidarity with my friends.,filler
4021,,,html-slider-response,456,3051062,0.0-24.0-0.0-0.27,9060,List2A,black,woman,,,,,,,,survey_gender,57,,,I think that my gender has a lot to be proud of.,proud
3819.5,,,html-slider-response,457,3054883,0.0-24.0-1.0-0.0,9060,List2A,black,woman,,,,,,,,survey_race,61,,,I feel a bond with people the same age as me.,filler
2001.8,,,html-slider-response,458,3056886,0.0-24.0-1.0-0.1,9060,List2A,black,woman,,,,,,,,survey_race,63,,,I feel solidarity with my race.,solidarity
2697,,,html-slider-response,459,3059584,0.0-24.0-1.0-0.2,9060,List2A,black,woman,,,,,,,,survey_race,35,,,My age is not an important part of who I am.,filler
2390.5,,,html-slider-response,460,3061976,0.0-24.0-1.0-0.3,9060,List2A,black,woman,,,,,,,,survey_race,82,,,I feel a bond with my race.,bond
4989.7,,,html-slider-response,461,3066967,0.0-24.0-1.0-0.4,9060,List2A,black,woman,,,,,,,,survey_race,100,,,I feel committed to my race.,committed
4521.4,,,html-slider-response,462,3071490,0.0-24.0-1.0-0.5,9060,List2A,black,woman,,,,,,,,survey_race,44,,,Being my age gives me a good feeling.,filler
4125.6,,,html-slider-response,463,3075617,0.0-24.0-1.0-0.6,9060,List2A,black,woman,,,,,,,,survey_race,56,,,People of my race have a lot in common with each other.,common
3237.1,,,html-slider-response,464,3078856,0.0-24.0-1.0-0.7,9060,List2A,black,woman,,,,,,,,survey_race,36,,,I often think about the fact that I am my age.,filler
2615.4,,,html-slider-response,465,3081474,0.0-24.0-1.0-0.8,9060,List2A,black,woman,,,,,,,,survey_race,44,,,People of my race are very similar to each other.,verysimilar
3996.8,,,html-slider-response,466,3085472,0.0-24.0-1.0-0.9,9060,List2A,black,woman,,,,,,,,survey_race,70,,,Being my race gives me a good feeling.,feeling
2825.6,,,html-slider-response,467,3088299,0.0-24.0-1.0-0.10,9060,List2A,black,woman,,,,,,,,survey_race,58,,,I have a lot in common with people of a similar age to me.,filler
3504.6,,,html-slider-response,468,3091805,0.0-24.0-1.0-0.11,9060,List2A,black,woman,,,,,,,,survey_race,83,,,The fact that I am my race is an important part of my identity.,identity
2720.5,,,html-slider-response,469,3094527,0.0-24.0-1.0-0.12,9060,List2A,black,woman,,,,,,,,survey_race,67,,,"The older I get, the wiser I feel.",filler
4545.6,,,html-slider-response,470,3099074,0.0-24.0-1.0-0.13,9060,List2A,black,woman,,,,,,,,survey_race,57,,,I feel solidarity with people the same age as me.,filler
5789.9,,,html-slider-response,471,3104866,0.0-24.0-1.0-0.14,9060,List2A,black,woman,,,,,,,,survey_race,18,,,I enjoy being in large groups.,filler
3624.3,,,html-slider-response,472,3108492,0.0-24.0-1.0-0.15,9060,List2A,black,woman,,,,,,,,survey_race,6,,,Getting older does not worry me.,filler
5476.3,,,html-slider-response,473,3113970,0.0-24.0-1.0-0.16,9060,List2A,black,woman,,,,,,,,survey_race,50,,,I have a lot in common with the average person of my race.,average
3099.4,,,html-slider-response,474,3117071,0.0-24.0-1.0-0.17,9060,List2A,black,woman,,,,,,,,survey_race,54,,,I am similar to the average person of my race.,similar
2405.6,,,html-slider-response,475,3119478,0.0-24.0-1.0-0.18,9060,List2A,black,woman,,,,,,,,survey_race,62,,,I am glad to be my age.,filler
3237.2,,,html-slider-response,476,3122717,0.0-24.0-1.0-0.19,9060,List2A,black,woman,,,,,,,,survey_race,55,,,I am glad to be the age I am.,filler
3294,,,html-slider-response,477,3126013,0.0-24.0-1.0-0.20,9060,List2A,black,woman,,,,,,,,survey_race,87,,,Being my race is an important part of how I see myself.,important
2565.4,,,html-slider-response,478,3128579,0.0-24.0-1.0-0.21,9060,List2A,black,woman,,,,,,,,survey_race,22,,,It is pleasant to be my race.,pleasant
3563.5,,,html-slider-response,479,3132144,0.0-24.0-1.0-0.22,9060,List2A,black,woman,,,,,,,,survey_race,77,,,I often think about the fact that I am my race.,often
2647.3,,,html-slider-response,480,3134793,0.0-24.0-1.0-0.23,9060,List2A,black,woman,,,,,,,,survey_race,90,,,I am glad to be my race.,glad
2503.3,,,html-slider-response,481,3137297,0.0-24.0-1.0-0.24,9060,List2A,black,woman,,,,,,,,survey_race,60,,,I consider myself an introvert.,filler
3011.5,,,html-slider-response,482,3140310,0.0-24.0-1.0-0.25,9060,List2A,black,woman,,,,,,,,survey_race,41,,,I consider myself an extrovert.,filler
2930.5,,,html-slider-response,483,3143242,0.0-24.0-1.0-0.26,9060,List2A,black,woman,,,,,,,,survey_race,65,,,I think that my race has a lot to be proud of.,proud
4360.7,,,html-slider-response,484,3147604,0.0-24.0-1.0-0.27,9060,List2A,black,woman,,,,,,,,survey_race,56,,,People my age have a lot in common with each other.,filler
15290.4,,,survey-text,485,3162897,0.0-25.0,9060,List2A,black,woman,,,,,"{""Q0"":""ccc""}",,,worker_id,,,,,
3039,,,external-html,486,3166168,0.0-26.0,9060,List2A,black,woman,debrief.html,,,,,,,,,,,,
