"rt","stimulus","button_pressed","trial_type","trial_index","time_elapsed","internal_node_id","subject","list","ppt_race","ppt_gender","url","first_guess","correct","key_press","responses","image_type","phrase_type","test_part","response","stimulus1","stimulus2","question_type","survey_item"
"2444.199999988079","Welcome to the experiment. Press Continue to begin.","0","html-button-response","0","2449","0.0-0.0","90958","List1B","white","woman","","","","","","","","","","","","",""
"142223.09999999404","","","external-html","1","145785","0.0-1.0","90958","List1B","white","woman","consent.html","","","","","","","","","","","",""
"77603.29999999702","<p>On the next page, you will see portraits of 8 people and their names.</p><p>Your first task is to take a few minutes to memorise the names of these people.</p><p>You will have to recall their names during the rest of the experiment, so it is</p><p>essential that you try to memorise these people and their names as best as you can.</p><br><p><strong>You will then be tested on your memory of these names and portraits.</strong></p><br><p>The experiment will start after you have completed this memory test.</p><br><p>Ready?</p>","0","html-button-response","2","223392","0.0-2.0","90958","List1B","white","woman","","","","","","","","","","","","",""
"96308.19999998808","<img src='img/portrait_matrix_list1.jpg' style='width:900px;height:500px;''></img><p>If you have memorised all the portraits and names and are ready to start, press Continue.</p><p><strong>Please note: Your memory of these faces will be tested 4 times during this experiment.</strong></p>","0","html-button-response","3","320710","0.0-3.0-0.0","90958","List1B","white","woman","","","","","","","","","","","","",""
"12241.09999999404","<img src=""portrait/WM1.jpg""style=""height:400px;""></img>","6","html-button-response","4","333954","0.0-3.0-1.0","90958","List1B","white","woman","","true","6","","","","","","","","","",""
"null","CORRECT","","html-keyboard-response","5","335461","0.0-3.0-2.0-0.0","90958","List1B","white","woman","","","","null","","","","","","","","",""
"7623.5","<img src=""portrait/WW2.jpg""style=""height:400px;""></img>","3","html-button-response","6","343087","0.0-3.0-4.0","90958","List1B","white","woman","","true","3","","","","","","","","","",""
"null","CORRECT","","html-keyboard-response","7","344596","0.0-3.0-5.0-0.0","90958","List1B","white","woman","","","","null","","","","","","","","",""
"13379.20000000298","<img src=""portrait/BW1.jpg""style=""height:400px;""></img>","1","html-button-response","8","357977","0.0-3.0-7.0","90958","List1B","white","woman","","true","0","","","","","","","","","",""
"4512.4000000059605","<img src=""portrait/BW1.jpg""style=""height:400px;""></img>","0","html-button-response","9","363497","0.0-3.0-9.0-0.0","90958","List1B","white","woman","","false","0","","","","","","","","","",""
"null","CORRECT","","html-keyboard-response","10","365007","0.0-3.0-9.0-1.0-0.0","90958","List1B","white","woman","","","","null","","","","","","","","",""
"2798.6000000089407","<img src=""portrait/WW1.jpg""style=""height:400px;""></img>","1","html-button-response","11","367807","0.0-3.0-10.0","90958","List1B","white","woman","","true","1","","","","","","","","","",""
"null","CORRECT","","html-keyboard-response","12","369318","0.0-3.0-11.0-0.0","90958","List1B","white","woman","","","","null","","","","","","","","",""
"7646.9000000059605","<img src=""portrait/WM2.jpg""style=""height:400px;""></img>","7","html-button-response","13","376967","0.0-3.0-13.0","90958","List1B","white","woman","","true","7","","","","","","","","","",""
"null","CORRECT","","html-keyboard-response","14","378478","0.0-3.0-14.0-0.0","90958","List1B","white","woman","","","","null","","","","","","","","",""
"4175.0999999940395","<img src=""portrait/BM2.jpg""style=""height:400px;""></img>","5","html-button-response","15","382655","0.0-3.0-16.0","90958","List1B","white","woman","","true","5","","","","","","","","","",""
"null","CORRECT","","html-keyboard-response","16","384165","0.0-3.0-17.0-0.0","90958","List1B","white","woman","","","","null","","","","","","","","",""
"4000.2999999970198","<img src=""portrait/BW2.jpg""style=""height:400px;""></img>","2","html-button-response","17","388167","0.0-3.0-19.0","90958","List1B","white","woman","","true","2","","","","","","","","","",""
"null","CORRECT","","html-keyboard-response","18","389676","0.0-3.0-20.0-0.0","90958","List1B","white","woman","","","","null","","","","","","","","",""
"3475.6000000089407","<img src=""portrait/BM1.jpg""style=""height:400px;""></img>","4","html-button-response","19","393154","0.0-3.0-22.0","90958","List1B","white","woman","","true","4","","","","","","","","","",""
"null","CORRECT","","html-keyboard-response","20","394663","0.0-3.0-23.0-0.0","90958","List1B","white","woman","","","","null","","","","","","","","",""
"11825.5","<p>You got 7 out of 8 right first time. Press Continue.</p>","0","html-button-response","21","406491","0.0-3.0-25.0","90958","List1B","white","woman","","","","","","","","","","","","",""
"38351.70000000298","As you did not score 100%, the memory game will repeat. Press Continue.","0","html-button-response","22","445845","0.0-3.0-26.0-0.0","90958","List1B","white","woman","","","","","","","","","","","","",""
"9711.5","<img src='img/portrait_matrix_list1.jpg' style='width:900px;height:500px;''></img><p>If you have memorised all the portraits and names and are ready to start, press Continue.</p><p><strong>Please note: Your memory of these faces will be tested 4 times during this experiment.</strong></p>","0","html-button-response","23","456566","0.0-3.1-0.1","90958","List1B","white","woman","","","","","","","","","","","","",""
"3501","<img src=""portrait/WM1.jpg""style=""height:400px;""></img>","6","html-button-response","24","461069","0.0-3.1-1.1","90958","List1B","white","woman","","true","6","","","","","","","","","",""
"null","CORRECT","","html-keyboard-response","25","462578","0.0-3.1-2.1-0.1","90958","List1B","white","woman","","","","null","","","","","","","","",""
"3325.5999999940395","<img src=""portrait/WW2.jpg""style=""height:400px;""></img>","3","html-button-response","26","465905","0.0-3.1-4.1","90958","List1B","white","woman","","true","3","","","","","","","","","",""
"null","CORRECT","","html-keyboard-response","27","467414","0.0-3.1-5.1-0.1","90958","List1B","white","woman","","","","null","","","","","","","","",""
"6129.29999999702","<img src=""portrait/BW1.jpg""style=""height:400px;""></img>","0","html-button-response","28","473545","0.0-3.1-7.1","90958","List1B","white","woman","","true","0","","","","","","","","","",""
"null","CORRECT","","html-keyboard-response","29","475055","0.0-3.1-8.1-0.1","90958","List1B","white","woman","","","","null","","","","","","","","",""
"5960.79999999702","<img src=""portrait/WW1.jpg""style=""height:400px;""></img>","1","html-button-response","30","481017","0.0-3.1-10.1","90958","List1B","white","woman","","true","1","","","","","","","","","",""
"null","CORRECT","","html-keyboard-response","31","482522","0.0-3.1-11.1-0.1","90958","List1B","white","woman","","","","null","","","","","","","","",""
"4016","<img src=""portrait/WM2.jpg""style=""height:400px;""></img>","7","html-button-response","32","486539","0.0-3.1-13.1","90958","List1B","white","woman","","true","7","","","","","","","","","",""
"null","CORRECT","","html-keyboard-response","33","488050","0.0-3.1-14.1-0.1","90958","List1B","white","woman","","","","null","","","","","","","","",""
"4848.899999991059","<img src=""portrait/BM2.jpg""style=""height:400px;""></img>","5","html-button-response","34","492901","0.0-3.1-16.1","90958","List1B","white","woman","","true","5","","","","","","","","","",""
"null","CORRECT","","html-keyboard-response","35","494411","0.0-3.1-17.1-0.1","90958","List1B","white","woman","","","","null","","","","","","","","",""
"3196","<img src=""portrait/BW2.jpg""style=""height:400px;""></img>","2","html-button-response","36","497608","0.0-3.1-19.1","90958","List1B","white","woman","","true","2","","","","","","","","","",""
"null","CORRECT","","html-keyboard-response","37","499116","0.0-3.1-20.1-0.1","90958","List1B","white","woman","","","","null","","","","","","","","",""
"4325.29999999702","<img src=""portrait/BM1.jpg""style=""height:400px;""></img>","4","html-button-response","38","503443","0.0-3.1-22.1","90958","List1B","white","woman","","true","4","","","","","","","","","",""
"null","CORRECT","","html-keyboard-response","39","504953","0.0-3.1-23.1-0.1","90958","List1B","white","woman","","","","null","","","","","","","","",""
"2703.2999999970198","<p>You got 8 out of 8 right first time. Press Continue.</p>","0","html-button-response","40","507658","0.0-3.1-25.1","90958","List1B","white","woman","","","","","","","","","","","","",""
"155967.89999999106","<p>In this experiment, you will view photographs of the people from the memory game interacting.</p><p>By using the <strong>exact</strong> phrase given <i>after</i> the photograph appears and recalling the correct names of the people in the photographs, form a sentence describing the interaction. You do not need to capitalise names.</p><p>Type your answer in the space provided. Please complete every sentence before moving onto the next trial.</p><p>You will only have a few seconds to memorise each given photograph and phrase before you can respond, so try your best to focus.</p><p>An example is given below. Press 'Continue' when you are ready.</p><img src='img/speaking_example.jpg' style='width:800px;height:460px;''></img>","0","html-button-response","41","664638","0.0-4.0","90958","List1B","white","woman","","","","","","","","","","","","",""
"7406.5","<p>Before the experiment starts, you will watch two example trials. Press 'Continue'.</p>","0","html-button-response","42","673046","0.0-5.0","90958","List1B","white","woman","","","","","","","","","","","","",""
"null","<img src='img/play_eg.gif' style='height:400px;''></img>","","html-keyboard-response","43","676053","0.0-6.0","90958","List1B","white","woman","","","","null","","","","","","","","",""
"null","<p>is playing with</p>","","html-keyboard-response","44","678056","0.0-7.0","90958","List1B","white","woman","","","","null","","","","","","","","",""
"11226.79999999702","<p><b>Answer:</b> kate is playing with beth</p>","0","html-button-response","45","689285","0.0-8.0","90958","List1B","white","woman","","","","","","","","","","","","",""
"null","<img src='img/dance_eg.gif' style='height:400px;''></img>","","html-keyboard-response","46","692291","0.0-9.0","90958","List1B","white","woman","","","","null","","","","","","","","",""
"null","<p>is being entertained by</p>","","html-keyboard-response","47","694294","0.0-10.0","90958","List1B","white","woman","","","","null","","","","","","","","",""
"14549.59999999404","<p><b>Answer:</b> luke is being entertained by dave</p>","0","html-button-response","48","708846","0.0-11.0","90958","List1B","white","woman","","","","","","","","","","","","",""
"6429.9000000059605","<p>Ready to start the experiment?</p><br><p><strong>Remember to describe the picture using a full sentence,</strong></p><p><strong>that combines the names of the people with the <i>exact</i> phrase given.</strong></p><p><strong>To receive full payment you must do this correctly.</strong></p><p><strong> You do not need to capitalise names or use punctuation.</strong></p><br><p>Press 'Continue' to begin.</p>","0","html-button-response","49","716277","0.0-12.0","90958","List1B","white","woman","","","","","","","","","","","","",""
"null","<div style=""font-size:60px;"">+</div>","","html-keyboard-response","50","717789","0.0-13.0-0.0","90958","List1B","white","woman","","","","null","","","","","","","","",""
"null","<img src=""stim_listB/greet6.gif""style=""height:400px;""></stim_listB>","","html-keyboard-response","51","719795","0.0-13.0-1.0","90958","List1B","white","woman","","","","null","","","","","","","","",""
"null","is being greeted by","","html-keyboard-response","52","721800","0.0-13.0-2.0","90958","List1B","white","woman","","","","null","","","","","","","","",""
"28348.39999999106","","","survey-text","53","750154","0.0-13.0-3.0","90958","List1B","white","woman","","","","","{""Q0"":""fred is being greeted by dave""}","<img src=""stim_listB/greet6.gif""style=""height:400px;""></stim_listB>","is being greeted by","","","","","",""
"null","<div style=""font-size:60px;"">+</div>","","html-keyboard-response","54","750660","0.0-13.0-0.1","90958","List1B","white","woman","","","","null","","","","","","","","",""
"null","<img src=""stim_listB/challenge3.gif""style=""height:400px;""></stim_listB>","","html-keyboard-response","55","752664","0.0-13.0-1.1","90958","List1B","white","woman","","","","null","","","","","","","","",""
"null","is challenging","","html-keyboard-response","56","754671","0.0-13.0-2.1","90958","List1B","white","woman","","","","null","","","","","","","","",""
"199141.40000000596","","","survey-text","57","953820","0.0-13.0-3.1","90958","List1B","white","woman","","","","","{""Q0"":""ruth is challenging dave""}","<img src=""stim_listB/challenge3.gif""style=""height:400px;""></stim_listB>","is challenging","","","","","",""
"null","<div style=""font-size:60px;"">+</div>","","html-keyboard-response","58","954327","0.0-13.0-0.2","90958","List1B","white","woman","","","","null","","","","","","","","",""
"null","<img src=""stim_listB/copy1.gif""style=""height:400px;""></stim_listB>","","html-keyboard-response","59","956333","0.0-13.0-1.2","90958","List1B","white","woman","","","","null","","","","","","","","",""
"null","is copying","","html-keyboard-response","60","958339","0.0-13.0-2.2","90958","List1B","white","woman","","","","null","","","","","","","","",""
"36427.79999999702","","","survey-text","61","994773","0.0-13.0-3.2","90958","List1B","white","woman","","","","","{""Q0"":""Beth is copying Mike ""}","<img src=""stim_listB/copy1.gif""style=""height:400px;""></stim_listB>","is copying","","","","","",""
"null","<div style=""font-size:60px;"">+</div>","","html-keyboard-response","62","995280","0.0-13.0-0.3","90958","List1B","white","woman","","","","null","","","","","","","","",""
"null","<img src=""stim_listB/look8.gif""style=""height:400px;""></stim_listB>","","html-keyboard-response","63","997282","0.0-13.0-1.3","90958","List1B","white","woman","","","","null","","","","","","","","",""
"null","is being looked at by","","html-keyboard-response","64","999287","0.0-13.0-2.3","90958","List1B","white","woman","","","","null","","","","","","","","",""
"48439.59999999404","","","survey-text","65","1047731","0.0-13.0-3.3","90958","List1B","white","woman","","","","","{""Q0"":""jane is being looked at by kate ""}","<img src=""stim_listB/look8.gif""style=""height:400px;""></stim_listB>","is being looked at by","","","","","",""
"null","<div style=""font-size:60px;"">+</div>","","html-keyboard-response","66","1048237","0.0-13.0-0.4","90958","List1B","white","woman","","","","null","","","","","","","","",""
"null","<img src=""stim_listB/look2.gif""style=""height:400px;""></stim_listB>","","html-keyboard-response","67","1050242","0.0-13.0-1.4","90958","List1B","white","woman","","","","null","","","","","","","","",""
"null","is being looked at by","","html-keyboard-response","68","1052246","0.0-13.0-2.4","90958","List1B","white","woman","","","","null","","","","","","","","",""
"3291.7000000029802","","","survey-text","69","1055541","0.0-13.0-3.4","90958","List1B","white","woman","","","","","{""Q0"":""is being""}","<img src=""stim_listB/look2.gif""style=""height:400px;""></stim_listB>","is being looked at by","","","","","",""
"null","<div style=""font-size:60px;"">+</div>","","html-keyboard-response","70","1056046","0.0-13.0-0.5","90958","List1B","white","woman","","","","null","","","","","","","","",""
"null","<img src=""stim_listB/greet8.gif""style=""height:400px;""></stim_listB>","","html-keyboard-response","71","1058051","0.0-13.0-1.5","90958","List1B","white","woman","","","","null","","","","","","","","",""
"null","is being greeted by","","html-keyboard-response","72","1060057","0.0-13.0-2.5","90958","List1B","white","woman","","","","null","","","","","","","","",""
"91192.29999999702","","","survey-text","73","1151255","0.0-13.0-3.5","90958","List1B","white","woman","","","","","{""Q0"":""beth is being greeted by jane""}","<img src=""stim_listB/greet8.gif""style=""height:400px;""></stim_listB>","is being greeted by","","","","","",""
"null","<div style=""font-size:60px;"">+</div>","","html-keyboard-response","74","1151759","0.0-13.0-0.6","90958","List1B","white","woman","","","","null","","","","","","","","",""
"null","<img src=""stim_listB/greet7.gif""style=""height:400px;""></stim_listB>","","html-keyboard-response","75","1153763","0.0-13.0-1.6","90958","List1B","white","woman","","","","null","","","","","","","","",""
"null","is greeting","","html-keyboard-response","76","1155768","0.0-13.0-2.6","90958","List1B","white","woman","","","","null","","","","","","","","",""
"32193","","","survey-text","77","1187965","0.0-13.0-3.6","90958","List1B","white","woman","","","","","{""Q0"":""ruth is greeting kate""}","<img src=""stim_listB/greet7.gif""style=""height:400px;""></stim_listB>","is greeting","","","","","",""
"null","<div style=""font-size:60px;"">+</div>","","html-keyboard-response","78","1188470","0.0-13.0-0.7","90958","List1B","white","woman","","","","null","","","","","","","","",""
"null","<img src=""stim_listB/hug5.gif""style=""height:400px;""></stim_listB>","","html-keyboard-response","79","1190476","0.0-13.0-1.7","90958","List1B","white","woman","","","","null","","","","","","","","",""
"null","is hugging","","html-keyboard-response","80","1192481","0.0-13.0-2.7","90958","List1B","white","woman","","","","null","","","","","","","","",""
"40580.20000000298","","","survey-text","81","1233066","0.0-13.0-3.7","90958","List1B","white","woman","","","","","{""Q0"":""luke is hugging fred""}","<img src=""stim_listB/hug5.gif""style=""height:400px;""></stim_listB>","is hugging","","","","","",""
"null","<div style=""font-size:60px;"">+</div>","","html-keyboard-response","82","1233568","0.0-13.0-0.8","90958","List1B","white","woman","","","","null","","","","","","","","",""
"null","<img src=""stim_listB/greet4.gif""style=""height:400px;""></stim_listB>","","html-keyboard-response","83","1235575","0.0-13.0-1.8","90958","List1B","white","woman","","","","null","","","","","","","","",""
"null","is being greeted by","","html-keyboard-response","84","1237580","0.0-13.0-2.8","90958","List1B","white","woman","","","","null","","","","","","","","",""
"46382.39999999106","","","survey-text","85","1283967","0.0-13.0-3.8","90958","List1B","white","woman","","","","","{""Q0"":""luke is being greeted by jane""}","<img src=""stim_listB/greet4.gif""style=""height:400px;""></stim_listB>","is being greeted by","","","","","",""
"null","<div style=""font-size:60px;"">+</div>","","html-keyboard-response","86","1284469","0.0-13.0-0.9","90958","List1B","white","woman","","","","null","","","","","","","","",""
"null","<img src=""stim_listB/oppose2.gif""style=""height:400px;""></stim_listB>","","html-keyboard-response","87","1286475","0.0-13.0-1.9","90958","List1B","white","woman","","","","null","","","","","","","","",""
"null","is being opposed by","","html-keyboard-response","88","1288480","0.0-13.0-2.9","90958","List1B","white","woman","","","","null","","","","","","","","",""
"31334.20000000298","","","survey-text","89","1319818","0.0-13.0-3.9","90958","List1B","white","woman","","","","","{""Q0"":""fred is being opposed by beth""}","<img src=""stim_listB/oppose2.gif""style=""height:400px;""></stim_listB>","is being opposed by","","","","","",""
"null","<div style=""font-size:60px;"">+</div>","","html-keyboard-response","90","1320323","0.0-13.0-0.10","90958","List1B","white","woman","","","","null","","","","","","","","",""
"null","<img src=""stim_listB/seduce1.gif""style=""height:400px;""></stim_listB>","","html-keyboard-response","91","1322329","0.0-13.0-1.10","90958","List1B","white","woman","","","","null","","","","","","","","",""
"null","is seducing","","html-keyboard-response","92","1324335","0.0-13.0-2.10","90958","List1B","white","woman","","","","null","","","","","","","","",""
"59843.40000000596","","","survey-text","93","1384184","0.0-13.0-3.10","90958","List1B","white","woman","","","","","{""Q0"":""kate is seducing fred""}","<img src=""stim_listB/seduce1.gif""style=""height:400px;""></stim_listB>","is seducing","","","","","",""
"null","<div style=""font-size:60px;"">+</div>","","html-keyboard-response","94","1384688","0.0-13.0-0.11","90958","List1B","white","woman","","","","null","","","","","","","","",""
"null","<img src=""stim_listB/oppose8.gif""style=""height:400px;""></stim_listB>","","html-keyboard-response","95","1386694","0.0-13.0-1.11","90958","List1B","white","woman","","","","null","","","","","","","","",""
"null","is being opposed by","","html-keyboard-response","96","1388700","0.0-13.0-2.11","90958","List1B","white","woman","","","","null","","","","","","","","",""
"33085.20000000298","","","survey-text","97","1421790","0.0-13.0-3.11","90958","List1B","white","woman","","","","","{""Q0"":""beth is being opposed by ruth""}","<img src=""stim_listB/oppose8.gif""style=""height:400px;""></stim_listB>","is being opposed by","","","","","",""
"null","<div style=""font-size:60px;"">+</div>","","html-keyboard-response","98","1422292","0.0-13.0-0.12","90958","List1B","white","woman","","","","null","","","","","","","","",""
"null","<img src=""stim_listB/seduce4.gif""style=""height:400px;""></stim_listB>","","html-keyboard-response","99","1424298","0.0-13.0-1.12","90958","List1B","white","woman","","","","null","","","","","","","","",""
"null","is being seduced by","","html-keyboard-response","100","1426300","0.0-13.0-2.12","90958","List1B","white","woman","","","","null","","","","","","","","",""
"33627.10000000894","","","survey-text","101","1459932","0.0-13.0-3.12","90958","List1B","white","woman","","","","","{""Q0"":""dave is being seduced by ruth""}","<img src=""stim_listB/seduce4.gif""style=""height:400px;""></stim_listB>","is being seduced by","","","","","",""
"null","<div style=""font-size:60px;"">+</div>","","html-keyboard-response","102","1460435","0.0-13.0-0.13","90958","List1B","white","woman","","","","null","","","","","","","","",""
"null","<img src=""stim_listB/look4.gif""style=""height:400px;""></stim_listB>","","html-keyboard-response","103","1462439","0.0-13.0-1.13","90958","List1B","white","woman","","","","null","","","","","","","","",""
"null","is being looked at by","","html-keyboard-response","104","1464440","0.0-13.0-2.13","90958","List1B","white","woman","","","","null","","","","","","","","",""
"57262.40000000596","","","survey-text","105","1521708","0.0-13.0-3.13","90958","List1B","white","woman","","","","","{""Q0"":""dave is being looked at by jane""}","<img src=""stim_listB/look4.gif""style=""height:400px;""></stim_listB>","is being looked at by","","","","","",""
"null","<div style=""font-size:60px;"">+</div>","","html-keyboard-response","106","1522212","0.0-13.0-0.14","90958","List1B","white","woman","","","","null","","","","","","","","",""
"null","<img src=""stim_listB/look6.gif""style=""height:400px;""></stim_listB>","","html-keyboard-response","107","1524218","0.0-13.0-1.14","90958","List1B","white","woman","","","","null","","","","","","","","",""
"null","is being looked at by","","html-keyboard-response","108","1526222","0.0-13.0-2.14","90958","List1B","white","woman","","","","null","","","","","","","","",""
"35716.29999999702","","","survey-text","109","1561943","0.0-13.0-3.14","90958","List1B","white","woman","","","","","{""Q0"":""Mike is being looked at by dave ""}","<img src=""stim_listB/look6.gif""style=""height:400px;""></stim_listB>","is being looked at by","","","","","",""
"null","<div style=""font-size:60px;"">+</div>","","html-keyboard-response","110","1562447","0.0-13.0-0.15","90958","List1B","white","woman","","","","null","","","","","","","","",""
"null","<img src=""stim_listB/touch4.gif""style=""height:400px;""></stim_listB>","","html-keyboard-response","111","1564451","0.0-13.0-1.15","90958","List1B","white","woman","","","","null","","","","","","","","",""
"null","is being touched by","","html-keyboard-response","112","1566452","0.0-13.0-2.15","90958","List1B","white","woman","","","","null","","","","","","","","",""
"29438.39999999106","","","survey-text","113","1595895","0.0-13.0-3.15","90958","List1B","white","woman","","","","","{""Q0"":""Luke is being touched by ruth""}","<img src=""stim_listB/touch4.gif""style=""height:400px;""></stim_listB>","is being touched by","","","","","",""
"null","<div style=""font-size:60px;"">+</div>","","html-keyboard-response","114","1596399","0.0-13.0-0.16","90958","List1B","white","woman","","","","null","","","","","","","","",""
"null","<img src=""stim_listB/kiss7.gif""style=""height:400px;""></stim_listB>","","html-keyboard-response","115","1598406","0.0-13.0-1.16","90958","List1B","white","woman","","","","null","","","","","","","","",""
"null","is kissing","","html-keyboard-response","116","1600408","0.0-13.0-2.16","90958","List1B","white","woman","","","","null","","","","","","","","",""
"32357.19999998808","","","survey-text","117","1632769","0.0-13.0-3.16","90958","List1B","white","woman","","","","","{""Q0"":""Ruth is kissing beth ""}","<img src=""stim_listB/kiss7.gif""style=""height:400px;""></stim_listB>","is kissing","","","","","",""
"null","<div style=""font-size:60px;"">+</div>","","html-keyboard-response","118","1633274","0.0-13.0-0.17","90958","List1B","white","woman","","","","null","","","","","","","","",""
"null","<img src=""stim_listB/kiss1.gif""style=""height:400px;""></stim_listB>","","html-keyboard-response","119","1635275","0.0-13.0-1.17","90958","List1B","white","woman","","","","null","","","","","","","","",""
"null","is kissing","","html-keyboard-response","120","1637279","0.0-13.0-2.17","90958","List1B","white","woman","","","","null","","","","","","","","",""
"48735.19999998808","","","survey-text","121","1686019","0.0-13.0-3.17","90958","List1B","white","woman","","","","","{""Q0"":""beth is kissing fred""}","<img src=""stim_listB/kiss1.gif""style=""height:400px;""></stim_listB>","is kissing","","","","","",""
"null","<div style=""font-size:60px;"">+</div>","","html-keyboard-response","122","1686523","0.0-13.0-0.18","90958","List1B","white","woman","","","","null","","","","","","","","",""
"null","<img src=""stim_listB/look1.gif""style=""height:400px;""></stim_listB>","","html-keyboard-response","123","1688529","0.0-13.0-1.18","90958","List1B","white","woman","","","","null","","","","","","","","",""
"null","is looking at","","html-keyboard-response","124","1690534","0.0-13.0-2.18","90958","List1B","white","woman","","","","null","","","","","","","","",""
"29291","","","survey-text","125","1719829","0.0-13.0-3.18","90958","List1B","white","woman","","","","","{""Q0"":""beth is looking at fred""}","<img src=""stim_listB/look1.gif""style=""height:400px;""></stim_listB>","is looking at","","","","","",""
"null","<div style=""font-size:60px;"">+</div>","","html-keyboard-response","126","1720333","0.0-13.0-0.19","90958","List1B","white","woman","","","","null","","","","","","","","",""
"null","<img src=""stim_listB/challenge4.gif""style=""height:400px;""></stim_listB>","","html-keyboard-response","127","1722339","0.0-13.0-1.19","90958","List1B","white","woman","","","","null","","","","","","","","",""
"null","is being challenged by","","html-keyboard-response","128","1724345","0.0-13.0-2.19","90958","List1B","white","woman","","","","null","","","","","","","","",""
"40104.59999999404","","","survey-text","129","1764453","0.0-13.0-3.19","90958","List1B","white","woman","","","","","{""Q0"":""Luke is being challenged by jane""}","<img src=""stim_listB/challenge4.gif""style=""height:400px;""></stim_listB>","is being challenged by","","","","","",""
"18657.79999999702","<img src='img/portrait_matrix_list1.jpg' style='width:900px;height:500px;''></img><p>If you have memorised all the portraits and names and are ready to start, press Continue.</p><p><strong>Please note: Your memory of these faces will be tested 4 times during this experiment.</strong></p>","0","html-button-response","130","1783114","0.0-14.0-0.0","90958","List1B","white","woman","","","","","","","","","","","","",""
"5697.9000000059605","<img src=""portrait/BW1.jpg""style=""height:400px;""></img>","0","html-button-response","131","1789820","0.0-14.0-1.0","90958","List1B","white","woman","","true","0","","","","","","","","","",""
"null","CORRECT","","html-keyboard-response","132","1791329","0.0-14.0-2.0-0.0","90958","List1B","white","woman","","","","null","","","","","","","","",""
"4739.79999999702","<img src=""portrait/WM2.jpg""style=""height:400px;""></img>","7","html-button-response","133","1796071","0.0-14.0-4.0","90958","List1B","white","woman","","true","7","","","","","","","","","",""
"null","CORRECT","","html-keyboard-response","134","1797573","0.0-14.0-5.0-0.0","90958","List1B","white","woman","","","","null","","","","","","","","",""
"13501","<img src=""portrait/WW1.jpg""style=""height:400px;""></img>","1","html-button-response","135","1811077","0.0-14.0-7.0","90958","List1B","white","woman","","true","1","","","","","","","","","",""
"null","CORRECT","","html-keyboard-response","136","1812587","0.0-14.0-8.0-0.0","90958","List1B","white","woman","","","","null","","","","","","","","",""
"3875.6000000089407","<img src=""portrait/WW2.jpg""style=""height:400px;""></img>","3","html-button-response","137","1816465","0.0-14.0-10.0","90958","List1B","white","woman","","true","3","","","","","","","","","",""
"null","CORRECT","","html-keyboard-response","138","1817974","0.0-14.0-11.0-0.0","90958","List1B","white","woman","","","","null","","","","","","","","",""
"4972.199999988079","<img src=""portrait/BM2.jpg""style=""height:400px;""></img>","5","html-button-response","139","1822949","0.0-14.0-13.0","90958","List1B","white","woman","","true","5","","","","","","","","","",""
"null","CORRECT","","html-keyboard-response","140","1824459","0.0-14.0-14.0-0.0","90958","List1B","white","woman","","","","null","","","","","","","","",""
"4306.899999991059","<img src=""portrait/WM1.jpg""style=""height:400px;""></img>","6","html-button-response","141","1828768","0.0-14.0-16.0","90958","List1B","white","woman","","true","6","","","","","","","","","",""
"null","CORRECT","","html-keyboard-response","142","1830276","0.0-14.0-17.0-0.0","90958","List1B","white","woman","","","","null","","","","","","","","",""
"3780.8999999910593","<img src=""portrait/BM1.jpg""style=""height:400px;""></img>","4","html-button-response","143","1834059","0.0-14.0-19.0","90958","List1B","white","woman","","true","4","","","","","","","","","",""
"null","CORRECT","","html-keyboard-response","144","1835569","0.0-14.0-20.0-0.0","90958","List1B","white","woman","","","","null","","","","","","","","",""
"3626.4000000059605","<img src=""portrait/BW2.jpg""style=""height:400px;""></img>","2","html-button-response","145","1839198","0.0-14.0-22.0","90958","List1B","white","woman","","true","2","","","","","","","","","",""
"null","CORRECT","","html-keyboard-response","146","1840708","0.0-14.0-23.0-0.0","90958","List1B","white","woman","","","","null","","","","","","","","",""
"12048.29999999702","<p>You got 8 out of 8 right first time. Press Continue.</p>","0","html-button-response","147","1852759","0.0-14.0-25.0","90958","List1B","white","woman","","","","","","","","","","","","",""
"null","<div style=""font-size:60px;"">+</div>","","html-keyboard-response","148","1854269","0.0-15.0-0.0","90958","List1B","white","woman","","","","null","","","","","","","","",""
"null","<img src=""stim_listB/copy3.gif""style=""height:400px;""></stim_listB>","","html-keyboard-response","149","1856275","0.0-15.0-1.0","90958","List1B","white","woman","","","","null","","","","","","","","",""
"null","is copying","","html-keyboard-response","150","1858278","0.0-15.0-2.0","90958","List1B","white","woman","","","","null","","","","","","","","",""
"31293.20000000298","","","survey-text","151","1889575","0.0-15.0-3.0","90958","List1B","white","woman","","","","","{""Q0"":""ruth is copying dave""}","<img src=""stim_listB/copy3.gif""style=""height:400px;""></stim_listB>","is copying","","","","","",""
"null","<div style=""font-size:60px;"">+</div>","","html-keyboard-response","152","1890083","0.0-15.0-0.1","90958","List1B","white","woman","","","","null","","","","","","","","",""
"null","<img src=""stim_listB/touch3.gif""style=""height:400px;""></stim_listB>","","html-keyboard-response","153","1892089","0.0-15.0-1.1","90958","List1B","white","woman","","","","null","","","","","","","","",""
"null","is touching","","html-keyboard-response","154","1894094","0.0-15.0-2.1","90958","List1B","white","woman","","","","null","","","","","","","","",""
"36071.20000000298","","","survey-text","155","1930172","0.0-15.0-3.1","90958","List1B","white","woman","","","","","{""Q0"":""dave is touching jane""}","<img src=""stim_listB/touch3.gif""style=""height:400px;""></stim_listB>","is touching","","","","","",""
"null","<div style=""font-size:60px;"">+</div>","","html-keyboard-response","156","1930679","0.0-15.0-0.2","90958","List1B","white","woman","","","","null","","","","","","","","",""
"null","<img src=""stim_listB/oppose6.gif""style=""height:400px;""></stim_listB>","","html-keyboard-response","157","1932683","0.0-15.0-1.2","90958","List1B","white","woman","","","","null","","","","","","","","",""
"null","is being opposed by","","html-keyboard-response","158","1934688","0.0-15.0-2.2","90958","List1B","white","woman","","","","null","","","","","","","","",""
"34624.29999999702","","","survey-text","159","1969317","0.0-15.0-3.2","90958","List1B","white","woman","","","","","{""Q0"":""fred is being opposed by luke""}","<img src=""stim_listB/oppose6.gif""style=""height:400px;""></stim_listB>","is being opposed by","","","","","",""
"null","<div style=""font-size:60px;"">+</div>","","html-keyboard-response","160","1969820","0.0-15.0-0.3","90958","List1B","white","woman","","","","null","","","","","","","","",""
"null","<img src=""stim_listB/kiss2.gif""style=""height:400px;""></stim_listB>","","html-keyboard-response","161","1971826","0.0-15.0-1.3","90958","List1B","white","woman","","","","null","","","","","","","","",""
"null","is being kissed by","","html-keyboard-response","162","1973832","0.0-15.0-2.3","90958","List1B","white","woman","","","","null","","","","","","","","",""
"38654.5","","","survey-text","163","2012491","0.0-15.0-3.3","90958","List1B","white","woman","","","","","{""Q0"":""mike is being kissed by kate""}","<img src=""stim_listB/kiss2.gif""style=""height:400px;""></stim_listB>","is being kissed by","","","","","",""
"null","<div style=""font-size:60px;"">+</div>","","html-keyboard-response","164","2012995","0.0-15.0-0.4","90958","List1B","white","woman","","","","null","","","","","","","","",""
"null","<img src=""stim_listB/shout2.gif""style=""height:400px;""></stim_listB>","","html-keyboard-response","165","2015001","0.0-15.0-1.4","90958","List1B","white","woman","","","","null","","","","","","","","",""
"null","is being shouted at by","","html-keyboard-response","166","2017006","0.0-15.0-2.4","90958","List1B","white","woman","","","","null","","","","","","","","",""
"53578.09999999404","","","survey-text","167","2070590","0.0-15.0-3.4","90958","List1B","white","woman","","","","","{""Q0"":""mike is being shouted at by kate ""}","<img src=""stim_listB/shout2.gif""style=""height:400px;""></stim_listB>","is being shouted at by","","","","","",""
"null","<div style=""font-size:60px;"">+</div>","","html-keyboard-response","168","2071094","0.0-15.0-0.5","90958","List1B","white","woman","","","","null","","","","","","","","",""
"null","<img src=""stim_listB/touch8.gif""style=""height:400px;""></stim_listB>","","html-keyboard-response","169","2073096","0.0-15.0-1.5","90958","List1B","white","woman","","","","null","","","","","","","","",""
"null","is being touched by","","html-keyboard-response","170","2075101","0.0-15.0-2.5","90958","List1B","white","woman","","","","null","","","","","","","","",""
"26946.40000000596","","","survey-text","171","2102052","0.0-15.0-3.5","90958","List1B","white","woman","","","","","{""Q0"":""beth is being touched by ruth""}","<img src=""stim_listB/touch8.gif""style=""height:400px;""></stim_listB>","is being touched by","","","","","",""
"null","<div style=""font-size:60px;"">+</div>","","html-keyboard-response","172","2102556","0.0-15.0-0.6","90958","List1B","white","woman","","","","null","","","","","","","","",""
"null","<img src=""stim_listB/touch6.gif""style=""height:400px;""></stim_listB>","","html-keyboard-response","173","2104563","0.0-15.0-1.6","90958","List1B","white","woman","","","","null","","","","","","","","",""
"null","is being touched by","","html-keyboard-response","174","2106565","0.0-15.0-2.6","90958","List1B","white","woman","","","","null","","","","","","","","",""
"28002.70000000298","","","survey-text","175","2134572","0.0-15.0-3.6","90958","List1B","white","woman","","","","","{""Q0"":""fred is being touched by luke ""}","<img src=""stim_listB/touch6.gif""style=""height:400px;""></stim_listB>","is being touched by","","","","","",""
"null","<div style=""font-size:60px;"">+</div>","","html-keyboard-response","176","2135079","0.0-15.0-0.7","90958","List1B","white","woman","","","","null","","","","","","","","",""
"null","<img src=""stim_listB/seduce8.gif""style=""height:400px;""></stim_listB>","","html-keyboard-response","177","2137086","0.0-15.0-1.7","90958","List1B","white","woman","","","","null","","","","","","","","",""
"null","is being seduced by","","html-keyboard-response","178","2139088","0.0-15.0-2.7","90958","List1B","white","woman","","","","null","","","","","","","","",""
"30883.5","","","survey-text","179","2169977","0.0-15.0-3.7","90958","List1B","white","woman","","","","","{""Q0"":""kate is being seduced by ruth""}","<img src=""stim_listB/seduce8.gif""style=""height:400px;""></stim_listB>","is being seduced by","","","","","",""
"null","<div style=""font-size:60px;"">+</div>","","html-keyboard-response","180","2170480","0.0-15.0-0.8","90958","List1B","white","woman","","","","null","","","","","","","","",""
"null","<img src=""stim_listB/touch5.gif""style=""height:400px;""></stim_listB>","","html-keyboard-response","181","2172487","0.0-15.0-1.8","90958","List1B","white","woman","","","","null","","","","","","","","",""
"null","is touching","","html-keyboard-response","182","2174492","0.0-15.0-2.8","90958","List1B","white","woman","","","","null","","","","","","","","",""
"36142.60000000894","","","survey-text","183","2210640","0.0-15.0-3.8","90958","List1B","white","woman","","","","","{""Q0"":""dave is touching mike""}","<img src=""stim_listB/touch5.gif""style=""height:400px;""></stim_listB>","is touching","","","","","",""
"null","<div style=""font-size:60px;"">+</div>","","html-keyboard-response","184","2211144","0.0-15.0-0.9","90958","List1B","white","woman","","","","null","","","","","","","","",""
"null","<img src=""stim_listB/shout8.gif""style=""height:400px;""></stim_listB>","","html-keyboard-response","185","2213149","0.0-15.0-1.9","90958","List1B","white","woman","","","","null","","","","","","","","",""
"null","is being shouted at by","","html-keyboard-response","186","2215154","0.0-15.0-2.9","90958","List1B","white","woman","","","","null","","","","","","","","",""
"43351.39999999106","","","survey-text","187","2258511","0.0-15.0-3.9","90958","List1B","white","woman","","","","","{""Q0"":""kate is being shouted at by jane ""}","<img src=""stim_listB/shout8.gif""style=""height:400px;""></stim_listB>","is being shouted at by","","","","","",""
"null","<div style=""font-size:60px;"">+</div>","","html-keyboard-response","188","2259015","0.0-15.0-0.10","90958","List1B","white","woman","","","","null","","","","","","","","",""
"null","<img src=""stim_listB/seduce6.gif""style=""height:400px;""></stim_listB>","","html-keyboard-response","189","2261021","0.0-15.0-1.10","90958","List1B","white","woman","","","","null","","","","","","","","",""
"null","is being seduced by","","html-keyboard-response","190","2263027","0.0-15.0-2.10","90958","List1B","white","woman","","","","null","","","","","","","","",""
"34283.70000000298","","","survey-text","191","2297316","0.0-15.0-3.10","90958","List1B","white","woman","","","","","{""Q0"":""mike is being seduced by luke ""}","<img src=""stim_listB/seduce6.gif""style=""height:400px;""></stim_listB>","is being seduced by","","","","","",""
"null","<div style=""font-size:60px;"">+</div>","","html-keyboard-response","192","2297819","0.0-15.0-0.11","90958","List1B","white","woman","","","","null","","","","","","","","",""
"null","<img src=""stim_listB/shout1.gif""style=""height:400px;""></stim_listB>","","html-keyboard-response","193","2299822","0.0-15.0-1.11","90958","List1B","white","woman","","","","null","","","","","","","","",""
"null","is shouting at","","html-keyboard-response","194","2301827","0.0-15.0-2.11","90958","List1B","white","woman","","","","null","","","","","","","","",""
"52625.09999999404","","","survey-text","195","2354458","0.0-15.0-3.11","90958","List1B","white","woman","","","","","{""Q0"":""beth is shouting at fred""}","<img src=""stim_listB/shout1.gif""style=""height:400px;""></stim_listB>","is shouting at","","","","","",""
"null","<div style=""font-size:60px;"">+</div>","","html-keyboard-response","196","2354961","0.0-15.0-0.12","90958","List1B","white","woman","","","","null","","","","","","","","",""
"null","<img src=""stim_listB/shout5.gif""style=""height:400px;""></stim_listB>","","html-keyboard-response","197","2356967","0.0-15.0-1.12","90958","List1B","white","woman","","","","null","","","","","","","","",""
"null","is shouting at","","html-keyboard-response","198","2358973","0.0-15.0-2.12","90958","List1B","white","woman","","","","null","","","","","","","","",""
"31588.20000000298","","","survey-text","199","2390565","0.0-15.0-3.12","90958","List1B","white","woman","","","","","{""Q0"":""luke is shouting at fred""}","<img src=""stim_listB/shout5.gif""style=""height:400px;""></stim_listB>","is shouting at","","","","","",""
"null","<div style=""font-size:60px;"">+</div>","","html-keyboard-response","200","2391067","0.0-15.0-0.13","90958","List1B","white","woman","","","","null","","","","","","","","",""
"null","<img src=""stim_listB/seduce2.gif""style=""height:400px;""></stim_listB>","","html-keyboard-response","201","2393069","0.0-15.0-1.13","90958","List1B","white","woman","","","","null","","","","","","","","",""
"null","is being seduced by","","html-keyboard-response","202","2395074","0.0-15.0-2.13","90958","List1B","white","woman","","","","null","","","","","","","","",""
"70905.79999999702","","","survey-text","203","2465984","0.0-15.0-3.13","90958","List1B","white","woman","","","","","{""Q0"":""mike is being seduced by beth""}","<img src=""stim_listB/seduce2.gif""style=""height:400px;""></stim_listB>","is being seduced by","","","","","",""
"null","<div style=""font-size:60px;"">+</div>","","html-keyboard-response","204","2466488","0.0-15.0-0.14","90958","List1B","white","woman","","","","null","","","","","","","","",""
"null","<img src=""stim_listB/oppose4.gif""style=""height:400px;""></stim_listB>","","html-keyboard-response","205","2468494","0.0-15.0-1.14","90958","List1B","white","woman","","","","null","","","","","","","","",""
"null","is being opposed by","","html-keyboard-response","206","2470499","0.0-15.0-2.14","90958","List1B","white","woman","","","","null","","","","","","","","",""
"64265.60000000894","","","survey-text","207","2534768","0.0-15.0-3.14","90958","List1B","white","woman","","","","","{""Q0"":""luke is being opposed by ruth""}","<img src=""stim_listB/oppose4.gif""style=""height:400px;""></stim_listB>","is being opposed by","","","","","",""
"null","<div style=""font-size:60px;"">+</div>","","html-keyboard-response","208","2535270","0.0-15.0-0.15","90958","List1B","white","woman","","","","null","","","","","","","","",""
"null","<img src=""stim_listB/copy4.gif""style=""height:400px;""></stim_listB>","","html-keyboard-response","209","2537272","0.0-15.0-1.15","90958","List1B","white","woman","","","","null","","","","","","","","",""
"null","is being copied by","","html-keyboard-response","210","2539277","0.0-15.0-2.15","90958","List1B","white","woman","","","","null","","","","","","","","",""
"77164.40000000596","","","survey-text","211","2616446","0.0-15.0-3.15","90958","List1B","white","woman","","","","","{""Q0"":""luke is being copied by jane ""}","<img src=""stim_listB/copy4.gif""style=""height:400px;""></stim_listB>","is being copied by","","","","","",""
"null","<div style=""font-size:60px;"">+</div>","","html-keyboard-response","212","2616948","0.0-15.0-0.16","90958","List1B","white","woman","","","","null","","","","","","","","",""
"null","<img src=""stim_listB/hug2.gif""style=""height:400px;""></stim_listB>","","html-keyboard-response","213","2618954","0.0-15.0-1.16","90958","List1B","white","woman","","","","null","","","","","","","","",""
"null","is being hugged by","","html-keyboard-response","214","2620960","0.0-15.0-2.16","90958","List1B","white","woman","","","","null","","","","","","","","",""
"30948.79999999702","","","survey-text","215","2651912","0.0-15.0-3.16","90958","List1B","white","woman","","","","","{""Q0"":""mike is being hugged by kate""}","<img src=""stim_listB/hug2.gif""style=""height:400px;""></stim_listB>","is being hugged by","","","","","",""
"null","<div style=""font-size:60px;"">+</div>","","html-keyboard-response","216","2652416","0.0-15.0-0.17","90958","List1B","white","woman","","","","null","","","","","","","","",""
"null","<img src=""stim_listB/look3.gif""style=""height:400px;""></stim_listB>","","html-keyboard-response","217","2654423","0.0-15.0-1.17","90958","List1B","white","woman","","","","null","","","","","","","","",""
"null","is looking at","","html-keyboard-response","218","2656427","0.0-15.0-2.17","90958","List1B","white","woman","","","","null","","","","","","","","",""
"95488.70000000298","","","survey-text","219","2751920","0.0-15.0-3.17","90958","List1B","white","woman","","","","","{""Q0"":""ruth is looking at luke ""}","<img src=""stim_listB/look3.gif""style=""height:400px;""></stim_listB>","is looking at","","","","","",""
"null","<div style=""font-size:60px;"">+</div>","","html-keyboard-response","220","2752425","0.0-15.0-0.18","90958","List1B","white","woman","","","","null","","","","","","","","",""
"null","<img src=""stim_listB/oppose3.gif""style=""height:400px;""></stim_listB>","","html-keyboard-response","221","2754429","0.0-15.0-1.18","90958","List1B","white","woman","","","","null","","","","","","","","",""
"null","is opposing","","html-keyboard-response","222","2756434","0.0-15.0-2.18","90958","List1B","white","woman","","","","null","","","","","","","","",""
"33604.59999999404","","","survey-text","223","2790043","0.0-15.0-3.18","90958","List1B","white","woman","","","","","{""Q0"":""jane is opposing dave""}","<img src=""stim_listB/oppose3.gif""style=""height:400px;""></stim_listB>","is opposing","","","","","",""
"null","<div style=""font-size:60px;"">+</div>","","html-keyboard-response","224","2790547","0.0-15.0-0.19","90958","List1B","white","woman","","","","null","","","","","","","","",""
"null","<img src=""stim_listB/hug7.gif""style=""height:400px;""></stim_listB>","","html-keyboard-response","225","2792551","0.0-15.0-1.19","90958","List1B","white","woman","","","","null","","","","","","","","",""
"null","is hugging","","html-keyboard-response","226","2794553","0.0-15.0-2.19","90958","List1B","white","woman","","","","null","","","","","","","","",""
"41831","","","survey-text","227","2836389","0.0-15.0-3.19","90958","List1B","white","woman","","","","","{""Q0"":""ruth is hugging beth ""}","<img src=""stim_listB/hug7.gif""style=""height:400px;""></stim_listB>","is hugging","","","","","",""
"41556.40000000596","<img src='img/portrait_matrix_list1.jpg' style='width:900px;height:500px;''></img><p>If you have memorised all the portraits and names and are ready to start, press Continue.</p><p><strong>Please note: Your memory of these faces will be tested 4 times during this experiment.</strong></p>","0","html-button-response","228","2877949","0.0-16.0-0.0","90958","List1B","white","woman","","","","","","","","","","","","",""
"3550.3999999910593","<img src=""portrait/BM1.jpg""style=""height:400px;""></img>","4","html-button-response","229","2882506","0.0-16.0-1.0","90958","List1B","white","woman","","true","4","","","","","","","","","",""
"null","CORRECT","","html-keyboard-response","230","2884015","0.0-16.0-2.0-0.0","90958","List1B","white","woman","","","","null","","","","","","","","",""
"11855.800000011921","<img src=""portrait/WW1.jpg""style=""height:400px;""></img>","1","html-button-response","231","2895874","0.0-16.0-4.0","90958","List1B","white","woman","","true","1","","","","","","","","","",""
"null","CORRECT","","html-keyboard-response","232","2897384","0.0-16.0-5.0-0.0","90958","List1B","white","woman","","","","null","","","","","","","","",""
"3662.5","<img src=""portrait/WM2.jpg""style=""height:400px;""></img>","7","html-button-response","233","2901049","0.0-16.0-7.0","90958","List1B","white","woman","","true","7","","","","","","","","","",""
"null","CORRECT","","html-keyboard-response","234","2902556","0.0-16.0-8.0-0.0","90958","List1B","white","woman","","","","null","","","","","","","","",""
"4674.79999999702","<img src=""portrait/BW2.jpg""style=""height:400px;""></img>","2","html-button-response","235","2907233","0.0-16.0-10.0","90958","List1B","white","woman","","true","2","","","","","","","","","",""
"null","CORRECT","","html-keyboard-response","236","2908745","0.0-16.0-11.0-0.0","90958","List1B","white","woman","","","","null","","","","","","","","",""
"17810.90000000596","<img src=""portrait/BM2.jpg""style=""height:400px;""></img>","5","html-button-response","237","2926559","0.0-16.0-13.0","90958","List1B","white","woman","","true","5","","","","","","","","","",""
"null","CORRECT","","html-keyboard-response","238","2928069","0.0-16.0-14.0-0.0","90958","List1B","white","woman","","","","null","","","","","","","","",""
"4998.5999999940395","<img src=""portrait/BW1.jpg""style=""height:400px;""></img>","0","html-button-response","239","2933071","0.0-16.0-16.0","90958","List1B","white","woman","","true","0","","","","","","","","","",""
"null","CORRECT","","html-keyboard-response","240","2934581","0.0-16.0-17.0-0.0","90958","List1B","white","woman","","","","null","","","","","","","","",""
"8608.60000000894","<img src=""portrait/WW2.jpg""style=""height:400px;""></img>","3","html-button-response","241","2943192","0.0-16.0-19.0","90958","List1B","white","woman","","true","3","","","","","","","","","",""
"null","CORRECT","","html-keyboard-response","242","2944700","0.0-16.0-20.0-0.0","90958","List1B","white","woman","","","","null","","","","","","","","",""
"4465.70000000298","<img src=""portrait/WM1.jpg""style=""height:400px;""></img>","6","html-button-response","243","2949168","0.0-16.0-22.0","90958","List1B","white","woman","","true","6","","","","","","","","","",""
"null","CORRECT","","html-keyboard-response","244","2950678","0.0-16.0-23.0-0.0","90958","List1B","white","woman","","","","null","","","","","","","","",""
"18621","<p>You got 8 out of 8 right first time. Press Continue.</p>","0","html-button-response","245","2969302","0.0-16.0-25.0","90958","List1B","white","woman","","","","","","","","","","","","",""
"null","<div style=""font-size:60px;"">+</div>","","html-keyboard-response","246","2970809","0.0-17.0-0.0","90958","List1B","white","woman","","","","null","","","","","","","","",""
"null","<img src=""stim_listB/touch7.gif""style=""height:400px;""></stim_listB>","","html-keyboard-response","247","2972814","0.0-17.0-1.0","90958","List1B","white","woman","","","","null","","","","","","","","",""
"null","is touching","","html-keyboard-response","248","2974819","0.0-17.0-2.0","90958","List1B","white","woman","","","","null","","","","","","","","",""
"39119.39999999106","","","survey-text","249","3013943","0.0-17.0-3.0","90958","List1B","white","woman","","","","","{""Q0"":""jane is touching kate""}","<img src=""stim_listB/touch7.gif""style=""height:400px;""></stim_listB>","is touching","","","","","",""
"null","<div style=""font-size:60px;"">+</div>","","html-keyboard-response","250","3014447","0.0-17.0-0.1","90958","List1B","white","woman","","","","null","","","","","","","","",""
"null","<img src=""stim_listB/look5.gif""style=""height:400px;""></stim_listB>","","html-keyboard-response","251","3016453","0.0-17.0-1.1","90958","List1B","white","woman","","","","null","","","","","","","","",""
"null","is looking at","","html-keyboard-response","252","3018459","0.0-17.0-2.1","90958","List1B","white","woman","","","","null","","","","","","","","",""
"37842.70000000298","","","survey-text","253","3056306","0.0-17.0-3.1","90958","List1B","white","woman","","","","","{""Q0"":""luke is looking at fred""}","<img src=""stim_listB/look5.gif""style=""height:400px;""></stim_listB>","is looking at","","","","","",""
"null","<div style=""font-size:60px;"">+</div>","","html-keyboard-response","254","3056810","0.0-17.0-0.2","90958","List1B","white","woman","","","","null","","","","","","","","",""
"null","<img src=""stim_listB/challenge1.gif""style=""height:400px;""></stim_listB>","","html-keyboard-response","255","3058817","0.0-17.0-1.2","90958","List1B","white","woman","","","","null","","","","","","","","",""
"null","is challenging","","html-keyboard-response","256","3060820","0.0-17.0-2.2","90958","List1B","white","woman","","","","null","","","","","","","","",""
"43907.59999999404","","","survey-text","257","3104733","0.0-17.0-3.2","90958","List1B","white","woman","","","","","{""Q0"":""beth is challenging mike ""}","<img src=""stim_listB/challenge1.gif""style=""height:400px;""></stim_listB>","is challenging","","","","","",""
"null","<div style=""font-size:60px;"">+</div>","","html-keyboard-response","258","3105236","0.0-17.0-0.3","90958","List1B","white","woman","","","","null","","","","","","","","",""
"null","<img src=""stim_listB/greet1.gif""style=""height:400px;""></stim_listB>","","html-keyboard-response","259","3107243","0.0-17.0-1.3","90958","List1B","white","woman","","","","null","","","","","","","","",""
"null","is greeting","","html-keyboard-response","260","3109248","0.0-17.0-2.3","90958","List1B","white","woman","","","","null","","","","","","","","",""
"33174.29999999702","","","survey-text","261","3142428","0.0-17.0-3.3","90958","List1B","white","woman","","","","","{""Q0"":""beth is greeting mike""}","<img src=""stim_listB/greet1.gif""style=""height:400px;""></stim_listB>","is greeting","","","","","",""
"null","<div style=""font-size:60px;"">+</div>","","html-keyboard-response","262","3142932","0.0-17.0-0.4","90958","List1B","white","woman","","","","null","","","","","","","","",""
"null","<img src=""stim_listB/kiss8.gif""style=""height:400px;""></stim_listB>","","html-keyboard-response","263","3144939","0.0-17.0-1.4","90958","List1B","white","woman","","","","null","","","","","","","","",""
"null","is being kissed by","","html-keyboard-response","264","3146944","0.0-17.0-2.4","90958","List1B","white","woman","","","","null","","","","","","","","",""
"30379.60000000894","","","survey-text","265","3177329","0.0-17.0-3.4","90958","List1B","white","woman","","","","","{""Q0"":""kate is being kissed by jane ""}","<img src=""stim_listB/kiss8.gif""style=""height:400px;""></stim_listB>","is being kissed by","","","","","",""
"null","<div style=""font-size:60px;"">+</div>","","html-keyboard-response","266","3177833","0.0-17.0-0.5","90958","List1B","white","woman","","","","null","","","","","","","","",""
"null","<img src=""stim_listB/oppose7.gif""style=""height:400px;""></stim_listB>","","html-keyboard-response","267","3179837","0.0-17.0-1.5","90958","List1B","white","woman","","","","null","","","","","","","","",""
"null","is opposing","","html-keyboard-response","268","3181840","0.0-17.0-2.5","90958","List1B","white","woman","","","","null","","","","","","","","",""
"28089.80000001192","","","survey-text","269","3209935","0.0-17.0-3.5","90958","List1B","white","woman","","","","","{""Q0"":""kate is opposing jane ""}","<img src=""stim_listB/oppose7.gif""style=""height:400px;""></stim_listB>","is opposing","","","","","",""
"null","<div style=""font-size:60px;"">+</div>","","html-keyboard-response","270","3210438","0.0-17.0-0.6","90958","List1B","white","woman","","","","null","","","","","","","","",""
"null","<img src=""stim_listB/hug3.gif""style=""height:400px;""></stim_listB>","","html-keyboard-response","271","3212445","0.0-17.0-1.6","90958","List1B","white","woman","","","","null","","","","","","","","",""
"null","is hugging","","html-keyboard-response","272","3214451","0.0-17.0-2.6","90958","List1B","white","woman","","","","null","","","","","","","","",""
"34567.29999999702","","","survey-text","273","3249022","0.0-17.0-3.6","90958","List1B","white","woman","","","","","{""Q0"":""ruth is hugging luke ""}","<img src=""stim_listB/hug3.gif""style=""height:400px;""></stim_listB>","is hugging","","","","","",""
"null","<div style=""font-size:60px;"">+</div>","","html-keyboard-response","274","3249527","0.0-17.0-0.7","90958","List1B","white","woman","","","","null","","","","","","","","",""
"null","<img src=""stim_listB/challenge7.gif""style=""height:400px;""></stim_listB>","","html-keyboard-response","275","3251534","0.0-17.0-1.7","90958","List1B","white","woman","","","","null","","","","","","","","",""
"null","is challenging","","html-keyboard-response","276","3253539","0.0-17.0-2.7","90958","List1B","white","woman","","","","null","","","","","","","","",""
"15123.20000000298","","","survey-text","277","3268667","0.0-17.0-3.7","90958","List1B","white","woman","","","","","{""Q0"":""jane is challenging ruth""}","<img src=""stim_listB/challenge7.gif""style=""height:400px;""></stim_listB>","is challenging","","","","","",""
"null","<div style=""font-size:60px;"">+</div>","","html-keyboard-response","278","3269170","0.0-17.0-0.8","90958","List1B","white","woman","","","","null","","","","","","","","",""
"null","<img src=""stim_listB/look7.gif""style=""height:400px;""></stim_listB>","","html-keyboard-response","279","3271175","0.0-17.0-1.8","90958","List1B","white","woman","","","","null","","","","","","","","",""
"null","is looking at","","html-keyboard-response","280","3273177","0.0-17.0-2.8","90958","List1B","white","woman","","","","null","","","","","","","","",""
"19154.89999999106","","","survey-text","281","3292337","0.0-17.0-3.8","90958","List1B","white","woman","","","","","{""Q0"":""ruth is looking at beth""}","<img src=""stim_listB/look7.gif""style=""height:400px;""></stim_listB>","is looking at","","","","","",""
"null","<div style=""font-size:60px;"">+</div>","","html-keyboard-response","282","3292841","0.0-17.0-0.9","90958","List1B","white","woman","","","","null","","","","","","","","",""
"null","<img src=""stim_listB/greet3.gif""style=""height:400px;""></stim_listB>","","html-keyboard-response","283","3294845","0.0-17.0-1.9","90958","List1B","white","woman","","","","null","","","","","","","","",""
"null","is greeting","","html-keyboard-response","284","3296850","0.0-17.0-2.9","90958","List1B","white","woman","","","","null","","","","","","","","",""
"19440.09999999404","","","survey-text","285","3316296","0.0-17.0-3.9","90958","List1B","white","woman","","","","","{""Q0"":""ruth is greeting dave""}","<img src=""stim_listB/greet3.gif""style=""height:400px;""></stim_listB>","is greeting","","","","","",""
"null","<div style=""font-size:60px;"">+</div>","","html-keyboard-response","286","3316800","0.0-17.0-0.10","90958","List1B","white","woman","","","","null","","","","","","","","",""
"null","<img src=""stim_listB/copy6.gif""style=""height:400px;""></stim_listB>","","html-keyboard-response","287","3318807","0.0-17.0-1.10","90958","List1B","white","woman","","","","null","","","","","","","","",""
"null","is being copied by","","html-keyboard-response","288","3320812","0.0-17.0-2.10","90958","List1B","white","woman","","","","null","","","","","","","","",""
"40482.89999999106","","","survey-text","289","3361301","0.0-17.0-3.10","90958","List1B","white","woman","","","","","{""Q0"":""fred is being copied by dave ""}","<img src=""stim_listB/copy6.gif""style=""height:400px;""></stim_listB>","is being copied by","","","","","",""
"null","<div style=""font-size:60px;"">+</div>","","html-keyboard-response","290","3361805","0.0-17.0-0.11","90958","List1B","white","woman","","","","null","","","","","","","","",""
"null","<img src=""stim_listB/seduce5.gif""style=""height:400px;""></stim_listB>","","html-keyboard-response","291","3363812","0.0-17.0-1.11","90958","List1B","white","woman","","","","null","","","","","","","","",""
"null","is seducing","","html-keyboard-response","292","3365817","0.0-17.0-2.11","90958","List1B","white","woman","","","","null","","","","","","","","",""
"27088.69999998808","","","survey-text","293","3392912","0.0-17.0-3.11","90958","List1B","white","woman","","","","","{""Q0"":""dave is seducing fred""}","<img src=""stim_listB/seduce5.gif""style=""height:400px;""></stim_listB>","is seducing","","","","","",""
"null","<div style=""font-size:60px;"">+</div>","","html-keyboard-response","294","3393416","0.0-17.0-0.12","90958","List1B","white","woman","","","","null","","","","","","","","",""
"null","<img src=""stim_listB/copy8.gif""style=""height:400px;""></stim_listB>","","html-keyboard-response","295","3395423","0.0-17.0-1.12","90958","List1B","white","woman","","","","null","","","","","","","","",""
"null","is being copied by","","html-keyboard-response","296","3397429","0.0-17.0-2.12","90958","List1B","white","woman","","","","null","","","","","","","","",""
"31070.20000000298","","","survey-text","297","3428504","0.0-17.0-3.12","90958","List1B","white","woman","","","","","{""Q0"":""beth is being copied by jane ""}","<img src=""stim_listB/copy8.gif""style=""height:400px;""></stim_listB>","is being copied by","","","","","",""
"null","<div style=""font-size:60px;"">+</div>","","html-keyboard-response","298","3429008","0.0-17.0-0.13","90958","List1B","white","woman","","","","null","","","","","","","","",""
"null","<img src=""stim_listB/seduce3.gif""style=""height:400px;""></stim_listB>","","html-keyboard-response","299","3431015","0.0-17.0-1.13","90958","List1B","white","woman","","","","null","","","","","","","","",""
"null","is seducing","","html-keyboard-response","300","3433020","0.0-17.0-2.13","90958","List1B","white","woman","","","","null","","","","","","","","",""
"136089","","","survey-text","301","3569118","0.0-17.0-3.13","90958","List1B","white","woman","","","","","{""Q0"":""jane is seducing luke ""}","<img src=""stim_listB/seduce3.gif""style=""height:400px;""></stim_listB>","is seducing","","","","","",""
"null","<div style=""font-size:60px;"">+</div>","","html-keyboard-response","302","3569621","0.0-17.0-0.14","90958","List1B","white","woman","","","","null","","","","","","","","",""
"null","<img src=""stim_listB/copy5.gif""style=""height:400px;""></stim_listB>","","html-keyboard-response","303","3571628","0.0-17.0-1.14","90958","List1B","white","woman","","","","null","","","","","","","","",""
"null","is copying","","html-keyboard-response","304","3573634","0.0-17.0-2.14","90958","List1B","white","woman","","","","null","","","","","","","","",""
"64285.5","","","survey-text","305","3637926","0.0-17.0-3.14","90958","List1B","white","woman","","","","","{""Q0"":""luke is copying mike ""}","<img src=""stim_listB/copy5.gif""style=""height:400px;""></stim_listB>","is copying","","","","","",""
"null","<div style=""font-size:60px;"">+</div>","","html-keyboard-response","306","3638430","0.0-17.0-0.15","90958","List1B","white","woman","","","","null","","","","","","","","",""
"null","<img src=""stim_listB/shout3.gif""style=""height:400px;""></stim_listB>","","html-keyboard-response","307","3640437","0.0-17.0-1.15","90958","List1B","white","woman","","","","null","","","","","","","","",""
"null","is shouting at","","html-keyboard-response","308","3642440","0.0-17.0-2.15","90958","List1B","white","woman","","","","null","","","","","","","","",""
"19344.29999999702","","","survey-text","309","3661790","0.0-17.0-3.15","90958","List1B","white","woman","","","","","{""Q0"":""ruth is shouting at luke ""}","<img src=""stim_listB/shout3.gif""style=""height:400px;""></stim_listB>","is shouting at","","","","","",""
"null","<div style=""font-size:60px;"">+</div>","","html-keyboard-response","310","3662294","0.0-17.0-0.16","90958","List1B","white","woman","","","","null","","","","","","","","",""
"null","<img src=""stim_listB/oppose1.gif""style=""height:400px;""></stim_listB>","","html-keyboard-response","311","3664300","0.0-17.0-1.16","90958","List1B","white","woman","","","","null","","","","","","","","",""
"null","is opposing","","html-keyboard-response","312","3666301","0.0-17.0-2.16","90958","List1B","white","woman","","","","null","","","","","","","","",""
"22557.59999999404","","","survey-text","313","3688861","0.0-17.0-3.16","90958","List1B","white","woman","","","","","{""Q0"":""kate is opposing mike""}","<img src=""stim_listB/oppose1.gif""style=""height:400px;""></stim_listB>","is opposing","","","","","",""
"null","<div style=""font-size:60px;"">+</div>","","html-keyboard-response","314","3689363","0.0-17.0-0.17","90958","List1B","white","woman","","","","null","","","","","","","","",""
"null","<img src=""stim_listB/challenge2.gif""style=""height:400px;""></stim_listB>","","html-keyboard-response","315","3691366","0.0-17.0-1.17","90958","List1B","white","woman","","","","null","","","","","","","","",""
"null","is being challenged by","","html-keyboard-response","316","3693367","0.0-17.0-2.17","90958","List1B","white","woman","","","","null","","","","","","","","",""
"29738.09999999404","","","survey-text","317","3723109","0.0-17.0-3.17","90958","List1B","white","woman","","","","","{""Q0"":""fred is being challenged by kate ""}","<img src=""stim_listB/challenge2.gif""style=""height:400px;""></stim_listB>","is being challenged by","","","","","",""
"null","<div style=""font-size:60px;"">+</div>","","html-keyboard-response","318","3723611","0.0-17.0-0.18","90958","List1B","white","woman","","","","null","","","","","","","","",""
"null","<img src=""stim_listB/challenge5.gif""style=""height:400px;""></stim_listB>","","html-keyboard-response","319","3725617","0.0-17.0-1.18","90958","List1B","white","woman","","","","null","","","","","","","","",""
"null","is challenging","","html-keyboard-response","320","3727623","0.0-17.0-2.18","90958","List1B","white","woman","","","","null","","","","","","","","",""
"26534.30000001192","","","survey-text","321","3754161","0.0-17.0-3.18","90958","List1B","white","woman","","","","","{""Q0"":""luke is challenging mike""}","<img src=""stim_listB/challenge5.gif""style=""height:400px;""></stim_listB>","is challenging","","","","","",""
"null","<div style=""font-size:60px;"">+</div>","","html-keyboard-response","322","3754665","0.0-17.0-0.19","90958","List1B","white","woman","","","","null","","","","","","","","",""
"null","<img src=""stim_listB/copy2.gif""style=""height:400px;""></stim_listB>","","html-keyboard-response","323","3756667","0.0-17.0-1.19","90958","List1B","white","woman","","","","null","","","","","","","","",""
"null","is being copied by","","html-keyboard-response","324","3758672","0.0-17.0-2.19","90958","List1B","white","woman","","","","null","","","","","","","","",""
"100240.39999999106","","","survey-text","325","3858918","0.0-17.0-3.19","90958","List1B","white","woman","","","","","{""Q0"":""fred is being copied by jane""}","<img src=""stim_listB/copy2.gif""style=""height:400px;""></stim_listB>","is being copied by","","","","","",""
"10710.29999999702","<img src='img/portrait_matrix_list1.jpg' style='width:900px;height:500px;''></img><p>If you have memorised all the portraits and names and are ready to start, press Continue.</p><p><strong>Please note: Your memory of these faces will be tested 4 times during this experiment.</strong></p>","0","html-button-response","326","3869632","0.0-18.0-0.0","90958","List1B","white","woman","","","","","","","","","","","","",""
"12218","<img src=""portrait/WW1.jpg""style=""height:400px;""></img>","1","html-button-response","327","3882854","0.0-18.0-1.0","90958","List1B","white","woman","","true","1","","","","","","","","","",""
"null","CORRECT","","html-keyboard-response","328","3884361","0.0-18.0-2.0-0.0","90958","List1B","white","woman","","","","null","","","","","","","","",""
"4810.100000008941","<img src=""portrait/WM2.jpg""style=""height:400px;""></img>","7","html-button-response","329","3889173","0.0-18.0-4.0","90958","List1B","white","woman","","true","7","","","","","","","","","",""
"null","CORRECT","","html-keyboard-response","330","3890683","0.0-18.0-5.0-0.0","90958","List1B","white","woman","","","","null","","","","","","","","",""
"5967.5","<img src=""portrait/BM2.jpg""style=""height:400px;""></img>","5","html-button-response","331","3896653","0.0-18.0-7.0","90958","List1B","white","woman","","true","5","","","","","","","","","",""
"null","CORRECT","","html-keyboard-response","332","3898163","0.0-18.0-8.0-0.0","90958","List1B","white","woman","","","","null","","","","","","","","",""
"2785.800000011921","<img src=""portrait/WW2.jpg""style=""height:400px;""></img>","3","html-button-response","333","3900952","0.0-18.0-10.0","90958","List1B","white","woman","","true","3","","","","","","","","","",""
"null","CORRECT","","html-keyboard-response","334","3902461","0.0-18.0-11.0-0.0","90958","List1B","white","woman","","","","null","","","","","","","","",""
"6571.5","<img src=""portrait/BW1.jpg""style=""height:400px;""></img>","0","html-button-response","335","3909034","0.0-18.0-13.0","90958","List1B","white","woman","","true","0","","","","","","","","","",""
"null","CORRECT","","html-keyboard-response","336","3910544","0.0-18.0-14.0-0.0","90958","List1B","white","woman","","","","null","","","","","","","","",""
"3695.2000000029802","<img src=""portrait/BW2.jpg""style=""height:400px;""></img>","2","html-button-response","337","3914242","0.0-18.0-16.0","90958","List1B","white","woman","","true","2","","","","","","","","","",""
"null","CORRECT","","html-keyboard-response","338","3915748","0.0-18.0-17.0-0.0","90958","List1B","white","woman","","","","null","","","","","","","","",""
"3417.5","<img src=""portrait/WM1.jpg""style=""height:400px;""></img>","6","html-button-response","339","3919168","0.0-18.0-19.0","90958","List1B","white","woman","","true","6","","","","","","","","","",""
"null","CORRECT","","html-keyboard-response","340","3920674","0.0-18.0-20.0-0.0","90958","List1B","white","woman","","","","null","","","","","","","","",""
"7712.4000000059605","<img src=""portrait/BM1.jpg""style=""height:400px;""></img>","4","html-button-response","341","3928389","0.0-18.0-22.0","90958","List1B","white","woman","","true","4","","","","","","","","","",""
"null","CORRECT","","html-keyboard-response","342","3929899","0.0-18.0-23.0-0.0","90958","List1B","white","woman","","","","null","","","","","","","","",""
"11422.89999999106","<p>You got 8 out of 8 right first time. Press Continue.</p>","0","html-button-response","343","3941325","0.0-18.0-25.0","90958","List1B","white","woman","","","","","","","","","","","","",""
"null","<div style=""font-size:60px;"">+</div>","","html-keyboard-response","344","3942834","0.0-19.0-0.0","90958","List1B","white","woman","","","","null","","","","","","","","",""
"null","<img src=""stim_listB/hug1.gif""style=""height:400px;""></stim_listB>","","html-keyboard-response","345","3944837","0.0-19.0-1.0","90958","List1B","white","woman","","","","null","","","","","","","","",""
"null","is hugging","","html-keyboard-response","346","3946839","0.0-19.0-2.0","90958","List1B","white","woman","","","","null","","","","","","","","",""
"28787","","","survey-text","347","3975631","0.0-19.0-3.0","90958","List1B","white","woman","","","","","{""Q0"":""fred is hugging beth""}","<img src=""stim_listB/hug1.gif""style=""height:400px;""></stim_listB>","is hugging","","","","","",""
"null","<div style=""font-size:60px;"">+</div>","","html-keyboard-response","348","3976135","0.0-19.0-0.1","90958","List1B","white","woman","","","","null","","","","","","","","",""
"null","<img src=""stim_listB/kiss4.gif""style=""height:400px;""></stim_listB>","","html-keyboard-response","349","3978141","0.0-19.0-1.1","90958","List1B","white","woman","","","","null","","","","","","","","",""
"null","is being kissed by","","html-keyboard-response","350","3980144","0.0-19.0-2.1","90958","List1B","white","woman","","","","null","","","","","","","","",""
"65137.89999999106","","","survey-text","351","4045287","0.0-19.0-3.1","90958","List1B","white","woman","","","","","{""Q0"":""dave is being kissed by jane ""}","<img src=""stim_listB/kiss4.gif""style=""height:400px;""></stim_listB>","is being kissed by","","","","","",""
"null","<div style=""font-size:60px;"">+</div>","","html-keyboard-response","352","4045791","0.0-19.0-0.2","90958","List1B","white","woman","","","","null","","","","","","","","",""
"null","<img src=""stim_listB/challenge6.gif""style=""height:400px;""></stim_listB>","","html-keyboard-response","353","4047798","0.0-19.0-1.2","90958","List1B","white","woman","","","","null","","","","","","","","",""
"null","is being challenged by","","html-keyboard-response","354","4049801","0.0-19.0-2.2","90958","List1B","white","woman","","","","null","","","","","","","","",""
"30627.29999999702","","","survey-text","355","4080433","0.0-19.0-3.2","90958","List1B","white","woman","","","","","{""Q0"":""fred is being challenged by luke ""}","<img src=""stim_listB/challenge6.gif""style=""height:400px;""></stim_listB>","is being challenged by","","","","","",""
"null","<div style=""font-size:60px;"">+</div>","","html-keyboard-response","356","4080936","0.0-19.0-0.3","90958","List1B","white","woman","","","","null","","","","","","","","",""
"null","<img src=""stim_listB/touch2.gif""style=""height:400px;""></stim_listB>","","html-keyboard-response","357","4082938","0.0-19.0-1.3","90958","List1B","white","woman","","","","null","","","","","","","","",""
"null","is being touched by","","html-keyboard-response","358","4084942","0.0-19.0-2.3","90958","List1B","white","woman","","","","null","","","","","","","","",""
"71168.40000000596","","","survey-text","359","4156116","0.0-19.0-3.3","90958","List1B","white","woman","","","","","{""Q0"":""fred is being touched by beth""}","<img src=""stim_listB/touch2.gif""style=""height:400px;""></stim_listB>","is being touched by","","","","","",""
"null","<div style=""font-size:60px;"">+</div>","","html-keyboard-response","360","4156619","0.0-19.0-0.4","90958","List1B","white","woman","","","","null","","","","","","","","",""
"null","<img src=""stim_listB/challenge8.gif""style=""height:400px;""></stim_listB>","","html-keyboard-response","361","4158626","0.0-19.0-1.4","90958","List1B","white","woman","","","","null","","","","","","","","",""
"null","is being challenged by","","html-keyboard-response","362","4160631","0.0-19.0-2.4","90958","List1B","white","woman","","","","null","","","","","","","","",""
"53894.70000000298","","","survey-text","363","4214531","0.0-19.0-3.4","90958","List1B","white","woman","","","","","{""Q0"":""beth is being challenged by jane ""}","<img src=""stim_listB/challenge8.gif""style=""height:400px;""></stim_listB>","is being challenged by","","","","","",""
"null","<div style=""font-size:60px;"">+</div>","","html-keyboard-response","364","4215034","0.0-19.0-0.5","90958","List1B","white","woman","","","","null","","","","","","","","",""
"null","<img src=""stim_listB/shout6.gif""style=""height:400px;""></stim_listB>","","html-keyboard-response","365","4217037","0.0-19.0-1.5","90958","List1B","white","woman","","","","null","","","","","","","","",""
"null","is being shouted at by","","html-keyboard-response","366","4219042","0.0-19.0-2.5","90958","List1B","white","woman","","","","null","","","","","","","","",""
"19815","","","survey-text","367","4238861","0.0-19.0-3.5","90958","List1B","white","woman","","","","","{""Q0"":""mike is being shouted at by dave""}","<img src=""stim_listB/shout6.gif""style=""height:400px;""></stim_listB>","is being shouted at by","","","","","",""
"null","<div style=""font-size:60px;"">+</div>","","html-keyboard-response","368","4239365","0.0-19.0-0.6","90958","List1B","white","woman","","","","null","","","","","","","","",""
"null","<img src=""stim_listB/touch1.gif""style=""height:400px;""></stim_listB>","","html-keyboard-response","369","4241372","0.0-19.0-1.6","90958","List1B","white","woman","","","","null","","","","","","","","",""
"null","is touching","","html-keyboard-response","370","4243378","0.0-19.0-2.6","90958","List1B","white","woman","","","","null","","","","","","","","",""
"26333","","","survey-text","371","4269716","0.0-19.0-3.6","90958","List1B","white","woman","","","","","{""Q0"":""kate is touching mike""}","<img src=""stim_listB/touch1.gif""style=""height:400px;""></stim_listB>","is touching","","","","","",""
"null","<div style=""font-size:60px;"">+</div>","","html-keyboard-response","372","4270220","0.0-19.0-0.7","90958","List1B","white","woman","","","","null","","","","","","","","",""
"null","<img src=""stim_listB/shout4.gif""style=""height:400px;""></stim_listB>","","html-keyboard-response","373","4272227","0.0-19.0-1.7","90958","List1B","white","woman","","","","null","","","","","","","","",""
"null","is being shouted at by","","html-keyboard-response","374","4274229","0.0-19.0-2.7","90958","List1B","white","woman","","","","null","","","","","","","","",""
"27969.5","","","survey-text","375","4302202","0.0-19.0-3.7","90958","List1B","white","woman","","","","","{""Q0"":""mike is being shouted at by jane""}","<img src=""stim_listB/shout4.gif""style=""height:400px;""></stim_listB>","is being shouted at by","","","","","",""
"null","<div style=""font-size:60px;"">+</div>","","html-keyboard-response","376","4302706","0.0-19.0-0.8","90958","List1B","white","woman","","","","null","","","","","","","","",""
"null","<img src=""stim_listB/kiss3.gif""style=""height:400px;""></stim_listB>","","html-keyboard-response","377","4304713","0.0-19.0-1.8","90958","List1B","white","woman","","","","null","","","","","","","","",""
"null","is kissing","","html-keyboard-response","378","4306719","0.0-19.0-2.8","90958","List1B","white","woman","","","","null","","","","","","","","",""
"64476.09999999404","","","survey-text","379","4371201","0.0-19.0-3.8","90958","List1B","white","woman","","","","","{""Q0"":""ruth is kissing luke ""}","<img src=""stim_listB/kiss3.gif""style=""height:400px;""></stim_listB>","is kissing","","","","","",""
"null","<div style=""font-size:60px;"">+</div>","","html-keyboard-response","380","4371705","0.0-19.0-0.9","90958","List1B","white","woman","","","","null","","","","","","","","",""
"null","<img src=""stim_listB/hug6.gif""style=""height:400px;""></stim_listB>","","html-keyboard-response","381","4373711","0.0-19.0-1.9","90958","List1B","white","woman","","","","null","","","","","","","","",""
"null","is being hugged by","","html-keyboard-response","382","4375717","0.0-19.0-2.9","90958","List1B","white","woman","","","","null","","","","","","","","",""
"17259.29999999702","","","survey-text","383","4392981","0.0-19.0-3.9","90958","List1B","white","woman","","","","","{""Q0"":""mike is being hugged by dave ""}","<img src=""stim_listB/hug6.gif""style=""height:400px;""></stim_listB>","is being hugged by","","","","","",""
"null","<div style=""font-size:60px;"">+</div>","","html-keyboard-response","384","4393485","0.0-19.0-0.10","90958","List1B","white","woman","","","","null","","","","","","","","",""
"null","<img src=""stim_listB/oppose5.gif""style=""height:400px;""></stim_listB>","","html-keyboard-response","385","4395492","0.0-19.0-1.10","90958","List1B","white","woman","","","","null","","","","","","","","",""
"null","is opposing","","html-keyboard-response","386","4397497","0.0-19.0-2.10","90958","List1B","white","woman","","","","null","","","","","","","","",""
"22163.29999999702","","","survey-text","387","4419666","0.0-19.0-3.10","90958","List1B","white","woman","","","","","{""Q0"":""mike is opposing dave ""}","<img src=""stim_listB/oppose5.gif""style=""height:400px;""></stim_listB>","is opposing","","","","","",""
"null","<div style=""font-size:60px;"">+</div>","","html-keyboard-response","388","4420169","0.0-19.0-0.11","90958","List1B","white","woman","","","","null","","","","","","","","",""
"null","<img src=""stim_listB/greet5.gif""style=""height:400px;""></stim_listB>","","html-keyboard-response","389","4422176","0.0-19.0-1.11","90958","List1B","white","woman","","","","null","","","","","","","","",""
"null","is greeting","","html-keyboard-response","390","4424181","0.0-19.0-2.11","90958","List1B","white","woman","","","","null","","","","","","","","",""
"11996.40000000596","","","survey-text","391","4436182","0.0-19.0-3.11","90958","List1B","white","woman","","","","","{""Q0"":""mike is greeting luke ""}","<img src=""stim_listB/greet5.gif""style=""height:400px;""></stim_listB>","is greeting","","","","","",""
"null","<div style=""font-size:60px;"">+</div>","","html-keyboard-response","392","4436686","0.0-19.0-0.12","90958","List1B","white","woman","","","","null","","","","","","","","",""
"null","<img src=""stim_listB/copy7.gif""style=""height:400px;""></stim_listB>","","html-keyboard-response","393","4438693","0.0-19.0-1.12","90958","List1B","white","woman","","","","null","","","","","","","","",""
"null","is copying","","html-keyboard-response","394","4440698","0.0-19.0-2.12","90958","List1B","white","woman","","","","null","","","","","","","","",""
"26635.40000000596","","","survey-text","395","4467339","0.0-19.0-3.12","90958","List1B","white","woman","","","","","{""Q0"":""jane is copying ruth""}","<img src=""stim_listB/copy7.gif""style=""height:400px;""></stim_listB>","is copying","","","","","",""
"null","<div style=""font-size:60px;"">+</div>","","html-keyboard-response","396","4467843","0.0-19.0-0.13","90958","List1B","white","woman","","","","null","","","","","","","","",""
"null","<img src=""stim_listB/kiss6.gif""style=""height:400px;""></stim_listB>","","html-keyboard-response","397","4469846","0.0-19.0-1.13","90958","List1B","white","woman","","","","null","","","","","","","","",""
"null","is being kissed by","","html-keyboard-response","398","4471850","0.0-19.0-2.13","90958","List1B","white","woman","","","","null","","","","","","","","",""
"11256.300000011921","","","survey-text","399","4483112","0.0-19.0-3.13","90958","List1B","white","woman","","","","","{""Q0"":""mike is being kissed by dave ""}","<img src=""stim_listB/kiss6.gif""style=""height:400px;""></stim_listB>","is being kissed by","","","","","",""
"null","<div style=""font-size:60px;"">+</div>","","html-keyboard-response","400","4483616","0.0-19.0-0.14","90958","List1B","white","woman","","","","null","","","","","","","","",""
"null","<img src=""stim_listB/hug4.gif""style=""height:400px;""></stim_listB>","","html-keyboard-response","401","4485620","0.0-19.0-1.14","90958","List1B","white","woman","","","","null","","","","","","","","",""
"null","is being hugged by","","html-keyboard-response","402","4487623","0.0-19.0-2.14","90958","List1B","white","woman","","","","null","","","","","","","","",""
"13821.39999999106","","","survey-text","403","4501449","0.0-19.0-3.14","90958","List1B","white","woman","","","","","{""Q0"":""jane is being hugged by dave""}","<img src=""stim_listB/hug4.gif""style=""height:400px;""></stim_listB>","is being hugged by","","","","","",""
"null","<div style=""font-size:60px;"">+</div>","","html-keyboard-response","404","4501953","0.0-19.0-0.15","90958","List1B","white","woman","","","","null","","","","","","","","",""
"null","<img src=""stim_listB/kiss5.gif""style=""height:400px;""></stim_listB>","","html-keyboard-response","405","4503960","0.0-19.0-1.15","90958","List1B","white","woman","","","","null","","","","","","","","",""
"null","is kissing","","html-keyboard-response","406","4505963","0.0-19.0-2.15","90958","List1B","white","woman","","","","null","","","","","","","","",""
"25131.19999998808","","","survey-text","407","4531099","0.0-19.0-3.15","90958","List1B","white","woman","","","","","{""Q0"":""luke is kissing fred""}","<img src=""stim_listB/kiss5.gif""style=""height:400px;""></stim_listB>","is kissing","","","","","",""
"null","<div style=""font-size:60px;"">+</div>","","html-keyboard-response","408","4531603","0.0-19.0-0.16","90958","List1B","white","woman","","","","null","","","","","","","","",""
"null","<img src=""stim_listB/greet2.gif""style=""height:400px;""></stim_listB>","","html-keyboard-response","409","4533610","0.0-19.0-1.16","90958","List1B","white","woman","","","","null","","","","","","","","",""
"null","is being greeted by","","html-keyboard-response","410","4535615","0.0-19.0-2.16","90958","List1B","white","woman","","","","null","","","","","","","","",""
"111802","","","survey-text","411","4647425","0.0-19.0-3.16","90958","List1B","white","woman","","","","","{""Q0"":""dave is being greeted by kate ""}","<img src=""stim_listB/greet2.gif""style=""height:400px;""></stim_listB>","is being greeted by","","","","","",""
"null","<div style=""font-size:60px;"">+</div>","","html-keyboard-response","412","4647929","0.0-19.0-0.17","90958","List1B","white","woman","","","","null","","","","","","","","",""
"null","<img src=""stim_listB/seduce7.gif""style=""height:400px;""></stim_listB>","","html-keyboard-response","413","4649936","0.0-19.0-1.17","90958","List1B","white","woman","","","","null","","","","","","","","",""
"null","is seducing","","html-keyboard-response","414","4651941","0.0-19.0-2.17","90958","List1B","white","woman","","","","null","","","","","","","","",""
"85229.5","","","survey-text","415","4737177","0.0-19.0-3.17","90958","List1B","white","woman","","","","","{""Q0"":""jane is seducing beth""}","<img src=""stim_listB/seduce7.gif""style=""height:400px;""></stim_listB>","is seducing","","","","","",""
"null","<div style=""font-size:60px;"">+</div>","","html-keyboard-response","416","4737679","0.0-19.0-0.18","90958","List1B","white","woman","","","","null","","","","","","","","",""
"null","<img src=""stim_listB/shout7.gif""style=""height:400px;""></stim_listB>","","html-keyboard-response","417","4739685","0.0-19.0-1.18","90958","List1B","white","woman","","","","null","","","","","","","","",""
"null","is shouting at","","html-keyboard-response","418","4741689","0.0-19.0-2.18","90958","List1B","white","woman","","","","null","","","","","","","","",""
"59740.79999999702","","","survey-text","419","4801434","0.0-19.0-3.18","90958","List1B","white","woman","","","","","{""Q0"":""ruth is shouting beth""}","<img src=""stim_listB/shout7.gif""style=""height:400px;""></stim_listB>","is shouting at","","","","","",""
"null","<div style=""font-size:60px;"">+</div>","","html-keyboard-response","420","4801938","0.0-19.0-0.19","90958","List1B","white","woman","","","","null","","","","","","","","",""
"null","<img src=""stim_listB/hug8.gif""style=""height:400px;""></stim_listB>","","html-keyboard-response","421","4803945","0.0-19.0-1.19","90958","List1B","white","woman","","","","null","","","","","","","","",""
"null","is being hugged by","","html-keyboard-response","422","4805950","0.0-19.0-2.19","90958","List1B","white","woman","","","","null","","","","","","","","",""
"42376.69999998808","","","survey-text","423","4848331","0.0-19.0-3.19","90958","List1B","white","woman","","","","","{""Q0"":""kate is being hugged by jane ""}","<img src=""stim_listB/hug8.gif""style=""height:400px;""></stim_listB>","is being hugged by","","","","","",""
"4478.899999991059","<p>Thank you for completing that task.</p><p>The final part of this session is a questionnaire that will take about 4 minutes.</p><p>Press Continue.</p>","0","html-button-response","424","4852812","0.0-20.0","90958","List1B","white","woman","","","","","","","","","","","","",""
"55225.40000000596","","","survey-text","425","4909051","0.0-21.0","90958","List1B","white","woman","","","","","{""Q0"":""26"",""Q1"":""English"",""Q2"":""English"",""Q3"":""United States"",""Q4"":""American"",""Q5"":""White/ Caucasian "",""Q6"":""Female ""}","","","demographics","","","","",""
"1927.9000000059605","<p>Have you lived in the USA for the last 5 years or more?</p>","0","html-button-response","426","4910983","0.0-22.0","90958","List1B","white","woman","","","","","","","","fiveyears","","","","",""
"2854.7000000029802","<p>Move the slider to show the extent to which you agree with the following statements.</p>","0","html-button-response","427","4914845","0.0-23.0","90958","List1B","white","woman","","","","","","","","","","","","",""
"9296.5","","","html-slider-response","428","4925151","0.0-24.0-0.0-0.0","90958","List1B","white","woman","","","","","","","","survey_gender","100","","","The fact that I am my gender is an important part of my identity.","identity"
"12739.39999999106","","","html-slider-response","429","4937894","0.0-24.0-0.0-0.1","90958","List1B","white","woman","","","","","","","","survey_gender","49","","","My friends understand me.","filler"
"2793.7000000029802","","","html-slider-response","430","4940692","0.0-24.0-0.0-0.2","90958","List1B","white","woman","","","","","","","","survey_gender","100","","","I would say I am an animal person.","filler"
"3218.5999999940395","","","html-slider-response","431","4943913","0.0-24.0-0.0-0.3","90958","List1B","white","woman","","","","","","","","survey_gender","100","","","I feel a bond with my gender.","bond"
"4814.5","","","html-slider-response","432","4948731","0.0-24.0-0.0-0.4","90958","List1B","white","woman","","","","","","","","survey_gender","100","","","It is not always easy for people to know what I am thinking.","filler"
"7712.600000008941","","","html-slider-response","433","4956448","0.0-24.0-0.0-0.5","90958","List1B","white","woman","","","","","","","","survey_gender","0","","","I often think about the fact that I am my gender.","often"
"6932","","","html-slider-response","434","4963384","0.0-24.0-0.0-0.6","90958","List1B","white","woman","","","","","","","","survey_gender","18","","","I feel committed to my gender.","committed"
"3515","","","html-slider-response","435","4966902","0.0-24.0-0.0-0.7","90958","List1B","white","woman","","","","","","","","survey_gender","69","","","Being around my friends gives me a good feeling.","filler"
"8241.70000000298","","","html-slider-response","436","4975146","0.0-24.0-0.0-0.8","90958","List1B","white","woman","","","","","","","","survey_gender","50","","","People of my gender have a lot in common with each other.","common"
"3823.2999999970198","","","html-slider-response","437","4978973","0.0-24.0-0.0-0.9","90958","List1B","white","woman","","","","","","","","survey_gender","0","","","Routine is not important to me.","filler"
"3859.9000000059605","","","html-slider-response","438","4982835","0.0-24.0-0.0-0.10","90958","List1B","white","woman","","","","","","","","survey_gender","100","","","Being my gender is an important part of how I see myself.","important"
"3363.2999999970198","","","html-slider-response","439","4986201","0.0-24.0-0.0-0.11","90958","List1B","white","woman","","","","","","","","survey_gender","100","","","I am glad to have the friends that I have.","filler"
"6316.5","","","html-slider-response","440","4992521","0.0-24.0-0.0-0.12","90958","List1B","white","woman","","","","","","","","survey_gender","74","","","People of my gender are very similar to each other.","verysimilar"
"4323.79999999702","","","html-slider-response","441","4996847","0.0-24.0-0.0-0.13","90958","List1B","white","woman","","","","","","","","survey_gender","73","","","I have a lot in common with my friends.","filler"
"4467.9000000059605","","","html-slider-response","442","5001318","0.0-24.0-0.0-0.14","90958","List1B","white","woman","","","","","","","","survey_gender","100","","","I feel solidarity with my gender.","solidarity"
"18122.5","","","html-slider-response","443","5019445","0.0-24.0-0.0-0.15","90958","List1B","white","woman","","","","","","","","survey_gender","100","","","I consider myself a highly empathetic person.","filler"
"3165.699999988079","","","html-slider-response","444","5022614","0.0-24.0-0.0-0.16","90958","List1B","white","woman","","","","","","","","survey_gender","100","","","I feel solidarity with my friends.","filler"
"6299.399999991059","","","html-slider-response","445","5028915","0.0-24.0-0.0-0.17","90958","List1B","white","woman","","","","","","","","survey_gender","70","","","Most of the friends in my life are very similar to me.","filler"
"11213.60000000894","","","html-slider-response","446","5040132","0.0-24.0-0.0-0.18","90958","List1B","white","woman","","","","","","","","survey_gender","82","","","Family is not more important to me than friendship.","filler"
"2686.2999999970198","","","html-slider-response","447","5042821","0.0-24.0-0.0-0.19","90958","List1B","white","woman","","","","","","","","survey_gender","100","","","I am glad to be my gender.","glad"
"2419.5","","","html-slider-response","448","5045243","0.0-24.0-0.0-0.20","90958","List1B","white","woman","","","","","","","","survey_gender","100","","","I feel a bond with my friends.","filler"
"2514.9000000059605","","","html-slider-response","449","5047759","0.0-24.0-0.0-0.21","90958","List1B","white","woman","","","","","","","","survey_gender","100","","","Being my gender gives me a good feeling.","feeling"
"5406.5999999940395","","","html-slider-response","450","5053168","0.0-24.0-0.0-0.22","90958","List1B","white","woman","","","","","","","","survey_gender","78","","","I am similar to the average person of my gender.","similar"
"3267.5","","","html-slider-response","451","5056438","0.0-24.0-0.0-0.23","90958","List1B","white","woman","","","","","","","","survey_gender","86","","","It is pleasant to be my gender.","pleasant"
"3615.6000000089407","","","html-slider-response","452","5060056","0.0-24.0-0.0-0.24","90958","List1B","white","woman","","","","","","","","survey_gender","100","","","I think that my gender has a lot to be proud of.","proud"
"3780.2999999970198","","","html-slider-response","453","5063839","0.0-24.0-0.0-0.25","90958","List1B","white","woman","","","","","","","","survey_gender","86","","","I have a lot in common with the average person of my gender.","average"
"2766.5","","","html-slider-response","454","5066609","0.0-24.0-0.0-0.26","90958","List1B","white","woman","","","","","","","","survey_gender","100","","","I often think about my actions.","filler"
"3931.5","","","html-slider-response","455","5070543","0.0-24.0-0.0-0.27","90958","List1B","white","woman","","","","","","","","survey_gender","80","","","My friends have a lot in common with each other.","filler"
"5309.100000008941","","","html-slider-response","456","5075856","0.0-24.0-1.0-0.0","90958","List1B","white","woman","","","","","","","","survey_race","92","","","I am glad to be my race.","glad"
"5883.70000000298","","","html-slider-response","457","5081743","0.0-24.0-1.0-0.1","90958","List1B","white","woman","","","","","","","","survey_race","22","","","Getting older does not worry me.","filler"
"5676.600000008941","","","html-slider-response","458","5087423","0.0-24.0-1.0-0.2","90958","List1B","white","woman","","","","","","","","survey_race","60","","","I am similar to the average person of my race.","similar"
"3019.4000000059605","","","html-slider-response","459","5090446","0.0-24.0-1.0-0.3","90958","List1B","white","woman","","","","","","","","survey_race","100","","","Being my age gives me a good feeling.","filler"
"2783","","","html-slider-response","460","5093232","0.0-24.0-1.0-0.4","90958","List1B","white","woman","","","","","","","","survey_race","100","","","I consider myself an introvert.","filler"
"2899.0999999940395","","","html-slider-response","461","5096134","0.0-24.0-1.0-0.5","90958","List1B","white","woman","","","","","","","","survey_race","100","","","I often think about the fact that I am my age.","filler"
"7165.199999988079","","","html-slider-response","462","5103302","0.0-24.0-1.0-0.6","90958","List1B","white","woman","","","","","","","","survey_race","74","","","Being my race is an important part of how I see myself.","important"
"5889.79999999702","","","html-slider-response","463","5109194","0.0-24.0-1.0-0.7","90958","List1B","white","woman","","","","","","","","survey_race","55","","","The fact that I am my race is an important part of my identity.","identity"
"10088.300000011921","","","html-slider-response","464","5119285","0.0-24.0-1.0-0.8","90958","List1B","white","woman","","","","","","","","survey_race","43","","","I feel a bond with people the same age as me.","filler"
"2994.5999999940395","","","html-slider-response","465","5122283","0.0-24.0-1.0-0.9","90958","List1B","white","woman","","","","","","","","survey_race","57","","","I feel solidarity with my race.","solidarity"
"2760","","","html-slider-response","466","5125045","0.0-24.0-1.0-0.10","90958","List1B","white","woman","","","","","","","","survey_race","62","","","The older I get, the wiser I feel.","filler"
"4468.5999999940395","","","html-slider-response","467","5129516","0.0-24.0-1.0-0.11","90958","List1B","white","woman","","","","","","","","survey_race","6","","","I consider myself an extrovert.","filler"
"5119.29999999702","","","html-slider-response","468","5134638","0.0-24.0-1.0-0.12","90958","List1B","white","woman","","","","","","","","survey_race","71","","","It is pleasant to be my race.","pleasant"
"6428.0999999940395","","","html-slider-response","469","5141069","0.0-24.0-1.0-0.13","90958","List1B","white","woman","","","","","","","","survey_race","66","","","My age is not an important part of who I am.","filler"
"2567","","","html-slider-response","470","5143639","0.0-24.0-1.0-0.14","90958","List1B","white","woman","","","","","","","","survey_race","100","","","I am glad to be my age.","filler"
"3403","","","html-slider-response","471","5147045","0.0-24.0-1.0-0.15","90958","List1B","white","woman","","","","","","","","survey_race","69","","","People of my race have a lot in common with each other.","common"
"6550.0999999940395","","","html-slider-response","472","5153597","0.0-24.0-1.0-0.16","90958","List1B","white","woman","","","","","","","","survey_race","100","","","I am glad to be the age I am.","filler"
"4634.9000000059605","","","html-slider-response","473","5158235","0.0-24.0-1.0-0.17","90958","List1B","white","woman","","","","","","","","survey_race","73","","","People of my race are very similar to each other.","verysimilar"
"3013","","","html-slider-response","474","5161251","0.0-24.0-1.0-0.18","90958","List1B","white","woman","","","","","","","","survey_race","23","","","I enjoy being in large groups.","filler"
