"rt","stimulus","button_pressed","trial_type","trial_index","time_elapsed","internal_node_id","subject","list","ppt_race","ppt_gender","url","first_guess","correct","key_press","responses","image_type","phrase_type","test_part","response","stimulus1","stimulus2","question_type","survey_item"
"69036.79999999702","Welcome to the experiment. Press Continue to begin.","0","html-button-response","0","69040","0.0-0.0","90962","List2A","black","woman","","","","","","","","","","","","",""
"20060","","","external-html","1","90354","0.0-1.0","90962","List2A","black","woman","consent.html","","","","","","","","","","","",""
"2116.8000000044703","<p>On the next page, you will see portraits of 8 people and their names.</p><p>Your first task is to take a few minutes to memorise the names of these people.</p><p>You will have to recall their names during the rest of the experiment, so it is</p><p>essential that you try to memorise these people and their names as best as you can.</p><br><p><strong>You will then be tested on your memory of these names and portraits.</strong></p><br><p>The experiment will start after you have completed this memory test.</p><br><p>Ready?</p>","0","html-button-response","2","92475","0.0-2.0","90962","List2A","black","woman","","","","","","","","","","","","",""
"30876.20000000298","<img src='img/portrait_matrix_list2.jpg' style='width:900px;height:500px;''></img><p>If you have memorised all the portraits and names and are ready to start, press Continue.</p><p><strong>Please note: Your memory of these faces will be tested 4 times during this experiment.</strong></p>","0","html-button-response","3","124359","0.0-3.0-0.0","90962","List2A","black","woman","","","","","","","","","","","","",""
"4214","<img src=""portrait/BW2.jpg""style=""height:400px;""></img>","0","html-button-response","4","129581","0.0-3.0-1.0","90962","List2A","black","woman","","true","2","","","","","","","","","",""
"2720.3000000044703","<img src=""portrait/BW2.jpg""style=""height:400px;""></img>","2","html-button-response","5","133307","0.0-3.0-3.0-0.0","90962","List2A","black","woman","","false","2","","","","","","","","","",""
"null","CORRECT","","html-keyboard-response","6","134821","0.0-3.0-3.0-1.0-0.0","90962","List2A","black","woman","","","","null","","","","","","","","",""
"2268.89999999851","<img src=""portrait/BW1.jpg""style=""height:400px;""></img>","0","html-button-response","7","137093","0.0-3.0-4.0","90962","List2A","black","woman","","true","0","","","","","","","","","",""
"null","CORRECT","","html-keyboard-response","8","138596","0.0-3.0-5.0-0.0","90962","List2A","black","woman","","","","null","","","","","","","","",""
"2002.5","<img src=""portrait/WW1.jpg""style=""height:400px;""></img>","1","html-button-response","9","140601","0.0-3.0-7.0","90962","List2A","black","woman","","true","1","","","","","","","","","",""
"null","CORRECT","","html-keyboard-response","10","142111","0.0-3.0-8.0-0.0","90962","List2A","black","woman","","","","null","","","","","","","","",""
"1838.8999999985099","<img src=""portrait/WW2.jpg""style=""height:400px;""></img>","3","html-button-response","11","143952","0.0-3.0-10.0","90962","List2A","black","woman","","true","3","","","","","","","","","",""
"null","CORRECT","","html-keyboard-response","12","145458","0.0-3.0-11.0-0.0","90962","List2A","black","woman","","","","null","","","","","","","","",""
"3325.3000000044703","<img src=""portrait/BM1.jpg""style=""height:400px;""></img>","7","html-button-response","13","148785","0.0-3.0-13.0","90962","List2A","black","woman","","true","4","","","","","","","","","",""
"2385.10000000149","<img src=""portrait/BM1.jpg""style=""height:400px;""></img>","4","html-button-response","14","152178","0.0-3.0-15.0-0.0","90962","List2A","black","woman","","false","4","","","","","","","","","",""
"null","CORRECT","","html-keyboard-response","15","153681","0.0-3.0-15.0-1.0-0.0","90962","List2A","black","woman","","","","null","","","","","","","","",""
"1781.5","<img src=""portrait/WM2.jpg""style=""height:400px;""></img>","7","html-button-response","16","155465","0.0-3.0-16.0","90962","List2A","black","woman","","true","7","","","","","","","","","",""
"null","CORRECT","","html-keyboard-response","17","156966","0.0-3.0-17.0-0.0","90962","List2A","black","woman","","","","null","","","","","","","","",""
"3774.6999999955297","<img src=""portrait/WM1.jpg""style=""height:400px;""></img>","6","html-button-response","18","160743","0.0-3.0-19.0","90962","List2A","black","woman","","true","6","","","","","","","","","",""
"null","CORRECT","","html-keyboard-response","19","162250","0.0-3.0-20.0-0.0","90962","List2A","black","woman","","","","null","","","","","","","","",""
"2360.39999999851","<img src=""portrait/BM2.jpg""style=""height:400px;""></img>","5","html-button-response","20","164613","0.0-3.0-22.0","90962","List2A","black","woman","","true","5","","","","","","","","","",""
"null","CORRECT","","html-keyboard-response","21","166121","0.0-3.0-23.0-0.0","90962","List2A","black","woman","","","","null","","","","","","","","",""
"1404.4000000059605","<p>You got 6 out of 8 right first time. Press Continue.</p>","0","html-button-response","22","167528","0.0-3.0-25.0","90962","List2A","black","woman","","","","","","","","","","","","",""
"1839.3999999985099","As you did not score 100%, the memory game will repeat. Press Continue.","0","html-button-response","23","170370","0.0-3.0-26.0-0.0","90962","List2A","black","woman","","","","","","","","","","","","",""
"13083.70000000298","<img src='img/portrait_matrix_list2.jpg' style='width:900px;height:500px;''></img><p>If you have memorised all the portraits and names and are ready to start, press Continue.</p><p><strong>Please note: Your memory of these faces will be tested 4 times during this experiment.</strong></p>","0","html-button-response","24","184458","0.0-3.1-0.1","90962","List2A","black","woman","","","","","","","","","","","","",""
"3423.7000000029802","<img src=""portrait/BW2.jpg""style=""height:400px;""></img>","2","html-button-response","25","188888","0.0-3.1-1.1","90962","List2A","black","woman","","true","2","","","","","","","","","",""
"null","CORRECT","","html-keyboard-response","26","190396","0.0-3.1-2.1-0.1","90962","List2A","black","woman","","","","null","","","","","","","","",""
"2385.2000000029802","<img src=""portrait/BW1.jpg""style=""height:400px;""></img>","0","html-button-response","27","192784","0.0-3.1-4.1","90962","List2A","black","woman","","true","0","","","","","","","","","",""
"null","CORRECT","","html-keyboard-response","28","194291","0.0-3.1-5.1-0.1","90962","List2A","black","woman","","","","null","","","","","","","","",""
"4360.39999999851","<img src=""portrait/WW1.jpg""style=""height:400px;""></img>","1","html-button-response","29","198654","0.0-3.1-7.1","90962","List2A","black","woman","","true","1","","","","","","","","","",""
"null","CORRECT","","html-keyboard-response","30","200160","0.0-3.1-8.1-0.1","90962","List2A","black","woman","","","","null","","","","","","","","",""
"2086.89999999851","<img src=""portrait/WW2.jpg""style=""height:400px;""></img>","3","html-button-response","31","202249","0.0-3.1-10.1","90962","List2A","black","woman","","true","3","","","","","","","","","",""
"null","CORRECT","","html-keyboard-response","32","203754","0.0-3.1-11.1-0.1","90962","List2A","black","woman","","","","null","","","","","","","","",""
"3258.89999999851","<img src=""portrait/BM1.jpg""style=""height:400px;""></img>","4","html-button-response","33","207015","0.0-3.1-13.1","90962","List2A","black","woman","","true","4","","","","","","","","","",""
"null","CORRECT","","html-keyboard-response","34","208525","0.0-3.1-14.1-0.1","90962","List2A","black","woman","","","","null","","","","","","","","",""
"2757.89999999851","<img src=""portrait/WM2.jpg""style=""height:400px;""></img>","7","html-button-response","35","211285","0.0-3.1-16.1","90962","List2A","black","woman","","true","7","","","","","","","","","",""
"null","CORRECT","","html-keyboard-response","36","212795","0.0-3.1-17.1-0.1","90962","List2A","black","woman","","","","null","","","","","","","","",""
"2131.39999999851","<img src=""portrait/WM1.jpg""style=""height:400px;""></img>","6","html-button-response","37","214928","0.0-3.1-19.1","90962","List2A","black","woman","","true","6","","","","","","","","","",""
"null","CORRECT","","html-keyboard-response","38","216436","0.0-3.1-20.1-0.1","90962","List2A","black","woman","","","","null","","","","","","","","",""
"2336.2000000029802","<img src=""portrait/BM2.jpg""style=""height:400px;""></img>","5","html-button-response","39","218774","0.0-3.1-22.1","90962","List2A","black","woman","","true","5","","","","","","","","","",""
"null","CORRECT","","html-keyboard-response","40","220281","0.0-3.1-23.1-0.1","90962","List2A","black","woman","","","","null","","","","","","","","",""
"917.6000000014901","<p>You got 8 out of 8 right first time. Press Continue.</p>","0","html-button-response","41","221201","0.0-3.1-25.1","90962","List2A","black","woman","","","","","","","","","","","","",""
"20608.60000000149","<p>In this experiment, you will view photographs of the people from the memory game interacting.</p><p>By using the <strong>exact</strong> phrase given <i>after</i> the photograph appears and recalling the correct names of the people in the photographs, form a sentence describing the interaction. You do not need to capitalise names.</p><p>Type your answer in the space provided. Please complete every sentence before moving onto the next trial.</p><p>You will only have a few seconds to memorise each given photograph and phrase before you can respond, so try your best to focus.</p><p>An example is given below. Press 'Continue' when you are ready.</p><img src='img/speaking_example.jpg' style='width:800px;height:460px;''></img>","0","html-button-response","42","242814","0.0-4.0","90962","List2A","black","woman","","","","","","","","","","","","",""
"1316.3999999985099","<p>Before the experiment starts, you will watch two example trials. Press 'Continue'.</p>","0","html-button-response","43","245137","0.0-5.0","90962","List2A","black","woman","","","","","","","","","","","","",""
"null","<img src='img/play_eg.gif' style='height:400px;''></img>","","html-keyboard-response","44","248139","0.0-6.0","90962","List2A","black","woman","","","","null","","","","","","","","",""
"null","<p>is playing with</p>","","html-keyboard-response","45","250143","0.0-7.0","90962","List2A","black","woman","","","","null","","","","","","","","",""
"2958.7000000029802","<p><b>Answer:</b> jane is playing with ruth</p>","0","html-button-response","46","253104","0.0-8.0","90962","List2A","black","woman","","","","","","","","","","","","",""
"null","<img src='img/dance_eg.gif' style='height:400px;''></img>","","html-keyboard-response","47","256111","0.0-9.0","90962","List2A","black","woman","","","","null","","","","","","","","",""
"null","<p>is being entertained by</p>","","html-keyboard-response","48","258113","0.0-10.0","90962","List2A","black","woman","","","","null","","","","","","","","",""
"5385.60000000149","<p><b>Answer:</b> fred is being entertained by mike</p>","0","html-button-response","49","263500","0.0-11.0","90962","List2A","black","woman","","","","","","","","","","","","",""
"9159.29999999702","<p>Ready to start the experiment?</p><br><p><strong>Remember to describe the picture using a full sentence,</strong></p><p><strong>that combines the names of the people with the <i>exact</i> phrase given.</strong></p><p><strong>To receive full payment you must do this correctly.</strong></p><p><strong> You do not need to capitalise names or use punctuation.</strong></p><br><p>Press 'Continue' to begin.</p>","0","html-button-response","50","273663","0.0-12.0","90962","List2A","black","woman","","","","","","","","","","","","",""
"null","<div style=""font-size:60px;"">+</div>","","html-keyboard-response","51","275174","0.0-13.0-0.0","90962","List2A","black","woman","","","","null","","","","","","","","",""
"null","<img src=""stim_listA/look1.gif""style=""height:400px;""></stim_listA>","","html-keyboard-response","52","277178","0.0-13.0-1.0","90962","List2A","black","woman","","","","null","","","","","","","","",""
"null","is looking at","","html-keyboard-response","53","279181","0.0-13.0-2.0","90962","List2A","black","woman","","","","null","","","","","","","","",""
"9880.60000000149","","","survey-text","54","289068","0.0-13.0-3.0","90962","List2A","black","woman","","","","","{""Q0"":""luke is looking at jane""}","<img src=""stim_listA/look1.gif""style=""height:400px;""></stim_listA>","is looking at","","","","","",""
"null","<div style=""font-size:60px;"">+</div>","","html-keyboard-response","55","289572","0.0-13.0-0.1","90962","List2A","black","woman","","","","null","","","","","","","","",""
"null","<img src=""stim_listA/kiss6.gif""style=""height:400px;""></stim_listA>","","html-keyboard-response","56","291574","0.0-13.0-1.1","90962","List2A","black","woman","","","","null","","","","","","","","",""
"null","is being kissed by","","html-keyboard-response","57","293576","0.0-13.0-2.1","90962","List2A","black","woman","","","","null","","","","","","","","",""
"9205.69999999553","","","survey-text","58","302786","0.0-13.0-3.1","90962","List2A","black","woman","","","","","{""Q0"":""dave is being kissed by mike""}","<img src=""stim_listA/kiss6.gif""style=""height:400px;""></stim_listA>","is being kissed by","","","","","",""
"null","<div style=""font-size:60px;"">+</div>","","html-keyboard-response","59","303287","0.0-13.0-0.2","90962","List2A","black","woman","","","","null","","","","","","","","",""
"null","<img src=""stim_listA/look5.gif""style=""height:400px;""></stim_listA>","","html-keyboard-response","60","305297","0.0-13.0-1.2","90962","List2A","black","woman","","","","null","","","","","","","","",""
"null","is looking at","","html-keyboard-response","61","307302","0.0-13.0-2.2","90962","List2A","black","woman","","","","null","","","","","","","","",""
"4977.29999999702","","","survey-text","62","312283","0.0-13.0-3.2","90962","List2A","black","woman","","","","","{""Q0"":""luke is looking at fred""}","<img src=""stim_listA/look5.gif""style=""height:400px;""></stim_listA>","is looking at","","","","","",""
"null","<div style=""font-size:60px;"">+</div>","","html-keyboard-response","63","312784","0.0-13.0-0.3","90962","List2A","black","woman","","","","null","","","","","","","","",""
"null","<img src=""stim_listA/kiss8.gif""style=""height:400px;""></stim_listA>","","html-keyboard-response","64","314789","0.0-13.0-1.3","90962","List2A","black","woman","","","","null","","","","","","","","",""
"null","is being kissed by","","html-keyboard-response","65","316790","0.0-13.0-2.3","90962","List2A","black","woman","","","","null","","","","","","","","",""
"9011.20000000298","","","survey-text","66","325805","0.0-13.0-3.3","90962","List2A","black","woman","","","","","{""Q0"":""jane is being kissed by kate""}","<img src=""stim_listA/kiss8.gif""style=""height:400px;""></stim_listA>","is being kissed by","","","","","",""
"null","<div style=""font-size:60px;"">+</div>","","html-keyboard-response","67","326307","0.0-13.0-0.4","90962","List2A","black","woman","","","","null","","","","","","","","",""
"null","<img src=""stim_listA/oppose6.gif""style=""height:400px;""></stim_listA>","","html-keyboard-response","68","328311","0.0-13.0-1.4","90962","List2A","black","woman","","","","null","","","","","","","","",""
"null","is being opposed by","","html-keyboard-response","69","330312","0.0-13.0-2.4","90962","List2A","black","woman","","","","null","","","","","","","","",""
"8549","","","survey-text","70","338866","0.0-13.0-3.4","90962","List2A","black","woman","","","","","{""Q0"":""luke is being opposed by fred""}","<img src=""stim_listA/oppose6.gif""style=""height:400px;""></stim_listA>","is being opposed by","","","","","",""
"null","<div style=""font-size:60px;"">+</div>","","html-keyboard-response","71","339367","0.0-13.0-0.5","90962","List2A","black","woman","","","","null","","","","","","","","",""
"null","<img src=""stim_listA/seduce2.gif""style=""height:400px;""></stim_listA>","","html-keyboard-response","72","341375","0.0-13.0-1.5","90962","List2A","black","woman","","","","null","","","","","","","","",""
"null","is being seduced by","","html-keyboard-response","73","343376","0.0-13.0-2.5","90962","List2A","black","woman","","","","null","","","","","","","","",""
"9898.30000000447","","","survey-text","74","353280","0.0-13.0-3.5","90962","List2A","black","woman","","","","","{""Q0"":""dave is being seduced by ruth""}","<img src=""stim_listA/seduce2.gif""style=""height:400px;""></stim_listA>","is being seduced by","","","","","",""
"null","<div style=""font-size:60px;"">+</div>","","html-keyboard-response","75","353782","0.0-13.0-0.6","90962","List2A","black","woman","","","","null","","","","","","","","",""
"null","<img src=""stim_listA/greet6.gif""style=""height:400px;""></stim_listA>","","html-keyboard-response","76","355786","0.0-13.0-1.6","90962","List2A","black","woman","","","","null","","","","","","","","",""
"null","is being greeted by","","html-keyboard-response","77","357788","0.0-13.0-2.6","90962","List2A","black","woman","","","","null","","","","","","","","",""
"10275.19999999553","","","survey-text","78","368066","0.0-13.0-3.6","90962","List2A","black","woman","","","","","{""Q0"":""luke is being greeted by mike""}","<img src=""stim_listA/greet6.gif""style=""height:400px;""></stim_listA>","is being greeted by","","","","","",""
"null","<div style=""font-size:60px;"">+</div>","","html-keyboard-response","79","368568","0.0-13.0-0.7","90962","List2A","black","woman","","","","null","","","","","","","","",""
"null","<img src=""stim_listA/hug7.gif""style=""height:400px;""></stim_listA>","","html-keyboard-response","80","370570","0.0-13.0-1.7","90962","List2A","black","woman","","","","null","","","","","","","","",""
"null","is hugging","","html-keyboard-response","81","372571","0.0-13.0-2.7","90962","List2A","black","woman","","","","null","","","","","","","","",""
"9868.89999999851","","","survey-text","82","382445","0.0-13.0-3.7","90962","List2A","black","woman","","","","","{""Q0"":""ruth is hugging beth""}","<img src=""stim_listA/hug7.gif""style=""height:400px;""></stim_listA>","is hugging","","","","","",""
"null","<div style=""font-size:60px;"">+</div>","","html-keyboard-response","83","382947","0.0-13.0-0.8","90962","List2A","black","woman","","","","null","","","","","","","","",""
"null","<img src=""stim_listA/shout6.gif""style=""height:400px;""></stim_listA>","","html-keyboard-response","84","384949","0.0-13.0-1.8","90962","List2A","black","woman","","","","null","","","","","","","","",""
"null","is being shouted at by","","html-keyboard-response","85","386953","0.0-13.0-2.8","90962","List2A","black","woman","","","","null","","","","","","","","",""
"10610.10000000149","","","survey-text","86","397567","0.0-13.0-3.8","90962","List2A","black","woman","","","","","{""Q0"":""dave is being shouted at by mike""}","<img src=""stim_listA/shout6.gif""style=""height:400px;""></stim_listA>","is being shouted at by","","","","","",""
"null","<div style=""font-size:60px;"">+</div>","","html-keyboard-response","87","398068","0.0-13.0-0.9","90962","List2A","black","woman","","","","null","","","","","","","","",""
"null","<img src=""stim_listA/hug4.gif""style=""height:400px;""></stim_listA>","","html-keyboard-response","88","400071","0.0-13.0-1.9","90962","List2A","black","woman","","","","null","","","","","","","","",""
"null","is being hugged by","","html-keyboard-response","89","402076","0.0-13.0-2.9","90962","List2A","black","woman","","","","null","","","","","","","","",""
"6327.80000000447","","","survey-text","90","408409","0.0-13.0-3.9","90962","List2A","black","woman","","","","","{""Q0"":""mike is being hugged by kate""}","<img src=""stim_listA/hug4.gif""style=""height:400px;""></stim_listA>","is being hugged by","","","","","",""
"null","<div style=""font-size:60px;"">+</div>","","html-keyboard-response","91","408911","0.0-13.0-0.10","90962","List2A","black","woman","","","","null","","","","","","","","",""
"null","<img src=""stim_listA/seduce7.gif""style=""height:400px;""></stim_listA>","","html-keyboard-response","92","410918","0.0-13.0-1.10","90962","List2A","black","woman","","","","null","","","","","","","","",""
"null","is seducing","","html-keyboard-response","93","412924","0.0-13.0-2.10","90962","List2A","black","woman","","","","null","","","","","","","","",""
"5302.5","","","survey-text","94","418231","0.0-13.0-3.10","90962","List2A","black","woman","","","","","{""Q0"":""kate is seducing ruth""}","<img src=""stim_listA/seduce7.gif""style=""height:400px;""></stim_listA>","is seducing","","","","","",""
"null","<div style=""font-size:60px;"">+</div>","","html-keyboard-response","95","418733","0.0-13.0-0.11","90962","List2A","black","woman","","","","null","","","","","","","","",""
"null","<img src=""stim_listA/copy4.gif""style=""height:400px;""></stim_listA>","","html-keyboard-response","96","420740","0.0-13.0-1.11","90962","List2A","black","woman","","","","null","","","","","","","","",""
"null","is being copied by","","html-keyboard-response","97","422746","0.0-13.0-2.11","90962","List2A","black","woman","","","","null","","","","","","","","",""
"5870.70000000298","","","survey-text","98","428621","0.0-13.0-3.11","90962","List2A","black","woman","","","","","{""Q0"":""kate is being copied by fred""}","<img src=""stim_listA/copy4.gif""style=""height:400px;""></stim_listA>","is being copied by","","","","","",""
"null","<div style=""font-size:60px;"">+</div>","","html-keyboard-response","99","429125","0.0-13.0-0.12","90962","List2A","black","woman","","","","null","","","","","","","","",""
"null","<img src=""stim_listA/challenge6.gif""style=""height:400px;""></stim_listA>","","html-keyboard-response","100","431131","0.0-13.0-1.12","90962","List2A","black","woman","","","","null","","","","","","","","",""
"null","is being challenged by","","html-keyboard-response","101","433133","0.0-13.0-2.12","90962","List2A","black","woman","","","","null","","","","","","","","",""
"7416.20000000298","","","survey-text","102","440553","0.0-13.0-3.12","90962","List2A","black","woman","","","","","{""Q0"":""luke is being challenged by mike""}","<img src=""stim_listA/challenge6.gif""style=""height:400px;""></stim_listA>","is being challenged by","","","","","",""
"null","<div style=""font-size:60px;"">+</div>","","html-keyboard-response","103","441055","0.0-13.0-0.13","90962","List2A","black","woman","","","","null","","","","","","","","",""
"null","<img src=""stim_listA/challenge1.gif""style=""height:400px;""></stim_listA>","","html-keyboard-response","104","443058","0.0-13.0-1.13","90962","List2A","black","woman","","","","null","","","","","","","","",""
"null","is challenging","","html-keyboard-response","105","445063","0.0-13.0-2.13","90962","List2A","black","woman","","","","null","","","","","","","","",""
"9553.69999999553","","","survey-text","106","454621","0.0-13.0-3.13","90962","List2A","black","woman","","","","","{""Q0"":""ruth is challenging dave""}","<img src=""stim_listA/challenge1.gif""style=""height:400px;""></stim_listA>","is challenging","","","","","",""
"null","<div style=""font-size:60px;"">+</div>","","html-keyboard-response","107","455124","0.0-13.0-0.14","90962","List2A","black","woman","","","","null","","","","","","","","",""
"null","<img src=""stim_listA/challenge4.gif""style=""height:400px;""></stim_listA>","","html-keyboard-response","108","457129","0.0-13.0-1.14","90962","List2A","black","woman","","","","null","","","","","","","","",""
"null","is being challenged by","","html-keyboard-response","109","459133","0.0-13.0-2.14","90962","List2A","black","woman","","","","null","","","","","","","","",""
"6563.79999999702","","","survey-text","110","465701","0.0-13.0-3.14","90962","List2A","black","woman","","","","","{""Q0"":""kate is being challenged by fred""}","<img src=""stim_listA/challenge4.gif""style=""height:400px;""></stim_listA>","is being challenged by","","","","","",""
"null","<div style=""font-size:60px;"">+</div>","","html-keyboard-response","111","466203","0.0-13.0-0.15","90962","List2A","black","woman","","","","null","","","","","","","","",""
"null","<img src=""stim_listA/greet5.gif""style=""height:400px;""></stim_listA>","","html-keyboard-response","112","468206","0.0-13.0-1.15","90962","List2A","black","woman","","","","null","","","","","","","","",""
"null","is greeting","","html-keyboard-response","113","470209","0.0-13.0-2.15","90962","List2A","black","woman","","","","null","","","","","","","","",""
"3831","","","survey-text","114","474044","0.0-13.0-3.15","90962","List2A","black","woman","","","","","{""Q0"":""fred is greeting dave""}","<img src=""stim_listA/greet5.gif""style=""height:400px;""></stim_listA>","is greeting","","","","","",""
"null","<div style=""font-size:60px;"">+</div>","","html-keyboard-response","115","474547","0.0-13.0-0.16","90962","List2A","black","woman","","","","null","","","","","","","","",""
"null","<img src=""stim_listA/hug1.gif""style=""height:400px;""></stim_listA>","","html-keyboard-response","116","476553","0.0-13.0-1.16","90962","List2A","black","woman","","","","null","","","","","","","","",""
"null","is hugging","","html-keyboard-response","117","478558","0.0-13.0-2.16","90962","List2A","black","woman","","","","null","","","","","","","","",""
"6143.5","","","survey-text","118","484706","0.0-13.0-3.16","90962","List2A","black","woman","","","","","{""Q0"":""ruth is hugging luke""}","<img src=""stim_listA/hug1.gif""style=""height:400px;""></stim_listA>","is hugging","","","","","",""
"null","<div style=""font-size:60px;"">+</div>","","html-keyboard-response","119","485210","0.0-13.0-0.17","90962","List2A","black","woman","","","","null","","","","","","","","",""
"null","<img src=""stim_listA/kiss3.gif""style=""height:400px;""></stim_listA>","","html-keyboard-response","120","487213","0.0-13.0-1.17","90962","List2A","black","woman","","","","null","","","","","","","","",""
"null","is kissing","","html-keyboard-response","121","489214","0.0-13.0-2.17","90962","List2A","black","woman","","","","null","","","","","","","","",""
"4873.5999999940395","","","survey-text","122","494092","0.0-13.0-3.17","90962","List2A","black","woman","","","","","{""Q0"":""fred is kissing beth""}","<img src=""stim_listA/kiss3.gif""style=""height:400px;""></stim_listA>","is kissing","","","","","",""
"null","<div style=""font-size:60px;"">+</div>","","html-keyboard-response","123","494597","0.0-13.0-0.18","90962","List2A","black","woman","","","","null","","","","","","","","",""
"null","<img src=""stim_listA/copy6.gif""style=""height:400px;""></stim_listA>","","html-keyboard-response","124","496603","0.0-13.0-1.18","90962","List2A","black","woman","","","","null","","","","","","","","",""
"null","is being copied by","","html-keyboard-response","125","498606","0.0-13.0-2.18","90962","List2A","black","woman","","","","null","","","","","","","","",""
"4826.19999999553","","","survey-text","126","503437","0.0-13.0-3.18","90962","List2A","black","woman","","","","","{""Q0"":""luke is being copied by mike""}","<img src=""stim_listA/copy6.gif""style=""height:400px;""></stim_listA>","is being copied by","","","","","",""
"null","<div style=""font-size:60px;"">+</div>","","html-keyboard-response","127","503938","0.0-13.0-0.19","90962","List2A","black","woman","","","","null","","","","","","","","",""
"null","<img src=""stim_listA/shout7.gif""style=""height:400px;""></stim_listA>","","html-keyboard-response","128","505940","0.0-13.0-1.19","90962","List2A","black","woman","","","","null","","","","","","","","",""
"null","is shouting at","","html-keyboard-response","129","507946","0.0-13.0-2.19","90962","List2A","black","woman","","","","null","","","","","","","","",""
"4359.69999999553","","","survey-text","130","512310","0.0-13.0-3.19","90962","List2A","black","woman","","","","","{""Q0"":""ruth is shouting at beth""}","<img src=""stim_listA/shout7.gif""style=""height:400px;""></stim_listA>","is shouting at","","","","","",""
"232678.8999999985","<img src='img/portrait_matrix_list2.jpg' style='width:900px;height:500px;''></img><p>If you have memorised all the portraits and names and are ready to start, press Continue.</p><p><strong>Please note: Your memory of these faces will be tested 4 times during this experiment.</strong></p>","0","html-button-response","131","744989","0.0-14.0-0.0","90962","List2A","black","woman","","","","","","","","","","","","",""
"7085.70000000298","<img src=""portrait/WW1.jpg""style=""height:400px;""></img>","1","html-button-response","132","753080","0.0-14.0-1.0","90962","List2A","black","woman","","true","1","","","","","","","","","",""
"null","CORRECT","","html-keyboard-response","133","754592","0.0-14.0-2.0-0.0","90962","List2A","black","woman","","","","null","","","","","","","","",""
"2965","<img src=""portrait/WM1.jpg""style=""height:400px;""></img>","6","html-button-response","134","757559","0.0-14.0-4.0","90962","List2A","black","woman","","true","6","","","","","","","","","",""
"null","CORRECT","","html-keyboard-response","135","759062","0.0-14.0-5.0-0.0","90962","List2A","black","woman","","","","null","","","","","","","","",""
"2388.60000000149","<img src=""portrait/BM1.jpg""style=""height:400px;""></img>","4","html-button-response","136","761453","0.0-14.0-7.0","90962","List2A","black","woman","","true","4","","","","","","","","","",""
"null","CORRECT","","html-keyboard-response","137","762964","0.0-14.0-8.0-0.0","90962","List2A","black","woman","","","","null","","","","","","","","",""
"2047.3999999985099","<img src=""portrait/WM2.jpg""style=""height:400px;""></img>","7","html-button-response","138","765014","0.0-14.0-10.0","90962","List2A","black","woman","","true","7","","","","","","","","","",""
"null","CORRECT","","html-keyboard-response","139","766524","0.0-14.0-11.0-0.0","90962","List2A","black","woman","","","","null","","","","","","","","",""
"3272.8000000044703","<img src=""portrait/BW1.jpg""style=""height:400px;""></img>","0","html-button-response","140","769799","0.0-14.0-13.0","90962","List2A","black","woman","","true","0","","","","","","","","","",""
"null","CORRECT","","html-keyboard-response","141","771307","0.0-14.0-14.0-0.0","90962","List2A","black","woman","","","","null","","","","","","","","",""
"3745.8000000044703","<img src=""portrait/BM2.jpg""style=""height:400px;""></img>","5","html-button-response","142","775055","0.0-14.0-16.0","90962","List2A","black","woman","","true","5","","","","","","","","","",""
"null","CORRECT","","html-keyboard-response","143","776564","0.0-14.0-17.0-0.0","90962","List2A","black","woman","","","","null","","","","","","","","",""
"3411.9000000059605","<img src=""portrait/BW2.jpg""style=""height:400px;""></img>","2","html-button-response","144","779978","0.0-14.0-19.0","90962","List2A","black","woman","","true","2","","","","","","","","","",""
"null","CORRECT","","html-keyboard-response","145","781490","0.0-14.0-20.0-0.0","90962","List2A","black","woman","","","","null","","","","","","","","",""
"2111.7000000029802","<img src=""portrait/WW2.jpg""style=""height:400px;""></img>","3","html-button-response","146","783604","0.0-14.0-22.0","90962","List2A","black","woman","","true","3","","","","","","","","","",""
"null","CORRECT","","html-keyboard-response","147","785110","0.0-14.0-23.0-0.0","90962","List2A","black","woman","","","","null","","","","","","","","",""
"1155.6000000014901","<p>You got 8 out of 8 right first time. Press Continue.</p>","0","html-button-response","148","786268","0.0-14.0-25.0","90962","List2A","black","woman","","","","","","","","","","","","",""
"null","<div style=""font-size:60px;"">+</div>","","html-keyboard-response","149","787776","0.0-15.0-0.0","90962","List2A","black","woman","","","","null","","","","","","","","",""
"null","<img src=""stim_listA/oppose3.gif""style=""height:400px;""></stim_listA>","","html-keyboard-response","150","789780","0.0-15.0-1.0","90962","List2A","black","woman","","","","null","","","","","","","","",""
"null","is opposing","","html-keyboard-response","151","791785","0.0-15.0-2.0","90962","List2A","black","woman","","","","null","","","","","","","","",""
"9136.39999999851","","","survey-text","152","800927","0.0-15.0-3.0","90962","List2A","black","woman","","","","","{""Q0"":""kate is opposing mike""}","<img src=""stim_listA/oppose3.gif""style=""height:400px;""></stim_listA>","is opposing","","","","","",""
"null","<div style=""font-size:60px;"">+</div>","","html-keyboard-response","153","801429","0.0-15.0-0.1","90962","List2A","black","woman","","","","null","","","","","","","","",""
"null","<img src=""stim_listA/look4.gif""style=""height:400px;""></stim_listA>","","html-keyboard-response","154","803437","0.0-15.0-1.1","90962","List2A","black","woman","","","","null","","","","","","","","",""
"null","is being looked at by","","html-keyboard-response","155","805438","0.0-15.0-2.1","90962","List2A","black","woman","","","","null","","","","","","","","",""
"5681.30000000447","","","survey-text","156","811124","0.0-15.0-3.1","90962","List2A","black","woman","","","","","{""Q0"":""kate is being looked at by mike""}","<img src=""stim_listA/look4.gif""style=""height:400px;""></stim_listA>","is being looked at by","","","","","",""
"null","<div style=""font-size:60px;"">+</div>","","html-keyboard-response","157","811626","0.0-15.0-0.2","90962","List2A","black","woman","","","","null","","","","","","","","",""
"null","<img src=""stim_listA/kiss1.gif""style=""height:400px;""></stim_listA>","","html-keyboard-response","158","813630","0.0-15.0-1.2","90962","List2A","black","woman","","","","null","","","","","","","","",""
"null","is kissing","","html-keyboard-response","159","815637","0.0-15.0-2.2","90962","List2A","black","woman","","","","null","","","","","","","","",""
"4943.89999999851","","","survey-text","160","820586","0.0-15.0-3.2","90962","List2A","black","woman","","","","","{""Q0"":""luke is kissing jane""}","<img src=""stim_listA/kiss1.gif""style=""height:400px;""></stim_listA>","is kissing","","","","","",""
"null","<div style=""font-size:60px;"">+</div>","","html-keyboard-response","161","821088","0.0-15.0-0.3","90962","List2A","black","woman","","","","null","","","","","","","","",""
"null","<img src=""stim_listA/oppose2.gif""style=""height:400px;""></stim_listA>","","html-keyboard-response","162","823092","0.0-15.0-1.3","90962","List2A","black","woman","","","","null","","","","","","","","",""
"null","is being opposed by","","html-keyboard-response","163","825098","0.0-15.0-2.3","90962","List2A","black","woman","","","","null","","","","","","","","",""
"7177.79999999702","","","survey-text","164","832281","0.0-15.0-3.3","90962","List2A","black","woman","","","","","{""Q0"":""ruth is being opposed by dave""}","<img src=""stim_listA/oppose2.gif""style=""height:400px;""></stim_listA>","is being opposed by","","","","","",""
"null","<div style=""font-size:60px;"">+</div>","","html-keyboard-response","165","832782","0.0-15.0-0.4","90962","List2A","black","woman","","","","null","","","","","","","","",""
"null","<img src=""stim_listA/touch1.gif""style=""height:400px;""></stim_listA>","","html-keyboard-response","166","834789","0.0-15.0-1.4","90962","List2A","black","woman","","","","null","","","","","","","","",""
"null","is touching","","html-keyboard-response","167","836792","0.0-15.0-2.4","90962","List2A","black","woman","","","","null","","","","","","","","",""
"3456.3000000044703","","","survey-text","168","840252","0.0-15.0-3.4","90962","List2A","black","woman","","","","","{""Q0"":""dave is touching jane""}","<img src=""stim_listA/touch1.gif""style=""height:400px;""></stim_listA>","is touching","","","","","",""
"null","<div style=""font-size:60px;"">+</div>","","html-keyboard-response","169","840753","0.0-15.0-0.5","90962","List2A","black","woman","","","","null","","","","","","","","",""
"null","<img src=""stim_listA/hug8.gif""style=""height:400px;""></stim_listA>","","html-keyboard-response","170","842758","0.0-15.0-1.5","90962","List2A","black","woman","","","","null","","","","","","","","",""
"null","is being hugged by","","html-keyboard-response","171","844764","0.0-15.0-2.5","90962","List2A","black","woman","","","","null","","","","","","","","",""
"5357.5","","","survey-text","172","850129","0.0-15.0-3.5","90962","List2A","black","woman","","","","","{""Q0"":""jane is being hugged by beth""}","<img src=""stim_listA/hug8.gif""style=""height:400px;""></stim_listA>","is being hugged by","","","","","",""
"null","<div style=""font-size:60px;"">+</div>","","html-keyboard-response","173","850631","0.0-15.0-0.6","90962","List2A","black","woman","","","","null","","","","","","","","",""
"null","<img src=""stim_listA/oppose8.gif""style=""height:400px;""></stim_listA>","","html-keyboard-response","174","852638","0.0-15.0-1.6","90962","List2A","black","woman","","","","null","","","","","","","","",""
"null","is being opposed by","","html-keyboard-response","175","854641","0.0-15.0-2.6","90962","List2A","black","woman","","","","null","","","","","","","","",""
"6839","","","survey-text","176","861484","0.0-15.0-3.6","90962","List2A","black","woman","","","","","{""Q0"":""kate is fighting ruth""}","<img src=""stim_listA/oppose8.gif""style=""height:400px;""></stim_listA>","is being opposed by","","","","","",""
"null","<div style=""font-size:60px;"">+</div>","","html-keyboard-response","177","861986","0.0-15.0-0.7","90962","List2A","black","woman","","","","null","","","","","","","","",""
"null","<img src=""stim_listA/greet7.gif""style=""height:400px;""></stim_listA>","","html-keyboard-response","178","863988","0.0-15.0-1.7","90962","List2A","black","woman","","","","null","","","","","","","","",""
"null","is greeting","","html-keyboard-response","179","865994","0.0-15.0-2.7","90962","List2A","black","woman","","","","null","","","","","","","","",""
"6235.60000000149","","","survey-text","180","872234","0.0-15.0-3.7","90962","List2A","black","woman","","","","","{""Q0"":""jane is greeting beth""}","<img src=""stim_listA/greet7.gif""style=""height:400px;""></stim_listA>","is greeting","","","","","",""
"null","<div style=""font-size:60px;"">+</div>","","html-keyboard-response","181","872736","0.0-15.0-0.8","90962","List2A","black","woman","","","","null","","","","","","","","",""
"null","<img src=""stim_listA/kiss5.gif""style=""height:400px;""></stim_listA>","","html-keyboard-response","182","874741","0.0-15.0-1.8","90962","List2A","black","woman","","","","null","","","","","","","","",""
"null","is kissing","","html-keyboard-response","183","876742","0.0-15.0-2.8","90962","List2A","black","woman","","","","null","","","","","","","","",""
"6021.10000000149","","","survey-text","184","882768","0.0-15.0-3.8","90962","List2A","black","woman","","","","","{""Q0"":""luke is kissing dave""}","<img src=""stim_listA/kiss5.gif""style=""height:400px;""></stim_listA>","is kissing","","","","","",""
"null","<div style=""font-size:60px;"">+</div>","","html-keyboard-response","185","883269","0.0-15.0-0.9","90962","List2A","black","woman","","","","null","","","","","","","","",""
"null","<img src=""stim_listA/kiss7.gif""style=""height:400px;""></stim_listA>","","html-keyboard-response","186","885275","0.0-15.0-1.9","90962","List2A","black","woman","","","","null","","","","","","","","",""
"null","is kissing","","html-keyboard-response","187","887279","0.0-15.0-2.9","90962","List2A","black","woman","","","","null","","","","","","","","",""
"7554.10000000149","","","survey-text","188","894838","0.0-15.0-3.9","90962","List2A","black","woman","","","","","{""Q0"":""ruth is kissing beth""}","<img src=""stim_listA/kiss7.gif""style=""height:400px;""></stim_listA>","is kissing","","","","","",""
"null","<div style=""font-size:60px;"">+</div>","","html-keyboard-response","189","895339","0.0-15.0-0.10","90962","List2A","black","woman","","","","null","","","","","","","","",""
"null","<img src=""stim_listA/touch7.gif""style=""height:400px;""></stim_listA>","","html-keyboard-response","190","897346","0.0-15.0-1.10","90962","List2A","black","woman","","","","null","","","","","","","","",""
"null","is touching","","html-keyboard-response","191","899352","0.0-15.0-2.10","90962","List2A","black","woman","","","","null","","","","","","","","",""
"3682.39999999851","","","survey-text","192","903039","0.0-15.0-3.10","90962","List2A","black","woman","","","","","{""Q0"":""jane is touching kate""}","<img src=""stim_listA/touch7.gif""style=""height:400px;""></stim_listA>","is touching","","","","","",""
"null","<div style=""font-size:60px;"">+</div>","","html-keyboard-response","193","903540","0.0-15.0-0.11","90962","List2A","black","woman","","","","null","","","","","","","","",""
"null","<img src=""stim_listA/touch4.gif""style=""height:400px;""></stim_listA>","","html-keyboard-response","194","905545","0.0-15.0-1.11","90962","List2A","black","woman","","","","null","","","","","","","","",""
"null","is being touched by","","html-keyboard-response","195","907551","0.0-15.0-2.11","90962","List2A","black","woman","","","","null","","","","","","","","",""
"6867.30000000447","","","survey-text","196","914423","0.0-15.0-3.11","90962","List2A","black","woman","","","","","{""Q0"":""beth is being touched by fred""}","<img src=""stim_listA/touch4.gif""style=""height:400px;""></stim_listA>","is being touched by","","","","","",""
"null","<div style=""font-size:60px;"">+</div>","","html-keyboard-response","197","914925","0.0-15.0-0.12","90962","List2A","black","woman","","","","null","","","","","","","","",""
"null","<img src=""stim_listA/shout5.gif""style=""height:400px;""></stim_listA>","","html-keyboard-response","198","916930","0.0-15.0-1.12","90962","List2A","black","woman","","","","null","","","","","","","","",""
"null","is shouting at","","html-keyboard-response","199","918936","0.0-15.0-2.12","90962","List2A","black","woman","","","","null","","","","","","","","",""
"5371.5999999940395","","","survey-text","200","924311","0.0-15.0-3.12","90962","List2A","black","woman","","","","","{""Q0"":""luke is shouting at fred""}","<img src=""stim_listA/shout5.gif""style=""height:400px;""></stim_listA>","is shouting at","","","","","",""
"null","<div style=""font-size:60px;"">+</div>","","html-keyboard-response","201","924812","0.0-15.0-0.13","90962","List2A","black","woman","","","","null","","","","","","","","",""
"null","<img src=""stim_listA/kiss4.gif""style=""height:400px;""></stim_listA>","","html-keyboard-response","202","926817","0.0-15.0-1.13","90962","List2A","black","woman","","","","null","","","","","","","","",""
"null","is being kissed by","","html-keyboard-response","203","928820","0.0-15.0-2.13","90962","List2A","black","woman","","","","null","","","","","","","","",""
"6012.9000000059605","","","survey-text","204","934837","0.0-15.0-3.13","90962","List2A","black","woman","","","","","{""Q0"":""kate is being kissed by mike""}","<img src=""stim_listA/kiss4.gif""style=""height:400px;""></stim_listA>","is being kissed by","","","","","",""
"null","<div style=""font-size:60px;"">+</div>","","html-keyboard-response","205","935341","0.0-15.0-0.14","90962","List2A","black","woman","","","","null","","","","","","","","",""
"null","<img src=""stim_listA/greet3.gif""style=""height:400px;""></stim_listA>","","html-keyboard-response","206","937348","0.0-15.0-1.14","90962","List2A","black","woman","","","","null","","","","","","","","",""
"null","is greeting","","html-keyboard-response","207","939350","0.0-15.0-2.14","90962","List2A","black","woman","","","","null","","","","","","","","",""
"7049.5","","","survey-text","208","946403","0.0-15.0-3.14","90962","List2A","black","woman","","","","","{""Q0"":""mike is greeting kate""}","<img src=""stim_listA/greet3.gif""style=""height:400px;""></stim_listA>","is greeting","","","","","",""
"null","<div style=""font-size:60px;"">+</div>","","html-keyboard-response","209","946904","0.0-15.0-0.15","90962","List2A","black","woman","","","","null","","","","","","","","",""
"null","<img src=""stim_listA/copy1.gif""style=""height:400px;""></stim_listA>","","html-keyboard-response","210","948909","0.0-15.0-1.15","90962","List2A","black","woman","","","","null","","","","","","","","",""
"null","is copying","","html-keyboard-response","211","950915","0.0-15.0-2.15","90962","List2A","black","woman","","","","null","","","","","","","","",""
"4958.60000000149","","","survey-text","212","955879","0.0-15.0-3.15","90962","List2A","black","woman","","","","","{""Q0"":""ruth is copying dave""}","<img src=""stim_listA/copy1.gif""style=""height:400px;""></stim_listA>","is copying","","","","","",""
"null","<div style=""font-size:60px;"">+</div>","","html-keyboard-response","213","956381","0.0-15.0-0.16","90962","List2A","black","woman","","","","null","","","","","","","","",""
"null","<img src=""stim_listA/shout2.gif""style=""height:400px;""></stim_listA>","","html-keyboard-response","214","958388","0.0-15.0-1.16","90962","List2A","black","woman","","","","null","","","","","","","","",""
"null","is being shouted at by","","html-keyboard-response","215","960391","0.0-15.0-2.16","90962","List2A","black","woman","","","","null","","","","","","","","",""
"7941.10000000149","","","survey-text","216","968336","0.0-15.0-3.16","90962","List2A","black","woman","","","","","{""Q0"":""dave is being shouted at by jane""}","<img src=""stim_listA/shout2.gif""style=""height:400px;""></stim_listA>","is being shouted at by","","","","","",""
"null","<div style=""font-size:60px;"">+</div>","","html-keyboard-response","217","968838","0.0-15.0-0.17","90962","List2A","black","woman","","","","null","","","","","","","","",""
"null","<img src=""stim_listA/greet8.gif""style=""height:400px;""></stim_listA>","","html-keyboard-response","218","970841","0.0-15.0-1.17","90962","List2A","black","woman","","","","null","","","","","","","","",""
"null","is being greeted by","","html-keyboard-response","219","972843","0.0-15.0-2.17","90962","List2A","black","woman","","","","null","","","","","","","","",""
"7813.5999999940395","","","survey-text","220","980661","0.0-15.0-3.17","90962","List2A","black","woman","","","","","{""Q0"":""kate is being greeted at by ruth""}","<img src=""stim_listA/greet8.gif""style=""height:400px;""></stim_listA>","is being greeted by","","","","","",""
"null","<div style=""font-size:60px;"">+</div>","","html-keyboard-response","221","981163","0.0-15.0-0.18","90962","List2A","black","woman","","","","null","","","","","","","","",""
"null","<img src=""stim_listA/challenge2.gif""style=""height:400px;""></stim_listA>","","html-keyboard-response","222","983165","0.0-15.0-1.18","90962","List2A","black","woman","","","","null","","","","","","","","",""
"null","is being challenged by","","html-keyboard-response","223","985169","0.0-15.0-2.18","90962","List2A","black","woman","","","","null","","","","","","","","",""
"5624.5999999940395","","","survey-text","224","990799","0.0-15.0-3.18","90962","List2A","black","woman","","","","","{""Q0"":""jane is being challenged by luke""}","<img src=""stim_listA/challenge2.gif""style=""height:400px;""></stim_listA>","is being challenged by","","","","","",""
"null","<div style=""font-size:60px;"">+</div>","","html-keyboard-response","225","991300","0.0-15.0-0.19","90962","List2A","black","woman","","","","null","","","","","","","","",""
"null","<img src=""stim_listA/greet2.gif""style=""height:400px;""></stim_listA>","","html-keyboard-response","226","993307","0.0-15.0-1.19","90962","List2A","black","woman","","","","null","","","","","","","","",""
"null","is being greeted by","","html-keyboard-response","227","995314","0.0-15.0-2.19","90962","List2A","black","woman","","","","null","","","","","","","","",""
"6822.39999999851","","","survey-text","228","1002141","0.0-15.0-3.19","90962","List2A","black","woman","","","","","{""Q0"":""luke is being greeted by jane""}","<img src=""stim_listA/greet2.gif""style=""height:400px;""></stim_listA>","is being greeted by","","","","","",""
"4997.70000000298","<img src='img/portrait_matrix_list2.jpg' style='width:900px;height:500px;''></img><p>If you have memorised all the portraits and names and are ready to start, press Continue.</p><p><strong>Please note: Your memory of these faces will be tested 4 times during this experiment.</strong></p>","0","html-button-response","229","1007142","0.0-16.0-0.0","90962","List2A","black","woman","","","","","","","","","","","","",""
"3443.10000000149","<img src=""portrait/WW1.jpg""style=""height:400px;""></img>","1","html-button-response","230","1011593","0.0-16.0-1.0","90962","List2A","black","woman","","true","1","","","","","","","","","",""
"null","CORRECT","","html-keyboard-response","231","1013100","0.0-16.0-2.0-0.0","90962","List2A","black","woman","","","","null","","","","","","","","",""
"2480.89999999851","<img src=""portrait/BW2.jpg""style=""height:400px;""></img>","2","html-button-response","232","1015584","0.0-16.0-4.0","90962","List2A","black","woman","","true","2","","","","","","","","","",""
"null","CORRECT","","html-keyboard-response","233","1017096","0.0-16.0-5.0-0.0","90962","List2A","black","woman","","","","null","","","","","","","","",""
"1958.4000000059605","<img src=""portrait/BW1.jpg""style=""height:400px;""></img>","0","html-button-response","234","1019057","0.0-16.0-7.0","90962","List2A","black","woman","","true","0","","","","","","","","","",""
"null","CORRECT","","html-keyboard-response","235","1020564","0.0-16.0-8.0-0.0","90962","List2A","black","woman","","","","null","","","","","","","","",""
"1224.3000000044703","<img src=""portrait/BM2.jpg""style=""height:400px;""></img>","5","html-button-response","236","1021791","0.0-16.0-10.0","90962","List2A","black","woman","","true","5","","","","","","","","","",""
"null","CORRECT","","html-keyboard-response","237","1023303","0.0-16.0-11.0-0.0","90962","List2A","black","woman","","","","null","","","","","","","","",""
"1918.1000000014901","<img src=""portrait/WW2.jpg""style=""height:400px;""></img>","3","html-button-response","238","1025222","0.0-16.0-13.0","90962","List2A","black","woman","","true","3","","","","","","","","","",""
"null","CORRECT","","html-keyboard-response","239","1026729","0.0-16.0-14.0-0.0","90962","List2A","black","woman","","","","null","","","","","","","","",""
"1244.3999999985099","<img src=""portrait/WM2.jpg""style=""height:400px;""></img>","7","html-button-response","240","1027975","0.0-16.0-16.0","90962","List2A","black","woman","","true","7","","","","","","","","","",""
"null","CORRECT","","html-keyboard-response","241","1029479","0.0-16.0-17.0-0.0","90962","List2A","black","woman","","","","null","","","","","","","","",""
"1269.6000000014901","<img src=""portrait/WM1.jpg""style=""height:400px;""></img>","6","html-button-response","242","1030751","0.0-16.0-19.0","90962","List2A","black","woman","","true","6","","","","","","","","","",""
"null","CORRECT","","html-keyboard-response","243","1032256","0.0-16.0-20.0-0.0","90962","List2A","black","woman","","","","null","","","","","","","","",""
"3084.2000000029802","<img src=""portrait/BM1.jpg""style=""height:400px;""></img>","4","html-button-response","244","1035342","0.0-16.0-22.0","90962","List2A","black","woman","","true","4","","","","","","","","","",""
"null","CORRECT","","html-keyboard-response","245","1036851","0.0-16.0-23.0-0.0","90962","List2A","black","woman","","","","null","","","","","","","","",""
"2122.60000000149","<p>You got 8 out of 8 right first time. Press Continue.</p>","0","html-button-response","246","1038977","0.0-16.0-25.0","90962","List2A","black","woman","","","","","","","","","","","","",""
"null","<div style=""font-size:60px;"">+</div>","","html-keyboard-response","247","1040483","0.0-17.0-0.0","90962","List2A","black","woman","","","","null","","","","","","","","",""
"null","<img src=""stim_listA/hug2.gif""style=""height:400px;""></stim_listA>","","html-keyboard-response","248","1042489","0.0-17.0-1.0","90962","List2A","black","woman","","","","null","","","","","","","","",""
"null","is being hugged by","","html-keyboard-response","249","1044491","0.0-17.0-2.0","90962","List2A","black","woman","","","","null","","","","","","","","",""
"6463.5999999940395","","","survey-text","250","1050959","0.0-17.0-3.0","90962","List2A","black","woman","","","","","{""Q0"":""jane is being hugged by dave""}","<img src=""stim_listA/hug2.gif""style=""height:400px;""></stim_listA>","is being hugged by","","","","","",""
"null","<div style=""font-size:60px;"">+</div>","","html-keyboard-response","251","1051461","0.0-17.0-0.1","90962","List2A","black","woman","","","","null","","","","","","","","",""
"null","<img src=""stim_listA/look3.gif""style=""height:400px;""></stim_listA>","","html-keyboard-response","252","1053469","0.0-17.0-1.1","90962","List2A","black","woman","","","","null","","","","","","","","",""
"null","is looking at","","html-keyboard-response","253","1055471","0.0-17.0-2.1","90962","List2A","black","woman","","","","null","","","","","","","","",""
"14586.5","","","survey-text","254","1070062","0.0-17.0-3.1","90962","List2A","black","woman","","","","","{""Q0"":""fred is looking at beth""}","<img src=""stim_listA/look3.gif""style=""height:400px;""></stim_listA>","is looking at","","","","","",""
"null","<div style=""font-size:60px;"">+</div>","","html-keyboard-response","255","1070566","0.0-17.0-0.2","90962","List2A","black","woman","","","","null","","","","","","","","",""
"null","<img src=""stim_listA/greet1.gif""style=""height:400px;""></stim_listA>","","html-keyboard-response","256","1072573","0.0-17.0-1.2","90962","List2A","black","woman","","","","null","","","","","","","","",""
"null","is greeting","","html-keyboard-response","257","1074578","0.0-17.0-2.2","90962","List2A","black","woman","","","","null","","","","","","","","",""
"5352.10000000149","","","survey-text","258","1079934","0.0-17.0-3.2","90962","List2A","black","woman","","","","","{""Q0"":""dave is greeting ruth""}","<img src=""stim_listA/greet1.gif""style=""height:400px;""></stim_listA>","is greeting","","","","","",""
"null","<div style=""font-size:60px;"">+</div>","","html-keyboard-response","259","1080437","0.0-17.0-0.3","90962","List2A","black","woman","","","","null","","","","","","","","",""
"null","<img src=""stim_listA/shout1.gif""style=""height:400px;""></stim_listA>","","html-keyboard-response","260","1082440","0.0-17.0-1.3","90962","List2A","black","woman","","","","null","","","","","","","","",""
"null","is shouting at","","html-keyboard-response","261","1084442","0.0-17.0-2.3","90962","List2A","black","woman","","","","null","","","","","","","","",""
"5934.30000000447","","","survey-text","262","1090381","0.0-17.0-3.3","90962","List2A","black","woman","","","","","{""Q0"":""luke is shouting at ruth""}","<img src=""stim_listA/shout1.gif""style=""height:400px;""></stim_listA>","is shouting at","","","","","",""
"null","<div style=""font-size:60px;"">+</div>","","html-keyboard-response","263","1090883","0.0-17.0-0.4","90962","List2A","black","woman","","","","null","","","","","","","","",""
"null","<img src=""stim_listA/challenge7.gif""style=""height:400px;""></stim_listA>","","html-keyboard-response","264","1092886","0.0-17.0-1.4","90962","List2A","black","woman","","","","null","","","","","","","","",""
"null","is challenging","","html-keyboard-response","265","1094887","0.0-17.0-2.4","90962","List2A","black","woman","","","","null","","","","","","","","",""
"4799.79999999702","","","survey-text","266","1099692","0.0-17.0-3.4","90962","List2A","black","woman","","","","","{""Q0"":""jane is challenging beth""}","<img src=""stim_listA/challenge7.gif""style=""height:400px;""></stim_listA>","is challenging","","","","","",""
"null","<div style=""font-size:60px;"">+</div>","","html-keyboard-response","267","1100196","0.0-17.0-0.5","90962","List2A","black","woman","","","","null","","","","","","","","",""
"null","<img src=""stim_listA/touch2.gif""style=""height:400px;""></stim_listA>","","html-keyboard-response","268","1102198","0.0-17.0-1.5","90962","List2A","black","woman","","","","null","","","","","","","","",""
"null","is being touched by","","html-keyboard-response","269","1104204","0.0-17.0-2.5","90962","List2A","black","woman","","","","null","","","","","","","","",""
"5030.80000000447","","","survey-text","270","1109240","0.0-17.0-3.5","90962","List2A","black","woman","","","","","{""Q0"":""luke is being touched by ruth""}","<img src=""stim_listA/touch2.gif""style=""height:400px;""></stim_listA>","is being touched by","","","","","",""
"null","<div style=""font-size:60px;"">+</div>","","html-keyboard-response","271","1109741","0.0-17.0-0.6","90962","List2A","black","woman","","","","null","","","","","","","","",""
"null","<img src=""stim_listA/copy3.gif""style=""height:400px;""></stim_listA>","","html-keyboard-response","272","1111744","0.0-17.0-1.6","90962","List2A","black","woman","","","","null","","","","","","","","",""
"null","is copying","","html-keyboard-response","273","1113747","0.0-17.0-2.6","90962","List2A","black","woman","","","","null","","","","","","","","",""
"5490.80000000447","","","survey-text","274","1119243","0.0-17.0-3.6","90962","List2A","black","woman","","","","","{""Q0"":""mike is copying beth""}","<img src=""stim_listA/copy3.gif""style=""height:400px;""></stim_listA>","is copying","","","","","",""
"null","<div style=""font-size:60px;"">+</div>","","html-keyboard-response","275","1119744","0.0-17.0-0.7","90962","List2A","black","woman","","","","null","","","","","","","","",""
"null","<img src=""stim_listA/hug6.gif""style=""height:400px;""></stim_listA>","","html-keyboard-response","276","1121748","0.0-17.0-1.7","90962","List2A","black","woman","","","","null","","","","","","","","",""
"null","is being hugged by","","html-keyboard-response","277","1123751","0.0-17.0-2.7","90962","List2A","black","woman","","","","null","","","","","","","","",""
"6784.70000000298","","","survey-text","278","1130541","0.0-17.0-3.7","90962","List2A","black","woman","","","","","{""Q0"":""mike is being hugged by dave""}","<img src=""stim_listA/hug6.gif""style=""height:400px;""></stim_listA>","is being hugged by","","","","","",""
"null","<div style=""font-size:60px;"">+</div>","","html-keyboard-response","279","1131043","0.0-17.0-0.8","90962","List2A","black","woman","","","","null","","","","","","","","",""
"null","<img src=""stim_listA/seduce3.gif""style=""height:400px;""></stim_listA>","","html-keyboard-response","280","1133048","0.0-17.0-1.8","90962","List2A","black","woman","","","","null","","","","","","","","",""
"null","is seducing","","html-keyboard-response","281","1135050","0.0-17.0-2.8","90962","List2A","black","woman","","","","null","","","","","","","","",""
"6275.60000000149","","","survey-text","282","1141330","0.0-17.0-3.8","90962","List2A","black","woman","","","","","{""Q0"":""fred is seducing kate""}","<img src=""stim_listA/seduce3.gif""style=""height:400px;""></stim_listA>","is seducing","","","","","",""
"null","<div style=""font-size:60px;"">+</div>","","html-keyboard-response","283","1141834","0.0-17.0-0.9","90962","List2A","black","woman","","","","null","","","","","","","","",""
"null","<img src=""stim_listA/copy7.gif""style=""height:400px;""></stim_listA>","","html-keyboard-response","284","1143836","0.0-17.0-1.9","90962","List2A","black","woman","","","","null","","","","","","","","",""
"null","is copying","","html-keyboard-response","285","1145839","0.0-17.0-2.9","90962","List2A","black","woman","","","","null","","","","","","","","",""
"7321.79999999702","","","survey-text","286","1153166","0.0-17.0-3.9","90962","List2A","black","woman","","","","","{""Q0"":""beth is copying jane""}","<img src=""stim_listA/copy7.gif""style=""height:400px;""></stim_listA>","is copying","","","","","",""
"null","<div style=""font-size:60px;"">+</div>","","html-keyboard-response","287","1153668","0.0-17.0-0.10","90962","List2A","black","woman","","","","null","","","","","","","","",""
"null","<img src=""stim_listA/copy5.gif""style=""height:400px;""></stim_listA>","","html-keyboard-response","288","1155672","0.0-17.0-1.10","90962","List2A","black","woman","","","","null","","","","","","","","",""
"null","is copying","","html-keyboard-response","289","1157678","0.0-17.0-2.10","90962","List2A","black","woman","","","","null","","","","","","","","",""
"3742.60000000149","","","survey-text","290","1161425","0.0-17.0-3.10","90962","List2A","black","woman","","","","","{""Q0"":""dave is copying fred""}","<img src=""stim_listA/copy5.gif""style=""height:400px;""></stim_listA>","is copying","","","","","",""
"null","<div style=""font-size:60px;"">+</div>","","html-keyboard-response","291","1161927","0.0-17.0-0.11","90962","List2A","black","woman","","","","null","","","","","","","","",""
"null","<img src=""stim_listA/look8.gif""style=""height:400px;""></stim_listA>","","html-keyboard-response","292","1163930","0.0-17.0-1.11","90962","List2A","black","woman","","","","null","","","","","","","","",""
"null","is being looked at by","","html-keyboard-response","293","1165937","0.0-17.0-2.11","90962","List2A","black","woman","","","","null","","","","","","","","",""
"7011","","","survey-text","294","1172953","0.0-17.0-3.11","90962","List2A","black","woman","","","","","{""Q0"":""jane is being looked at by kate""}","<img src=""stim_listA/look8.gif""style=""height:400px;""></stim_listA>","is being looked at by","","","","","",""
"null","<div style=""font-size:60px;"">+</div>","","html-keyboard-response","295","1173454","0.0-17.0-0.12","90962","List2A","black","woman","","","","null","","","","","","","","",""
"null","<img src=""stim_listA/hug3.gif""style=""height:400px;""></stim_listA>","","html-keyboard-response","296","1175457","0.0-17.0-1.12","90962","List2A","black","woman","","","","null","","","","","","","","",""
"null","is hugging","","html-keyboard-response","297","1177464","0.0-17.0-2.12","90962","List2A","black","woman","","","","null","","","","","","","","",""
"4906.29999999702","","","survey-text","298","1182375","0.0-17.0-3.12","90962","List2A","black","woman","","","","","{""Q0"":""beth is hugging fred""}","<img src=""stim_listA/hug3.gif""style=""height:400px;""></stim_listA>","is hugging","","","","","",""
"null","<div style=""font-size:60px;"">+</div>","","html-keyboard-response","299","1182878","0.0-17.0-0.13","90962","List2A","black","woman","","","","null","","","","","","","","",""
"null","<img src=""stim_listA/touch6.gif""style=""height:400px;""></stim_listA>","","html-keyboard-response","300","1184884","0.0-17.0-1.13","90962","List2A","black","woman","","","","null","","","","","","","","",""
"null","is being touched by","","html-keyboard-response","301","1186889","0.0-17.0-2.13","90962","List2A","black","woman","","","","null","","","","","","","","",""
"4637.60000000149","","","survey-text","302","1191532","0.0-17.0-3.13","90962","List2A","black","woman","","","","","{""Q0"":""fred is being touched by luke""}","<img src=""stim_listA/touch6.gif""style=""height:400px;""></stim_listA>","is being touched by","","","","","",""
"null","<div style=""font-size:60px;"">+</div>","","html-keyboard-response","303","1192035","0.0-17.0-0.14","90962","List2A","black","woman","","","","null","","","","","","","","",""
"null","<img src=""stim_listA/oppose5.gif""style=""height:400px;""></stim_listA>","","html-keyboard-response","304","1194038","0.0-17.0-1.14","90962","List2A","black","woman","","","","null","","","","","","","","",""
"null","is opposing","","html-keyboard-response","305","1196040","0.0-17.0-2.14","90962","List2A","black","woman","","","","null","","","","","","","","",""
"3209.1999999955297","","","survey-text","306","1199254","0.0-17.0-3.14","90962","List2A","black","woman","","","","","{""Q0"":""dave is opposing mike""}","<img src=""stim_listA/oppose5.gif""style=""height:400px;""></stim_listA>","is opposing","","","","","",""
"null","<div style=""font-size:60px;"">+</div>","","html-keyboard-response","307","1199756","0.0-17.0-0.15","90962","List2A","black","woman","","","","null","","","","","","","","",""
"null","<img src=""stim_listA/copy2.gif""style=""height:400px;""></stim_listA>","","html-keyboard-response","308","1201763","0.0-17.0-1.15","90962","List2A","black","woman","","","","null","","","","","","","","",""
"null","is being copied by","","html-keyboard-response","309","1203766","0.0-17.0-2.15","90962","List2A","black","woman","","","","null","","","","","","","","",""
"8962.5","","","survey-text","310","1212733","0.0-17.0-3.15","90962","List2A","black","woman","","","","","{""Q0"":""jane is being copied by luke""}","<img src=""stim_listA/copy2.gif""style=""height:400px;""></stim_listA>","is being copied by","","","","","",""
"null","<div style=""font-size:60px;"">+</div>","","html-keyboard-response","311","1213234","0.0-17.0-0.16","90962","List2A","black","woman","","","","null","","","","","","","","",""
"null","<img src=""stim_listA/look2.gif""style=""height:400px;""></stim_listA>","","html-keyboard-response","312","1215237","0.0-17.0-1.16","90962","List2A","black","woman","","","","null","","","","","","","","",""
"null","is being looked at by","","html-keyboard-response","313","1217238","0.0-17.0-2.16","90962","List2A","black","woman","","","","null","","","","","","","","",""
"8120.89999999851","","","survey-text","314","1225363","0.0-17.0-3.16","90962","List2A","black","woman","","","","","{""Q0"":""jane is being looked at by dave""}","<img src=""stim_listA/look2.gif""style=""height:400px;""></stim_listA>","is being looked at by","","","","","",""
"null","<div style=""font-size:60px;"">+</div>","","html-keyboard-response","315","1225865","0.0-17.0-0.17","90962","List2A","black","woman","","","","null","","","","","","","","",""
"null","<img src=""stim_listA/seduce5.gif""style=""height:400px;""></stim_listA>","","html-keyboard-response","316","1227870","0.0-17.0-1.17","90962","List2A","black","woman","","","","null","","","","","","","","",""
"null","is seducing","","html-keyboard-response","317","1229876","0.0-17.0-2.17","90962","List2A","black","woman","","","","null","","","","","","","","",""
"6658.80000000447","","","survey-text","318","1236539","0.0-17.0-3.17","90962","List2A","black","woman","","","","","{""Q0"":""luke is seducing mike""}","<img src=""stim_listA/seduce5.gif""style=""height:400px;""></stim_listA>","is seducing","","","","","",""
"null","<div style=""font-size:60px;"">+</div>","","html-keyboard-response","319","1237041","0.0-17.0-0.18","90962","List2A","black","woman","","","","null","","","","","","","","",""
"null","<img src=""stim_listA/oppose7.gif""style=""height:400px;""></stim_listA>","","html-keyboard-response","320","1239045","0.0-17.0-1.18","90962","List2A","black","woman","","","","null","","","","","","","","",""
"null","is opposing","","html-keyboard-response","321","1241049","0.0-17.0-2.18","90962","List2A","black","woman","","","","null","","","","","","","","",""
"7053.5","","","survey-text","322","1248107","0.0-17.0-3.18","90962","List2A","black","woman","","","","","{""Q0"":""jane is opposing kate""}","<img src=""stim_listA/oppose7.gif""style=""height:400px;""></stim_listA>","is opposing","","","","","",""
"null","<div style=""font-size:60px;"">+</div>","","html-keyboard-response","323","1248608","0.0-17.0-0.19","90962","List2A","black","woman","","","","null","","","","","","","","",""
"null","<img src=""stim_listA/seduce6.gif""style=""height:400px;""></stim_listA>","","html-keyboard-response","324","1250611","0.0-17.0-1.19","90962","List2A","black","woman","","","","null","","","","","","","","",""
"null","is being seduced by","","html-keyboard-response","325","1252612","0.0-17.0-2.19","90962","List2A","black","woman","","","","null","","","","","","","","",""
"7947.60000000149","","","survey-text","326","1260565","0.0-17.0-3.19","90962","List2A","black","woman","","","","","{""Q0"":""dave is being opposed by fred""}","<img src=""stim_listA/seduce6.gif""style=""height:400px;""></stim_listA>","is being seduced by","","","","","",""
"4052.0999999940395","<img src='img/portrait_matrix_list2.jpg' style='width:900px;height:500px;''></img><p>If you have memorised all the portraits and names and are ready to start, press Continue.</p><p><strong>Please note: Your memory of these faces will be tested 4 times during this experiment.</strong></p>","0","html-button-response","327","1264619","0.0-18.0-0.0","90962","List2A","black","woman","","","","","","","","","","","","",""
"1280.6000000014901","<img src=""portrait/BM2.jpg""style=""height:400px;""></img>","5","html-button-response","328","1266903","0.0-18.0-1.0","90962","List2A","black","woman","","true","5","","","","","","","","","",""
"null","CORRECT","","html-keyboard-response","329","1268406","0.0-18.0-2.0-0.0","90962","List2A","black","woman","","","","null","","","","","","","","",""
"1286.3999999985099","<img src=""portrait/WM2.jpg""style=""height:400px;""></img>","7","html-button-response","330","1269695","0.0-18.0-4.0","90962","List2A","black","woman","","true","7","","","","","","","","","",""
"null","CORRECT","","html-keyboard-response","331","1271197","0.0-18.0-5.0-0.0","90962","List2A","black","woman","","","","null","","","","","","","","",""
"2008","<img src=""portrait/BM1.jpg""style=""height:400px;""></img>","4","html-button-response","332","1273207","0.0-18.0-7.0","90962","List2A","black","woman","","true","4","","","","","","","","","",""
"null","CORRECT","","html-keyboard-response","333","1274714","0.0-18.0-8.0-0.0","90962","List2A","black","woman","","","","null","","","","","","","","",""
"1987.2000000029802","<img src=""portrait/WM1.jpg""style=""height:400px;""></img>","6","html-button-response","334","1276703","0.0-18.0-10.0","90962","List2A","black","woman","","true","6","","","","","","","","","",""
"null","CORRECT","","html-keyboard-response","335","1278211","0.0-18.0-11.0-0.0","90962","List2A","black","woman","","","","null","","","","","","","","",""
"1509.2999999970198","<img src=""portrait/BW1.jpg""style=""height:400px;""></img>","0","html-button-response","336","1279723","0.0-18.0-13.0","90962","List2A","black","woman","","true","0","","","","","","","","","",""
"null","CORRECT","","html-keyboard-response","337","1281227","0.0-18.0-14.0-0.0","90962","List2A","black","woman","","","","null","","","","","","","","",""
"1204.2999999970198","<img src=""portrait/WW2.jpg""style=""height:400px;""></img>","3","html-button-response","338","1282434","0.0-18.0-16.0","90962","List2A","black","woman","","true","3","","","","","","","","","",""
"null","CORRECT","","html-keyboard-response","339","1283937","0.0-18.0-17.0-0.0","90962","List2A","black","woman","","","","null","","","","","","","","",""
"1212.5","<img src=""portrait/BW2.jpg""style=""height:400px;""></img>","2","html-button-response","340","1285152","0.0-18.0-19.0","90962","List2A","black","woman","","true","2","","","","","","","","","",""
"null","CORRECT","","html-keyboard-response","341","1286660","0.0-18.0-20.0-0.0","90962","List2A","black","woman","","","","null","","","","","","","","",""
"1201.5","<img src=""portrait/WW1.jpg""style=""height:400px;""></img>","1","html-button-response","342","1287864","0.0-18.0-22.0","90962","List2A","black","woman","","true","1","","","","","","","","","",""
"null","CORRECT","","html-keyboard-response","343","1289376","0.0-18.0-23.0-0.0","90962","List2A","black","woman","","","","null","","","","","","","","",""
"3988.10000000149","<p>You got 8 out of 8 right first time. Press Continue.</p>","0","html-button-response","344","1293367","0.0-18.0-25.0","90962","List2A","black","woman","","","","","","","","","","","","",""
"null","<div style=""font-size:60px;"">+</div>","","html-keyboard-response","345","1294873","0.0-19.0-0.0","90962","List2A","black","woman","","","","null","","","","","","","","",""
"null","<img src=""stim_listA/kiss2.gif""style=""height:400px;""></stim_listA>","","html-keyboard-response","346","1296876","0.0-19.0-1.0","90962","List2A","black","woman","","","","null","","","","","","","","",""
"null","is being kissed by","","html-keyboard-response","347","1298883","0.0-19.0-2.0","90962","List2A","black","woman","","","","null","","","","","","","","",""
"4719.5","","","survey-text","348","1303607","0.0-19.0-3.0","90962","List2A","black","woman","","","","","{""Q0"":""jane is being kissed by dave""}","<img src=""stim_listA/kiss2.gif""style=""height:400px;""></stim_listA>","is being kissed by","","","","","",""
"null","<div style=""font-size:60px;"">+</div>","","html-keyboard-response","349","1304109","0.0-19.0-0.1","90962","List2A","black","woman","","","","null","","","","","","","","",""
"null","<img src=""stim_listA/seduce1.gif""style=""height:400px;""></stim_listA>","","html-keyboard-response","350","1306117","0.0-19.0-1.1","90962","List2A","black","woman","","","","null","","","","","","","","",""
"null","is seducing","","html-keyboard-response","351","1308124","0.0-19.0-2.1","90962","List2A","black","woman","","","","null","","","","","","","","",""
"3775.89999999851","","","survey-text","352","1311905","0.0-19.0-3.1","90962","List2A","black","woman","","","","","{""Q0"":""luke is seducing jane""}","<img src=""stim_listA/seduce1.gif""style=""height:400px;""></stim_listA>","is seducing","","","","","",""
"null","<div style=""font-size:60px;"">+</div>","","html-keyboard-response","353","1312407","0.0-19.0-0.2","90962","List2A","black","woman","","","","null","","","","","","","","",""
"null","<img src=""stim_listA/oppose1.gif""style=""height:400px;""></stim_listA>","","html-keyboard-response","354","1314412","0.0-19.0-1.2","90962","List2A","black","woman","","","","null","","","","","","","","",""
"null","is opposing","","html-keyboard-response","355","1316418","0.0-19.0-2.2","90962","List2A","black","woman","","","","null","","","","","","","","",""
"5019.39999999851","","","survey-text","356","1321442","0.0-19.0-3.2","90962","List2A","black","woman","","","","","{""Q0"":""jane is opposing dave""}","<img src=""stim_listA/oppose1.gif""style=""height:400px;""></stim_listA>","is opposing","","","","","",""
"null","<div style=""font-size:60px;"">+</div>","","html-keyboard-response","357","1321944","0.0-19.0-0.3","90962","List2A","black","woman","","","","null","","","","","","","","",""
"null","<img src=""stim_listA/look7.gif""style=""height:400px;""></stim_listA>","","html-keyboard-response","358","1323951","0.0-19.0-1.3","90962","List2A","black","woman","","","","null","","","","","","","","",""
"null","is looking at","","html-keyboard-response","359","1325955","0.0-19.0-2.3","90962","List2A","black","woman","","","","null","","","","","","","","",""
"3638.39999999851","","","survey-text","360","1329599","0.0-19.0-3.3","90962","List2A","black","woman","","","","","{""Q0"":""beth is looking at ruth""}","<img src=""stim_listA/look7.gif""style=""height:400px;""></stim_listA>","is looking at","","","","","",""
"null","<div style=""font-size:60px;"">+</div>","","html-keyboard-response","361","1330101","0.0-19.0-0.4","90962","List2A","black","woman","","","","null","","","","","","","","",""
"null","<img src=""stim_listA/hug5.gif""style=""height:400px;""></stim_listA>","","html-keyboard-response","362","1332108","0.0-19.0-1.4","90962","List2A","black","woman","","","","null","","","","","","","","",""
"null","is hugging","","html-keyboard-response","363","1334112","0.0-19.0-2.4","90962","List2A","black","woman","","","","null","","","","","","","","",""
"3190.4000000059605","","","survey-text","364","1337308","0.0-19.0-3.4","90962","List2A","black","woman","","","","","{""Q0"":""luke is hugging fred""}","<img src=""stim_listA/hug5.gif""style=""height:400px;""></stim_listA>","is hugging","","","","","",""
"null","<div style=""font-size:60px;"">+</div>","","html-keyboard-response","365","1337811","0.0-19.0-0.5","90962","List2A","black","woman","","","","null","","","","","","","","",""
"null","<img src=""stim_listA/challenge8.gif""style=""height:400px;""></stim_listA>","","html-keyboard-response","366","1339816","0.0-19.0-1.5","90962","List2A","black","woman","","","","null","","","","","","","","",""
"null","is being challenged by","","html-keyboard-response","367","1341819","0.0-19.0-2.5","90962","List2A","black","woman","","","","null","","","","","","","","",""
"4706.39999999851","","","survey-text","368","1346530","0.0-19.0-3.5","90962","List2A","black","woman","","","","","{""Q0"":""kate is being challenged by ruth""}","<img src=""stim_listA/challenge8.gif""style=""height:400px;""></stim_listA>","is being challenged by","","","","","",""
"null","<div style=""font-size:60px;"">+</div>","","html-keyboard-response","369","1347032","0.0-19.0-0.6","90962","List2A","black","woman","","","","null","","","","","","","","",""
"null","<img src=""stim_listA/challenge5.gif""style=""height:400px;""></stim_listA>","","html-keyboard-response","370","1349034","0.0-19.0-1.6","90962","List2A","black","woman","","","","null","","","","","","","","",""
"null","is challenging","","html-keyboard-response","371","1351036","0.0-19.0-2.6","90962","List2A","black","woman","","","","null","","","","","","","","",""
"3651.10000000149","","","survey-text","372","1354690","0.0-19.0-3.6","90962","List2A","black","woman","","","","","{""Q0"":""dave is challenging fred""}","<img src=""stim_listA/challenge5.gif""style=""height:400px;""></stim_listA>","is challenging","","","","","",""
"null","<div style=""font-size:60px;"">+</div>","","html-keyboard-response","373","1355193","0.0-19.0-0.7","90962","List2A","black","woman","","","","null","","","","","","","","",""
"null","<img src=""stim_listA/shout8.gif""style=""height:400px;""></stim_listA>","","html-keyboard-response","374","1357197","0.0-19.0-1.7","90962","List2A","black","woman","","","","null","","","","","","","","",""
"null","is being shouted at by","","html-keyboard-response","375","1359198","0.0-19.0-2.7","90962","List2A","black","woman","","","","null","","","","","","","","",""
"9136.30000000447","","","survey-text","376","1368340","0.0-19.0-3.7","90962","List2A","black","woman","","","","","{""Q0"":""kate is being shouted at by jane""}","<img src=""stim_listA/shout8.gif""style=""height:400px;""></stim_listA>","is being shouted at by","","","","","",""
"null","<div style=""font-size:60px;"">+</div>","","html-keyboard-response","377","1368841","0.0-19.0-0.8","90962","List2A","black","woman","","","","null","","","","","","","","",""
"null","<img src=""stim_listA/shout3.gif""style=""height:400px;""></stim_listA>","","html-keyboard-response","378","1370845","0.0-19.0-1.8","90962","List2A","black","woman","","","","null","","","","","","","","",""
"null","is shouting at","","html-keyboard-response","379","1372845","0.0-19.0-2.8","90962","List2A","black","woman","","","","null","","","","","","","","",""
"4061","","","survey-text","380","1376909","0.0-19.0-3.8","90962","List2A","black","woman","","","","","{""Q0"":""beth is shouting at fred""}","<img src=""stim_listA/shout3.gif""style=""height:400px;""></stim_listA>","is shouting at","","","","","",""
"null","<div style=""font-size:60px;"">+</div>","","html-keyboard-response","381","1377411","0.0-19.0-0.9","90962","List2A","black","woman","","","","null","","","","","","","","",""
"null","<img src=""stim_listA/touch8.gif""style=""height:400px;""></stim_listA>","","html-keyboard-response","382","1379418","0.0-19.0-1.9","90962","List2A","black","woman","","","","null","","","","","","","","",""
"null","is being touched by","","html-keyboard-response","383","1381422","0.0-19.0-2.9","90962","List2A","black","woman","","","","null","","","","","","","","",""
"7858.79999999702","","","survey-text","384","1389285","0.0-19.0-3.9","90962","List2A","black","woman","","","","","{""Q0"":""beth is being touched at by ruth""}","<img src=""stim_listA/touch8.gif""style=""height:400px;""></stim_listA>","is being touched by","","","","","",""
"null","<div style=""font-size:60px;"">+</div>","","html-keyboard-response","385","1389788","0.0-19.0-0.10","90962","List2A","black","woman","","","","null","","","","","","","","",""
"null","<img src=""stim_listA/greet4.gif""style=""height:400px;""></stim_listA>","","html-keyboard-response","386","1391795","0.0-19.0-1.10","90962","List2A","black","woman","","","","null","","","","","","","","",""
"null","is being greeted by","","html-keyboard-response","387","1393799","0.0-19.0-2.10","90962","List2A","black","woman","","","","null","","","","","","","","",""
"9004.60000000149","","","survey-text","388","1402808","0.0-19.0-3.10","90962","List2A","black","woman","","","","","{""Q0"":""kate is being greeted at by fred""}","<img src=""stim_listA/greet4.gif""style=""height:400px;""></stim_listA>","is being greeted by","","","","","",""
"null","<div style=""font-size:60px;"">+</div>","","html-keyboard-response","389","1403311","0.0-19.0-0.11","90962","List2A","black","woman","","","","null","","","","","","","","",""
"null","<img src=""stim_listA/seduce8.gif""style=""height:400px;""></stim_listA>","","html-keyboard-response","390","1405316","0.0-19.0-1.11","90962","List2A","black","woman","","","","null","","","","","","","","",""
"null","is being seduced by","","html-keyboard-response","391","1407317","0.0-19.0-2.11","90962","List2A","black","woman","","","","null","","","","","","","","",""
"6148.29999999702","","","survey-text","392","1413471","0.0-19.0-3.11","90962","List2A","black","woman","","","","","{""Q0"":""beth is being seduced by jane""}","<img src=""stim_listA/seduce8.gif""style=""height:400px;""></stim_listA>","is being seduced by","","","","","",""
"null","<div style=""font-size:60px;"">+</div>","","html-keyboard-response","393","1413974","0.0-19.0-0.12","90962","List2A","black","woman","","","","null","","","","","","","","",""
"null","<img src=""stim_listA/look6.gif""style=""height:400px;""></stim_listA>","","html-keyboard-response","394","1415980","0.0-19.0-1.12","90962","List2A","black","woman","","","","null","","","","","","","","",""
"null","is being looked at by","","html-keyboard-response","395","1417983","0.0-19.0-2.12","90962","List2A","black","woman","","","","null","","","","","","","","",""
"5224","","","survey-text","396","1423212","0.0-19.0-3.12","90962","List2A","black","woman","","","","","{""Q0"":""mike is being looked at by dave""}","<img src=""stim_listA/look6.gif""style=""height:400px;""></stim_listA>","is being looked at by","","","","","",""
"null","<div style=""font-size:60px;"">+</div>","","html-keyboard-response","397","1423714","0.0-19.0-0.13","90962","List2A","black","woman","","","","null","","","","","","","","",""
"null","<img src=""stim_listA/oppose4.gif""style=""height:400px;""></stim_listA>","","html-keyboard-response","398","1425717","0.0-19.0-1.13","90962","List2A","black","woman","","","","null","","","","","","","","",""
"null","is being opposed by","","html-keyboard-response","399","1427720","0.0-19.0-2.13","90962","List2A","black","woman","","","","null","","","","","","","","",""
"5736.80000000447","","","survey-text","400","1433462","0.0-19.0-3.13","90962","List2A","black","woman","","","","","{""Q0"":""fred is being opposed by beth""}","<img src=""stim_listA/oppose4.gif""style=""height:400px;""></stim_listA>","is being opposed by","","","","","",""
"null","<div style=""font-size:60px;"">+</div>","","html-keyboard-response","401","1433965","0.0-19.0-0.14","90962","List2A","black","woman","","","","null","","","","","","","","",""
"null","<img src=""stim_listA/copy8.gif""style=""height:400px;""></stim_listA>","","html-keyboard-response","402","1435970","0.0-19.0-1.14","90962","List2A","black","woman","","","","null","","","","","","","","",""
"null","is being copied by","","html-keyboard-response","403","1437972","0.0-19.0-2.14","90962","List2A","black","woman","","","","null","","","","","","","","",""
"5364","","","survey-text","404","1443340","0.0-19.0-3.14","90962","List2A","black","woman","","","","","{""Q0"":""kate is being copied by ruth""}","<img src=""stim_listA/copy8.gif""style=""height:400px;""></stim_listA>","is being copied by","","","","","",""
"null","<div style=""font-size:60px;"">+</div>","","html-keyboard-response","405","1443842","0.0-19.0-0.15","90962","List2A","black","woman","","","","null","","","","","","","","",""
"null","<img src=""stim_listA/touch3.gif""style=""height:400px;""></stim_listA>","","html-keyboard-response","406","1445848","0.0-19.0-1.15","90962","List2A","black","woman","","","","null","","","","","","","","",""
"null","is touching","","html-keyboard-response","407","1447853","0.0-19.0-2.15","90962","List2A","black","woman","","","","null","","","","","","","","",""
"3089.5","","","survey-text","408","1450947","0.0-19.0-3.15","90962","List2A","black","woman","","","","","{""Q0"":""kate is touching mike""}","<img src=""stim_listA/touch3.gif""style=""height:400px;""></stim_listA>","is touching","","","","","",""
"null","<div style=""font-size:60px;"">+</div>","","html-keyboard-response","409","1451449","0.0-19.0-0.16","90962","List2A","black","woman","","","","null","","","","","","","","",""
"null","<img src=""stim_listA/seduce4.gif""style=""height:400px;""></stim_listA>","","html-keyboard-response","410","1453455","0.0-19.0-1.16","90962","List2A","black","woman","","","","null","","","","","","","","",""
"null","is being seduced by","","html-keyboard-response","411","1455462","0.0-19.0-2.16","90962","List2A","black","woman","","","","null","","","","","","","","",""
"7941.70000000298","","","survey-text","412","1463409","0.0-19.0-3.16","90962","List2A","black","woman","","","","","{""Q0"":""mike is being seduced by beth""}","<img src=""stim_listA/seduce4.gif""style=""height:400px;""></stim_listA>","is being seduced by","","","","","",""
"null","<div style=""font-size:60px;"">+</div>","","html-keyboard-response","413","1463911","0.0-19.0-0.17","90962","List2A","black","woman","","","","null","","","","","","","","",""
"null","<img src=""stim_listA/challenge3.gif""style=""height:400px;""></stim_listA>","","html-keyboard-response","414","1465918","0.0-19.0-1.17","90962","List2A","black","woman","","","","null","","","","","","","","",""
"null","is challenging","","html-keyboard-response","415","1467924","0.0-19.0-2.17","90962","List2A","black","woman","","","","null","","","","","","","","",""
"13037.5","","","survey-text","416","1480966","0.0-19.0-3.17","90962","List2A","black","woman","","","","","{""Q0"":""mike is challenging beth""}","<img src=""stim_listA/challenge3.gif""style=""height:400px;""></stim_listA>","is challenging","","","","","",""
"null","<div style=""font-size:60px;"">+</div>","","html-keyboard-response","417","1481468","0.0-19.0-0.18","90962","List2A","black","woman","","","","null","","","","","","","","",""
"null","<img src=""stim_listA/shout4.gif""style=""height:400px;""></stim_listA>","","html-keyboard-response","418","1483470","0.0-19.0-1.18","90962","List2A","black","woman","","","","null","","","","","","","","",""
"null","is being shouted at by","","html-keyboard-response","419","1485474","0.0-19.0-2.18","90962","List2A","black","woman","","","","null","","","","","","","","",""
"9574.5","","","survey-text","420","1495053","0.0-19.0-3.18","90962","List2A","black","woman","","","","","{""Q0"":""kate is being shouted at by mike""}","<img src=""stim_listA/shout4.gif""style=""height:400px;""></stim_listA>","is being shouted at by","","","","","",""
"null","<div style=""font-size:60px;"">+</div>","","html-keyboard-response","421","1495555","0.0-19.0-0.19","90962","List2A","black","woman","","","","null","","","","","","","","",""
"null","<img src=""stim_listA/touch5.gif""style=""height:400px;""></stim_listA>","","html-keyboard-response","422","1497559","0.0-19.0-1.19","90962","List2A","black","woman","","","","null","","","","","","","","",""
"null","is touching","","html-keyboard-response","423","1499564","0.0-19.0-2.19","90962","List2A","black","woman","","","","null","","","","","","","","",""
"3781.9000000059605","","","survey-text","424","1503350","0.0-19.0-3.19","90962","List2A","black","woman","","","","","{""Q0"":""dave is touching mike""}","<img src=""stim_listA/touch5.gif""style=""height:400px;""></stim_listA>","is touching","","","","","",""
"2535.60000000149","<p>Thank you for completing that task.</p><p>The final part of this session is a questionnaire that will take about 4 minutes.</p><p>Press Continue.</p>","0","html-button-response","425","1505888","0.0-20.0","90962","List2A","black","woman","","","","","","","","","","","","",""
"35177.20000000298","","","survey-text","426","1542079","0.0-21.0","90962","List2A","black","woman","","","","","{""Q0"":""30"",""Q1"":""english"",""Q2"":""english"",""Q3"":""USA"",""Q4"":""american"",""Q5"":""black"",""Q6"":""female""}","","","demographics","","","","",""
"1513.3000000044703","<p>Have you lived in the USA for the last 5 years or more?</p>","0","html-button-response","427","1543595","0.0-22.0","90962","List2A","black","woman","","","","","","","","fiveyears","","","","",""
"1790.6999999955297","<p>Move the slider to show the extent to which you agree with the following statements.</p>","0","html-button-response","428","1546389","0.0-23.0","90962","List2A","black","woman","","","","","","","","","","","","",""
"3845.10000000149","","","html-slider-response","429","1551241","0.0-24.0-0.0-0.0","90962","List2A","black","woman","","","","","","","","survey_gender","65","","","Being my gender is an important part of how I see myself.","important"
"9081.69999999553","","","html-slider-response","430","1560325","0.0-24.0-0.0-0.1","90962","List2A","black","woman","","","","","","","","survey_gender","59","","","People of my gender are very similar to each other.","verysimilar"
"3185.7000000029802","","","html-slider-response","431","1563514","0.0-24.0-0.0-0.2","90962","List2A","black","woman","","","","","","","","survey_gender","88","","","I often think about my actions.","filler"
"2716.60000000149","","","html-slider-response","432","1566233","0.0-24.0-0.0-0.3","90962","List2A","black","woman","","","","","","","","survey_gender","65","","","I feel solidarity with my gender.","solidarity"
"2562.3000000044703","","","html-slider-response","433","1568798","0.0-24.0-0.0-0.4","90962","List2A","black","woman","","","","","","","","survey_gender","87","","","I am glad to be my gender.","glad"
"2793.7000000029802","","","html-slider-response","434","1571595","0.0-24.0-0.0-0.5","90962","List2A","black","woman","","","","","","","","survey_gender","81","","","I am similar to the average person of my gender.","similar"
"2881.7000000029802","","","html-slider-response","435","1574479","0.0-24.0-0.0-0.6","90962","List2A","black","woman","","","","","","","","survey_gender","65","","","My friends understand me.","filler"
"2740.5","","","html-slider-response","436","1577222","0.0-24.0-0.0-0.7","90962","List2A","black","woman","","","","","","","","survey_gender","74","","","Being around my friends gives me a good feeling.","filler"
"2952.0999999940395","","","html-slider-response","437","1580176","0.0-24.0-0.0-0.8","90962","List2A","black","woman","","","","","","","","survey_gender","91","","","I consider myself a highly empathetic person.","filler"
"3776.89999999851","","","html-slider-response","438","1583955","0.0-24.0-0.0-0.9","90962","List2A","black","woman","","","","","","","","survey_gender","84","","","Being my gender gives me a good feeling.","feeling"
"2667.10000000149","","","html-slider-response","439","1586626","0.0-24.0-0.0-0.10","90962","List2A","black","woman","","","","","","","","survey_gender","83","","","Most of the friends in my life are very similar to me.","filler"
"2598.39999999851","","","html-slider-response","440","1589227","0.0-24.0-0.0-0.11","90962","List2A","black","woman","","","","","","","","survey_gender","35","","","I feel committed to my gender.","committed"
"3206.1999999955297","","","html-slider-response","441","1592436","0.0-24.0-0.0-0.12","90962","List2A","black","woman","","","","","","","","survey_gender","12","","","I would say I am an animal person.","filler"
"2650.6999999955297","","","html-slider-response","442","1595089","0.0-24.0-0.0-0.13","90962","List2A","black","woman","","","","","","","","survey_gender","71","","","It is pleasant to be my gender.","pleasant"
"2733.1999999955297","","","html-slider-response","443","1597825","0.0-24.0-0.0-0.14","90962","List2A","black","woman","","","","","","","","survey_gender","61","","","I think that my gender has a lot to be proud of.","proud"
"3667.7000000029802","","","html-slider-response","444","1601495","0.0-24.0-0.0-0.15","90962","List2A","black","woman","","","","","","","","survey_gender","16","","","Family is not more important to me than friendship.","filler"
"3012.2000000029802","","","html-slider-response","445","1604509","0.0-24.0-0.0-0.16","90962","List2A","black","woman","","","","","","","","survey_gender","21","","","I often think about the fact that I am my gender.","often"
"2408.60000000149","","","html-slider-response","446","1606921","0.0-24.0-0.0-0.17","90962","List2A","black","woman","","","","","","","","survey_gender","18","","","I feel a bond with my gender.","bond"
"2773.10000000149","","","html-slider-response","447","1609696","0.0-24.0-0.0-0.18","90962","List2A","black","woman","","","","","","","","survey_gender","73","","","People of my gender have a lot in common with each other.","common"
"2740.60000000149","","","html-slider-response","448","1612438","0.0-24.0-0.0-0.19","90962","List2A","black","woman","","","","","","","","survey_gender","7","","","Routine is not important to me.","filler"
"2652.10000000149","","","html-slider-response","449","1615093","0.0-24.0-0.0-0.20","90962","List2A","black","woman","","","","","","","","survey_gender","73","","","I have a lot in common with the average person of my gender.","average"
"2976.10000000149","","","html-slider-response","450","1618072","0.0-24.0-0.0-0.21","90962","List2A","black","woman","","","","","","","","survey_gender","77","","","I have a lot in common with my friends.","filler"
"3198.60000000149","","","html-slider-response","451","1621272","0.0-24.0-0.0-0.22","90962","List2A","black","woman","","","","","","","","survey_gender","61","","","The fact that I am my gender is an important part of my identity.","identity"
"3140.60000000149","","","html-slider-response","452","1624415","0.0-24.0-0.0-0.23","90962","List2A","black","woman","","","","","","","","survey_gender","70","","","I feel a bond with my friends.","filler"
"2351.60000000149","","","html-slider-response","453","1626770","0.0-24.0-0.0-0.24","90962","List2A","black","woman","","","","","","","","survey_gender","74","","","My friends have a lot in common with each other.","filler"
"2441.2000000029802","","","html-slider-response","454","1629214","0.0-24.0-0.0-0.25","90962","List2A","black","woman","","","","","","","","survey_gender","75","","","I am glad to have the friends that I have.","filler"
"3291","","","html-slider-response","455","1632507","0.0-24.0-0.0-0.26","90962","List2A","black","woman","","","","","","","","survey_gender","71","","","It is not always easy for people to know what I am thinking.","filler"
"3282.2999999970198","","","html-slider-response","456","1635792","0.0-24.0-0.0-0.27","90962","List2A","black","woman","","","","","","","","survey_gender","80","","","I feel solidarity with my friends.","filler"
"2563","","","html-slider-response","457","1638357","0.0-24.0-1.0-0.0","90962","List2A","black","woman","","","","","","","","survey_race","84","","","I have a lot in common with people of a similar age to me.","filler"
"3126","","","html-slider-response","458","1641485","0.0-24.0-1.0-0.1","90962","List2A","black","woman","","","","","","","","survey_race","80","","","I am similar to the average person of my race.","similar"
"13158.19999999553","","","html-slider-response","459","1654646","0.0-24.0-1.0-0.2","90962","List2A","black","woman","","","","","","","","survey_race","88","","","I feel a bond with my race.","bond"
"3931.5","","","html-slider-response","460","1658580","0.0-24.0-1.0-0.3","90962","List2A","black","woman","","","","","","","","survey_race","95","","","My age is not an important part of who I am.","filler"
"2312.2000000029802","","","html-slider-response","461","1660894","0.0-24.0-1.0-0.4","90962","List2A","black","woman","","","","","","","","survey_race","63","","","I feel solidarity with people the same age as me.","filler"
"2336.2999999970198","","","html-slider-response","462","1663234","0.0-24.0-1.0-0.5","90962","List2A","black","woman","","","","","","","","survey_race","100","","","I am glad to be my race.","glad"
"4092.3000000044703","","","html-slider-response","463","1667328","0.0-24.0-1.0-0.6","90962","List2A","black","woman","","","","","","","","survey_race","73","","","People my age have a lot in common with each other.","filler"
"2610.89999999851","","","html-slider-response","464","1669942","0.0-24.0-1.0-0.7","90962","List2A","black","woman","","","","","","","","survey_race","100","","","I consider myself an introvert.","filler"
"2455.3000000044703","","","html-slider-response","465","1672400","0.0-24.0-1.0-0.8","90962","List2A","black","woman","","","","","","","","survey_race","75","","","I feel a bond with people the same age as me.","filler"
"2702.60000000149","","","html-slider-response","466","1675106","0.0-24.0-1.0-0.9","90962","List2A","black","woman","","","","","","","","survey_race","71","","","I feel committed to my race.","committed"
"3003.89999999851","","","html-slider-response","467","1678113","0.0-24.0-1.0-0.10","90962","List2A","black","woman","","","","","","","","survey_race","59","","","I feel solidarity with my race.","solidarity"
"3246.39999999851","","","html-slider-response","468","1681361","0.0-24.0-1.0-0.11","90962","List2A","black","woman","","","","","","","","survey_race","69","","","I am glad to be the age I am.","filler"
"2546.2000000029802","","","html-slider-response","469","1683909","0.0-24.0-1.0-0.12","90962","List2A","black","woman","","","","","","","","survey_race","19","","","I enjoy being in large groups.","filler"
"2806.3000000044703","","","html-slider-response","470","1686718","0.0-24.0-1.0-0.13","90962","List2A","black","woman","","","","","","","","survey_race","16","","","I often think about the fact that I am my age.","filler"
"2480.7999999970198","","","html-slider-response","471","1689202","0.0-24.0-1.0-0.14","90962","List2A","black","woman","","","","","","","","survey_race","7","","","I consider myself an extrovert.","filler"
"2174.5999999940395","","","html-slider-response","472","1691379","0.0-24.0-1.0-0.15","90962","List2A","black","woman","","","","","","","","survey_race","72","","","Being my age gives me a good feeling.","filler"
"2433.7000000029802","","","html-slider-response","473","1693815","0.0-24.0-1.0-0.16","90962","List2A","black","woman","","","","","","","","survey_race","80","","","The fact that I am my race is an important part of my identity.","identity"
"2570.89999999851","","","html-slider-response","474","1696388","0.0-24.0-1.0-0.17","90962","List2A","black","woman","","","","","","","","survey_race","14","","","I often think about the fact that I am my race.","often"
"3704.1999999955297","","","html-slider-response","475","1700095","0.0-24.0-1.0-0.18","90962","List2A","black","woman","","","","","","","","survey_race","24","","","People of my race have a lot in common with each other.","common"
