"rt","stimulus","button_pressed","trial_type","trial_index","time_elapsed","internal_node_id","subject","list","ppt_race","ppt_gender","url","first_guess","correct","key_press","responses","image_type","phrase_type","test_part","response","stimulus1","stimulus2","question_type","survey_item"
"2039.7000000178814","Welcome to the experiment. Press Continue to begin.","0","html-button-response","0","2042","0.0-0.0","90969","List1B","white","man","","","","","","","","","","","","",""
"75932.89999997616","","","external-html","1","79154","0.0-1.0","90969","List1B","white","man","consent.html","","","","","","","","","","","",""
"15865.800000011921","<p>On the next page, you will see portraits of 8 people and their names.</p><p>Your first task is to take a few minutes to memorise the names of these people.</p><p>You will have to recall their names during the rest of the experiment, so it is</p><p>essential that you try to memorise these people and their names as best as you can.</p><br><p><strong>You will then be tested on your memory of these names and portraits.</strong></p><br><p>The experiment will start after you have completed this memory test.</p><br><p>Ready?</p>","0","html-button-response","2","95021","0.0-2.0","90969","List1B","white","man","","","","","","","","","","","","",""
"120018","<img src='img/portrait_matrix_list1.jpg' style='width:900px;height:500px;''></img><p>If you have memorised all the portraits and names and are ready to start, press Continue.</p><p><strong>Please note: Your memory of these faces will be tested 4 times during this experiment.</strong></p>","0","html-button-response","3","216041","0.0-3.0-0.0","90969","List1B","white","man","","","","","","","","","","","","",""
"6320.9000000059605","<img src=""portrait/BW2.jpg""style=""height:400px;""></img>","2","html-button-response","4","223364","0.0-3.0-1.0","90969","List1B","white","man","","true","2","","","","","","","","","",""
"null","CORRECT","","html-keyboard-response","5","224868","0.0-3.0-2.0-0.0","90969","List1B","white","man","","","","null","","","","","","","","",""
"6081.5","<img src=""portrait/BW1.jpg""style=""height:400px;""></img>","0","html-button-response","6","230951","0.0-3.0-4.0","90969","List1B","white","man","","true","0","","","","","","","","","",""
"null","CORRECT","","html-keyboard-response","7","232456","0.0-3.0-5.0-0.0","90969","List1B","white","man","","","","null","","","","","","","","",""
"3190.4000000059605","<img src=""portrait/WM2.jpg""style=""height:400px;""></img>","7","html-button-response","8","235647","0.0-3.0-7.0","90969","List1B","white","man","","true","7","","","","","","","","","",""
"null","CORRECT","","html-keyboard-response","9","237150","0.0-3.0-8.0-0.0","90969","List1B","white","man","","","","null","","","","","","","","",""
"2249","<img src=""portrait/BM1.jpg""style=""height:400px;""></img>","4","html-button-response","10","239400","0.0-3.0-10.0","90969","List1B","white","man","","true","4","","","","","","","","","",""
"null","CORRECT","","html-keyboard-response","11","240903","0.0-3.0-11.0-0.0","90969","List1B","white","man","","","","null","","","","","","","","",""
"4776.699999988079","<img src=""portrait/WM1.jpg""style=""height:400px;""></img>","6","html-button-response","12","245681","0.0-3.0-13.0","90969","List1B","white","man","","true","6","","","","","","","","","",""
"null","CORRECT","","html-keyboard-response","13","247183","0.0-3.0-14.0-0.0","90969","List1B","white","man","","","","null","","","","","","","","",""
"2973.4000000059605","<img src=""portrait/WW2.jpg""style=""height:400px;""></img>","3","html-button-response","14","250157","0.0-3.0-16.0","90969","List1B","white","man","","true","3","","","","","","","","","",""
"null","CORRECT","","html-keyboard-response","15","251659","0.0-3.0-17.0-0.0","90969","List1B","white","man","","","","null","","","","","","","","",""
"6472.300000011921","<img src=""portrait/WW1.jpg""style=""height:400px;""></img>","1","html-button-response","16","258132","0.0-3.0-19.0","90969","List1B","white","man","","true","1","","","","","","","","","",""
"null","CORRECT","","html-keyboard-response","17","259634","0.0-3.0-20.0-0.0","90969","List1B","white","man","","","","null","","","","","","","","",""
"3521.0999999940395","<img src=""portrait/BM2.jpg""style=""height:400px;""></img>","5","html-button-response","18","263157","0.0-3.0-22.0","90969","List1B","white","man","","true","5","","","","","","","","","",""
"null","CORRECT","","html-keyboard-response","19","264659","0.0-3.0-23.0-0.0","90969","List1B","white","man","","","","null","","","","","","","","",""
"2527.899999976158","<p>You got 8 out of 8 right first time. Press Continue.</p>","0","html-button-response","20","267188","0.0-3.0-25.0","90969","List1B","white","man","","","","","","","","","","","","",""
"25720.20000001788","<p>In this experiment, you will view photographs of the people from the memory game interacting.</p><p>By using the <strong>exact</strong> phrase given <i>after</i> the photograph appears and recalling the correct names of the people in the photographs, form a sentence describing the interaction. You do not need to capitalise names.</p><p>Type your answer in the space provided. Please complete every sentence before moving onto the next trial.</p><p>You will only have a few seconds to memorise each given photograph and phrase before you can respond, so try your best to focus.</p><p>An example is given below. Press 'Continue' when you are ready.</p><img src='img/speaking_example.jpg' style='width:800px;height:460px;''></img>","0","html-button-response","21","293911","0.0-4.0","90969","List1B","white","man","","","","","","","","","","","","",""
"4131.5999999940395","<p>Before the experiment starts, you will watch two example trials. Press 'Continue'.</p>","0","html-button-response","22","299045","0.0-5.0","90969","List1B","white","man","","","","","","","","","","","","",""
"null","<img src='img/play_eg.gif' style='height:400px;''></img>","","html-keyboard-response","23","302048","0.0-6.0","90969","List1B","white","man","","","","null","","","","","","","","",""
"null","<p>is playing with</p>","","html-keyboard-response","24","304049","0.0-7.0","90969","List1B","white","man","","","","null","","","","","","","","",""
"3972.100000023842","<p><b>Answer:</b> kate is playing with beth</p>","0","html-button-response","25","308022","0.0-8.0","90969","List1B","white","man","","","","","","","","","","","","",""
"null","<img src='img/dance_eg.gif' style='height:400px;''></img>","","html-keyboard-response","26","311025","0.0-9.0","90969","List1B","white","man","","","","null","","","","","","","","",""
"null","<p>is being entertained by</p>","","html-keyboard-response","27","313026","0.0-10.0","90969","List1B","white","man","","","","null","","","","","","","","",""
"2029","<p><b>Answer:</b> luke is being entertained by dave</p>","0","html-button-response","28","315056","0.0-11.0","90969","List1B","white","man","","","","","","","","","","","","",""
"7100.300000011921","<p>Ready to start the experiment?</p><br><p><strong>Remember to describe the picture using a full sentence,</strong></p><p><strong>that combines the names of the people with the <i>exact</i> phrase given.</strong></p><p><strong>To receive full payment you must do this correctly.</strong></p><p><strong> You do not need to capitalise names or use punctuation.</strong></p><br><p>Press 'Continue' to begin.</p>","0","html-button-response","29","323158","0.0-12.0","90969","List1B","white","man","","","","","","","","","","","","",""
"null","<div style=""font-size:60px;"">+</div>","","html-keyboard-response","30","324666","0.0-13.0-0.0","90969","List1B","white","man","","","","null","","","","","","","","",""
"null","<img src=""stim_listB/seduce5.gif""style=""height:400px;""></stim_listB>","","html-keyboard-response","31","326668","0.0-13.0-1.0","90969","List1B","white","man","","","","null","","","","","","","","",""
"null","is seducing","","html-keyboard-response","32","328669","0.0-13.0-2.0","90969","List1B","white","man","","","","null","","","","","","","","",""
"9187.5","","","survey-text","33","337859","0.0-13.0-3.0","90969","List1B","white","man","","","","","{""Q0"":""Dave is seducing Fred""}","<img src=""stim_listB/seduce5.gif""style=""height:400px;""></stim_listB>","is seducing","","","","","",""
"null","<div style=""font-size:60px;"">+</div>","","html-keyboard-response","34","338361","0.0-13.0-0.1","90969","List1B","white","man","","","","null","","","","","","","","",""
"null","<img src=""stim_listB/challenge4.gif""style=""height:400px;""></stim_listB>","","html-keyboard-response","35","340362","0.0-13.0-1.1","90969","List1B","white","man","","","","null","","","","","","","","",""
"null","is being challenged by","","html-keyboard-response","36","342364","0.0-13.0-2.1","90969","List1B","white","man","","","","null","","","","","","","","",""
"18336.40000000596","","","survey-text","37","360702","0.0-13.0-3.1","90969","List1B","white","man","","","","","{""Q0"":""Jane is being challenged by Luke""}","<img src=""stim_listB/challenge4.gif""style=""height:400px;""></stim_listB>","is being challenged by","","","","","",""
"null","<div style=""font-size:60px;"">+</div>","","html-keyboard-response","38","361204","0.0-13.0-0.2","90969","List1B","white","man","","","","null","","","","","","","","",""
"null","<img src=""stim_listB/hug1.gif""style=""height:400px;""></stim_listB>","","html-keyboard-response","39","363206","0.0-13.0-1.2","90969","List1B","white","man","","","","null","","","","","","","","",""
"null","is hugging","","html-keyboard-response","40","365207","0.0-13.0-2.2","90969","List1B","white","man","","","","null","","","","","","","","",""
"9291.299999982119","","","survey-text","41","374500","0.0-13.0-3.2","90969","List1B","white","man","","","","","{""Q0"":""Beth is hugging Fred""}","<img src=""stim_listB/hug1.gif""style=""height:400px;""></stim_listB>","is hugging","","","","","",""
"null","<div style=""font-size:60px;"">+</div>","","html-keyboard-response","42","375001","0.0-13.0-0.3","90969","List1B","white","man","","","","null","","","","","","","","",""
"null","<img src=""stim_listB/copy4.gif""style=""height:400px;""></stim_listB>","","html-keyboard-response","43","377003","0.0-13.0-1.3","90969","List1B","white","man","","","","null","","","","","","","","",""
"null","is being copied by","","html-keyboard-response","44","379005","0.0-13.0-2.3","90969","List1B","white","man","","","","null","","","","","","","","",""
"8611.699999988079","","","survey-text","45","387619","0.0-13.0-3.3","90969","List1B","white","man","","","","","{""Q0"":""Luke is being copied by Jane""}","<img src=""stim_listB/copy4.gif""style=""height:400px;""></stim_listB>","is being copied by","","","","","",""
"null","<div style=""font-size:60px;"">+</div>","","html-keyboard-response","46","388120","0.0-13.0-0.4","90969","List1B","white","man","","","","null","","","","","","","","",""
"null","<img src=""stim_listB/seduce1.gif""style=""height:400px;""></stim_listB>","","html-keyboard-response","47","390122","0.0-13.0-1.4","90969","List1B","white","man","","","","null","","","","","","","","",""
"null","is seducing","","html-keyboard-response","48","392124","0.0-13.0-2.4","90969","List1B","white","man","","","","null","","","","","","","","",""
"8752.200000017881","","","survey-text","49","400878","0.0-13.0-3.4","90969","List1B","white","man","","","","","{""Q0"":""Fred is seducing Kate""}","<img src=""stim_listB/seduce1.gif""style=""height:400px;""></stim_listB>","is seducing","","","","","",""
"null","<div style=""font-size:60px;"">+</div>","","html-keyboard-response","50","401379","0.0-13.0-0.5","90969","List1B","white","man","","","","null","","","","","","","","",""
"null","<img src=""stim_listB/greet3.gif""style=""height:400px;""></stim_listB>","","html-keyboard-response","51","403381","0.0-13.0-1.5","90969","List1B","white","man","","","","null","","","","","","","","",""
"null","is greeting","","html-keyboard-response","52","405383","0.0-13.0-2.5","90969","List1B","white","man","","","","null","","","","","","","","",""
"12440.199999988079","","","survey-text","53","417825","0.0-13.0-3.5","90969","List1B","white","man","","","","","{""Q0"":""Ruth is greeting Dave""}","<img src=""stim_listB/greet3.gif""style=""height:400px;""></stim_listB>","is greeting","","","","","",""
"null","<div style=""font-size:60px;"">+</div>","","html-keyboard-response","54","418327","0.0-13.0-0.6","90969","List1B","white","man","","","","null","","","","","","","","",""
"null","<img src=""stim_listB/hug3.gif""style=""height:400px;""></stim_listB>","","html-keyboard-response","55","420328","0.0-13.0-1.6","90969","List1B","white","man","","","","null","","","","","","","","",""
"null","is hugging","","html-keyboard-response","56","422329","0.0-13.0-2.6","90969","List1B","white","man","","","","null","","","","","","","","",""
"7667.299999982119","","","survey-text","57","429999","0.0-13.0-3.6","90969","List1B","white","man","","","","","{""Q0"":""Luke is hugging Ruth""}","<img src=""stim_listB/hug3.gif""style=""height:400px;""></stim_listB>","is hugging","","","","","",""
"null","<div style=""font-size:60px;"">+</div>","","html-keyboard-response","58","430500","0.0-13.0-0.7","90969","List1B","white","man","","","","null","","","","","","","","",""
"null","<img src=""stim_listB/shout8.gif""style=""height:400px;""></stim_listB>","","html-keyboard-response","59","432503","0.0-13.0-1.7","90969","List1B","white","man","","","","null","","","","","","","","",""
"null","is being shouted at by","","html-keyboard-response","60","434504","0.0-13.0-2.7","90969","List1B","white","man","","","","null","","","","","","","","",""
"13817.199999988079","","","survey-text","61","448324","0.0-13.0-3.7","90969","List1B","white","man","","","","","{""Q0"":""Jane is being shouted at by Kate""}","<img src=""stim_listB/shout8.gif""style=""height:400px;""></stim_listB>","is being shouted at by","","","","","",""
"null","<div style=""font-size:60px;"">+</div>","","html-keyboard-response","62","448825","0.0-13.0-0.8","90969","List1B","white","man","","","","null","","","","","","","","",""
"null","<img src=""stim_listB/greet7.gif""style=""height:400px;""></stim_listB>","","html-keyboard-response","63","450827","0.0-13.0-1.8","90969","List1B","white","man","","","","null","","","","","","","","",""
"null","is greeting","","html-keyboard-response","64","452828","0.0-13.0-2.8","90969","List1B","white","man","","","","null","","","","","","","","",""
"9170.699999988079","","","survey-text","65","462001","0.0-13.0-3.8","90969","List1B","white","man","","","","","{""Q0"":""Ruth is greeting Kate""}","<img src=""stim_listB/greet7.gif""style=""height:400px;""></stim_listB>","is greeting","","","","","",""
"null","<div style=""font-size:60px;"">+</div>","","html-keyboard-response","66","462502","0.0-13.0-0.9","90969","List1B","white","man","","","","null","","","","","","","","",""
"null","<img src=""stim_listB/oppose7.gif""style=""height:400px;""></stim_listB>","","html-keyboard-response","67","464504","0.0-13.0-1.9","90969","List1B","white","man","","","","null","","","","","","","","",""
"null","is opposing","","html-keyboard-response","68","466506","0.0-13.0-2.9","90969","List1B","white","man","","","","null","","","","","","","","",""
"6851.300000011921","","","survey-text","69","473360","0.0-13.0-3.9","90969","List1B","white","man","","","","","{""Q0"":""Kate is opposing Jane""}","<img src=""stim_listB/oppose7.gif""style=""height:400px;""></stim_listB>","is opposing","","","","","",""
"null","<div style=""font-size:60px;"">+</div>","","html-keyboard-response","70","473861","0.0-13.0-0.10","90969","List1B","white","man","","","","null","","","","","","","","",""
"null","<img src=""stim_listB/oppose5.gif""style=""height:400px;""></stim_listB>","","html-keyboard-response","71","475862","0.0-13.0-1.10","90969","List1B","white","man","","","","null","","","","","","","","",""
"null","is opposing","","html-keyboard-response","72","477863","0.0-13.0-2.10","90969","List1B","white","man","","","","null","","","","","","","","",""
"7427.700000017881","","","survey-text","73","485293","0.0-13.0-3.10","90969","List1B","white","man","","","","","{""Q0"":""Dave is opposing Mike""}","<img src=""stim_listB/oppose5.gif""style=""height:400px;""></stim_listB>","is opposing","","","","","",""
"null","<div style=""font-size:60px;"">+</div>","","html-keyboard-response","74","485796","0.0-13.0-0.11","90969","List1B","white","man","","","","null","","","","","","","","",""
"null","<img src=""stim_listB/shout1.gif""style=""height:400px;""></stim_listB>","","html-keyboard-response","75","487797","0.0-13.0-1.11","90969","List1B","white","man","","","","null","","","","","","","","",""
"null","is shouting at","","html-keyboard-response","76","489798","0.0-13.0-2.11","90969","List1B","white","man","","","","null","","","","","","","","",""
"6775.200000017881","","","survey-text","77","496575","0.0-13.0-3.11","90969","List1B","white","man","","","","","{""Q0"":""Fred is shouting at Beth""}","<img src=""stim_listB/shout1.gif""style=""height:400px;""></stim_listB>","is shouting at","","","","","",""
"null","<div style=""font-size:60px;"">+</div>","","html-keyboard-response","78","497077","0.0-13.0-0.12","90969","List1B","white","man","","","","null","","","","","","","","",""
"null","<img src=""stim_listB/challenge2.gif""style=""height:400px;""></stim_listB>","","html-keyboard-response","79","499090","0.0-13.0-1.12","90969","List1B","white","man","","","","null","","","","","","","","",""
"null","is being challenged by","","html-keyboard-response","80","501092","0.0-13.0-2.12","90969","List1B","white","man","","","","null","","","","","","","","",""
"10631.799999982119","","","survey-text","81","511726","0.0-13.0-3.12","90969","List1B","white","man","","","","","{""Q0"":""Fred is being challenged by Kate""}","<img src=""stim_listB/challenge2.gif""style=""height:400px;""></stim_listB>","is being challenged by","","","","","",""
"null","<div style=""font-size:60px;"">+</div>","","html-keyboard-response","82","512228","0.0-13.0-0.13","90969","List1B","white","man","","","","null","","","","","","","","",""
"null","<img src=""stim_listB/oppose2.gif""style=""height:400px;""></stim_listB>","","html-keyboard-response","83","514230","0.0-13.0-1.13","90969","List1B","white","man","","","","null","","","","","","","","",""
"null","is being opposed by","","html-keyboard-response","84","516231","0.0-13.0-2.13","90969","List1B","white","man","","","","null","","","","","","","","",""
"10156.300000011921","","","survey-text","85","526390","0.0-13.0-3.13","90969","List1B","white","man","","","","","{""Q0"":""Fred is being opposed by Beth""}","<img src=""stim_listB/oppose2.gif""style=""height:400px;""></stim_listB>","is being opposed by","","","","","",""
"null","<div style=""font-size:60px;"">+</div>","","html-keyboard-response","86","526891","0.0-13.0-0.14","90969","List1B","white","man","","","","null","","","","","","","","",""
"null","<img src=""stim_listB/challenge5.gif""style=""height:400px;""></stim_listB>","","html-keyboard-response","87","528893","0.0-13.0-1.14","90969","List1B","white","man","","","","null","","","","","","","","",""
"null","is challenging","","html-keyboard-response","88","530894","0.0-13.0-2.14","90969","List1B","white","man","","","","null","","","","","","","","",""
"13388.799999982119","","","survey-text","89","544285","0.0-13.0-3.14","90969","List1B","white","man","","","","","{""Q0"":""Mike is challenging Luke""}","<img src=""stim_listB/challenge5.gif""style=""height:400px;""></stim_listB>","is challenging","","","","","",""
"null","<div style=""font-size:60px;"">+</div>","","html-keyboard-response","90","544786","0.0-13.0-0.15","90969","List1B","white","man","","","","null","","","","","","","","",""
"null","<img src=""stim_listB/kiss2.gif""style=""height:400px;""></stim_listB>","","html-keyboard-response","91","546788","0.0-13.0-1.15","90969","List1B","white","man","","","","null","","","","","","","","",""
"null","is being kissed by","","html-keyboard-response","92","548790","0.0-13.0-2.15","90969","List1B","white","man","","","","null","","","","","","","","",""
"8145","","","survey-text","93","556938","0.0-13.0-3.15","90969","List1B","white","man","","","","","{""Q0"":""Mike is being kissed by Kate""}","<img src=""stim_listB/kiss2.gif""style=""height:400px;""></stim_listB>","is being kissed by","","","","","",""
"null","<div style=""font-size:60px;"">+</div>","","html-keyboard-response","94","557439","0.0-13.0-0.16","90969","List1B","white","man","","","","null","","","","","","","","",""
"null","<img src=""stim_listB/hug7.gif""style=""height:400px;""></stim_listB>","","html-keyboard-response","95","559441","0.0-13.0-1.16","90969","List1B","white","man","","","","null","","","","","","","","",""
"null","is hugging","","html-keyboard-response","96","561443","0.0-13.0-2.16","90969","List1B","white","man","","","","null","","","","","","","","",""
"6962.4000000059605","","","survey-text","97","568408","0.0-13.0-3.16","90969","List1B","white","man","","","","","{""Q0"":""Ruth is hugging Beth""}","<img src=""stim_listB/hug7.gif""style=""height:400px;""></stim_listB>","is hugging","","","","","",""
"null","<div style=""font-size:60px;"">+</div>","","html-keyboard-response","98","568909","0.0-13.0-0.17","90969","List1B","white","man","","","","null","","","","","","","","",""
"null","<img src=""stim_listB/challenge8.gif""style=""height:400px;""></stim_listB>","","html-keyboard-response","99","570911","0.0-13.0-1.17","90969","List1B","white","man","","","","null","","","","","","","","",""
"null","is being challenged by","","html-keyboard-response","100","572913","0.0-13.0-2.17","90969","List1B","white","man","","","","null","","","","","","","","",""
"7573.699999988079","","","survey-text","101","580489","0.0-13.0-3.17","90969","List1B","white","man","","","","","{""Q0"":""Ruth is being challenged by Beth""}","<img src=""stim_listB/challenge8.gif""style=""height:400px;""></stim_listB>","is being challenged by","","","","","",""
"null","<div style=""font-size:60px;"">+</div>","","html-keyboard-response","102","580989","0.0-13.0-0.18","90969","List1B","white","man","","","","null","","","","","","","","",""
"null","<img src=""stim_listB/oppose6.gif""style=""height:400px;""></stim_listB>","","html-keyboard-response","103","582993","0.0-13.0-1.18","90969","List1B","white","man","","","","null","","","","","","","","",""
"null","is being opposed by","","html-keyboard-response","104","584994","0.0-13.0-2.18","90969","List1B","white","man","","","","null","","","","","","","","",""
"8851.799999982119","","","survey-text","105","593848","0.0-13.0-3.18","90969","List1B","white","man","","","","","{""Q0"":""Fred is being opposed by Luke""}","<img src=""stim_listB/oppose6.gif""style=""height:400px;""></stim_listB>","is being opposed by","","","","","",""
"null","<div style=""font-size:60px;"">+</div>","","html-keyboard-response","106","594349","0.0-13.0-0.19","90969","List1B","white","man","","","","null","","","","","","","","",""
"null","<img src=""stim_listB/touch6.gif""style=""height:400px;""></stim_listB>","","html-keyboard-response","107","596351","0.0-13.0-1.19","90969","List1B","white","man","","","","null","","","","","","","","",""
"null","is being touched by","","html-keyboard-response","108","598353","0.0-13.0-2.19","90969","List1B","white","man","","","","null","","","","","","","","",""
"7943.4000000059605","","","survey-text","109","606298","0.0-13.0-3.19","90969","List1B","white","man","","","","","{""Q0"":""Luke is being touched by Fred""}","<img src=""stim_listB/touch6.gif""style=""height:400px;""></stim_listB>","is being touched by","","","","","",""
"8676.800000011921","<img src='img/portrait_matrix_list1.jpg' style='width:900px;height:500px;''></img><p>If you have memorised all the portraits and names and are ready to start, press Continue.</p><p><strong>Please note: Your memory of these faces will be tested 4 times during this experiment.</strong></p>","0","html-button-response","110","614977","0.0-14.0-0.0","90969","List1B","white","man","","","","","","","","","","","","",""
"1748.5999999940395","<img src=""portrait/WW1.jpg""style=""height:400px;""></img>","1","html-button-response","111","617728","0.0-14.0-1.0","90969","List1B","white","man","","true","1","","","","","","","","","",""
"null","CORRECT","","html-keyboard-response","112","619232","0.0-14.0-2.0-0.0","90969","List1B","white","man","","","","null","","","","","","","","",""
"2437.800000011921","<img src=""portrait/WM1.jpg""style=""height:400px;""></img>","6","html-button-response","113","621671","0.0-14.0-4.0","90969","List1B","white","man","","true","6","","","","","","","","","",""
"null","CORRECT","","html-keyboard-response","114","623174","0.0-14.0-5.0-0.0","90969","List1B","white","man","","","","null","","","","","","","","",""
"1540.5","<img src=""portrait/BM1.jpg""style=""height:400px;""></img>","4","html-button-response","115","624716","0.0-14.0-7.0","90969","List1B","white","man","","true","4","","","","","","","","","",""
"null","CORRECT","","html-keyboard-response","116","626218","0.0-14.0-8.0-0.0","90969","List1B","white","man","","","","null","","","","","","","","",""
"1215.8999999761581","<img src=""portrait/BM2.jpg""style=""height:400px;""></img>","5","html-button-response","117","627436","0.0-14.0-10.0","90969","List1B","white","man","","true","5","","","","","","","","","",""
"null","CORRECT","","html-keyboard-response","118","628939","0.0-14.0-11.0-0.0","90969","List1B","white","man","","","","null","","","","","","","","",""
"1368.3999999761581","<img src=""portrait/WW2.jpg""style=""height:400px;""></img>","3","html-button-response","119","630308","0.0-14.0-13.0","90969","List1B","white","man","","true","3","","","","","","","","","",""
"null","CORRECT","","html-keyboard-response","120","631810","0.0-14.0-14.0-0.0","90969","List1B","white","man","","","","null","","","","","","","","",""
"1403.5","<img src=""portrait/WM2.jpg""style=""height:400px;""></img>","7","html-button-response","121","633214","0.0-14.0-16.0","90969","List1B","white","man","","true","7","","","","","","","","","",""
"null","CORRECT","","html-keyboard-response","122","634716","0.0-14.0-17.0-0.0","90969","List1B","white","man","","","","null","","","","","","","","",""
"1316.9000000059605","<img src=""portrait/BW2.jpg""style=""height:400px;""></img>","2","html-button-response","123","636034","0.0-14.0-19.0","90969","List1B","white","man","","true","2","","","","","","","","","",""
"null","CORRECT","","html-keyboard-response","124","637537","0.0-14.0-20.0-0.0","90969","List1B","white","man","","","","null","","","","","","","","",""
"1519.5","<img src=""portrait/BW1.jpg""style=""height:400px;""></img>","0","html-button-response","125","639058","0.0-14.0-22.0","90969","List1B","white","man","","true","0","","","","","","","","","",""
"null","CORRECT","","html-keyboard-response","126","640559","0.0-14.0-23.0-0.0","90969","List1B","white","man","","","","null","","","","","","","","",""
"1390.0999999940395","<p>You got 8 out of 8 right first time. Press Continue.</p>","0","html-button-response","127","641951","0.0-14.0-25.0","90969","List1B","white","man","","","","","","","","","","","","",""
"null","<div style=""font-size:60px;"">+</div>","","html-keyboard-response","128","643453","0.0-15.0-0.0","90969","List1B","white","man","","","","null","","","","","","","","",""
"null","<img src=""stim_listB/look8.gif""style=""height:400px;""></stim_listB>","","html-keyboard-response","129","645455","0.0-15.0-1.0","90969","List1B","white","man","","","","null","","","","","","","","",""
"null","is being looked at by","","html-keyboard-response","130","647456","0.0-15.0-2.0","90969","List1B","white","man","","","","null","","","","","","","","",""
"9837.699999988079","","","survey-text","131","657296","0.0-15.0-3.0","90969","List1B","white","man","","","","","{""Q0"":""Kate is being looked at by Jane""}","<img src=""stim_listB/look8.gif""style=""height:400px;""></stim_listB>","is being looked at by","","","","","",""
"null","<div style=""font-size:60px;"">+</div>","","html-keyboard-response","132","657797","0.0-15.0-0.1","90969","List1B","white","man","","","","null","","","","","","","","",""
"null","<img src=""stim_listB/challenge1.gif""style=""height:400px;""></stim_listB>","","html-keyboard-response","133","659799","0.0-15.0-1.1","90969","List1B","white","man","","","","null","","","","","","","","",""
"null","is challenging","","html-keyboard-response","134","661801","0.0-15.0-2.1","90969","List1B","white","man","","","","null","","","","","","","","",""
"6481.799999982119","","","survey-text","135","668285","0.0-15.0-3.1","90969","List1B","white","man","","","","","{""Q0"":""Beth is challenging Mike""}","<img src=""stim_listB/challenge1.gif""style=""height:400px;""></stim_listB>","is challenging","","","","","",""
"null","<div style=""font-size:60px;"">+</div>","","html-keyboard-response","136","668786","0.0-15.0-0.2","90969","List1B","white","man","","","","null","","","","","","","","",""
"null","<img src=""stim_listB/challenge3.gif""style=""height:400px;""></stim_listB>","","html-keyboard-response","137","670788","0.0-15.0-1.2","90969","List1B","white","man","","","","null","","","","","","","","",""
"null","is challenging","","html-keyboard-response","138","672788","0.0-15.0-2.2","90969","List1B","white","man","","","","null","","","","","","","","",""
"7311.9000000059605","","","survey-text","139","680102","0.0-15.0-3.2","90969","List1B","white","man","","","","","{""Q0"":""Ruth is challenging Dave""}","<img src=""stim_listB/challenge3.gif""style=""height:400px;""></stim_listB>","is challenging","","","","","",""
"null","<div style=""font-size:60px;"">+</div>","","html-keyboard-response","140","680605","0.0-15.0-0.3","90969","List1B","white","man","","","","null","","","","","","","","",""
"null","<img src=""stim_listB/hug8.gif""style=""height:400px;""></stim_listB>","","html-keyboard-response","141","682606","0.0-15.0-1.3","90969","List1B","white","man","","","","null","","","","","","","","",""
"null","is being hugged by","","html-keyboard-response","142","684607","0.0-15.0-2.3","90969","List1B","white","man","","","","null","","","","","","","","",""
"15195.800000011921","","","survey-text","143","699805","0.0-15.0-3.3","90969","List1B","white","man","","","","","{""Q0"":""Jane is hugging Kate""}","<img src=""stim_listB/hug8.gif""style=""height:400px;""></stim_listB>","is being hugged by","","","","","",""
"null","<div style=""font-size:60px;"">+</div>","","html-keyboard-response","144","700306","0.0-15.0-0.4","90969","List1B","white","man","","","","null","","","","","","","","",""
"null","<img src=""stim_listB/greet2.gif""style=""height:400px;""></stim_listB>","","html-keyboard-response","145","702308","0.0-15.0-1.4","90969","List1B","white","man","","","","null","","","","","","","","",""
"null","is being greeted by","","html-keyboard-response","146","704309","0.0-15.0-2.4","90969","List1B","white","man","","","","null","","","","","","","","",""
"7475.5999999940395","","","survey-text","147","711787","0.0-15.0-3.4","90969","List1B","white","man","","","","","{""Q0"":""Fred is being greeted by Kate""}","<img src=""stim_listB/greet2.gif""style=""height:400px;""></stim_listB>","is being greeted by","","","","","",""
"null","<div style=""font-size:60px;"">+</div>","","html-keyboard-response","148","712288","0.0-15.0-0.5","90969","List1B","white","man","","","","null","","","","","","","","",""
"null","<img src=""stim_listB/kiss3.gif""style=""height:400px;""></stim_listB>","","html-keyboard-response","149","714290","0.0-15.0-1.5","90969","List1B","white","man","","","","null","","","","","","","","",""
"null","is kissing","","html-keyboard-response","150","716292","0.0-15.0-2.5","90969","List1B","white","man","","","","null","","","","","","","","",""
"5541.5","","","survey-text","151","721835","0.0-15.0-3.5","90969","List1B","white","man","","","","","{""Q0"":""Ruth is kissing Luke""}","<img src=""stim_listB/kiss3.gif""style=""height:400px;""></stim_listB>","is kissing","","","","","",""
"null","<div style=""font-size:60px;"">+</div>","","html-keyboard-response","152","722336","0.0-15.0-0.6","90969","List1B","white","man","","","","null","","","","","","","","",""
"null","<img src=""stim_listB/oppose4.gif""style=""height:400px;""></stim_listB>","","html-keyboard-response","153","724339","0.0-15.0-1.6","90969","List1B","white","man","","","","null","","","","","","","","",""
"null","is being opposed by","","html-keyboard-response","154","726339","0.0-15.0-2.6","90969","List1B","white","man","","","","null","","","","","","","","",""
"10330.799999982119","","","survey-text","155","736673","0.0-15.0-3.6","90969","List1B","white","man","","","","","{""Q0"":""Ruth is being opposed by Luke""}","<img src=""stim_listB/oppose4.gif""style=""height:400px;""></stim_listB>","is being opposed by","","","","","",""
"null","<div style=""font-size:60px;"">+</div>","","html-keyboard-response","156","737174","0.0-15.0-0.7","90969","List1B","white","man","","","","null","","","","","","","","",""
"null","<img src=""stim_listB/copy7.gif""style=""height:400px;""></stim_listB>","","html-keyboard-response","157","739176","0.0-15.0-1.7","90969","List1B","white","man","","","","null","","","","","","","","",""
"null","is copying","","html-keyboard-response","158","741177","0.0-15.0-2.7","90969","List1B","white","man","","","","null","","","","","","","","",""
"9414.90000000596","","","survey-text","159","750594","0.0-15.0-3.7","90969","List1B","white","man","","","","","{""Q0"":""Kate is copying Ruth""}","<img src=""stim_listB/copy7.gif""style=""height:400px;""></stim_listB>","is copying","","","","","",""
"null","<div style=""font-size:60px;"">+</div>","","html-keyboard-response","160","751095","0.0-15.0-0.8","90969","List1B","white","man","","","","null","","","","","","","","",""
"null","<img src=""stim_listB/shout5.gif""style=""height:400px;""></stim_listB>","","html-keyboard-response","161","753097","0.0-15.0-1.8","90969","List1B","white","man","","","","null","","","","","","","","",""
"null","is shouting at","","html-keyboard-response","162","755098","0.0-15.0-2.8","90969","List1B","white","man","","","","null","","","","","","","","",""
"5469.5","","","survey-text","163","760570","0.0-15.0-3.8","90969","List1B","white","man","","","","","{""Q0"":""Fred is shouting at Luke""}","<img src=""stim_listB/shout5.gif""style=""height:400px;""></stim_listB>","is shouting at","","","","","",""
"null","<div style=""font-size:60px;"">+</div>","","html-keyboard-response","164","761071","0.0-15.0-0.9","90969","List1B","white","man","","","","null","","","","","","","","",""
"null","<img src=""stim_listB/touch7.gif""style=""height:400px;""></stim_listB>","","html-keyboard-response","165","763073","0.0-15.0-1.9","90969","List1B","white","man","","","","null","","","","","","","","",""
"null","is touching","","html-keyboard-response","166","765074","0.0-15.0-2.9","90969","List1B","white","man","","","","null","","","","","","","","",""
"4568.799999982119","","","survey-text","167","769645","0.0-15.0-3.9","90969","List1B","white","man","","","","","{""Q0"":""Kate is touching Jane""}","<img src=""stim_listB/touch7.gif""style=""height:400px;""></stim_listB>","is touching","","","","","",""
"null","<div style=""font-size:60px;"">+</div>","","html-keyboard-response","168","770147","0.0-15.0-0.10","90969","List1B","white","man","","","","null","","","","","","","","",""
"null","<img src=""stim_listB/look1.gif""style=""height:400px;""></stim_listB>","","html-keyboard-response","169","772148","0.0-15.0-1.10","90969","List1B","white","man","","","","null","","","","","","","","",""
"null","is looking at","","html-keyboard-response","170","774149","0.0-15.0-2.10","90969","List1B","white","man","","","","null","","","","","","","","",""
"6944.300000011921","","","survey-text","171","781095","0.0-15.0-3.10","90969","List1B","white","man","","","","","{""Q0"":""Beth is looking at Fred""}","<img src=""stim_listB/look1.gif""style=""height:400px;""></stim_listB>","is looking at","","","","","",""
"null","<div style=""font-size:60px;"">+</div>","","html-keyboard-response","172","781596","0.0-15.0-0.11","90969","List1B","white","man","","","","null","","","","","","","","",""
"null","<img src=""stim_listB/touch5.gif""style=""height:400px;""></stim_listB>","","html-keyboard-response","173","783598","0.0-15.0-1.11","90969","List1B","white","man","","","","null","","","","","","","","",""
"null","is touching","","html-keyboard-response","174","785599","0.0-15.0-2.11","90969","List1B","white","man","","","","null","","","","","","","","",""
"4876.5999999940395","","","survey-text","175","790478","0.0-15.0-3.11","90969","List1B","white","man","","","","","{""Q0"":""Dave is touching Mike""}","<img src=""stim_listB/touch5.gif""style=""height:400px;""></stim_listB>","is touching","","","","","",""
"null","<div style=""font-size:60px;"">+</div>","","html-keyboard-response","176","790979","0.0-15.0-0.12","90969","List1B","white","man","","","","null","","","","","","","","",""
"null","<img src=""stim_listB/hug5.gif""style=""height:400px;""></stim_listB>","","html-keyboard-response","177","792980","0.0-15.0-1.12","90969","List1B","white","man","","","","null","","","","","","","","",""
"null","is hugging","","html-keyboard-response","178","794981","0.0-15.0-2.12","90969","List1B","white","man","","","","null","","","","","","","","",""
"5389.4000000059605","","","survey-text","179","800373","0.0-15.0-3.12","90969","List1B","white","man","","","","","{""Q0"":""Fred is hugging Luke""}","<img src=""stim_listB/hug5.gif""style=""height:400px;""></stim_listB>","is hugging","","","","","",""
"null","<div style=""font-size:60px;"">+</div>","","html-keyboard-response","180","800874","0.0-15.0-0.13","90969","List1B","white","man","","","","null","","","","","","","","",""
"null","<img src=""stim_listB/shout4.gif""style=""height:400px;""></stim_listB>","","html-keyboard-response","181","802876","0.0-15.0-1.13","90969","List1B","white","man","","","","null","","","","","","","","",""
"null","is being shouted at by","","html-keyboard-response","182","804878","0.0-15.0-2.13","90969","List1B","white","man","","","","null","","","","","","","","",""
"12161.100000023842","","","survey-text","183","817041","0.0-15.0-3.13","90969","List1B","white","man","","","","","{""Q0"":""Dave is being shouted at by Jane""}","<img src=""stim_listB/shout4.gif""style=""height:400px;""></stim_listB>","is being shouted at by","","","","","",""
"null","<div style=""font-size:60px;"">+</div>","","html-keyboard-response","184","817542","0.0-15.0-0.14","90969","List1B","white","man","","","","null","","","","","","","","",""
"null","<img src=""stim_listB/oppose1.gif""style=""height:400px;""></stim_listB>","","html-keyboard-response","185","819544","0.0-15.0-1.14","90969","List1B","white","man","","","","null","","","","","","","","",""
"null","is opposing","","html-keyboard-response","186","821545","0.0-15.0-2.14","90969","List1B","white","man","","","","null","","","","","","","","",""
"8201.100000023842","","","survey-text","187","829749","0.0-15.0-3.14","90969","List1B","white","man","","","","","{""Q0"":""Mike is opposing Kate""}","<img src=""stim_listB/oppose1.gif""style=""height:400px;""></stim_listB>","is opposing","","","","","",""
"null","<div style=""font-size:60px;"">+</div>","","html-keyboard-response","188","830249","0.0-15.0-0.15","90969","List1B","white","man","","","","null","","","","","","","","",""
"null","<img src=""stim_listB/touch2.gif""style=""height:400px;""></stim_listB>","","html-keyboard-response","189","832251","0.0-15.0-1.15","90969","List1B","white","man","","","","null","","","","","","","","",""
"null","is being touched by","","html-keyboard-response","190","834253","0.0-15.0-2.15","90969","List1B","white","man","","","","null","","","","","","","","",""
"8242.09999999404","","","survey-text","191","842497","0.0-15.0-3.15","90969","List1B","white","man","","","","","{""Q0"":""Fred is being touched by Beth""}","<img src=""stim_listB/touch2.gif""style=""height:400px;""></stim_listB>","is being touched by","","","","","",""
"null","<div style=""font-size:60px;"">+</div>","","html-keyboard-response","192","842999","0.0-15.0-0.16","90969","List1B","white","man","","","","null","","","","","","","","",""
"null","<img src=""stim_listB/greet6.gif""style=""height:400px;""></stim_listB>","","html-keyboard-response","193","845001","0.0-15.0-1.16","90969","List1B","white","man","","","","null","","","","","","","","",""
"null","is being greeted by","","html-keyboard-response","194","847003","0.0-15.0-2.16","90969","List1B","white","man","","","","null","","","","","","","","",""
"6957.4000000059605","","","survey-text","195","853962","0.0-15.0-3.16","90969","List1B","white","man","","","","","{""Q0"":""Fred is being greeted by Dave""}","<img src=""stim_listB/greet6.gif""style=""height:400px;""></stim_listB>","is being greeted by","","","","","",""
"null","<div style=""font-size:60px;"">+</div>","","html-keyboard-response","196","854463","0.0-15.0-0.17","90969","List1B","white","man","","","","null","","","","","","","","",""
"null","<img src=""stim_listB/look2.gif""style=""height:400px;""></stim_listB>","","html-keyboard-response","197","856464","0.0-15.0-1.17","90969","List1B","white","man","","","","null","","","","","","","","",""
"null","is being looked at by","","html-keyboard-response","198","858466","0.0-15.0-2.17","90969","List1B","white","man","","","","null","","","","","","","","",""
"11765.199999988079","","","survey-text","199","870233","0.0-15.0-3.17","90969","List1B","white","man","","","","","{""Q0"":""Mike is being looked at by Kate""}","<img src=""stim_listB/look2.gif""style=""height:400px;""></stim_listB>","is being looked at by","","","","","",""
"null","<div style=""font-size:60px;"">+</div>","","html-keyboard-response","200","870734","0.0-15.0-0.18","90969","List1B","white","man","","","","null","","","","","","","","",""
"null","<img src=""stim_listB/shout6.gif""style=""height:400px;""></stim_listB>","","html-keyboard-response","201","872736","0.0-15.0-1.18","90969","List1B","white","man","","","","null","","","","","","","","",""
"null","is being shouted at by","","html-keyboard-response","202","874737","0.0-15.0-2.18","90969","List1B","white","man","","","","null","","","","","","","","",""
"8942.899999976158","","","survey-text","203","883683","0.0-15.0-3.18","90969","List1B","white","man","","","","","{""Q0"":""Dave is being shouted at by Mike""}","<img src=""stim_listB/shout6.gif""style=""height:400px;""></stim_listB>","is being shouted at by","","","","","",""
"null","<div style=""font-size:60px;"">+</div>","","html-keyboard-response","204","884184","0.0-15.0-0.19","90969","List1B","white","man","","","","null","","","","","","","","",""
"null","<img src=""stim_listB/kiss5.gif""style=""height:400px;""></stim_listB>","","html-keyboard-response","205","886185","0.0-15.0-1.19","90969","List1B","white","man","","","","null","","","","","","","","",""
"null","is kissing","","html-keyboard-response","206","888186","0.0-15.0-2.19","90969","List1B","white","man","","","","null","","","","","","","","",""
"6055.5","","","survey-text","207","894244","0.0-15.0-3.19","90969","List1B","white","man","","","","","{""Q0"":""Luke is kissing Fred""}","<img src=""stim_listB/kiss5.gif""style=""height:400px;""></stim_listB>","is kissing","","","","","",""
"3674.2999999821186","<img src='img/portrait_matrix_list1.jpg' style='width:900px;height:500px;''></img><p>If you have memorised all the portraits and names and are ready to start, press Continue.</p><p><strong>Please note: Your memory of these faces will be tested 4 times during this experiment.</strong></p>","0","html-button-response","208","897920","0.0-16.0-0.0","90969","List1B","white","man","","","","","","","","","","","","",""
"1853.5999999940395","<img src=""portrait/WM2.jpg""style=""height:400px;""></img>","7","html-button-response","209","900776","0.0-16.0-1.0","90969","List1B","white","man","","true","7","","","","","","","","","",""
"null","CORRECT","","html-keyboard-response","210","902278","0.0-16.0-2.0-0.0","90969","List1B","white","man","","","","null","","","","","","","","",""
"2621.7000000178814","<img src=""portrait/WM1.jpg""style=""height:400px;""></img>","6","html-button-response","211","904901","0.0-16.0-4.0","90969","List1B","white","man","","true","6","","","","","","","","","",""
"null","CORRECT","","html-keyboard-response","212","906403","0.0-16.0-5.0-0.0","90969","List1B","white","man","","","","null","","","","","","","","",""
"3023.5","<img src=""portrait/BW2.jpg""style=""height:400px;""></img>","2","html-button-response","213","909428","0.0-16.0-7.0","90969","List1B","white","man","","true","2","","","","","","","","","",""
"null","CORRECT","","html-keyboard-response","214","910931","0.0-16.0-8.0-0.0","90969","List1B","white","man","","","","null","","","","","","","","",""
"1630.5","<img src=""portrait/WW1.jpg""style=""height:400px;""></img>","1","html-button-response","215","912562","0.0-16.0-10.0","90969","List1B","white","man","","true","1","","","","","","","","","",""
"null","CORRECT","","html-keyboard-response","216","914064","0.0-16.0-11.0-0.0","90969","List1B","white","man","","","","null","","","","","","","","",""
"1194.800000011921","<img src=""portrait/WW2.jpg""style=""height:400px;""></img>","3","html-button-response","217","915260","0.0-16.0-13.0","90969","List1B","white","man","","true","3","","","","","","","","","",""
"null","CORRECT","","html-keyboard-response","218","916763","0.0-16.0-14.0-0.0","90969","List1B","white","man","","","","null","","","","","","","","",""
"1454","<img src=""portrait/BM1.jpg""style=""height:400px;""></img>","4","html-button-response","219","918218","0.0-16.0-16.0","90969","List1B","white","man","","true","4","","","","","","","","","",""
"null","CORRECT","","html-keyboard-response","220","919722","0.0-16.0-17.0-0.0","90969","List1B","white","man","","","","null","","","","","","","","",""
"1063","<img src=""portrait/BM2.jpg""style=""height:400px;""></img>","5","html-button-response","221","920786","0.0-16.0-19.0","90969","List1B","white","man","","true","5","","","","","","","","","",""
"null","CORRECT","","html-keyboard-response","222","922289","0.0-16.0-20.0-0.0","90969","List1B","white","man","","","","null","","","","","","","","",""
"794.5999999940395","<img src=""portrait/BW1.jpg""style=""height:400px;""></img>","0","html-button-response","223","923085","0.0-16.0-22.0","90969","List1B","white","man","","true","0","","","","","","","","","",""
"null","CORRECT","","html-keyboard-response","224","924587","0.0-16.0-23.0-0.0","90969","List1B","white","man","","","","null","","","","","","","","",""
"7514.5999999940395","<p>You got 8 out of 8 right first time. Press Continue.</p>","0","html-button-response","225","932102","0.0-16.0-25.0","90969","List1B","white","man","","","","","","","","","","","","",""
"null","<div style=""font-size:60px;"">+</div>","","html-keyboard-response","226","933605","0.0-17.0-0.0","90969","List1B","white","man","","","","null","","","","","","","","",""
"null","<img src=""stim_listB/copy6.gif""style=""height:400px;""></stim_listB>","","html-keyboard-response","227","935607","0.0-17.0-1.0","90969","List1B","white","man","","","","null","","","","","","","","",""
"null","is being copied by","","html-keyboard-response","228","937608","0.0-17.0-2.0","90969","List1B","white","man","","","","null","","","","","","","","",""
"7414.199999988079","","","survey-text","229","945025","0.0-17.0-3.0","90969","List1B","white","man","","","","","{""Q0"":""Fred is being copied by Dave""}","<img src=""stim_listB/copy6.gif""style=""height:400px;""></stim_listB>","is being copied by","","","","","",""
"null","<div style=""font-size:60px;"">+</div>","","html-keyboard-response","230","945526","0.0-17.0-0.1","90969","List1B","white","man","","","","null","","","","","","","","",""
"null","<img src=""stim_listB/challenge6.gif""style=""height:400px;""></stim_listB>","","html-keyboard-response","231","947529","0.0-17.0-1.1","90969","List1B","white","man","","","","null","","","","","","","","",""
"null","is being challenged by","","html-keyboard-response","232","949530","0.0-17.0-2.1","90969","List1B","white","man","","","","null","","","","","","","","",""
"9442.90000000596","","","survey-text","233","958975","0.0-17.0-3.1","90969","List1B","white","man","","","","","{""Q0"":""Dave is being challenged by Fred""}","<img src=""stim_listB/challenge6.gif""style=""height:400px;""></stim_listB>","is being challenged by","","","","","",""
"null","<div style=""font-size:60px;"">+</div>","","html-keyboard-response","234","959476","0.0-17.0-0.2","90969","List1B","white","man","","","","null","","","","","","","","",""
"null","<img src=""stim_listB/seduce8.gif""style=""height:400px;""></stim_listB>","","html-keyboard-response","235","961479","0.0-17.0-1.2","90969","List1B","white","man","","","","null","","","","","","","","",""
"null","is being seduced by","","html-keyboard-response","236","963481","0.0-17.0-2.2","90969","List1B","white","man","","","","null","","","","","","","","",""
"6662.699999988079","","","survey-text","237","970146","0.0-17.0-3.2","90969","List1B","white","man","","","","","{""Q0"":""Kate is being seduced by Ruth""}","<img src=""stim_listB/seduce8.gif""style=""height:400px;""></stim_listB>","is being seduced by","","","","","",""
"null","<div style=""font-size:60px;"">+</div>","","html-keyboard-response","238","970647","0.0-17.0-0.3","90969","List1B","white","man","","","","null","","","","","","","","",""
"null","<img src=""stim_listB/seduce2.gif""style=""height:400px;""></stim_listB>","","html-keyboard-response","239","972649","0.0-17.0-1.3","90969","List1B","white","man","","","","null","","","","","","","","",""
"null","is being seduced by","","html-keyboard-response","240","974651","0.0-17.0-2.3","90969","List1B","white","man","","","","null","","","","","","","","",""
"7930.200000017881","","","survey-text","241","982583","0.0-17.0-3.3","90969","List1B","white","man","","","","","{""Q0"":""Mike is being seduced by Beth""}","<img src=""stim_listB/seduce2.gif""style=""height:400px;""></stim_listB>","is being seduced by","","","","","",""
"null","<div style=""font-size:60px;"">+</div>","","html-keyboard-response","242","983084","0.0-17.0-0.4","90969","List1B","white","man","","","","null","","","","","","","","",""
"null","<img src=""stim_listB/look4.gif""style=""height:400px;""></stim_listB>","","html-keyboard-response","243","985092","0.0-17.0-1.4","90969","List1B","white","man","","","","null","","","","","","","","",""
"null","is being looked at by","","html-keyboard-response","244","987092","0.0-17.0-2.4","90969","List1B","white","man","","","","null","","","","","","","","",""
"7768.799999982119","","","survey-text","245","994863","0.0-17.0-3.4","90969","List1B","white","man","","","","","{""Q0"":""Dave is being looked at by Jane""}","<img src=""stim_listB/look4.gif""style=""height:400px;""></stim_listB>","is being looked at by","","","","","",""
"null","<div style=""font-size:60px;"">+</div>","","html-keyboard-response","246","995365","0.0-17.0-0.5","90969","List1B","white","man","","","","null","","","","","","","","",""
"null","<img src=""stim_listB/challenge7.gif""style=""height:400px;""></stim_listB>","","html-keyboard-response","247","997370","0.0-17.0-1.5","90969","List1B","white","man","","","","null","","","","","","","","",""
"null","is challenging","","html-keyboard-response","248","999372","0.0-17.0-2.5","90969","List1B","white","man","","","","null","","","","","","","","",""
"7536.199999988079","","","survey-text","249","1006910","0.0-17.0-3.5","90969","List1B","white","man","","","","","{""Q0"":""Ruth is challenging Kate""}","<img src=""stim_listB/challenge7.gif""style=""height:400px;""></stim_listB>","is challenging","","","","","",""
"null","<div style=""font-size:60px;"">+</div>","","html-keyboard-response","250","1007411","0.0-17.0-0.6","90969","List1B","white","man","","","","null","","","","","","","","",""
"null","<img src=""stim_listB/seduce4.gif""style=""height:400px;""></stim_listB>","","html-keyboard-response","251","1009413","0.0-17.0-1.6","90969","List1B","white","man","","","","null","","","","","","","","",""
"null","is being seduced by","","html-keyboard-response","252","1011414","0.0-17.0-2.6","90969","List1B","white","man","","","","null","","","","","","","","",""
"8896.699999988079","","","survey-text","253","1020313","0.0-17.0-3.6","90969","List1B","white","man","","","","","{""Q0"":""Dave is being seduced by Ruth""}","<img src=""stim_listB/seduce4.gif""style=""height:400px;""></stim_listB>","is being seduced by","","","","","",""
"null","<div style=""font-size:60px;"">+</div>","","html-keyboard-response","254","1020816","0.0-17.0-0.7","90969","List1B","white","man","","","","null","","","","","","","","",""
"null","<img src=""stim_listB/kiss8.gif""style=""height:400px;""></stim_listB>","","html-keyboard-response","255","1022817","0.0-17.0-1.7","90969","List1B","white","man","","","","null","","","","","","","","",""
"null","is being kissed by","","html-keyboard-response","256","1024818","0.0-17.0-2.7","90969","List1B","white","man","","","","null","","","","","","","","",""
"7941.800000011921","","","survey-text","257","1032763","0.0-17.0-3.7","90969","List1B","white","man","","","","","{""Q0"":""Jane is being kissed by Kate""}","<img src=""stim_listB/kiss8.gif""style=""height:400px;""></stim_listB>","is being kissed by","","","","","",""
"null","<div style=""font-size:60px;"">+</div>","","html-keyboard-response","258","1033264","0.0-17.0-0.8","90969","List1B","white","man","","","","null","","","","","","","","",""
"null","<img src=""stim_listB/shout2.gif""style=""height:400px;""></stim_listB>","","html-keyboard-response","259","1035266","0.0-17.0-1.8","90969","List1B","white","man","","","","null","","","","","","","","",""
"null","is being shouted at by","","html-keyboard-response","260","1037267","0.0-17.0-2.8","90969","List1B","white","man","","","","null","","","","","","","","",""
"8498.700000017881","","","survey-text","261","1045768","0.0-17.0-3.8","90969","List1B","white","man","","","","","{""Q0"":""Kate is being shouted at by Mike""}","<img src=""stim_listB/shout2.gif""style=""height:400px;""></stim_listB>","is being shouted at by","","","","","",""
"null","<div style=""font-size:60px;"">+</div>","","html-keyboard-response","262","1046269","0.0-17.0-0.9","90969","List1B","white","man","","","","null","","","","","","","","",""
"null","<img src=""stim_listB/copy2.gif""style=""height:400px;""></stim_listB>","","html-keyboard-response","263","1048272","0.0-17.0-1.9","90969","List1B","white","man","","","","null","","","","","","","","",""
"null","is being copied by","","html-keyboard-response","264","1050273","0.0-17.0-2.9","90969","List1B","white","man","","","","null","","","","","","","","",""
"8008.5999999940395","","","survey-text","265","1058284","0.0-17.0-3.9","90969","List1B","white","man","","","","","{""Q0"":""Fred is being copied by Kate""}","<img src=""stim_listB/copy2.gif""style=""height:400px;""></stim_listB>","is being copied by","","","","","",""
"null","<div style=""font-size:60px;"">+</div>","","html-keyboard-response","266","1058785","0.0-17.0-0.10","90969","List1B","white","man","","","","null","","","","","","","","",""
"null","<img src=""stim_listB/copy5.gif""style=""height:400px;""></stim_listB>","","html-keyboard-response","267","1060786","0.0-17.0-1.10","90969","List1B","white","man","","","","null","","","","","","","","",""
"null","is copying","","html-keyboard-response","268","1062788","0.0-17.0-2.10","90969","List1B","white","man","","","","null","","","","","","","","",""
"9209.799999982119","","","survey-text","269","1072000","0.0-17.0-3.10","90969","List1B","white","man","","","","","{""Q0"":""Mike is copying Luke""}","<img src=""stim_listB/copy5.gif""style=""height:400px;""></stim_listB>","is copying","","","","","",""
"null","<div style=""font-size:60px;"">+</div>","","html-keyboard-response","270","1072501","0.0-17.0-0.11","90969","List1B","white","man","","","","null","","","","","","","","",""
"null","<img src=""stim_listB/kiss1.gif""style=""height:400px;""></stim_listB>","","html-keyboard-response","271","1074503","0.0-17.0-1.11","90969","List1B","white","man","","","","null","","","","","","","","",""
"null","is kissing","","html-keyboard-response","272","1076504","0.0-17.0-2.11","90969","List1B","white","man","","","","null","","","","","","","","",""
"10318.90000000596","","","survey-text","273","1086825","0.0-17.0-3.11","90969","List1B","white","man","","","","","{""Q0"":""Fred is kissing Beth""}","<img src=""stim_listB/kiss1.gif""style=""height:400px;""></stim_listB>","is kissing","","","","","",""
"null","<div style=""font-size:60px;"">+</div>","","html-keyboard-response","274","1087326","0.0-17.0-0.12","90969","List1B","white","man","","","","null","","","","","","","","",""
"null","<img src=""stim_listB/look5.gif""style=""height:400px;""></stim_listB>","","html-keyboard-response","275","1089328","0.0-17.0-1.12","90969","List1B","white","man","","","","null","","","","","","","","",""
"null","is looking at","","html-keyboard-response","276","1091329","0.0-17.0-2.12","90969","List1B","white","man","","","","null","","","","","","","","",""
"9082.700000017881","","","survey-text","277","1100414","0.0-17.0-3.12","90969","List1B","white","man","","","","","{""Q0"":""Fred is looking at Luke""}","<img src=""stim_listB/look5.gif""style=""height:400px;""></stim_listB>","is looking at","","","","","",""
"null","<div style=""font-size:60px;"">+</div>","","html-keyboard-response","278","1100916","0.0-17.0-0.13","90969","List1B","white","man","","","","null","","","","","","","","",""
"null","<img src=""stim_listB/greet4.gif""style=""height:400px;""></stim_listB>","","html-keyboard-response","279","1102917","0.0-17.0-1.13","90969","List1B","white","man","","","","null","","","","","","","","",""
"null","is being greeted by","","html-keyboard-response","280","1104919","0.0-17.0-2.13","90969","List1B","white","man","","","","null","","","","","","","","",""
"11849.59999999404","","","survey-text","281","1116771","0.0-17.0-3.13","90969","List1B","white","man","","","","","{""Q0"":""Luke is being greeted by Jane""}","<img src=""stim_listB/greet4.gif""style=""height:400px;""></stim_listB>","is being greeted by","","","","","",""
"null","<div style=""font-size:60px;"">+</div>","","html-keyboard-response","282","1117272","0.0-17.0-0.14","90969","List1B","white","man","","","","null","","","","","","","","",""
"null","<img src=""stim_listB/kiss4.gif""style=""height:400px;""></stim_listB>","","html-keyboard-response","283","1119274","0.0-17.0-1.14","90969","List1B","white","man","","","","null","","","","","","","","",""
"null","is being kissed by","","html-keyboard-response","284","1121275","0.0-17.0-2.14","90969","List1B","white","man","","","","null","","","","","","","","",""
"6746.9000000059605","","","survey-text","285","1128024","0.0-17.0-3.14","90969","List1B","white","man","","","","","{""Q0"":""Jane is being kissed by Dave""}","<img src=""stim_listB/kiss4.gif""style=""height:400px;""></stim_listB>","is being kissed by","","","","","",""
"null","<div style=""font-size:60px;"">+</div>","","html-keyboard-response","286","1128526","0.0-17.0-0.15","90969","List1B","white","man","","","","null","","","","","","","","",""
"null","<img src=""stim_listB/look6.gif""style=""height:400px;""></stim_listB>","","html-keyboard-response","287","1130528","0.0-17.0-1.15","90969","List1B","white","man","","","","null","","","","","","","","",""
"null","is being looked at by","","html-keyboard-response","288","1132530","0.0-17.0-2.15","90969","List1B","white","man","","","","null","","","","","","","","",""
"7657.5","","","survey-text","289","1140189","0.0-17.0-3.15","90969","List1B","white","man","","","","","{""Q0"":""Dave is being looked at by Mike""}","<img src=""stim_listB/look6.gif""style=""height:400px;""></stim_listB>","is being looked at by","","","","","",""
"null","<div style=""font-size:60px;"">+</div>","","html-keyboard-response","290","1140690","0.0-17.0-0.16","90969","List1B","white","man","","","","null","","","","","","","","",""
"null","<img src=""stim_listB/oppose8.gif""style=""height:400px;""></stim_listB>","","html-keyboard-response","291","1142706","0.0-17.0-1.16","90969","List1B","white","man","","","","null","","","","","","","","",""
"null","is being opposed by","","html-keyboard-response","292","1144708","0.0-17.0-2.16","90969","List1B","white","man","","","","null","","","","","","","","",""
"10110.700000017881","","","survey-text","293","1154821","0.0-17.0-3.16","90969","List1B","white","man","","","","","{""Q0"":""Ruth is being opposed by Beth""}","<img src=""stim_listB/oppose8.gif""style=""height:400px;""></stim_listB>","is being opposed by","","","","","",""
"null","<div style=""font-size:60px;"">+</div>","","html-keyboard-response","294","1155321","0.0-17.0-0.17","90969","List1B","white","man","","","","null","","","","","","","","",""
"null","<img src=""stim_listB/copy3.gif""style=""height:400px;""></stim_listB>","","html-keyboard-response","295","1157323","0.0-17.0-1.17","90969","List1B","white","man","","","","null","","","","","","","","",""
"null","is copying","","html-keyboard-response","296","1159336","0.0-17.0-2.17","90969","List1B","white","man","","","","null","","","","","","","","",""
"6743.5999999940395","","","survey-text","297","1166082","0.0-17.0-3.17","90969","List1B","white","man","","","","","{""Q0"":""Dave is copying Ruth""}","<img src=""stim_listB/copy3.gif""style=""height:400px;""></stim_listB>","is copying","","","","","",""
"null","<div style=""font-size:60px;"">+</div>","","html-keyboard-response","298","1166585","0.0-17.0-0.18","90969","List1B","white","man","","","","null","","","","","","","","",""
"null","<img src=""stim_listB/hug4.gif""style=""height:400px;""></stim_listB>","","html-keyboard-response","299","1168588","0.0-17.0-1.18","90969","List1B","white","man","","","","null","","","","","","","","",""
"null","is being hugged by","","html-keyboard-response","300","1170590","0.0-17.0-2.18","90969","List1B","white","man","","","","null","","","","","","","","",""
"6935.5","","","survey-text","301","1177528","0.0-17.0-3.18","90969","List1B","white","man","","","","","{""Q0"":""Dave is being hugged by Jane""}","<img src=""stim_listB/hug4.gif""style=""height:400px;""></stim_listB>","is being hugged by","","","","","",""
"null","<div style=""font-size:60px;"">+</div>","","html-keyboard-response","302","1178030","0.0-17.0-0.19","90969","List1B","white","man","","","","null","","","","","","","","",""
"null","<img src=""stim_listB/shout7.gif""style=""height:400px;""></stim_listB>","","html-keyboard-response","303","1180032","0.0-17.0-1.19","90969","List1B","white","man","","","","null","","","","","","","","",""
"null","is shouting at","","html-keyboard-response","304","1182034","0.0-17.0-2.19","90969","List1B","white","man","","","","null","","","","","","","","",""
"6874.200000017881","","","survey-text","305","1188910","0.0-17.0-3.19","90969","List1B","white","man","","","","","{""Q0"":""Ruth is shouting at Beth""}","<img src=""stim_listB/shout7.gif""style=""height:400px;""></stim_listB>","is shouting at","","","","","",""
"2908.5999999940395","<img src='img/portrait_matrix_list1.jpg' style='width:900px;height:500px;''></img><p>If you have memorised all the portraits and names and are ready to start, press Continue.</p><p><strong>Please note: Your memory of these faces will be tested 4 times during this experiment.</strong></p>","0","html-button-response","306","1191820","0.0-18.0-0.0","90969","List1B","white","man","","","","","","","","","","","","",""
"1530.7999999821186","<img src=""portrait/BM1.jpg""style=""height:400px;""></img>","4","html-button-response","307","1194353","0.0-18.0-1.0","90969","List1B","white","man","","true","4","","","","","","","","","",""
"null","CORRECT","","html-keyboard-response","308","1195856","0.0-18.0-2.0-0.0","90969","List1B","white","man","","","","null","","","","","","","","",""
"1354","<img src=""portrait/BW1.jpg""style=""height:400px;""></img>","0","html-button-response","309","1197211","0.0-18.0-4.0","90969","List1B","white","man","","true","0","","","","","","","","","",""
"null","CORRECT","","html-keyboard-response","310","1198713","0.0-18.0-5.0-0.0","90969","List1B","white","man","","","","null","","","","","","","","",""
"1748.699999988079","<img src=""portrait/WW1.jpg""style=""height:400px;""></img>","1","html-button-response","311","1200463","0.0-18.0-7.0","90969","List1B","white","man","","true","1","","","","","","","","","",""
"null","CORRECT","","html-keyboard-response","312","1201966","0.0-18.0-8.0-0.0","90969","List1B","white","man","","","","null","","","","","","","","",""
"1223.4000000059605","<img src=""portrait/WM2.jpg""style=""height:400px;""></img>","7","html-button-response","313","1203191","0.0-18.0-10.0","90969","List1B","white","man","","true","7","","","","","","","","","",""
"null","CORRECT","","html-keyboard-response","314","1204697","0.0-18.0-11.0-0.0","90969","List1B","white","man","","","","null","","","","","","","","",""
"2562.2999999821186","<img src=""portrait/WM1.jpg""style=""height:400px;""></img>","6","html-button-response","315","1207260","0.0-18.0-13.0","90969","List1B","white","man","","true","6","","","","","","","","","",""
"null","CORRECT","","html-keyboard-response","316","1208762","0.0-18.0-14.0-0.0","90969","List1B","white","man","","","","null","","","","","","","","",""
"1484.7999999821186","<img src=""portrait/BM2.jpg""style=""height:400px;""></img>","5","html-button-response","317","1210248","0.0-18.0-16.0","90969","List1B","white","man","","true","5","","","","","","","","","",""
"null","CORRECT","","html-keyboard-response","318","1211751","0.0-18.0-17.0-0.0","90969","List1B","white","man","","","","null","","","","","","","","",""
"1584","<img src=""portrait/WW2.jpg""style=""height:400px;""></img>","3","html-button-response","319","1213336","0.0-18.0-19.0","90969","List1B","white","man","","true","3","","","","","","","","","",""
"null","CORRECT","","html-keyboard-response","320","1214838","0.0-18.0-20.0-0.0","90969","List1B","white","man","","","","null","","","","","","","","",""
"1392.300000011921","<img src=""portrait/BW2.jpg""style=""height:400px;""></img>","2","html-button-response","321","1216232","0.0-18.0-22.0","90969","List1B","white","man","","true","2","","","","","","","","","",""
"null","CORRECT","","html-keyboard-response","322","1217736","0.0-18.0-23.0-0.0","90969","List1B","white","man","","","","null","","","","","","","","",""
"1158.5999999940395","<p>You got 8 out of 8 right first time. Press Continue.</p>","0","html-button-response","323","1218895","0.0-18.0-25.0","90969","List1B","white","man","","","","","","","","","","","","",""
"null","<div style=""font-size:60px;"">+</div>","","html-keyboard-response","324","1220398","0.0-19.0-0.0","90969","List1B","white","man","","","","null","","","","","","","","",""
"null","<img src=""stim_listB/greet8.gif""style=""height:400px;""></stim_listB>","","html-keyboard-response","325","1222399","0.0-19.0-1.0","90969","List1B","white","man","","","","null","","","","","","","","",""
"null","is being greeted by","","html-keyboard-response","326","1224401","0.0-19.0-2.0","90969","List1B","white","man","","","","null","","","","","","","","",""
"7605.199999988079","","","survey-text","327","1232008","0.0-19.0-3.0","90969","List1B","white","man","","","","","{""Q0"":""Beth is being greeted by Jane""}","<img src=""stim_listB/greet8.gif""style=""height:400px;""></stim_listB>","is being greeted by","","","","","",""
"null","<div style=""font-size:60px;"">+</div>","","html-keyboard-response","328","1232509","0.0-19.0-0.1","90969","List1B","white","man","","","","null","","","","","","","","",""
"null","<img src=""stim_listB/seduce7.gif""style=""height:400px;""></stim_listB>","","html-keyboard-response","329","1234512","0.0-19.0-1.1","90969","List1B","white","man","","","","null","","","","","","","","",""
"null","is seducing","","html-keyboard-response","330","1236514","0.0-19.0-2.1","90969","List1B","white","man","","","","null","","","","","","","","",""
"5247.4000000059605","","","survey-text","331","1241763","0.0-19.0-3.1","90969","List1B","white","man","","","","","{""Q0"":""Beth is seducing Jane""}","<img src=""stim_listB/seduce7.gif""style=""height:400px;""></stim_listB>","is seducing","","","","","",""
"null","<div style=""font-size:60px;"">+</div>","","html-keyboard-response","332","1242264","0.0-19.0-0.2","90969","List1B","white","man","","","","null","","","","","","","","",""
"null","<img src=""stim_listB/hug2.gif""style=""height:400px;""></stim_listB>","","html-keyboard-response","333","1244266","0.0-19.0-1.2","90969","List1B","white","man","","","","null","","","","","","","","",""
"null","is being hugged by","","html-keyboard-response","334","1246267","0.0-19.0-2.2","90969","List1B","white","man","","","","null","","","","","","","","",""
"7746.699999988079","","","survey-text","335","1254016","0.0-19.0-3.2","90969","List1B","white","man","","","","","{""Q0"":""Mike is being hugged by Kate""}","<img src=""stim_listB/hug2.gif""style=""height:400px;""></stim_listB>","is being hugged by","","","","","",""
"null","<div style=""font-size:60px;"">+</div>","","html-keyboard-response","336","1254517","0.0-19.0-0.3","90969","List1B","white","man","","","","null","","","","","","","","",""
"null","<img src=""stim_listB/touch3.gif""style=""height:400px;""></stim_listB>","","html-keyboard-response","337","1256519","0.0-19.0-1.3","90969","List1B","white","man","","","","null","","","","","","","","",""
"null","is touching","","html-keyboard-response","338","1258521","0.0-19.0-2.3","90969","List1B","white","man","","","","null","","","","","","","","",""
"4032.5","","","survey-text","339","1262556","0.0-19.0-3.3","90969","List1B","white","man","","","","","{""Q0"":""Jane is touching Dave""}","<img src=""stim_listB/touch3.gif""style=""height:400px;""></stim_listB>","is touching","","","","","",""
"null","<div style=""font-size:60px;"">+</div>","","html-keyboard-response","340","1263057","0.0-19.0-0.4","90969","List1B","white","man","","","","null","","","","","","","","",""
"null","<img src=""stim_listB/seduce3.gif""style=""height:400px;""></stim_listB>","","html-keyboard-response","341","1265059","0.0-19.0-1.4","90969","List1B","white","man","","","","null","","","","","","","","",""
"null","is seducing","","html-keyboard-response","342","1267060","0.0-19.0-2.4","90969","List1B","white","man","","","","null","","","","","","","","",""
"6271.899999976158","","","survey-text","343","1273334","0.0-19.0-3.4","90969","List1B","white","man","","","","","{""Q0"":""Luke is seducing Jane""}","<img src=""stim_listB/seduce3.gif""style=""height:400px;""></stim_listB>","is seducing","","","","","",""
"null","<div style=""font-size:60px;"">+</div>","","html-keyboard-response","344","1273835","0.0-19.0-0.5","90969","List1B","white","man","","","","null","","","","","","","","",""
"null","<img src=""stim_listB/greet1.gif""style=""height:400px;""></stim_listB>","","html-keyboard-response","345","1275837","0.0-19.0-1.5","90969","List1B","white","man","","","","null","","","","","","","","",""
"null","is greeting","","html-keyboard-response","346","1277838","0.0-19.0-2.5","90969","List1B","white","man","","","","null","","","","","","","","",""
"7886","","","survey-text","347","1285726","0.0-19.0-3.5","90969","List1B","white","man","","","","","{""Q0"":""Mike is greeting Beth""}","<img src=""stim_listB/greet1.gif""style=""height:400px;""></stim_listB>","is greeting","","","","","",""
"null","<div style=""font-size:60px;"">+</div>","","html-keyboard-response","348","1286227","0.0-19.0-0.6","90969","List1B","white","man","","","","null","","","","","","","","",""
"null","<img src=""stim_listB/greet5.gif""style=""height:400px;""></stim_listB>","","html-keyboard-response","349","1288229","0.0-19.0-1.6","90969","List1B","white","man","","","","null","","","","","","","","",""
"null","is greeting","","html-keyboard-response","350","1290231","0.0-19.0-2.6","90969","List1B","white","man","","","","null","","","","","","","","",""
"8067.5999999940395","","","survey-text","351","1298301","0.0-19.0-3.6","90969","List1B","white","man","","","","","{""Q0"":""Luke is greeting Mike""}","<img src=""stim_listB/greet5.gif""style=""height:400px;""></stim_listB>","is greeting","","","","","",""
"null","<div style=""font-size:60px;"">+</div>","","html-keyboard-response","352","1298802","0.0-19.0-0.7","90969","List1B","white","man","","","","null","","","","","","","","",""
"null","<img src=""stim_listB/oppose3.gif""style=""height:400px;""></stim_listB>","","html-keyboard-response","353","1300803","0.0-19.0-1.7","90969","List1B","white","man","","","","null","","","","","","","","",""
"null","is opposing","","html-keyboard-response","354","1302805","0.0-19.0-2.7","90969","List1B","white","man","","","","null","","","","","","","","",""
"4282.699999988079","","","survey-text","355","1307089","0.0-19.0-3.7","90969","List1B","white","man","","","","","{""Q0"":""Dave is opposing Jane""}","<img src=""stim_listB/oppose3.gif""style=""height:400px;""></stim_listB>","is opposing","","","","","",""
"null","<div style=""font-size:60px;"">+</div>","","html-keyboard-response","356","1307591","0.0-19.0-0.8","90969","List1B","white","man","","","","null","","","","","","","","",""
"null","<img src=""stim_listB/look7.gif""style=""height:400px;""></stim_listB>","","html-keyboard-response","357","1309592","0.0-19.0-1.8","90969","List1B","white","man","","","","null","","","","","","","","",""
"null","is looking at","","html-keyboard-response","358","1311593","0.0-19.0-2.8","90969","List1B","white","man","","","","null","","","","","","","","",""
"7853","","","survey-text","359","1319448","0.0-19.0-3.8","90969","List1B","white","man","","","","","{""Q0"":""Ruth is looking at Beth""}","<img src=""stim_listB/look7.gif""style=""height:400px;""></stim_listB>","is looking at","","","","","",""
"null","<div style=""font-size:60px;"">+</div>","","html-keyboard-response","360","1319949","0.0-19.0-0.9","90969","List1B","white","man","","","","null","","","","","","","","",""
"null","<img src=""stim_listB/touch8.gif""style=""height:400px;""></stim_listB>","","html-keyboard-response","361","1321950","0.0-19.0-1.9","90969","List1B","white","man","","","","null","","","","","","","","",""
"null","is being touched by","","html-keyboard-response","362","1323952","0.0-19.0-2.9","90969","List1B","white","man","","","","null","","","","","","","","",""
"6614","","","survey-text","363","1330568","0.0-19.0-3.9","90969","List1B","white","man","","","","","{""Q0"":""Ruth is being touched by Beth""}","<img src=""stim_listB/touch8.gif""style=""height:400px;""></stim_listB>","is being touched by","","","","","",""
"null","<div style=""font-size:60px;"">+</div>","","html-keyboard-response","364","1331070","0.0-19.0-0.10","90969","List1B","white","man","","","","null","","","","","","","","",""
"null","<img src=""stim_listB/touch4.gif""style=""height:400px;""></stim_listB>","","html-keyboard-response","365","1333072","0.0-19.0-1.10","90969","List1B","white","man","","","","null","","","","","","","","",""
"null","is being touched by","","html-keyboard-response","366","1335073","0.0-19.0-2.10","90969","List1B","white","man","","","","null","","","","","","","","",""
"9061.800000011921","","","survey-text","367","1344137","0.0-19.0-3.10","90969","List1B","white","man","","","","","{""Q0"":""Ruth is being touched by Luke""}","<img src=""stim_listB/touch4.gif""style=""height:400px;""></stim_listB>","is being touched by","","","","","",""
"null","<div style=""font-size:60px;"">+</div>","","html-keyboard-response","368","1344638","0.0-19.0-0.11","90969","List1B","white","man","","","","null","","","","","","","","",""
"null","<img src=""stim_listB/hug6.gif""style=""height:400px;""></stim_listB>","","html-keyboard-response","369","1346639","0.0-19.0-1.11","90969","List1B","white","man","","","","null","","","","","","","","",""
"null","is being hugged by","","html-keyboard-response","370","1348642","0.0-19.0-2.11","90969","List1B","white","man","","","","null","","","","","","","","",""
"6615.299999982119","","","survey-text","371","1355260","0.0-19.0-3.11","90969","List1B","white","man","","","","","{""Q0"":""Dave is being hugged by Mike""}","<img src=""stim_listB/hug6.gif""style=""height:400px;""></stim_listB>","is being hugged by","","","","","",""
"null","<div style=""font-size:60px;"">+</div>","","html-keyboard-response","372","1355761","0.0-19.0-0.12","90969","List1B","white","man","","","","null","","","","","","","","",""
"null","<img src=""stim_listB/look3.gif""style=""height:400px;""></stim_listB>","","html-keyboard-response","373","1357762","0.0-19.0-1.12","90969","List1B","white","man","","","","null","","","","","","","","",""
"null","is looking at","","html-keyboard-response","374","1359763","0.0-19.0-2.12","90969","List1B","white","man","","","","null","","","","","","","","",""
"6325.299999982119","","","survey-text","375","1366091","0.0-19.0-3.12","90969","List1B","white","man","","","","","{""Q0"":""Ruth is looking at Luke""}","<img src=""stim_listB/look3.gif""style=""height:400px;""></stim_listB>","is looking at","","","","","",""
"null","<div style=""font-size:60px;"">+</div>","","html-keyboard-response","376","1366592","0.0-19.0-0.13","90969","List1B","white","man","","","","null","","","","","","","","",""
"null","<img src=""stim_listB/kiss7.gif""style=""height:400px;""></stim_listB>","","html-keyboard-response","377","1368595","0.0-19.0-1.13","90969","List1B","white","man","","","","null","","","","","","","","",""
"null","is kissing","","html-keyboard-response","378","1370596","0.0-19.0-2.13","90969","List1B","white","man","","","","null","","","","","","","","",""
"7232.899999976158","","","survey-text","379","1377831","0.0-19.0-3.13","90969","List1B","white","man","","","","","{""Q0"":""Beth is kissing Ruth""}","<img src=""stim_listB/kiss7.gif""style=""height:400px;""></stim_listB>","is kissing","","","","","",""
"null","<div style=""font-size:60px;"">+</div>","","html-keyboard-response","380","1378332","0.0-19.0-0.14","90969","List1B","white","man","","","","null","","","","","","","","",""
"null","<img src=""stim_listB/shout3.gif""style=""height:400px;""></stim_listB>","","html-keyboard-response","381","1380333","0.0-19.0-1.14","90969","List1B","white","man","","","","null","","","","","","","","",""
"null","is shouting at","","html-keyboard-response","382","1382335","0.0-19.0-2.14","90969","List1B","white","man","","","","null","","","","","","","","",""
"7090.4000000059605","","","survey-text","383","1389428","0.0-19.0-3.14","90969","List1B","white","man","","","","","{""Q0"":""Luke is shouting at Ruth""}","<img src=""stim_listB/shout3.gif""style=""height:400px;""></stim_listB>","is shouting at","","","","","",""
"null","<div style=""font-size:60px;"">+</div>","","html-keyboard-response","384","1389930","0.0-19.0-0.15","90969","List1B","white","man","","","","null","","","","","","","","",""
"null","<img src=""stim_listB/kiss6.gif""style=""height:400px;""></stim_listB>","","html-keyboard-response","385","1391932","0.0-19.0-1.15","90969","List1B","white","man","","","","null","","","","","","","","",""
"null","is being kissed by","","html-keyboard-response","386","1393933","0.0-19.0-2.15","90969","List1B","white","man","","","","null","","","","","","","","",""
"10450","","","survey-text","387","1404385","0.0-19.0-3.15","90969","List1B","white","man","","","","","{""Q0"":""Mike is being kissed by Dave""}","<img src=""stim_listB/kiss6.gif""style=""height:400px;""></stim_listB>","is being kissed by","","","","","",""
"null","<div style=""font-size:60px;"">+</div>","","html-keyboard-response","388","1404887","0.0-19.0-0.16","90969","List1B","white","man","","","","null","","","","","","","","",""
"null","<img src=""stim_listB/copy8.gif""style=""height:400px;""></stim_listB>","","html-keyboard-response","389","1406888","0.0-19.0-1.16","90969","List1B","white","man","","","","null","","","","","","","","",""
"null","is being copied by","","html-keyboard-response","390","1408889","0.0-19.0-2.16","90969","List1B","white","man","","","","null","","","","","","","","",""
"8101.9000000059605","","","survey-text","391","1416995","0.0-19.0-3.16","90969","List1B","white","man","","","","","{""Q0"":""Jane is being copied by Ruth""}","<img src=""stim_listB/copy8.gif""style=""height:400px;""></stim_listB>","is being copied by","","","","","",""
"null","<div style=""font-size:60px;"">+</div>","","html-keyboard-response","392","1417496","0.0-19.0-0.17","90969","List1B","white","man","","","","null","","","","","","","","",""
"null","<img src=""stim_listB/copy1.gif""style=""height:400px;""></stim_listB>","","html-keyboard-response","393","1419498","0.0-19.0-1.17","90969","List1B","white","man","","","","null","","","","","","","","",""
"null","is copying","","html-keyboard-response","394","1421499","0.0-19.0-2.17","90969","List1B","white","man","","","","null","","","","","","","","",""
"8860.90000000596","","","survey-text","395","1430362","0.0-19.0-3.17","90969","List1B","white","man","","","","","{""Q0"":""Beth is copying Mike""}","<img src=""stim_listB/copy1.gif""style=""height:400px;""></stim_listB>","is copying","","","","","",""
"null","<div style=""font-size:60px;"">+</div>","","html-keyboard-response","396","1430864","0.0-19.0-0.18","90969","List1B","white","man","","","","null","","","","","","","","",""
"null","<img src=""stim_listB/seduce6.gif""style=""height:400px;""></stim_listB>","","html-keyboard-response","397","1432866","0.0-19.0-1.18","90969","List1B","white","man","","","","null","","","","","","","","",""
"null","is being seduced by","","html-keyboard-response","398","1434867","0.0-19.0-2.18","90969","List1B","white","man","","","","null","","","","","","","","",""
"7873","","","survey-text","399","1442742","0.0-19.0-3.18","90969","List1B","white","man","","","","","{""Q0"":""Luke is being seduced by Mike""}","<img src=""stim_listB/seduce6.gif""style=""height:400px;""></stim_listB>","is being seduced by","","","","","",""
"null","<div style=""font-size:60px;"">+</div>","","html-keyboard-response","400","1443246","0.0-19.0-0.19","90969","List1B","white","man","","","","null","","","","","","","","",""
"null","<img src=""stim_listB/touch1.gif""style=""height:400px;""></stim_listB>","","html-keyboard-response","401","1445247","0.0-19.0-1.19","90969","List1B","white","man","","","","null","","","","","","","","",""
"null","is touching","","html-keyboard-response","402","1447248","0.0-19.0-2.19","90969","List1B","white","man","","","","null","","","","","","","","",""
"8125.200000017881","","","survey-text","403","1455376","0.0-19.0-3.19","90969","List1B","white","man","","","","","{""Q0"":""Mike is touching Kate""}","<img src=""stim_listB/touch1.gif""style=""height:400px;""></stim_listB>","is touching","","","","","",""
"2233.4000000059605","<p>Thank you for completing that task.</p><p>The final part of this session is a questionnaire that will take about 4 minutes.</p><p>Press Continue.</p>","0","html-button-response","404","1457611","0.0-20.0","90969","List1B","white","man","","","","","","","","","","","","",""
"36471","","","survey-text","405","1495091","0.0-21.0","90969","List1B","white","man","","","","","{""Q0"":""30"",""Q1"":""English"",""Q2"":""English"",""Q3"":""The United States of America"",""Q4"":""American"",""Q5"":""White"",""Q6"":""Male""}","","","demographics","","","","",""
"1571.8999999761581","<p>Have you lived in the USA for the last 5 years or more?</p>","0","html-button-response","406","1496664","0.0-22.0","90969","List1B","white","man","","","","","","","","fiveyears","","","","",""
"2241","<p>Move the slider to show the extent to which you agree with the following statements.</p>","0","html-button-response","407","1499907","0.0-23.0","90969","List1B","white","man","","","","","","","","","","","","",""
"7729","","","html-slider-response","408","1508639","0.0-24.0-0.0-0.0","90969","List1B","white","man","","","","","","","","survey_gender","88","","","I am glad to have the friends that I have.","filler"
"4154.199999988079","","","html-slider-response","409","1512795","0.0-24.0-0.0-0.1","90969","List1B","white","man","","","","","","","","survey_gender","68","","","I feel a bond with my gender.","bond"
"6115.9000000059605","","","html-slider-response","410","1518912","0.0-24.0-0.0-0.2","90969","List1B","white","man","","","","","","","","survey_gender","9","","","I often think about the fact that I am my gender.","often"
"5280.199999988079","","","html-slider-response","411","1524194","0.0-24.0-0.0-0.3","90969","List1B","white","man","","","","","","","","survey_gender","36","","","Routine is not important to me.","filler"
"7427.4000000059605","","","html-slider-response","412","1531623","0.0-24.0-0.0-0.4","90969","List1B","white","man","","","","","","","","survey_gender","52","","","People of my gender are very similar to each other.","verysimilar"
"3322.300000011921","","","html-slider-response","413","1534946","0.0-24.0-0.0-0.5","90969","List1B","white","man","","","","","","","","survey_gender","85","","","My friends understand me.","filler"
"3874.699999988079","","","html-slider-response","414","1538822","0.0-24.0-0.0-0.6","90969","List1B","white","man","","","","","","","","survey_gender","60","","","Family is not more important to me than friendship.","filler"
"4807.4000000059605","","","html-slider-response","415","1543631","0.0-24.0-0.0-0.7","90969","List1B","white","man","","","","","","","","survey_gender","69","","","It is not always easy for people to know what I am thinking.","filler"
"2985.5","","","html-slider-response","416","1546618","0.0-24.0-0.0-0.8","90969","List1B","white","man","","","","","","","","survey_gender","65","","","I would say I am an animal person.","filler"
"4502.4000000059605","","","html-slider-response","417","1551121","0.0-24.0-0.0-0.9","90969","List1B","white","man","","","","","","","","survey_gender","24","","","I feel solidarity with my friends.","filler"
"2411.7000000178814","","","html-slider-response","418","1553534","0.0-24.0-0.0-0.10","90969","List1B","white","man","","","","","","","","survey_gender","86","","","I feel a bond with my friends.","filler"
"6550.5999999940395","","","html-slider-response","419","1560086","0.0-24.0-0.0-0.11","90969","List1B","white","man","","","","","","","","survey_gender","77","","","I am similar to the average person of my gender.","similar"
"3436.4000000059605","","","html-slider-response","420","1563524","0.0-24.0-0.0-0.12","90969","List1B","white","man","","","","","","","","survey_gender","82","","","It is pleasant to be my gender.","pleasant"
"2353.2000000178814","","","html-slider-response","421","1565879","0.0-24.0-0.0-0.13","90969","List1B","white","man","","","","","","","","survey_gender","93","","","Being around my friends gives me a good feeling.","filler"
"3193.199999988079","","","html-slider-response","422","1569073","0.0-24.0-0.0-0.14","90969","List1B","white","man","","","","","","","","survey_gender","11","","","I feel solidarity with my gender.","solidarity"
"4571.300000011921","","","html-slider-response","423","1573645","0.0-24.0-0.0-0.15","90969","List1B","white","man","","","","","","","","survey_gender","56","","","I often think about my actions.","filler"
"3878.2999999821186","","","html-slider-response","424","1577525","0.0-24.0-0.0-0.16","90969","List1B","white","man","","","","","","","","survey_gender","85","","","I have a lot in common with the average person of my gender.","average"
"2195.5","","","html-slider-response","425","1579722","0.0-24.0-0.0-0.17","90969","List1B","white","man","","","","","","","","survey_gender","67","","","I consider myself a highly empathetic person.","filler"
"2462.800000011921","","","html-slider-response","426","1582186","0.0-24.0-0.0-0.18","90969","List1B","white","man","","","","","","","","survey_gender","88","","","I feel committed to my gender.","committed"
"6403.700000017881","","","html-slider-response","427","1588591","0.0-24.0-0.0-0.19","90969","List1B","white","man","","","","","","","","survey_gender","94","","","I have a lot in common with my friends.","filler"
"5560.299999982119","","","html-slider-response","428","1594153","0.0-24.0-0.0-0.20","90969","List1B","white","man","","","","","","","","survey_gender","13","","","Being my gender is an important part of how I see myself.","important"
"3407.300000011921","","","html-slider-response","429","1597561","0.0-24.0-0.0-0.21","90969","List1B","white","man","","","","","","","","survey_gender","18","","","The fact that I am my gender is an important part of my identity.","identity"
"4908.199999988079","","","html-slider-response","430","1602471","0.0-24.0-0.0-0.22","90969","List1B","white","man","","","","","","","","survey_gender","37","","","Most of the friends in my life are very similar to me.","filler"
"3484.300000011921","","","html-slider-response","431","1605957","0.0-24.0-0.0-0.23","90969","List1B","white","man","","","","","","","","survey_gender","74","","","People of my gender have a lot in common with each other.","common"
"3510.399999976158","","","html-slider-response","432","1609469","0.0-24.0-0.0-0.24","90969","List1B","white","man","","","","","","","","survey_gender","84","","","Being my gender gives me a good feeling.","feeling"
"2505.4000000059605","","","html-slider-response","433","1611976","0.0-24.0-0.0-0.25","90969","List1B","white","man","","","","","","","","survey_gender","86","","","My friends have a lot in common with each other.","filler"
"2347","","","html-slider-response","434","1614324","0.0-24.0-0.0-0.26","90969","List1B","white","man","","","","","","","","survey_gender","83","","","I am glad to be my gender.","glad"
"2721.800000011921","","","html-slider-response","435","1617046","0.0-24.0-0.0-0.27","90969","List1B","white","man","","","","","","","","survey_gender","86","","","I think that my gender has a lot to be proud of.","proud"
"2800.5999999940395","","","html-slider-response","436","1619848","0.0-24.0-1.0-0.0","90969","List1B","white","man","","","","","","","","survey_race","35","","","I consider myself an introvert.","filler"
"5379.5999999940395","","","html-slider-response","437","1625229","0.0-24.0-1.0-0.1","90969","List1B","white","man","","","","","","","","survey_race","45","","","I feel a bond with my race.","bond"
"2390.4000000059605","","","html-slider-response","438","1627621","0.0-24.0-1.0-0.2","90969","List1B","white","man","","","","","","","","survey_race","28","","","Being my race is an important part of how I see myself.","important"
"5472.699999988079","","","html-slider-response","439","1633095","0.0-24.0-1.0-0.3","90969","List1B","white","man","","","","","","","","survey_race","41","","","My age is not an important part of who I am.","filler"
"3569.4000000059605","","","html-slider-response","440","1636664","0.0-24.0-1.0-0.4","90969","List1B","white","man","","","","","","","","survey_race","17","","","The fact that I am my race is an important part of my identity.","identity"
"4259.5","","","html-slider-response","441","1640925","0.0-24.0-1.0-0.5","90969","List1B","white","man","","","","","","","","survey_race","8","","","I often think about the fact that I am my race.","often"
"3199.7000000178814","","","html-slider-response","442","1644127","0.0-24.0-1.0-0.6","90969","List1B","white","man","","","","","","","","survey_race","68","","","I am similar to the average person of my race.","similar"
"5225.300000011921","","","html-slider-response","443","1649353","0.0-24.0-1.0-0.7","90969","List1B","white","man","","","","","","","","survey_race","78","","","I have a lot in common with people of a similar age to me.","filler"
"2240","","","html-slider-response","444","1651595","0.0-24.0-1.0-0.8","90969","List1B","white","man","","","","","","","","survey_race","66","","","I feel solidarity with people the same age as me.","filler"
"2180.800000011921","","","html-slider-response","445","1653777","0.0-24.0-1.0-0.9","90969","List1B","white","man","","","","","","","","survey_race","71","","","I feel a bond with people the same age as me.","filler"
"3323.5999999940395","","","html-slider-response","446","1657101","0.0-24.0-1.0-0.10","90969","List1B","white","man","","","","","","","","survey_race","57","","","Being my age gives me a good feeling.","filler"
"2126.2000000178814","","","html-slider-response","447","1659229","0.0-24.0-1.0-0.11","90969","List1B","white","man","","","","","","","","survey_race","63","","","Getting older does not worry me.","filler"
"3786.4000000059605","","","html-slider-response","448","1663016","0.0-24.0-1.0-0.12","90969","List1B","white","man","","","","","","","","survey_race","65","","","People of my race have a lot in common with each other.","common"
"3889.9000000059605","","","html-slider-response","449","1666907","0.0-24.0-1.0-0.13","90969","List1B","white","man","","","","","","","","survey_race","63","","","I am glad to be the age I am.","filler"
"2329.4000000059605","","","html-slider-response","450","1669238","0.0-24.0-1.0-0.14","90969","List1B","white","man","","","","","","","","survey_race","62","","","I consider myself an extrovert.","filler"
"4759.5","","","html-slider-response","451","1673999","0.0-24.0-1.0-0.15","90969","List1B","white","man","","","","","","","","survey_race","31","","","I feel solidarity with my race.","solidarity"
"3267.4000000059605","","","html-slider-response","452","1677268","0.0-24.0-1.0-0.16","90969","List1B","white","man","","","","","","","","survey_race","73","","","People my age have a lot in common with each other.","filler"
"5158.399999976158","","","html-slider-response","453","1682427","0.0-24.0-1.0-0.17","90969","List1B","white","man","","","","","","","","survey_race","54","","","People of my race are very similar to each other.","verysimilar"
"4870.100000023842","","","html-slider-response","454","1687299","0.0-24.0-1.0-0.18","90969","List1B","white","man","","","","","","","","survey_race","13","","","Being my race gives me a good feeling.","feeling"
"2177.4000000059605","","","html-slider-response","455","1689478","0.0-24.0-1.0-0.19","90969","List1B","white","man","","","","","","","","survey_race","15","","","I feel committed to my race.","committed"
"2410.0999999940395","","","html-slider-response","456","1691889","0.0-24.0-1.0-0.20","90969","List1B","white","man","","","","","","","","survey_race","70","","","I enjoy being in large groups.","filler"
"3614.699999988079","","","html-slider-response","457","1695505","0.0-24.0-1.0-0.21","90969","List1B","white","man","","","","","","","","survey_race","42","","","I am glad to be my race.","glad"
"4653.4000000059605","","","html-slider-response","458","1700160","0.0-24.0-1.0-0.22","90969","List1B","white","man","","","","","","","","survey_race","58","","","I am glad to be my age.","filler"
"3736.199999988079","","","html-slider-response","459","1703898","0.0-24.0-1.0-0.23","90969","List1B","white","man","","","","","","","","survey_race","76","","","It is pleasant to be my race.","pleasant"
"4073.5999999940395","","","html-slider-response","460","1707973","0.0-24.0-1.0-0.24","90969","List1B","white","man","","","","","","","","survey_race","17","","","I often think about the fact that I am my age.","filler"
"2929.800000011921","","","html-slider-response","461","1710904","0.0-24.0-1.0-0.25","90969","List1B","white","man","","","","","","","","survey_race","60","","","I have a lot in common with the average person of my race.","average"
"3702.199999988079","","","html-slider-response","462","1714607","0.0-24.0-1.0-0.26","90969","List1B","white","man","","","","","","","","survey_race","62","","","The older I get, the wiser I feel.","filler"
"3265.4000000059605","","","html-slider-response","463","1717874","0.0-24.0-1.0-0.27","90969","List1B","white","man","","","","","","","","survey_race","59","","","I think that my race has a lot to be proud of.","proud"
"61539.20000001788","","","survey-text","464","1779416","0.0-25.0","90969","List1B","white","man","","","","","{""Q0"":""616480e6749791ef8dcad5b3""}","","","worker_id","","","","",""
"3018.9000000059605","","","external-html","465","1782771","0.0-26.0","90969","List1B","white","man","debrief.html","","","","","","","","","","","",""
