"rt","stimulus","button_pressed","trial_type","trial_index","time_elapsed","internal_node_id","subject","list","ppt_race","ppt_gender","url","first_guess","correct","key_press","responses","image_type","phrase_type","test_part","response","stimulus1","stimulus2","question_type","survey_item"
"3035.1000000089407","Welcome to the experiment. Press Continue to begin.","0","html-button-response","0","3037","0.0-0.0","91288","List2A","black","man","","","","","","","","","","","","",""
"4452.800000011921","","","external-html","1","9637","0.0-1.0","91288","List2A","black","man","consent.html","","","","","","","","","","","",""
"1495.199999988079","<p>On the next page, you will see portraits of 8 people and their names.</p><p>Your first task is to take a few minutes to memorise the names of these people.</p><p>You will have to recall their names during the rest of the experiment, so it is</p><p>essential that you try to memorise these people and their names as best as you can.</p><br><p><strong>You will then be tested on your memory of these names and portraits.</strong></p><br><p>The experiment will start after you have completed this memory test.</p><br><p>Ready?</p>","0","html-button-response","2","11136","0.0-2.0","91288","List2A","black","man","","","","","","","","","","","","",""
"7371","<img src='img/portrait_matrix_list2.jpg' style='width:900px;height:500px;''></img><p>If you have memorised all the portraits and names and are ready to start, press Continue.</p><p><strong>Please note: Your memory of these faces will be tested 4 times during this experiment.</strong></p>","0","html-button-response","3","19526","0.0-3.0-0.0","91288","List2A","black","man","","","","","","","","","","","","",""
"6400.5999999940395","<img src=""portrait/WM1.jpg""style=""height:400px;""></img>","6","html-button-response","4","26946","0.0-3.0-1.0","91288","List2A","black","man","","true","6","","","","","","","","","",""
"null","CORRECT","","html-keyboard-response","5","28469","0.0-3.0-2.0-0.0","91288","List2A","black","man","","","","null","","","","","","","","",""
"17028","<img src=""portrait/WW2.jpg""style=""height:400px;""></img>","3","html-button-response","6","45501","0.0-3.0-4.0","91288","List2A","black","man","","true","3","","","","","","","","","",""
"null","CORRECT","","html-keyboard-response","7","47024","0.0-3.0-5.0-0.0","91288","List2A","black","man","","","","null","","","","","","","","",""
"4002.2000000029802","<img src=""portrait/BM2.jpg""style=""height:400px;""></img>","5","html-button-response","8","51031","0.0-3.0-7.0","91288","List2A","black","man","","true","5","","","","","","","","","",""
"null","CORRECT","","html-keyboard-response","9","52556","0.0-3.0-8.0-0.0","91288","List2A","black","man","","","","null","","","","","","","","",""
"2849.3999999910593","<img src=""portrait/WM2.jpg""style=""height:400px;""></img>","7","html-button-response","10","55409","0.0-3.0-10.0","91288","List2A","black","man","","true","7","","","","","","","","","",""
"null","CORRECT","","html-keyboard-response","11","56936","0.0-3.0-11.0-0.0","91288","List2A","black","man","","","","null","","","","","","","","",""
"4237.5","<img src=""portrait/BM1.jpg""style=""height:400px;""></img>","4","html-button-response","12","61177","0.0-3.0-13.0","91288","List2A","black","man","","true","4","","","","","","","","","",""
"null","CORRECT","","html-keyboard-response","13","62689","0.0-3.0-14.0-0.0","91288","List2A","black","man","","","","null","","","","","","","","",""
"3130.7000000029802","<img src=""portrait/BW1.jpg""style=""height:400px;""></img>","0","html-button-response","14","65823","0.0-3.0-16.0","91288","List2A","black","man","","true","0","","","","","","","","","",""
"null","CORRECT","","html-keyboard-response","15","67342","0.0-3.0-17.0-0.0","91288","List2A","black","man","","","","null","","","","","","","","",""
"3961.800000011921","<img src=""portrait/BW2.jpg""style=""height:400px;""></img>","2","html-button-response","16","71307","0.0-3.0-19.0","91288","List2A","black","man","","true","2","","","","","","","","","",""
"null","CORRECT","","html-keyboard-response","17","72831","0.0-3.0-20.0-0.0","91288","List2A","black","man","","","","null","","","","","","","","",""
"3211.5999999940395","<img src=""portrait/WW1.jpg""style=""height:400px;""></img>","1","html-button-response","18","76046","0.0-3.0-22.0","91288","List2A","black","man","","true","1","","","","","","","","","",""
"null","CORRECT","","html-keyboard-response","19","77575","0.0-3.0-23.0-0.0","91288","List2A","black","man","","","","null","","","","","","","","",""
"1489","<p>You got 8 out of 8 right first time. Press Continue.</p>","0","html-button-response","20","79068","0.0-3.0-25.0","91288","List2A","black","man","","","","","","","","","","","","",""
"13412.79999999702","<p>In this experiment, you will view photographs of the people from the memory game interacting.</p><p>By using the <strong>exact</strong> phrase given <i>after</i> the photograph appears and recalling the correct names of the people in the photographs, form a sentence describing the interaction. You do not need to capitalise names.</p><p>Type your answer in the space provided. Please complete every sentence before moving onto the next trial.</p><p>You will only have a few seconds to memorise each given photograph and phrase before you can respond, so try your best to focus.</p><p>An example is given below. Press 'Continue' when you are ready.</p><img src='img/speaking_example.jpg' style='width:800px;height:460px;''></img>","0","html-button-response","21","93503","0.0-4.0","91288","List2A","black","man","","","","","","","","","","","","",""
"1906.5","<p>Before the experiment starts, you will watch two example trials. Press 'Continue'.</p>","0","html-button-response","22","96426","0.0-5.0","91288","List2A","black","man","","","","","","","","","","","","",""
"null","<img src='img/play_eg.gif' style='height:400px;''></img>","","html-keyboard-response","23","99434","0.0-6.0","91288","List2A","black","man","","","","null","","","","","","","","",""
"null","<p>is playing with</p>","","html-keyboard-response","24","101444","0.0-7.0","91288","List2A","black","man","","","","null","","","","","","","","",""
"1345.1000000089407","<p><b>Answer:</b> jane is playing with ruth</p>","0","html-button-response","25","102791","0.0-8.0","91288","List2A","black","man","","","","","","","","","","","","",""
"null","<img src='img/dance_eg.gif' style='height:400px;''></img>","","html-keyboard-response","26","106805","0.0-9.0","91288","List2A","black","man","","","","null","","","","","","","","",""
"null","<p>is being entertained by</p>","","html-keyboard-response","27","109795","0.0-10.0","91288","List2A","black","man","","","","null","","","","","","","","",""
"169334.89999999106","<p><b>Answer:</b> fred is being entertained by mike</p>","0","html-button-response","28","279130","0.0-11.0","91288","List2A","black","man","","","","","","","","","","","","",""
"128205.40000000596","<p>Ready to start the experiment?</p><br><p><strong>Remember to describe the picture using a full sentence,</strong></p><p><strong>that combines the names of the people with the <i>exact</i> phrase given.</strong></p><p><strong>To receive full payment you must do this correctly.</strong></p><p><strong> You do not need to capitalise names or use punctuation.</strong></p><br><p>Press 'Continue' to begin.</p>","0","html-button-response","29","408668","0.0-12.0","91288","List2A","black","man","","","","","","","","","","","","",""
"null","<div style=""font-size:60px;"">+</div>","","html-keyboard-response","30","410184","0.0-13.0-0.0","91288","List2A","black","man","","","","null","","","","","","","","",""
"null","<img src=""stim_listA/greet2.gif""style=""height:400px;""></stim_listA>","","html-keyboard-response","31","412189","0.0-13.0-1.0","91288","List2A","black","man","","","","null","","","","","","","","",""
"null","is being greeted by","","html-keyboard-response","32","414200","0.0-13.0-2.0","91288","List2A","black","man","","","","null","","","","","","","","",""
"741241.700000003","","","survey-text","33","1155450","0.0-13.0-3.0","91288","List2A","black","man","","","","","{""Q0"":""luke is being greeted by jane""}","<img src=""stim_listA/greet2.gif""style=""height:400px;""></stim_listA>","is being greeted by","","","","","",""
"null","<div style=""font-size:60px;"">+</div>","","html-keyboard-response","34","1155955","0.0-13.0-0.1","91288","List2A","black","man","","","","null","","","","","","","","",""
"null","<img src=""stim_listA/greet3.gif""style=""height:400px;""></stim_listA>","","html-keyboard-response","35","1157965","0.0-13.0-1.1","91288","List2A","black","man","","","","null","","","","","","","","",""
"null","is greeting","","html-keyboard-response","36","1159973","0.0-13.0-2.1","91288","List2A","black","man","","","","null","","","","","","","","",""
"6333.5999999940395","","","survey-text","37","1166314","0.0-13.0-3.1","91288","List2A","black","man","","","","","{""Q0"":""mike is greeting beth""}","<img src=""stim_listA/greet3.gif""style=""height:400px;""></stim_listA>","is greeting","","","","","",""
"null","<div style=""font-size:60px;"">+</div>","","html-keyboard-response","38","1166818","0.0-13.0-0.2","91288","List2A","black","man","","","","null","","","","","","","","",""
"null","<img src=""stim_listA/shout6.gif""style=""height:400px;""></stim_listA>","","html-keyboard-response","39","1168822","0.0-13.0-1.2","91288","List2A","black","man","","","","null","","","","","","","","",""
"null","is being shouted at by","","html-keyboard-response","40","1170831","0.0-13.0-2.2","91288","List2A","black","man","","","","null","","","","","","","","",""
"9510.70000000298","","","survey-text","41","1180348","0.0-13.0-3.2","91288","List2A","black","man","","","","","{""Q0"":""mike is being shouted at by dave""}","<img src=""stim_listA/shout6.gif""style=""height:400px;""></stim_listA>","is being shouted at by","","","","","",""
"null","<div style=""font-size:60px;"">+</div>","","html-keyboard-response","42","1180862","0.0-13.0-0.3","91288","List2A","black","man","","","","null","","","","","","","","",""
"null","<img src=""stim_listA/kiss6.gif""style=""height:400px;""></stim_listA>","","html-keyboard-response","43","1182870","0.0-13.0-1.3","91288","List2A","black","man","","","","null","","","","","","","","",""
"null","is being kissed by","","html-keyboard-response","44","1184879","0.0-13.0-2.3","91288","List2A","black","man","","","","null","","","","","","","","",""
"7865","","","survey-text","45","1192749","0.0-13.0-3.3","91288","List2A","black","man","","","","","{""Q0"":""mike is being kissed by dave""}","<img src=""stim_listA/kiss6.gif""style=""height:400px;""></stim_listA>","is being kissed by","","","","","",""
"null","<div style=""font-size:60px;"">+</div>","","html-keyboard-response","46","1193257","0.0-13.0-0.4","91288","List2A","black","man","","","","null","","","","","","","","",""
"null","<img src=""stim_listA/look7.gif""style=""height:400px;""></stim_listA>","","html-keyboard-response","47","1195265","0.0-13.0-1.4","91288","List2A","black","man","","","","null","","","","","","","","",""
"null","is looking at","","html-keyboard-response","48","1197268","0.0-13.0-2.4","91288","List2A","black","man","","","","null","","","","","","","","",""
"13776","","","survey-text","49","1211049","0.0-13.0-3.4","91288","List2A","black","man","","","","","{""Q0"":""beth is looking at ruth""}","<img src=""stim_listA/look7.gif""style=""height:400px;""></stim_listA>","is looking at","","","","","",""
"null","<div style=""font-size:60px;"">+</div>","","html-keyboard-response","50","1211559","0.0-13.0-0.5","91288","List2A","black","man","","","","null","","","","","","","","",""
"null","<img src=""stim_listA/look4.gif""style=""height:400px;""></stim_listA>","","html-keyboard-response","51","1213571","0.0-13.0-1.5","91288","List2A","black","man","","","","null","","","","","","","","",""
"null","is being looked at by","","html-keyboard-response","52","1215581","0.0-13.0-2.5","91288","List2A","black","man","","","","null","","","","","","","","",""
"10087.09999999404","","","survey-text","53","1225673","0.0-13.0-3.5","91288","List2A","black","man","","","","","{""Q0"":""jane is being looked at by mike""}","<img src=""stim_listA/look4.gif""style=""height:400px;""></stim_listA>","is being looked at by","","","","","",""
"null","<div style=""font-size:60px;"">+</div>","","html-keyboard-response","54","1226190","0.0-13.0-0.6","91288","List2A","black","man","","","","null","","","","","","","","",""
"null","<img src=""stim_listA/touch4.gif""style=""height:400px;""></stim_listA>","","html-keyboard-response","55","1228197","0.0-13.0-1.6","91288","List2A","black","man","","","","null","","","","","","","","",""
"null","is being touched by","","html-keyboard-response","56","1230206","0.0-13.0-2.6","91288","List2A","black","man","","","","null","","","","","","","","",""
"10361.699999988079","","","survey-text","57","1240573","0.0-13.0-3.6","91288","List2A","black","man","","","","","{""Q0"":""beth is being touched by fred""}","<img src=""stim_listA/touch4.gif""style=""height:400px;""></stim_listA>","is being touched by","","","","","",""
"null","<div style=""font-size:60px;"">+</div>","","html-keyboard-response","58","1241086","0.0-13.0-0.7","91288","List2A","black","man","","","","null","","","","","","","","",""
"null","<img src=""stim_listA/challenge3.gif""style=""height:400px;""></stim_listA>","","html-keyboard-response","59","1243103","0.0-13.0-1.7","91288","List2A","black","man","","","","null","","","","","","","","",""
"null","is challenging","","html-keyboard-response","60","1245111","0.0-13.0-2.7","91288","List2A","black","man","","","","null","","","","","","","","",""
"9827.29999999702","","","survey-text","61","1254944","0.0-13.0-3.7","91288","List2A","black","man","","","","","{""Q0"":""mike is challenging beth""}","<img src=""stim_listA/challenge3.gif""style=""height:400px;""></stim_listA>","is challenging","","","","","",""
"null","<div style=""font-size:60px;"">+</div>","","html-keyboard-response","62","1255465","0.0-13.0-0.8","91288","List2A","black","man","","","","null","","","","","","","","",""
"null","<img src=""stim_listA/kiss2.gif""style=""height:400px;""></stim_listA>","","html-keyboard-response","63","1257474","0.0-13.0-1.8","91288","List2A","black","man","","","","null","","","","","","","","",""
"null","is being kissed by","","html-keyboard-response","64","1259482","0.0-13.0-2.8","91288","List2A","black","man","","","","null","","","","","","","","",""
"83082.29999999702","","","survey-text","65","1342570","0.0-13.0-3.8","91288","List2A","black","man","","","","","{""Q0"":""jane is being kissed by dave""}","<img src=""stim_listA/kiss2.gif""style=""height:400px;""></stim_listA>","is being kissed by","","","","","",""
"null","<div style=""font-size:60px;"">+</div>","","html-keyboard-response","66","1343081","0.0-13.0-0.9","91288","List2A","black","man","","","","null","","","","","","","","",""
"null","<img src=""stim_listA/look3.gif""style=""height:400px;""></stim_listA>","","html-keyboard-response","67","1345088","0.0-13.0-1.9","91288","List2A","black","man","","","","null","","","","","","","","",""
"null","is looking at","","html-keyboard-response","68","1347096","0.0-13.0-2.9","91288","List2A","black","man","","","","null","","","","","","","","",""
"7620.20000000298","","","survey-text","69","1354722","0.0-13.0-3.9","91288","List2A","black","man","","","","","{""Q0"":""beth is looking at fred""}","<img src=""stim_listA/look3.gif""style=""height:400px;""></stim_listA>","is looking at","","","","","",""
"null","<div style=""font-size:60px;"">+</div>","","html-keyboard-response","70","1355229","0.0-13.0-0.10","91288","List2A","black","man","","","","null","","","","","","","","",""
"null","<img src=""stim_listA/shout3.gif""style=""height:400px;""></stim_listA>","","html-keyboard-response","71","1357248","0.0-13.0-1.10","91288","List2A","black","man","","","","null","","","","","","","","",""
"null","is shouting at","","html-keyboard-response","72","1359260","0.0-13.0-2.10","91288","List2A","black","man","","","","null","","","","","","","","",""
"7457","","","survey-text","73","1366722","0.0-13.0-3.10","91288","List2A","black","man","","","","","{""Q0"":""beth is shouting at fred""}","<img src=""stim_listA/shout3.gif""style=""height:400px;""></stim_listA>","is shouting at","","","","","",""
"null","<div style=""font-size:60px;"">+</div>","","html-keyboard-response","74","1367234","0.0-13.0-0.11","91288","List2A","black","man","","","","null","","","","","","","","",""
"null","<img src=""stim_listA/copy8.gif""style=""height:400px;""></stim_listA>","","html-keyboard-response","75","1369240","0.0-13.0-1.11","91288","List2A","black","man","","","","null","","","","","","","","",""
"null","is being copied by","","html-keyboard-response","76","1371252","0.0-13.0-2.11","91288","List2A","black","man","","","","null","","","","","","","","",""
"11749","","","survey-text","77","1383007","0.0-13.0-3.11","91288","List2A","black","man","","","","","{""Q0"":""ruth is being copied by jane""}","<img src=""stim_listA/copy8.gif""style=""height:400px;""></stim_listA>","is being copied by","","","","","",""
"null","<div style=""font-size:60px;"">+</div>","","html-keyboard-response","78","1383524","0.0-13.0-0.12","91288","List2A","black","man","","","","null","","","","","","","","",""
"null","<img src=""stim_listA/copy3.gif""style=""height:400px;""></stim_listA>","","html-keyboard-response","79","1385529","0.0-13.0-1.12","91288","List2A","black","man","","","","null","","","","","","","","",""
"null","is copying","","html-keyboard-response","80","1387536","0.0-13.0-2.12","91288","List2A","black","man","","","","null","","","","","","","","",""
"7100.399999991059","","","survey-text","81","1394641","0.0-13.0-3.12","91288","List2A","black","man","","","","","{""Q0"":""beth is copying mike""}","<img src=""stim_listA/copy3.gif""style=""height:400px;""></stim_listA>","is copying","","","","","",""
"null","<div style=""font-size:60px;"">+</div>","","html-keyboard-response","82","1395146","0.0-13.0-0.13","91288","List2A","black","man","","","","null","","","","","","","","",""
"null","<img src=""stim_listA/hug7.gif""style=""height:400px;""></stim_listA>","","html-keyboard-response","83","1397162","0.0-13.0-1.13","91288","List2A","black","man","","","","null","","","","","","","","",""
"null","is hugging","","html-keyboard-response","84","1399175","0.0-13.0-2.13","91288","List2A","black","man","","","","null","","","","","","","","",""
"5958.5","","","survey-text","85","1405139","0.0-13.0-3.13","91288","List2A","black","man","","","","","{""Q0"":""beth is hugging ruth""}","<img src=""stim_listA/hug7.gif""style=""height:400px;""></stim_listA>","is hugging","","","","","",""
"null","<div style=""font-size:60px;"">+</div>","","html-keyboard-response","86","1405647","0.0-13.0-0.14","91288","List2A","black","man","","","","null","","","","","","","","",""
"null","<img src=""stim_listA/kiss7.gif""style=""height:400px;""></stim_listA>","","html-keyboard-response","87","1407652","0.0-13.0-1.14","91288","List2A","black","man","","","","null","","","","","","","","",""
"null","is kissing","","html-keyboard-response","88","1409665","0.0-13.0-2.14","91288","List2A","black","man","","","","null","","","","","","","","",""
"6328.899999991059","","","survey-text","89","1415999","0.0-13.0-3.14","91288","List2A","black","man","","","","","{""Q0"":""beth is kissing ruth""}","<img src=""stim_listA/kiss7.gif""style=""height:400px;""></stim_listA>","is kissing","","","","","",""
"null","<div style=""font-size:60px;"">+</div>","","html-keyboard-response","90","1416515","0.0-13.0-0.15","91288","List2A","black","man","","","","null","","","","","","","","",""
"null","<img src=""stim_listA/copy5.gif""style=""height:400px;""></stim_listA>","","html-keyboard-response","91","1418532","0.0-13.0-1.15","91288","List2A","black","man","","","","null","","","","","","","","",""
"null","is copying","","html-keyboard-response","92","1420542","0.0-13.0-2.15","91288","List2A","black","man","","","","null","","","","","","","","",""
"84525.70000000298","","","survey-text","93","1505074","0.0-13.0-3.15","91288","List2A","black","man","","","","","{""Q0"":""dave is copying fred""}","<img src=""stim_listA/copy5.gif""style=""height:400px;""></stim_listA>","is copying","","","","","",""
"null","<div style=""font-size:60px;"">+</div>","","html-keyboard-response","94","1505589","0.0-13.0-0.16","91288","List2A","black","man","","","","null","","","","","","","","",""
"null","<img src=""stim_listA/hug3.gif""style=""height:400px;""></stim_listA>","","html-keyboard-response","95","1507605","0.0-13.0-1.16","91288","List2A","black","man","","","","null","","","","","","","","",""
"null","is hugging","","html-keyboard-response","96","1509617","0.0-13.0-2.16","91288","List2A","black","man","","","","null","","","","","","","","",""
"6716.5","","","survey-text","97","1516340","0.0-13.0-3.16","91288","List2A","black","man","","","","","{""Q0"":""fred is hugging beth""}","<img src=""stim_listA/hug3.gif""style=""height:400px;""></stim_listA>","is hugging","","","","","",""
"null","<div style=""font-size:60px;"">+</div>","","html-keyboard-response","98","1516841","0.0-13.0-0.17","91288","List2A","black","man","","","","null","","","","","","","","",""
"null","<img src=""stim_listA/touch5.gif""style=""height:400px;""></stim_listA>","","html-keyboard-response","99","1518853","0.0-13.0-1.17","91288","List2A","black","man","","","","null","","","","","","","","",""
"null","is touching","","html-keyboard-response","100","1520862","0.0-13.0-2.17","91288","List2A","black","man","","","","null","","","","","","","","",""
"5842.5","","","survey-text","101","1526710","0.0-13.0-3.17","91288","List2A","black","man","","","","","{""Q0"":""mike is touching dave""}","<img src=""stim_listA/touch5.gif""style=""height:400px;""></stim_listA>","is touching","","","","","",""
"null","<div style=""font-size:60px;"">+</div>","","html-keyboard-response","102","1527217","0.0-13.0-0.18","91288","List2A","black","man","","","","null","","","","","","","","",""
"null","<img src=""stim_listA/look1.gif""style=""height:400px;""></stim_listA>","","html-keyboard-response","103","1529226","0.0-13.0-1.18","91288","List2A","black","man","","","","null","","","","","","","","",""
"null","is looking at","","html-keyboard-response","104","1531233","0.0-13.0-2.18","91288","List2A","black","man","","","","null","","","","","","","","",""
"12498.89999999106","","","survey-text","105","1543737","0.0-13.0-3.18","91288","List2A","black","man","","","","","{""Q0"":""ruth is looking at luke""}","<img src=""stim_listA/look1.gif""style=""height:400px;""></stim_listA>","is looking at","","","","","",""
"null","<div style=""font-size:60px;"">+</div>","","html-keyboard-response","106","1544247","0.0-13.0-0.19","91288","List2A","black","man","","","","null","","","","","","","","",""
"null","<img src=""stim_listA/oppose1.gif""style=""height:400px;""></stim_listA>","","html-keyboard-response","107","1546266","0.0-13.0-1.19","91288","List2A","black","man","","","","null","","","","","","","","",""
"null","is opposing","","html-keyboard-response","108","1548274","0.0-13.0-2.19","91288","List2A","black","man","","","","null","","","","","","","","",""
"8206.10000000894","","","survey-text","109","1556485","0.0-13.0-3.19","91288","List2A","black","man","","","","","{""Q0"":""dave is opposing jane""}","<img src=""stim_listA/oppose1.gif""style=""height:400px;""></stim_listA>","is opposing","","","","","",""
"5313.29999999702","<img src='img/portrait_matrix_list2.jpg' style='width:900px;height:500px;''></img><p>If you have memorised all the portraits and names and are ready to start, press Continue.</p><p><strong>Please note: Your memory of these faces will be tested 4 times during this experiment.</strong></p>","0","html-button-response","110","1561801","0.0-14.0-0.0","91288","List2A","black","man","","","","","","","","","","","","",""
"2611.1000000089407","<img src=""portrait/BM2.jpg""style=""height:400px;""></img>","5","html-button-response","111","1565414","0.0-14.0-1.0","91288","List2A","black","man","","true","5","","","","","","","","","",""
"null","CORRECT","","html-keyboard-response","112","1566925","0.0-14.0-2.0-0.0","91288","List2A","black","man","","","","null","","","","","","","","",""
"4600.5999999940395","<img src=""portrait/BW2.jpg""style=""height:400px;""></img>","2","html-button-response","113","1571530","0.0-14.0-4.0","91288","List2A","black","man","","true","2","","","","","","","","","",""
"null","CORRECT","","html-keyboard-response","114","1573057","0.0-14.0-5.0-0.0","91288","List2A","black","man","","","","null","","","","","","","","",""
"2621.2999999970198","<img src=""portrait/WM1.jpg""style=""height:400px;""></img>","6","html-button-response","115","1575682","0.0-14.0-7.0","91288","List2A","black","man","","true","6","","","","","","","","","",""
"null","CORRECT","","html-keyboard-response","116","1577214","0.0-14.0-8.0-0.0","91288","List2A","black","man","","","","null","","","","","","","","",""
"1641.2000000029802","<img src=""portrait/WM2.jpg""style=""height:400px;""></img>","7","html-button-response","117","1578859","0.0-14.0-10.0","91288","List2A","black","man","","true","7","","","","","","","","","",""
"null","CORRECT","","html-keyboard-response","118","1580380","0.0-14.0-11.0-0.0","91288","List2A","black","man","","","","null","","","","","","","","",""
"2627.7000000029802","<img src=""portrait/WW1.jpg""style=""height:400px;""></img>","1","html-button-response","119","1583011","0.0-14.0-13.0","91288","List2A","black","man","","true","1","","","","","","","","","",""
"null","CORRECT","","html-keyboard-response","120","1584523","0.0-14.0-14.0-0.0","91288","List2A","black","man","","","","null","","","","","","","","",""
"6170.29999999702","<img src=""portrait/WW2.jpg""style=""height:400px;""></img>","3","html-button-response","121","1590697","0.0-14.0-16.0","91288","List2A","black","man","","true","3","","","","","","","","","",""
"null","CORRECT","","html-keyboard-response","122","1592229","0.0-14.0-17.0-0.0","91288","List2A","black","man","","","","null","","","","","","","","",""
"1725.4000000059605","<img src=""portrait/BM1.jpg""style=""height:400px;""></img>","4","html-button-response","123","1593958","0.0-14.0-19.0","91288","List2A","black","man","","true","4","","","","","","","","","",""
"null","CORRECT","","html-keyboard-response","124","1595479","0.0-14.0-20.0-0.0","91288","List2A","black","man","","","","null","","","","","","","","",""
"1524.5999999940395","<img src=""portrait/BW1.jpg""style=""height:400px;""></img>","0","html-button-response","125","1597007","0.0-14.0-22.0","91288","List2A","black","man","","true","0","","","","","","","","","",""
"null","CORRECT","","html-keyboard-response","126","1598538","0.0-14.0-23.0-0.0","91288","List2A","black","man","","","","null","","","","","","","","",""
"577240.1000000089","<p>You got 8 out of 8 right first time. Press Continue.</p>","0","html-button-response","127","2175783","0.0-14.0-25.0","91288","List2A","black","man","","","","","","","","","","","","",""
"null","<div style=""font-size:60px;"">+</div>","","html-keyboard-response","128","2177308","0.0-15.0-0.0","91288","List2A","black","man","","","","null","","","","","","","","",""
"null","<img src=""stim_listA/kiss4.gif""style=""height:400px;""></stim_listA>","","html-keyboard-response","129","2179325","0.0-15.0-1.0","91288","List2A","black","man","","","","null","","","","","","","","",""
"null","is being kissed by","","html-keyboard-response","130","2181332","0.0-15.0-2.0","91288","List2A","black","man","","","","null","","","","","","","","",""
"34045.70000000298","","","survey-text","131","2215383","0.0-15.0-3.0","91288","List2A","black","man","","","","","{""Q0"":""mike is being kissed by kate""}","<img src=""stim_listA/kiss4.gif""style=""height:400px;""></stim_listA>","is being kissed by","","","","","",""
"null","<div style=""font-size:60px;"">+</div>","","html-keyboard-response","132","2215889","0.0-15.0-0.1","91288","List2A","black","man","","","","null","","","","","","","","",""
"null","<img src=""stim_listA/shout7.gif""style=""height:400px;""></stim_listA>","","html-keyboard-response","133","2217895","0.0-15.0-1.1","91288","List2A","black","man","","","","null","","","","","","","","",""
"null","is shouting at","","html-keyboard-response","134","2219916","0.0-15.0-2.1","91288","List2A","black","man","","","","null","","","","","","","","",""
"7402.29999999702","","","survey-text","135","2227323","0.0-15.0-3.1","91288","List2A","black","man","","","","","{""Q0"":""beth is shouting at ruth""}","<img src=""stim_listA/shout7.gif""style=""height:400px;""></stim_listA>","is shouting at","","","","","",""
"null","<div style=""font-size:60px;"">+</div>","","html-keyboard-response","136","2227837","0.0-15.0-0.2","91288","List2A","black","man","","","","null","","","","","","","","",""
"null","<img src=""stim_listA/oppose7.gif""style=""height:400px;""></stim_listA>","","html-keyboard-response","137","2229844","0.0-15.0-1.2","91288","List2A","black","man","","","","null","","","","","","","","",""
"null","is opposing","","html-keyboard-response","138","2231847","0.0-15.0-2.2","91288","List2A","black","man","","","","null","","","","","","","","",""
"6280.9000000059605","","","survey-text","139","2238133","0.0-15.0-3.2","91288","List2A","black","man","","","","","{""Q0"":""jane is opposing kate""}","<img src=""stim_listA/oppose7.gif""style=""height:400px;""></stim_listA>","is opposing","","","","","",""
"null","<div style=""font-size:60px;"">+</div>","","html-keyboard-response","140","2238650","0.0-15.0-0.3","91288","List2A","black","man","","","","null","","","","","","","","",""
"null","<img src=""stim_listA/oppose6.gif""style=""height:400px;""></stim_listA>","","html-keyboard-response","141","2240668","0.0-15.0-1.3","91288","List2A","black","man","","","","null","","","","","","","","",""
"null","is being opposed by","","html-keyboard-response","142","2242671","0.0-15.0-2.3","91288","List2A","black","man","","","","null","","","","","","","","",""
"8560.79999999702","","","survey-text","143","2251237","0.0-15.0-3.3","91288","List2A","black","man","","","","","{""Q0"":""fred is being opposed by luke""}","<img src=""stim_listA/oppose6.gif""style=""height:400px;""></stim_listA>","is being opposed by","","","","","",""
"null","<div style=""font-size:60px;"">+</div>","","html-keyboard-response","144","2251754","0.0-15.0-0.4","91288","List2A","black","man","","","","null","","","","","","","","",""
"null","<img src=""stim_listA/copy1.gif""style=""height:400px;""></stim_listA>","","html-keyboard-response","145","2253771","0.0-15.0-1.4","91288","List2A","black","man","","","","null","","","","","","","","",""
"null","is copying","","html-keyboard-response","146","2255773","0.0-15.0-2.4","91288","List2A","black","man","","","","null","","","","","","","","",""
"5744","","","survey-text","147","2261522","0.0-15.0-3.4","91288","List2A","black","man","","","","","{""Q0"":""dave is copying ruth""}","<img src=""stim_listA/copy1.gif""style=""height:400px;""></stim_listA>","is copying","","","","","",""
"null","<div style=""font-size:60px;"">+</div>","","html-keyboard-response","148","2262033","0.0-15.0-0.5","91288","List2A","black","man","","","","null","","","","","","","","",""
"null","<img src=""stim_listA/touch7.gif""style=""height:400px;""></stim_listA>","","html-keyboard-response","149","2264045","0.0-15.0-1.5","91288","List2A","black","man","","","","null","","","","","","","","",""
"null","is touching","","html-keyboard-response","150","2266049","0.0-15.0-2.5","91288","List2A","black","man","","","","null","","","","","","","","",""
"5423.9000000059605","","","survey-text","151","2271478","0.0-15.0-3.5","91288","List2A","black","man","","","","","{""Q0"":""jane is touching kate""}","<img src=""stim_listA/touch7.gif""style=""height:400px;""></stim_listA>","is touching","","","","","",""
"null","<div style=""font-size:60px;"">+</div>","","html-keyboard-response","152","2271989","0.0-15.0-0.6","91288","List2A","black","man","","","","null","","","","","","","","",""
"null","<img src=""stim_listA/touch1.gif""style=""height:400px;""></stim_listA>","","html-keyboard-response","153","2274001","0.0-15.0-1.6","91288","List2A","black","man","","","","null","","","","","","","","",""
"null","is touching","","html-keyboard-response","154","2276006","0.0-15.0-2.6","91288","List2A","black","man","","","","null","","","","","","","","",""
"6721.9000000059605","","","survey-text","155","2282734","0.0-15.0-3.6","91288","List2A","black","man","","","","","{""Q0"":""jane is touching dave""}","<img src=""stim_listA/touch1.gif""style=""height:400px;""></stim_listA>","is touching","","","","","",""
"null","<div style=""font-size:60px;"">+</div>","","html-keyboard-response","156","2283243","0.0-15.0-0.7","91288","List2A","black","man","","","","null","","","","","","","","",""
"null","<img src=""stim_listA/touch8.gif""style=""height:400px;""></stim_listA>","","html-keyboard-response","157","2285258","0.0-15.0-1.7","91288","List2A","black","man","","","","null","","","","","","","","",""
"null","is being touched by","","html-keyboard-response","158","2287261","0.0-15.0-2.7","91288","List2A","black","man","","","","null","","","","","","","","",""
"8312.29999999702","","","survey-text","159","2295576","0.0-15.0-3.7","91288","List2A","black","man","","","","","{""Q0"":""beth is being touched by ruth""}","<img src=""stim_listA/touch8.gif""style=""height:400px;""></stim_listA>","is being touched by","","","","","",""
"null","<div style=""font-size:60px;"">+</div>","","html-keyboard-response","160","2296077","0.0-15.0-0.8","91288","List2A","black","man","","","","null","","","","","","","","",""
"null","<img src=""stim_listA/greet4.gif""style=""height:400px;""></stim_listA>","","html-keyboard-response","161","2298089","0.0-15.0-1.8","91288","List2A","black","man","","","","null","","","","","","","","",""
"null","is being greeted by","","html-keyboard-response","162","2300091","0.0-15.0-2.8","91288","List2A","black","man","","","","null","","","","","","","","",""
"7760.9000000059605","","","survey-text","163","2307856","0.0-15.0-3.8","91288","List2A","black","man","","","","","{""Q0"":""kate is being greeted by fred""}","<img src=""stim_listA/greet4.gif""style=""height:400px;""></stim_listA>","is being greeted by","","","","","",""
"null","<div style=""font-size:60px;"">+</div>","","html-keyboard-response","164","2308369","0.0-15.0-0.9","91288","List2A","black","man","","","","null","","","","","","","","",""
"null","<img src=""stim_listA/kiss5.gif""style=""height:400px;""></stim_listA>","","html-keyboard-response","165","2310382","0.0-15.0-1.9","91288","List2A","black","man","","","","null","","","","","","","","",""
"null","is kissing","","html-keyboard-response","166","2312391","0.0-15.0-2.9","91288","List2A","black","man","","","","null","","","","","","","","",""
"8287.59999999404","","","survey-text","167","2320683","0.0-15.0-3.9","91288","List2A","black","man","","","","","{""Q0"":""luke is kissing fred""}","<img src=""stim_listA/kiss5.gif""style=""height:400px;""></stim_listA>","is kissing","","","","","",""
"null","<div style=""font-size:60px;"">+</div>","","html-keyboard-response","168","2321194","0.0-15.0-0.10","91288","List2A","black","man","","","","null","","","","","","","","",""
"null","<img src=""stim_listA/seduce8.gif""style=""height:400px;""></stim_listA>","","html-keyboard-response","169","2323206","0.0-15.0-1.10","91288","List2A","black","man","","","","null","","","","","","","","",""
"null","is being seduced by","","html-keyboard-response","170","2325217","0.0-15.0-2.10","91288","List2A","black","man","","","","null","","","","","","","","",""
"10120.39999999106","","","survey-text","171","2335343","0.0-15.0-3.10","91288","List2A","black","man","","","","","{""Q0"":""beth is being seduced by jane""}","<img src=""stim_listA/seduce8.gif""style=""height:400px;""></stim_listA>","is being seduced by","","","","","",""
"null","<div style=""font-size:60px;"">+</div>","","html-keyboard-response","172","2335853","0.0-15.0-0.11","91288","List2A","black","man","","","","null","","","","","","","","",""
"null","<img src=""stim_listA/copy7.gif""style=""height:400px;""></stim_listA>","","html-keyboard-response","173","2337868","0.0-15.0-1.11","91288","List2A","black","man","","","","null","","","","","","","","",""
"null","is copying","","html-keyboard-response","174","2339870","0.0-15.0-2.11","91288","List2A","black","man","","","","null","","","","","","","","",""
"6552.399999991059","","","survey-text","175","2346428","0.0-15.0-3.11","91288","List2A","black","man","","","","","{""Q0"":""beth is copying jane""}","<img src=""stim_listA/copy7.gif""style=""height:400px;""></stim_listA>","is copying","","","","","",""
"null","<div style=""font-size:60px;"">+</div>","","html-keyboard-response","176","2346931","0.0-15.0-0.12","91288","List2A","black","man","","","","null","","","","","","","","",""
"null","<img src=""stim_listA/challenge8.gif""style=""height:400px;""></stim_listA>","","html-keyboard-response","177","2348948","0.0-15.0-1.12","91288","List2A","black","man","","","","null","","","","","","","","",""
"null","is being challenged by","","html-keyboard-response","178","2350957","0.0-15.0-2.12","91288","List2A","black","man","","","","null","","","","","","","","",""
"10246","","","survey-text","179","2361209","0.0-15.0-3.12","91288","List2A","black","man","","","","","{""Q0"":""kate is being challenged by ruth""}","<img src=""stim_listA/challenge8.gif""style=""height:400px;""></stim_listA>","is being challenged by","","","","","",""
"null","<div style=""font-size:60px;"">+</div>","","html-keyboard-response","180","2361722","0.0-15.0-0.13","91288","List2A","black","man","","","","null","","","","","","","","",""
"null","<img src=""stim_listA/shout2.gif""style=""height:400px;""></stim_listA>","","html-keyboard-response","181","2363736","0.0-15.0-1.13","91288","List2A","black","man","","","","null","","","","","","","","",""
"null","is being shouted at by","","html-keyboard-response","182","2365747","0.0-15.0-2.13","91288","List2A","black","man","","","","null","","","","","","","","",""
"12027.40000000596","","","survey-text","183","2377780","0.0-15.0-3.13","91288","List2A","black","man","","","","","{""Q0"":""jane is being shouted at by dave""}","<img src=""stim_listA/shout2.gif""style=""height:400px;""></stim_listA>","is being shouted at by","","","","","",""
"null","<div style=""font-size:60px;"">+</div>","","html-keyboard-response","184","2378296","0.0-15.0-0.14","91288","List2A","black","man","","","","null","","","","","","","","",""
"null","<img src=""stim_listA/greet8.gif""style=""height:400px;""></stim_listA>","","html-keyboard-response","185","2380308","0.0-15.0-1.14","91288","List2A","black","man","","","","null","","","","","","","","",""
"null","is being greeted by","","html-keyboard-response","186","2382318","0.0-15.0-2.14","91288","List2A","black","man","","","","null","","","","","","","","",""
"12828.40000000596","","","survey-text","187","2395152","0.0-15.0-3.14","91288","List2A","black","man","","","","","{""Q0"":""kate is being greeted by ruth""}","<img src=""stim_listA/greet8.gif""style=""height:400px;""></stim_listA>","is being greeted by","","","","","",""
"null","<div style=""font-size:60px;"">+</div>","","html-keyboard-response","188","2395655","0.0-15.0-0.15","91288","List2A","black","man","","","","null","","","","","","","","",""
"null","<img src=""stim_listA/greet7.gif""style=""height:400px;""></stim_listA>","","html-keyboard-response","189","2397665","0.0-15.0-1.15","91288","List2A","black","man","","","","null","","","","","","","","",""
"null","is greeting","","html-keyboard-response","190","2399668","0.0-15.0-2.15","91288","List2A","black","man","","","","null","","","","","","","","",""
"5925.9000000059605","","","survey-text","191","2405601","0.0-15.0-3.15","91288","List2A","black","man","","","","","{""Q0"":""jane is greeting beth""}","<img src=""stim_listA/greet7.gif""style=""height:400px;""></stim_listA>","is greeting","","","","","",""
"null","<div style=""font-size:60px;"">+</div>","","html-keyboard-response","192","2406112","0.0-15.0-0.16","91288","List2A","black","man","","","","null","","","","","","","","",""
"null","<img src=""stim_listA/challenge5.gif""style=""height:400px;""></stim_listA>","","html-keyboard-response","193","2408120","0.0-15.0-1.16","91288","List2A","black","man","","","","null","","","","","","","","",""
"null","is challenging","","html-keyboard-response","194","2410130","0.0-15.0-2.16","91288","List2A","black","man","","","","null","","","","","","","","",""
"9310.79999999702","","","survey-text","195","2419446","0.0-15.0-3.16","91288","List2A","black","man","","","","","{""Q0"":""dave is challenging fred""}","<img src=""stim_listA/challenge5.gif""style=""height:400px;""></stim_listA>","is challenging","","","","","",""
"null","<div style=""font-size:60px;"">+</div>","","html-keyboard-response","196","2419956","0.0-15.0-0.17","91288","List2A","black","man","","","","null","","","","","","","","",""
"null","<img src=""stim_listA/seduce3.gif""style=""height:400px;""></stim_listA>","","html-keyboard-response","197","2421968","0.0-15.0-1.17","91288","List2A","black","man","","","","null","","","","","","","","",""
"null","is seducing","","html-keyboard-response","198","2423970","0.0-15.0-2.17","91288","List2A","black","man","","","","null","","","","","","","","",""
"36843.79999999702","","","survey-text","199","2460820","0.0-15.0-3.17","91288","List2A","black","man","","","","","{""Q0"":""kate is seducing fred""}","<img src=""stim_listA/seduce3.gif""style=""height:400px;""></stim_listA>","is seducing","","","","","",""
"null","<div style=""font-size:60px;"">+</div>","","html-keyboard-response","200","2461335","0.0-15.0-0.18","91288","List2A","black","man","","","","null","","","","","","","","",""
"null","<img src=""stim_listA/kiss3.gif""style=""height:400px;""></stim_listA>","","html-keyboard-response","201","2463344","0.0-15.0-1.18","91288","List2A","black","man","","","","null","","","","","","","","",""
"null","is kissing","","html-keyboard-response","202","2465346","0.0-15.0-2.18","91288","List2A","black","man","","","","null","","","","","","","","",""
"193963.70000000298","","","survey-text","203","2659318","0.0-15.0-3.18","91288","List2A","black","man","","","","","{""Q0"":""fred is kissing beth""}","<img src=""stim_listA/kiss3.gif""style=""height:400px;""></stim_listA>","is kissing","","","","","",""
"null","<div style=""font-size:60px;"">+</div>","","html-keyboard-response","204","2659826","0.0-15.0-0.19","91288","List2A","black","man","","","","null","","","","","","","","",""
"null","<img src=""stim_listA/look8.gif""style=""height:400px;""></stim_listA>","","html-keyboard-response","205","2661832","0.0-15.0-1.19","91288","List2A","black","man","","","","null","","","","","","","","",""
"null","is being looked at by","","html-keyboard-response","206","2663841","0.0-15.0-2.19","91288","List2A","black","man","","","","null","","","","","","","","",""
"9324.59999999404","","","survey-text","207","2673171","0.0-15.0-3.19","91288","List2A","black","man","","","","","{""Q0"":""jane is being looked at by kate""}","<img src=""stim_listA/look8.gif""style=""height:400px;""></stim_listA>","is being looked at by","","","","","",""
"4851","<img src='img/portrait_matrix_list2.jpg' style='width:900px;height:500px;''></img><p>If you have memorised all the portraits and names and are ready to start, press Continue.</p><p><strong>Please note: Your memory of these faces will be tested 4 times during this experiment.</strong></p>","0","html-button-response","208","2678025","0.0-16.0-0.0","91288","List2A","black","man","","","","","","","","","","","","",""
"1785.3999999910593","<img src=""portrait/WW2.jpg""style=""height:400px;""></img>","3","html-button-response","209","2680817","0.0-16.0-1.0","91288","List2A","black","man","","true","3","","","","","","","","","",""
"null","CORRECT","","html-keyboard-response","210","2682337","0.0-16.0-2.0-0.0","91288","List2A","black","man","","","","null","","","","","","","","",""
"1728.800000011921","<img src=""portrait/BW1.jpg""style=""height:400px;""></img>","0","html-button-response","211","2684069","0.0-16.0-4.0","91288","List2A","black","man","","true","0","","","","","","","","","",""
"null","CORRECT","","html-keyboard-response","212","2685580","0.0-16.0-5.0-0.0","91288","List2A","black","man","","","","null","","","","","","","","",""
"2097","<img src=""portrait/BM2.jpg""style=""height:400px;""></img>","5","html-button-response","213","2687681","0.0-16.0-7.0","91288","List2A","black","man","","true","5","","","","","","","","","",""
"null","CORRECT","","html-keyboard-response","214","2689195","0.0-16.0-8.0-0.0","91288","List2A","black","man","","","","null","","","","","","","","",""
"1848.7999999970198","<img src=""portrait/WM2.jpg""style=""height:400px;""></img>","7","html-button-response","215","2691047","0.0-16.0-10.0","91288","List2A","black","man","","true","7","","","","","","","","","",""
"null","CORRECT","","html-keyboard-response","216","2692571","0.0-16.0-11.0-0.0","91288","List2A","black","man","","","","null","","","","","","","","",""
"2266.7999999970198","<img src=""portrait/WW1.jpg""style=""height:400px;""></img>","1","html-button-response","217","2694841","0.0-16.0-13.0","91288","List2A","black","man","","true","1","","","","","","","","","",""
"null","CORRECT","","html-keyboard-response","218","2696356","0.0-16.0-14.0-0.0","91288","List2A","black","man","","","","null","","","","","","","","",""
"2120.9000000059605","<img src=""portrait/WM1.jpg""style=""height:400px;""></img>","6","html-button-response","219","2698481","0.0-16.0-16.0","91288","List2A","black","man","","true","6","","","","","","","","","",""
"null","CORRECT","","html-keyboard-response","220","2699997","0.0-16.0-17.0-0.0","91288","List2A","black","man","","","","null","","","","","","","","",""
"1229","<img src=""portrait/BM1.jpg""style=""height:400px;""></img>","4","html-button-response","221","2701229","0.0-16.0-19.0","91288","List2A","black","man","","true","4","","","","","","","","","",""
"null","CORRECT","","html-keyboard-response","222","2702740","0.0-16.0-20.0-0.0","91288","List2A","black","man","","","","null","","","","","","","","",""
"1135.7000000029802","<img src=""portrait/BW2.jpg""style=""height:400px;""></img>","2","html-button-response","223","2703879","0.0-16.0-22.0","91288","List2A","black","man","","true","2","","","","","","","","","",""
"null","CORRECT","","html-keyboard-response","224","2705398","0.0-16.0-23.0-0.0","91288","List2A","black","man","","","","null","","","","","","","","",""
"847.6000000089407","<p>You got 8 out of 8 right first time. Press Continue.</p>","0","html-button-response","225","2706249","0.0-16.0-25.0","91288","List2A","black","man","","","","","","","","","","","","",""
"null","<div style=""font-size:60px;"">+</div>","","html-keyboard-response","226","2707760","0.0-17.0-0.0","91288","List2A","black","man","","","","null","","","","","","","","",""
"null","<img src=""stim_listA/oppose2.gif""style=""height:400px;""></stim_listA>","","html-keyboard-response","227","2709777","0.0-17.0-1.0","91288","List2A","black","man","","","","null","","","","","","","","",""
"null","is being opposed by","","html-keyboard-response","228","2711787","0.0-17.0-2.0","91288","List2A","black","man","","","","null","","","","","","","","",""
"10175.79999999702","","","survey-text","229","2721967","0.0-17.0-3.0","91288","List2A","black","man","","","","","{""Q0"":""beth is being opposed by luke""}","<img src=""stim_listA/oppose2.gif""style=""height:400px;""></stim_listA>","is being opposed by","","","","","",""
"null","<div style=""font-size:60px;"">+</div>","","html-keyboard-response","230","2722478","0.0-17.0-0.1","91288","List2A","black","man","","","","null","","","","","","","","",""
"null","<img src=""stim_listA/seduce7.gif""style=""height:400px;""></stim_listA>","","html-keyboard-response","231","2724493","0.0-17.0-1.1","91288","List2A","black","man","","","","null","","","","","","","","",""
"null","is seducing","","html-keyboard-response","232","2726496","0.0-17.0-2.1","91288","List2A","black","man","","","","null","","","","","","","","",""
"7338","","","survey-text","233","2733839","0.0-17.0-3.1","91288","List2A","black","man","","","","","{""Q0"":""ruth is seducing kate""}","<img src=""stim_listA/seduce7.gif""style=""height:400px;""></stim_listA>","is seducing","","","","","",""
"null","<div style=""font-size:60px;"">+</div>","","html-keyboard-response","234","2734345","0.0-17.0-0.2","91288","List2A","black","man","","","","null","","","","","","","","",""
"null","<img src=""stim_listA/challenge6.gif""style=""height:400px;""></stim_listA>","","html-keyboard-response","235","2736350","0.0-17.0-1.2","91288","List2A","black","man","","","","null","","","","","","","","",""
"null","is being challenged by","","html-keyboard-response","236","2738359","0.0-17.0-2.2","91288","List2A","black","man","","","","null","","","","","","","","",""
"9180.09999999404","","","survey-text","237","2747545","0.0-17.0-3.2","91288","List2A","black","man","","","","","{""Q0"":""luke is being challenged by mike""}","<img src=""stim_listA/challenge6.gif""style=""height:400px;""></stim_listA>","is being challenged by","","","","","",""
"null","<div style=""font-size:60px;"">+</div>","","html-keyboard-response","238","2748054","0.0-17.0-0.3","91288","List2A","black","man","","","","null","","","","","","","","",""
"null","<img src=""stim_listA/copy2.gif""style=""height:400px;""></stim_listA>","","html-keyboard-response","239","2750064","0.0-17.0-1.3","91288","List2A","black","man","","","","null","","","","","","","","",""
"null","is being copied by","","html-keyboard-response","240","2752066","0.0-17.0-2.3","91288","List2A","black","man","","","","null","","","","","","","","",""
"8196.699999988079","","","survey-text","241","2760268","0.0-17.0-3.3","91288","List2A","black","man","","","","","{""Q0"":""jane is being copied by luke""}","<img src=""stim_listA/copy2.gif""style=""height:400px;""></stim_listA>","is being copied by","","","","","",""
"null","<div style=""font-size:60px;"">+</div>","","html-keyboard-response","242","2760777","0.0-17.0-0.4","91288","List2A","black","man","","","","null","","","","","","","","",""
"null","<img src=""stim_listA/look5.gif""style=""height:400px;""></stim_listA>","","html-keyboard-response","243","2762792","0.0-17.0-1.4","91288","List2A","black","man","","","","null","","","","","","","","",""
"null","is looking at","","html-keyboard-response","244","2764799","0.0-17.0-2.4","91288","List2A","black","man","","","","null","","","","","","","","",""
"7909.29999999702","","","survey-text","245","2772715","0.0-17.0-3.4","91288","List2A","black","man","","","","","{""Q0"":""fred is looking at luke""}","<img src=""stim_listA/look5.gif""style=""height:400px;""></stim_listA>","is looking at","","","","","",""
"null","<div style=""font-size:60px;"">+</div>","","html-keyboard-response","246","2773217","0.0-17.0-0.5","91288","List2A","black","man","","","","null","","","","","","","","",""
"null","<img src=""stim_listA/greet5.gif""style=""height:400px;""></stim_listA>","","html-keyboard-response","247","2775228","0.0-17.0-1.5","91288","List2A","black","man","","","","null","","","","","","","","",""
"null","is greeting","","html-keyboard-response","248","2777237","0.0-17.0-2.5","91288","List2A","black","man","","","","null","","","","","","","","",""
"6225.5999999940395","","","survey-text","249","2783470","0.0-17.0-3.5","91288","List2A","black","man","","","","","{""Q0"":""fred is greeting dave""}","<img src=""stim_listA/greet5.gif""style=""height:400px;""></stim_listA>","is greeting","","","","","",""
"null","<div style=""font-size:60px;"">+</div>","","html-keyboard-response","250","2783987","0.0-17.0-0.6","91288","List2A","black","man","","","","null","","","","","","","","",""
"null","<img src=""stim_listA/seduce5.gif""style=""height:400px;""></stim_listA>","","html-keyboard-response","251","2785996","0.0-17.0-1.6","91288","List2A","black","man","","","","null","","","","","","","","",""
"null","is seducing","","html-keyboard-response","252","2788004","0.0-17.0-2.6","91288","List2A","black","man","","","","null","","","","","","","","",""
"17544","","","survey-text","253","2805554","0.0-17.0-3.6","91288","List2A","black","man","","","","","{""Q0"":""mike is seducing luke""}","<img src=""stim_listA/seduce5.gif""style=""height:400px;""></stim_listA>","is seducing","","","","","",""
"null","<div style=""font-size:60px;"">+</div>","","html-keyboard-response","254","2806064","0.0-17.0-0.7","91288","List2A","black","man","","","","null","","","","","","","","",""
"null","<img src=""stim_listA/hug5.gif""style=""height:400px;""></stim_listA>","","html-keyboard-response","255","2808276","0.0-17.0-1.7","91288","List2A","black","man","","","","null","","","","","","","","",""
"null","is hugging","","html-keyboard-response","256","2810278","0.0-17.0-2.7","91288","List2A","black","man","","","","null","","","","","","","","",""
"21979.09999999404","","","survey-text","257","2832262","0.0-17.0-3.7","91288","List2A","black","man","","","","","{""Q0"":""mike is hugging beth""}","<img src=""stim_listA/hug5.gif""style=""height:400px;""></stim_listA>","is hugging","","","","","",""
"null","<div style=""font-size:60px;"">+</div>","","html-keyboard-response","258","2832772","0.0-17.0-0.8","91288","List2A","black","man","","","","null","","","","","","","","",""
"null","<img src=""stim_listA/seduce6.gif""style=""height:400px;""></stim_listA>","","html-keyboard-response","259","2834785","0.0-17.0-1.8","91288","List2A","black","man","","","","null","","","","","","","","",""
"null","is being seduced by","","html-keyboard-response","260","2836788","0.0-17.0-2.8","91288","List2A","black","man","","","","null","","","","","","","","",""
"8716.800000011921","","","survey-text","261","2845509","0.0-17.0-3.8","91288","List2A","black","man","","","","","{""Q0"":""dave is being seduced by fred""}","<img src=""stim_listA/seduce6.gif""style=""height:400px;""></stim_listA>","is being seduced by","","","","","",""
"null","<div style=""font-size:60px;"">+</div>","","html-keyboard-response","262","2846020","0.0-17.0-0.9","91288","List2A","black","man","","","","null","","","","","","","","",""
"null","<img src=""stim_listA/seduce1.gif""style=""height:400px;""></stim_listA>","","html-keyboard-response","263","2848039","0.0-17.0-1.9","91288","List2A","black","man","","","","null","","","","","","","","",""
"null","is seducing","","html-keyboard-response","264","2850055","0.0-17.0-2.9","91288","List2A","black","man","","","","null","","","","","","","","",""
"7232.300000011921","","","survey-text","265","2857292","0.0-17.0-3.9","91288","List2A","black","man","","","","","{""Q0"":""luke is seducing jane""}","<img src=""stim_listA/seduce1.gif""style=""height:400px;""></stim_listA>","is seducing","","","","","",""
"null","<div style=""font-size:60px;"">+</div>","","html-keyboard-response","266","2857809","0.0-17.0-0.10","91288","List2A","black","man","","","","null","","","","","","","","",""
"null","<img src=""stim_listA/look2.gif""style=""height:400px;""></stim_listA>","","html-keyboard-response","267","2859825","0.0-17.0-1.10","91288","List2A","black","man","","","","null","","","","","","","","",""
"null","is being looked at by","","html-keyboard-response","268","2861833","0.0-17.0-2.10","91288","List2A","black","man","","","","null","","","","","","","","",""
"9528","","","survey-text","269","2871365","0.0-17.0-3.10","91288","List2A","black","man","","","","","{""Q0"":""jane is being looked at by dave""}","<img src=""stim_listA/look2.gif""style=""height:400px;""></stim_listA>","is being looked at by","","","","","",""
"null","<div style=""font-size:60px;"">+</div>","","html-keyboard-response","270","2871882","0.0-17.0-0.11","91288","List2A","black","man","","","","null","","","","","","","","",""
"null","<img src=""stim_listA/seduce4.gif""style=""height:400px;""></stim_listA>","","html-keyboard-response","271","2873899","0.0-17.0-1.11","91288","List2A","black","man","","","","null","","","","","","","","",""
"null","is being seduced by","","html-keyboard-response","272","2875916","0.0-17.0-2.11","91288","List2A","black","man","","","","null","","","","","","","","",""
"10635.79999999702","","","survey-text","273","2886558","0.0-17.0-3.11","91288","List2A","black","man","","","","","{""Q0"":""beth is being seduced by mike""}","<img src=""stim_listA/seduce4.gif""style=""height:400px;""></stim_listA>","is being seduced by","","","","","",""
"null","<div style=""font-size:60px;"">+</div>","","html-keyboard-response","274","2887069","0.0-17.0-0.12","91288","List2A","black","man","","","","null","","","","","","","","",""
"null","<img src=""stim_listA/hug4.gif""style=""height:400px;""></stim_listA>","","html-keyboard-response","275","2889077","0.0-17.0-1.12","91288","List2A","black","man","","","","null","","","","","","","","",""
"null","is being hugged by","","html-keyboard-response","276","2891080","0.0-17.0-2.12","91288","List2A","black","man","","","","null","","","","","","","","",""
"16803.59999999404","","","survey-text","277","2907890","0.0-17.0-3.12","91288","List2A","black","man","","","","","{""Q0"":""kate is being hugged by mike""}","<img src=""stim_listA/hug4.gif""style=""height:400px;""></stim_listA>","is being hugged by","","","","","",""
"null","<div style=""font-size:60px;"">+</div>","","html-keyboard-response","278","2908402","0.0-17.0-0.13","91288","List2A","black","man","","","","null","","","","","","","","",""
"null","<img src=""stim_listA/copy4.gif""style=""height:400px;""></stim_listA>","","html-keyboard-response","279","2910409","0.0-17.0-1.13","91288","List2A","black","man","","","","null","","","","","","","","",""
"null","is being copied by","","html-keyboard-response","280","2912411","0.0-17.0-2.13","91288","List2A","black","man","","","","null","","","","","","","","",""
"7406.5999999940395","","","survey-text","281","2919823","0.0-17.0-3.13","91288","List2A","black","man","","","","","{""Q0"":""kate is being copied by fred""}","<img src=""stim_listA/copy4.gif""style=""height:400px;""></stim_listA>","is being copied by","","","","","",""
"null","<div style=""font-size:60px;"">+</div>","","html-keyboard-response","282","2920331","0.0-17.0-0.14","91288","List2A","black","man","","","","null","","","","","","","","",""
"null","<img src=""stim_listA/challenge2.gif""style=""height:400px;""></stim_listA>","","html-keyboard-response","283","2922348","0.0-17.0-1.14","91288","List2A","black","man","","","","null","","","","","","","","",""
"null","is being challenged by","","html-keyboard-response","284","2924350","0.0-17.0-2.14","91288","List2A","black","man","","","","null","","","","","","","","",""
"11094.79999999702","","","survey-text","285","2935450","0.0-17.0-3.14","91288","List2A","black","man","","","","","{""Q0"":""jane is being challenged by luke""}","<img src=""stim_listA/challenge2.gif""style=""height:400px;""></stim_listA>","is being challenged by","","","","","",""
"null","<div style=""font-size:60px;"">+</div>","","html-keyboard-response","286","2935967","0.0-17.0-0.15","91288","List2A","black","man","","","","null","","","","","","","","",""
"null","<img src=""stim_listA/shout5.gif""style=""height:400px;""></stim_listA>","","html-keyboard-response","287","2937972","0.0-17.0-1.15","91288","List2A","black","man","","","","null","","","","","","","","",""
"null","is shouting at","","html-keyboard-response","288","2939975","0.0-17.0-2.15","91288","List2A","black","man","","","","null","","","","","","","","",""
"7889.29999999702","","","survey-text","289","2947869","0.0-17.0-3.15","91288","List2A","black","man","","","","","{""Q0"":""luke is shouting at fred""}","<img src=""stim_listA/shout5.gif""style=""height:400px;""></stim_listA>","is shouting at","","","","","",""
"null","<div style=""font-size:60px;"">+</div>","","html-keyboard-response","290","2948379","0.0-17.0-0.16","91288","List2A","black","man","","","","null","","","","","","","","",""
"null","<img src=""stim_listA/look6.gif""style=""height:400px;""></stim_listA>","","html-keyboard-response","291","2950393","0.0-17.0-1.16","91288","List2A","black","man","","","","null","","","","","","","","",""
"null","is being looked at by","","html-keyboard-response","292","2952397","0.0-17.0-2.16","91288","List2A","black","man","","","","null","","","","","","","","",""
"22376.40000000596","","","survey-text","293","2974778","0.0-17.0-3.16","91288","List2A","black","man","","","","","{""Q0"":""mike is being looked at by dave""}","<img src=""stim_listA/look6.gif""style=""height:400px;""></stim_listA>","is being looked at by","","","","","",""
"null","<div style=""font-size:60px;"">+</div>","","html-keyboard-response","294","2975295","0.0-17.0-0.17","91288","List2A","black","man","","","","null","","","","","","","","",""
"null","<img src=""stim_listA/hug2.gif""style=""height:400px;""></stim_listA>","","html-keyboard-response","295","2977300","0.0-17.0-1.17","91288","List2A","black","man","","","","null","","","","","","","","",""
"null","is being hugged by","","html-keyboard-response","296","2979307","0.0-17.0-2.17","91288","List2A","black","man","","","","null","","","","","","","","",""
"10728.29999999702","","","survey-text","297","2990041","0.0-17.0-3.17","91288","List2A","black","man","","","","","{""Q0"":""jane is being hugged by dave""}","<img src=""stim_listA/hug2.gif""style=""height:400px;""></stim_listA>","is being hugged by","","","","","",""
"null","<div style=""font-size:60px;"">+</div>","","html-keyboard-response","298","2990551","0.0-17.0-0.18","91288","List2A","black","man","","","","null","","","","","","","","",""
"null","<img src=""stim_listA/touch6.gif""style=""height:400px;""></stim_listA>","","html-keyboard-response","299","2992558","0.0-17.0-1.18","91288","List2A","black","man","","","","null","","","","","","","","",""
"null","is being touched by","","html-keyboard-response","300","2994563","0.0-17.0-2.18","91288","List2A","black","man","","","","null","","","","","","","","",""
"9597.20000000298","","","survey-text","301","3004166","0.0-17.0-3.18","91288","List2A","black","man","","","","","{""Q0"":""luke is being touched by fred""}","<img src=""stim_listA/touch6.gif""style=""height:400px;""></stim_listA>","is being touched by","","","","","",""
"null","<div style=""font-size:60px;"">+</div>","","html-keyboard-response","302","3004669","0.0-17.0-0.19","91288","List2A","black","man","","","","null","","","","","","","","",""
"null","<img src=""stim_listA/challenge4.gif""style=""height:400px;""></stim_listA>","","html-keyboard-response","303","3006685","0.0-17.0-1.19","91288","List2A","black","man","","","","null","","","","","","","","",""
"null","is being challenged by","","html-keyboard-response","304","3008695","0.0-17.0-2.19","91288","List2A","black","man","","","","null","","","","","","","","",""
"9913.800000011921","","","survey-text","305","3018614","0.0-17.0-3.19","91288","List2A","black","man","","","","","{""Q0"":""kate is being challenged by fred""}","<img src=""stim_listA/challenge4.gif""style=""height:400px;""></stim_listA>","is being challenged by","","","","","",""
"3971.5","<img src='img/portrait_matrix_list2.jpg' style='width:900px;height:500px;''></img><p>If you have memorised all the portraits and names and are ready to start, press Continue.</p><p><strong>Please note: Your memory of these faces will be tested 4 times during this experiment.</strong></p>","0","html-button-response","306","3022589","0.0-18.0-0.0","91288","List2A","black","man","","","","","","","","","","","","",""
"1539.7000000029802","<img src=""portrait/WM2.jpg""style=""height:400px;""></img>","7","html-button-response","307","3025135","0.0-18.0-1.0","91288","List2A","black","man","","true","7","","","","","","","","","",""
"null","CORRECT","","html-keyboard-response","308","3026648","0.0-18.0-2.0-0.0","91288","List2A","black","man","","","","null","","","","","","","","",""
"2053.2999999970198","<img src=""portrait/BW1.jpg""style=""height:400px;""></img>","0","html-button-response","309","3028705","0.0-18.0-4.0","91288","List2A","black","man","","true","0","","","","","","","","","",""
"null","CORRECT","","html-keyboard-response","310","3030229","0.0-18.0-5.0-0.0","91288","List2A","black","man","","","","null","","","","","","","","",""
"1859.1000000089407","<img src=""portrait/BM2.jpg""style=""height:400px;""></img>","5","html-button-response","311","3032092","0.0-18.0-7.0","91288","List2A","black","man","","true","5","","","","","","","","","",""
"null","CORRECT","","html-keyboard-response","312","3033605","0.0-18.0-8.0-0.0","91288","List2A","black","man","","","","null","","","","","","","","",""
"2466","<img src=""portrait/WW2.jpg""style=""height:400px;""></img>","3","html-button-response","313","3036075","0.0-18.0-10.0","91288","List2A","black","man","","true","3","","","","","","","","","",""
"null","CORRECT","","html-keyboard-response","314","3037589","0.0-18.0-11.0-0.0","91288","List2A","black","man","","","","null","","","","","","","","",""
"1392","<img src=""portrait/BW2.jpg""style=""height:400px;""></img>","2","html-button-response","315","3038985","0.0-18.0-13.0","91288","List2A","black","man","","true","2","","","","","","","","","",""
"null","CORRECT","","html-keyboard-response","316","3040501","0.0-18.0-14.0-0.0","91288","List2A","black","man","","","","null","","","","","","","","",""
"1573.2000000029802","<img src=""portrait/WW1.jpg""style=""height:400px;""></img>","1","html-button-response","317","3042078","0.0-18.0-16.0","91288","List2A","black","man","","true","1","","","","","","","","","",""
"null","CORRECT","","html-keyboard-response","318","3043591","0.0-18.0-17.0-0.0","91288","List2A","black","man","","","","null","","","","","","","","",""
"1162.699999988079","<img src=""portrait/BM1.jpg""style=""height:400px;""></img>","4","html-button-response","319","3044757","0.0-18.0-19.0","91288","List2A","black","man","","true","4","","","","","","","","","",""
"null","CORRECT","","html-keyboard-response","320","3046283","0.0-18.0-20.0-0.0","91288","List2A","black","man","","","","null","","","","","","","","",""
"1555.7000000029802","<img src=""portrait/WM1.jpg""style=""height:400px;""></img>","6","html-button-response","321","3047843","0.0-18.0-22.0","91288","List2A","black","man","","true","6","","","","","","","","","",""
"null","CORRECT","","html-keyboard-response","322","3049354","0.0-18.0-23.0-0.0","91288","List2A","black","man","","","","null","","","","","","","","",""
"12572.39999999106","<p>You got 8 out of 8 right first time. Press Continue.</p>","0","html-button-response","323","3061930","0.0-18.0-25.0","91288","List2A","black","man","","","","","","","","","","","","",""
"null","<div style=""font-size:60px;"">+</div>","","html-keyboard-response","324","3063449","0.0-19.0-0.0","91288","List2A","black","man","","","","null","","","","","","","","",""
"null","<img src=""stim_listA/seduce2.gif""style=""height:400px;""></stim_listA>","","html-keyboard-response","325","3065464","0.0-19.0-1.0","91288","List2A","black","man","","","","null","","","","","","","","",""
"null","is being seduced by","","html-keyboard-response","326","3067474","0.0-19.0-2.0","91288","List2A","black","man","","","","null","","","","","","","","",""
"9585.59999999404","","","survey-text","327","3077065","0.0-19.0-3.0","91288","List2A","black","man","","","","","{""Q0"":""ruth is being seduced by dave""}","<img src=""stim_listA/seduce2.gif""style=""height:400px;""></stim_listA>","is being seduced by","","","","","",""
"null","<div style=""font-size:60px;"">+</div>","","html-keyboard-response","328","3077582","0.0-19.0-0.1","91288","List2A","black","man","","","","null","","","","","","","","",""
"null","<img src=""stim_listA/greet1.gif""style=""height:400px;""></stim_listA>","","html-keyboard-response","329","3079600","0.0-19.0-1.1","91288","List2A","black","man","","","","null","","","","","","","","",""
"null","is greeting","","html-keyboard-response","330","3081608","0.0-19.0-2.1","91288","List2A","black","man","","","","null","","","","","","","","",""
"5510","","","survey-text","331","3087124","0.0-19.0-3.1","91288","List2A","black","man","","","","","{""Q0"":""dave is greeting ruth""}","<img src=""stim_listA/greet1.gif""style=""height:400px;""></stim_listA>","is greeting","","","","","",""
"null","<div style=""font-size:60px;"">+</div>","","html-keyboard-response","332","3087635","0.0-19.0-0.2","91288","List2A","black","man","","","","null","","","","","","","","",""
"null","<img src=""stim_listA/copy6.gif""style=""height:400px;""></stim_listA>","","html-keyboard-response","333","3089642","0.0-19.0-1.2","91288","List2A","black","man","","","","null","","","","","","","","",""
"null","is being copied by","","html-keyboard-response","334","3091651","0.0-19.0-2.2","91288","List2A","black","man","","","","null","","","","","","","","",""
"18748.19999998808","","","survey-text","335","3110405","0.0-19.0-3.2","91288","List2A","black","man","","","","","{""Q0"":""mike is being copied by dave""}","<img src=""stim_listA/copy6.gif""style=""height:400px;""></stim_listA>","is being copied by","","","","","",""
"null","<div style=""font-size:60px;"">+</div>","","html-keyboard-response","336","3110915","0.0-19.0-0.3","91288","List2A","black","man","","","","null","","","","","","","","",""
"null","<img src=""stim_listA/touch2.gif""style=""height:400px;""></stim_listA>","","html-keyboard-response","337","3112932","0.0-19.0-1.3","91288","List2A","black","man","","","","null","","","","","","","","",""
"null","is being touched by","","html-keyboard-response","338","3114942","0.0-19.0-2.3","91288","List2A","black","man","","","","null","","","","","","","","",""
"21006.90000000596","","","survey-text","339","3135955","0.0-19.0-3.3","91288","List2A","black","man","","","","","{""Q0"":""luke is being touched by ruth""}","<img src=""stim_listA/touch2.gif""style=""height:400px;""></stim_listA>","is being touched by","","","","","",""
"null","<div style=""font-size:60px;"">+</div>","","html-keyboard-response","340","3136465","0.0-19.0-0.4","91288","List2A","black","man","","","","null","","","","","","","","",""
"null","<img src=""stim_listA/hug1.gif""style=""height:400px;""></stim_listA>","","html-keyboard-response","341","3138483","0.0-19.0-1.4","91288","List2A","black","man","","","","null","","","","","","","","",""
"null","is hugging","","html-keyboard-response","342","3140498","0.0-19.0-2.4","91288","List2A","black","man","","","","null","","","","","","","","",""
"7902.20000000298","","","survey-text","343","3148405","0.0-19.0-3.4","91288","List2A","black","man","","","","","{""Q0"":""luke is hugging ruth""}","<img src=""stim_listA/hug1.gif""style=""height:400px;""></stim_listA>","is hugging","","","","","",""
"null","<div style=""font-size:60px;"">+</div>","","html-keyboard-response","344","3148909","0.0-19.0-0.5","91288","List2A","black","man","","","","null","","","","","","","","",""
"null","<img src=""stim_listA/kiss1.gif""style=""height:400px;""></stim_listA>","","html-keyboard-response","345","3150918","0.0-19.0-1.5","91288","List2A","black","man","","","","null","","","","","","","","",""
"null","is kissing","","html-keyboard-response","346","3152931","0.0-19.0-2.5","91288","List2A","black","man","","","","null","","","","","","","","",""
"5401.4000000059605","","","survey-text","347","3158338","0.0-19.0-3.5","91288","List2A","black","man","","","","","{""Q0"":""luke is kissing ruth""}","<img src=""stim_listA/kiss1.gif""style=""height:400px;""></stim_listA>","is kissing","","","","","",""
"null","<div style=""font-size:60px;"">+</div>","","html-keyboard-response","348","3158848","0.0-19.0-0.6","91288","List2A","black","man","","","","null","","","","","","","","",""
"null","<img src=""stim_listA/oppose5.gif""style=""height:400px;""></stim_listA>","","html-keyboard-response","349","3160864","0.0-19.0-1.6","91288","List2A","black","man","","","","null","","","","","","","","",""
"null","is opposing","","html-keyboard-response","350","3162867","0.0-19.0-2.6","91288","List2A","black","man","","","","null","","","","","","","","",""
"5582.20000000298","","","survey-text","351","3168454","0.0-19.0-3.6","91288","List2A","black","man","","","","","{""Q0"":""mike is opposing dave""}","<img src=""stim_listA/oppose5.gif""style=""height:400px;""></stim_listA>","is opposing","","","","","",""
"null","<div style=""font-size:60px;"">+</div>","","html-keyboard-response","352","3168963","0.0-19.0-0.7","91288","List2A","black","man","","","","null","","","","","","","","",""
"null","<img src=""stim_listA/kiss8.gif""style=""height:400px;""></stim_listA>","","html-keyboard-response","353","3170975","0.0-19.0-1.7","91288","List2A","black","man","","","","null","","","","","","","","",""
"null","is being kissed by","","html-keyboard-response","354","3172986","0.0-19.0-2.7","91288","List2A","black","man","","","","null","","","","","","","","",""
"7988.70000000298","","","survey-text","355","3180980","0.0-19.0-3.7","91288","List2A","black","man","","","","","{""Q0"":""kate is being kissed by jane""}","<img src=""stim_listA/kiss8.gif""style=""height:400px;""></stim_listA>","is being kissed by","","","","","",""
"null","<div style=""font-size:60px;"">+</div>","","html-keyboard-response","356","3181490","0.0-19.0-0.8","91288","List2A","black","man","","","","null","","","","","","","","",""
"null","<img src=""stim_listA/challenge7.gif""style=""height:400px;""></stim_listA>","","html-keyboard-response","357","3183499","0.0-19.0-1.8","91288","List2A","black","man","","","","null","","","","","","","","",""
"null","is challenging","","html-keyboard-response","358","3185507","0.0-19.0-2.8","91288","List2A","black","man","","","","null","","","","","","","","",""
"10814.20000000298","","","survey-text","359","3196326","0.0-19.0-3.8","91288","List2A","black","man","","","","","{""Q0"":""jane is challenging beth""}","<img src=""stim_listA/challenge7.gif""style=""height:400px;""></stim_listA>","is challenging","","","","","",""
"null","<div style=""font-size:60px;"">+</div>","","html-keyboard-response","360","3196829","0.0-19.0-0.9","91288","List2A","black","man","","","","null","","","","","","","","",""
"null","<img src=""stim_listA/oppose4.gif""style=""height:400px;""></stim_listA>","","html-keyboard-response","361","3198844","0.0-19.0-1.9","91288","List2A","black","man","","","","null","","","","","","","","",""
"null","is being opposed by","","html-keyboard-response","362","3200848","0.0-19.0-2.9","91288","List2A","black","man","","","","null","","","","","","","","",""
"9332.29999999702","","","survey-text","363","3210185","0.0-19.0-3.9","91288","List2A","black","man","","","","","{""Q0"":""beth is being opposed by fred""}","<img src=""stim_listA/oppose4.gif""style=""height:400px;""></stim_listA>","is being opposed by","","","","","",""
"null","<div style=""font-size:60px;"">+</div>","","html-keyboard-response","364","3210702","0.0-19.0-0.10","91288","List2A","black","man","","","","null","","","","","","","","",""
"null","<img src=""stim_listA/oppose3.gif""style=""height:400px;""></stim_listA>","","html-keyboard-response","365","3212719","0.0-19.0-1.10","91288","List2A","black","man","","","","null","","","","","","","","",""
"null","is opposing","","html-keyboard-response","366","3214728","0.0-19.0-2.10","91288","List2A","black","man","","","","null","","","","","","","","",""
"9144.79999999702","","","survey-text","367","3223877","0.0-19.0-3.10","91288","List2A","black","man","","","","","{""Q0"":""mike is opposing kate""}","<img src=""stim_listA/oppose3.gif""style=""height:400px;""></stim_listA>","is opposing","","","","","",""
"null","<div style=""font-size:60px;"">+</div>","","html-keyboard-response","368","3224391","0.0-19.0-0.11","91288","List2A","black","man","","","","null","","","","","","","","",""
"null","<img src=""stim_listA/oppose8.gif""style=""height:400px;""></stim_listA>","","html-keyboard-response","369","3226399","0.0-19.0-1.11","91288","List2A","black","man","","","","null","","","","","","","","",""
"null","is being opposed by","","html-keyboard-response","370","3228405","0.0-19.0-2.11","91288","List2A","black","man","","","","null","","","","","","","","",""
"9295.90000000596","","","survey-text","371","3237706","0.0-19.0-3.11","91288","List2A","black","man","","","","","{""Q0"":""beth is being opposed by ruth""}","<img src=""stim_listA/oppose8.gif""style=""height:400px;""></stim_listA>","is being opposed by","","","","","",""
"null","<div style=""font-size:60px;"">+</div>","","html-keyboard-response","372","3238209","0.0-19.0-0.12","91288","List2A","black","man","","","","null","","","","","","","","",""
"null","<img src=""stim_listA/hug8.gif""style=""height:400px;""></stim_listA>","","html-keyboard-response","373","3240226","0.0-19.0-1.12","91288","List2A","black","man","","","","null","","","","","","","","",""
"null","is being hugged by","","html-keyboard-response","374","3242234","0.0-19.0-2.12","91288","List2A","black","man","","","","null","","","","","","","","",""
"9820.40000000596","","","survey-text","375","3252060","0.0-19.0-3.12","91288","List2A","black","man","","","","","{""Q0"":""kate is being hugged by jane""}","<img src=""stim_listA/hug8.gif""style=""height:400px;""></stim_listA>","is being hugged by","","","","","",""
"null","<div style=""font-size:60px;"">+</div>","","html-keyboard-response","376","3252562","0.0-19.0-0.13","91288","List2A","black","man","","","","null","","","","","","","","",""
"null","<img src=""stim_listA/challenge1.gif""style=""height:400px;""></stim_listA>","","html-keyboard-response","377","3254574","0.0-19.0-1.13","91288","List2A","black","man","","","","null","","","","","","","","",""
"null","is challenging","","html-keyboard-response","378","3256576","0.0-19.0-2.13","91288","List2A","black","man","","","","null","","","","","","","","",""
"11079.5","","","survey-text","379","3267660","0.0-19.0-3.13","91288","List2A","black","man","","","","","{""Q0"":""dave is challenging ruth""}","<img src=""stim_listA/challenge1.gif""style=""height:400px;""></stim_listA>","is challenging","","","","","",""
"null","<div style=""font-size:60px;"">+</div>","","html-keyboard-response","380","3268177","0.0-19.0-0.14","91288","List2A","black","man","","","","null","","","","","","","","",""
"null","<img src=""stim_listA/greet6.gif""style=""height:400px;""></stim_listA>","","html-keyboard-response","381","3270187","0.0-19.0-1.14","91288","List2A","black","man","","","","null","","","","","","","","",""
"null","is being greeted by","","html-keyboard-response","382","3272190","0.0-19.0-2.14","91288","List2A","black","man","","","","null","","","","","","","","",""
"9970.39999999106","","","survey-text","383","3282165","0.0-19.0-3.14","91288","List2A","black","man","","","","","{""Q0"":""mike is being greeted by luke""}","<img src=""stim_listA/greet6.gif""style=""height:400px;""></stim_listA>","is being greeted by","","","","","",""
"null","<div style=""font-size:60px;"">+</div>","","html-keyboard-response","384","3282676","0.0-19.0-0.15","91288","List2A","black","man","","","","null","","","","","","","","",""
"null","<img src=""stim_listA/hug6.gif""style=""height:400px;""></stim_listA>","","html-keyboard-response","385","3284694","0.0-19.0-1.15","91288","List2A","black","man","","","","null","","","","","","","","",""
"null","is being hugged by","","html-keyboard-response","386","3286697","0.0-19.0-2.15","91288","List2A","black","man","","","","null","","","","","","","","",""
"13788.40000000596","","","survey-text","387","3300490","0.0-19.0-3.15","91288","List2A","black","man","","","","","{""Q0"":""mike is being hugged by dave""}","<img src=""stim_listA/hug6.gif""style=""height:400px;""></stim_listA>","is being hugged by","","","","","",""
"null","<div style=""font-size:60px;"">+</div>","","html-keyboard-response","388","3300993","0.0-19.0-0.16","91288","List2A","black","man","","","","null","","","","","","","","",""
"null","<img src=""stim_listA/shout4.gif""style=""height:400px;""></stim_listA>","","html-keyboard-response","389","3302999","0.0-19.0-1.16","91288","List2A","black","man","","","","null","","","","","","","","",""
"null","is being shouted at by","","html-keyboard-response","390","3305008","0.0-19.0-2.16","91288","List2A","black","man","","","","null","","","","","","","","",""
"246324.79999999702","","","survey-text","391","3551338","0.0-19.0-3.16","91288","List2A","black","man","","","","","{""Q0"":""mike is being shouted at by kate""}","<img src=""stim_listA/shout4.gif""style=""height:400px;""></stim_listA>","is being shouted at by","","","","","",""
"null","<div style=""font-size:60px;"">+</div>","","html-keyboard-response","392","3551845","0.0-19.0-0.17","91288","List2A","black","man","","","","null","","","","","","","","",""
"null","<img src=""stim_listA/shout8.gif""style=""height:400px;""></stim_listA>","","html-keyboard-response","393","3553854","0.0-19.0-1.17","91288","List2A","black","man","","","","null","","","","","","","","",""
"null","is being shouted at by","","html-keyboard-response","394","3555864","0.0-19.0-2.17","91288","List2A","black","man","","","","null","","","","","","","","",""
"12176.40000000596","","","survey-text","395","3568045","0.0-19.0-3.17","91288","List2A","black","man","","","","","{""Q0"":""kate is being shouted at by jane""}","<img src=""stim_listA/shout8.gif""style=""height:400px;""></stim_listA>","is being shouted at by","","","","","",""
"null","<div style=""font-size:60px;"">+</div>","","html-keyboard-response","396","3568555","0.0-19.0-0.18","91288","List2A","black","man","","","","null","","","","","","","","",""
"null","<img src=""stim_listA/touch3.gif""style=""height:400px;""></stim_listA>","","html-keyboard-response","397","3570569","0.0-19.0-1.18","91288","List2A","black","man","","","","null","","","","","","","","",""
"null","is touching","","html-keyboard-response","398","3572579","0.0-19.0-2.18","91288","List2A","black","man","","","","null","","","","","","","","",""
"7931.4000000059605","","","survey-text","399","3580516","0.0-19.0-3.18","91288","List2A","black","man","","","","","{""Q0"":""mike is touching kate""}","<img src=""stim_listA/touch3.gif""style=""height:400px;""></stim_listA>","is touching","","","","","",""
"null","<div style=""font-size:60px;"">+</div>","","html-keyboard-response","400","3581026","0.0-19.0-0.19","91288","List2A","black","man","","","","null","","","","","","","","",""
"null","<img src=""stim_listA/shout1.gif""style=""height:400px;""></stim_listA>","","html-keyboard-response","401","3583037","0.0-19.0-1.19","91288","List2A","black","man","","","","null","","","","","","","","",""
"null","is shouting at","","html-keyboard-response","402","3585051","0.0-19.0-2.19","91288","List2A","black","man","","","","null","","","","","","","","",""
"8343.09999999404","","","survey-text","403","3593400","0.0-19.0-3.19","91288","List2A","black","man","","","","","{""Q0"":""ruth is shouting at luke""}","<img src=""stim_listA/shout1.gif""style=""height:400px;""></stim_listA>","is shouting at","","","","","",""
"1332.6000000089407","<p>Thank you for completing that task.</p><p>The final part of this session is a questionnaire that will take about 4 minutes.</p><p>Press Continue.</p>","0","html-button-response","404","3594736","0.0-20.0","91288","List2A","black","man","","","","","","","","","","","","",""
"34372.20000000298","","","survey-text","405","3630121","0.0-21.0","91288","List2A","black","man","","","","","{""Q0"":""29"",""Q1"":""english"",""Q2"":""english"",""Q3"":""America"",""Q4"":""American"",""Q5"":""Black"",""Q6"":""male""}","","","demographics","","","","",""
"1869.7000000029802","<p>Have you lived in the USA for the last 5 years or more?</p>","0","html-button-response","406","3631998","0.0-22.0","91288","List2A","black","man","","","","","","","","fiveyears","","","","",""
"1000.5999999940395","<p>Move the slider to show the extent to which you agree with the following statements.</p>","0","html-button-response","407","3634015","0.0-23.0","91288","List2A","black","man","","","","","","","","","","","","",""
"164264.59999999404","","","html-slider-response","408","3799288","0.0-24.0-0.0-0.0","91288","List2A","black","man","","","","","","","","survey_gender","51","","","My friends have a lot in common with each other.","filler"
"4307.20000000298","","","html-slider-response","409","3803601","0.0-24.0-0.0-0.1","91288","List2A","black","man","","","","","","","","survey_gender","52","","","Most of the friends in my life are very similar to me.","filler"
"3362","","","html-slider-response","410","3806967","0.0-24.0-0.0-0.2","91288","List2A","black","man","","","","","","","","survey_gender","36","","","Routine is not important to me.","filler"
"2445","","","html-slider-response","411","3809415","0.0-24.0-0.0-0.3","91288","List2A","black","man","","","","","","","","survey_gender","53","","","I am glad to have the friends that I have.","filler"
"1599.5999999940395","","","html-slider-response","412","3811020","0.0-24.0-0.0-0.4","91288","List2A","black","man","","","","","","","","survey_gender","55","","","I feel a bond with my gender.","bond"
"1672.5999999940395","","","html-slider-response","413","3812696","0.0-24.0-0.0-0.5","91288","List2A","black","man","","","","","","","","survey_gender","56","","","People of my gender are very similar to each other.","verysimilar"
"2296.7000000029802","","","html-slider-response","414","3814997","0.0-24.0-0.0-0.6","91288","List2A","black","man","","","","","","","","survey_gender","52","","","People of my gender have a lot in common with each other.","common"
"3762","","","html-slider-response","415","3818768","0.0-24.0-0.0-0.7","91288","List2A","black","man","","","","","","","","survey_gender","54","","","It is not always easy for people to know what I am thinking.","filler"
"3214.0999999940395","","","html-slider-response","416","3821988","0.0-24.0-0.0-0.8","91288","List2A","black","man","","","","","","","","survey_gender","63","","","I consider myself a highly empathetic person.","filler"
"3023.699999988079","","","html-slider-response","417","3825017","0.0-24.0-0.0-0.9","91288","List2A","black","man","","","","","","","","survey_gender","62","","","I have a lot in common with the average person of my gender.","average"
"1875.4000000059605","","","html-slider-response","418","3826896","0.0-24.0-0.0-0.10","91288","List2A","black","man","","","","","","","","survey_gender","64","","","I feel solidarity with my gender.","solidarity"
"2800.5","","","html-slider-response","419","3829700","0.0-24.0-0.0-0.11","91288","List2A","black","man","","","","","","","","survey_gender","66","","","I am glad to be my gender.","glad"
"3002.4000000059605","","","html-slider-response","420","3832707","0.0-24.0-0.0-0.12","91288","List2A","black","man","","","","","","","","survey_gender","73","","","I would say I am an animal person.","filler"
"2317.9000000059605","","","html-slider-response","421","3835028","0.0-24.0-0.0-0.13","91288","List2A","black","man","","","","","","","","survey_gender","55","","","I am similar to the average person of my gender.","similar"
"3811.0999999940395","","","html-slider-response","422","3838843","0.0-24.0-0.0-0.14","91288","List2A","black","man","","","","","","","","survey_gender","58","","","Being my gender gives me a good feeling.","feeling"
"2162","","","html-slider-response","423","3841010","0.0-24.0-0.0-0.15","91288","List2A","black","man","","","","","","","","survey_gender","59","","","I feel committed to my gender.","committed"
"1631","","","html-slider-response","424","3842644","0.0-24.0-0.0-0.16","91288","List2A","black","man","","","","","","","","survey_gender","59","","","I feel solidarity with my friends.","filler"
"2227.2000000029802","","","html-slider-response","425","3844875","0.0-24.0-0.0-0.17","91288","List2A","black","man","","","","","","","","survey_gender","56","","","Being around my friends gives me a good feeling.","filler"
"2241.5999999940395","","","html-slider-response","426","3847119","0.0-24.0-0.0-0.18","91288","List2A","black","man","","","","","","","","survey_gender","59","","","Being my gender is an important part of how I see myself.","important"
"2094","","","html-slider-response","427","3849217","0.0-24.0-0.0-0.19","91288","List2A","black","man","","","","","","","","survey_gender","64","","","My friends understand me.","filler"
"3300.300000011921","","","html-slider-response","428","3852521","0.0-24.0-0.0-0.20","91288","List2A","black","man","","","","","","","","survey_gender","61","","","I often think about my actions.","filler"
"1664.6000000089407","","","html-slider-response","429","3854190","0.0-24.0-0.0-0.21","91288","List2A","black","man","","","","","","","","survey_gender","60","","","It is pleasant to be my gender.","pleasant"
"1687.2000000029802","","","html-slider-response","430","3855881","0.0-24.0-0.0-0.22","91288","List2A","black","man","","","","","","","","survey_gender","61","","","I think that my gender has a lot to be proud of.","proud"
"6338.70000000298","","","html-slider-response","431","3862223","0.0-24.0-0.0-0.23","91288","List2A","black","man","","","","","","","","survey_gender","51","","","Family is not more important to me than friendship.","filler"
"2295.4000000059605","","","html-slider-response","432","3864523","0.0-24.0-0.0-0.24","91288","List2A","black","man","","","","","","","","survey_gender","60","","","The fact that I am my gender is an important part of my identity.","identity"
"2073","","","html-slider-response","433","3866600","0.0-24.0-0.0-0.25","91288","List2A","black","man","","","","","","","","survey_gender","61","","","I often think about the fact that I am my gender.","often"
"1728.5","","","html-slider-response","434","3868333","0.0-24.0-0.0-0.26","91288","List2A","black","man","","","","","","","","survey_gender","57","","","I feel a bond with my friends.","filler"
"1876.7999999970198","","","html-slider-response","435","3870214","0.0-24.0-0.0-0.27","91288","List2A","black","man","","","","","","","","survey_gender","59","","","I have a lot in common with my friends.","filler"
"3971.9000000059605","","","html-slider-response","436","3874189","0.0-24.0-1.0-0.0","91288","List2A","black","man","","","","","","","","survey_race","81","","","I feel solidarity with my race.","solidarity"
"2680.0999999940395","","","html-slider-response","437","3876875","0.0-24.0-1.0-0.1","91288","List2A","black","man","","","","","","","","survey_race","52","","","I am glad to be the age I am.","filler"
"1672.0999999940395","","","html-slider-response","438","3878550","0.0-24.0-1.0-0.2","91288","List2A","black","man","","","","","","","","survey_race","57","","","I consider myself an extrovert.","filler"
"2121.7999999970198","","","html-slider-response","439","3880676","0.0-24.0-1.0-0.3","91288","List2A","black","man","","","","","","","","survey_race","54","","","I have a lot in common with people of a similar age to me.","filler"
"1960.8999999910593","","","html-slider-response","440","3882640","0.0-24.0-1.0-0.4","91288","List2A","black","man","","","","","","","","survey_race","54","","","I feel solidarity with people the same age as me.","filler"
"2177.5","","","html-slider-response","441","3884820","0.0-24.0-1.0-0.5","91288","List2A","black","man","","","","","","","","survey_race","45","","","I consider myself an introvert.","filler"
"2620.5","","","html-slider-response","442","3887444","0.0-24.0-1.0-0.6","91288","List2A","black","man","","","","","","","","survey_race","67","","","Being my race is an important part of how I see myself.","important"
"3097.4000000059605","","","html-slider-response","443","3890546","0.0-24.0-1.0-0.7","91288","List2A","black","man","","","","","","","","survey_race","32","","","I enjoy being in large groups.","filler"
"4855.70000000298","","","html-slider-response","444","3895406","0.0-24.0-1.0-0.8","91288","List2A","black","man","","","","","","","","survey_race","43","","","It is pleasant to be my race.","pleasant"
"4069.2999999970198","","","html-slider-response","445","3899481","0.0-24.0-1.0-0.9","91288","List2A","black","man","","","","","","","","survey_race","81","","","People of my race have a lot in common with each other.","common"
"24089.89999999106","","","html-slider-response","446","3923576","0.0-24.0-1.0-0.10","91288","List2A","black","man","","","","","","","","survey_race","53","","","The older I get, the wiser I feel.","filler"
"3669.5","","","html-slider-response","447","3927252","0.0-24.0-1.0-0.11","91288","List2A","black","man","","","","","","","","survey_race","38","","","Getting older does not worry me.","filler"
"2844.5","","","html-slider-response","448","3930100","0.0-24.0-1.0-0.12","91288","List2A","black","man","","","","","","","","survey_race","72","","","People of my race are very similar to each other.","verysimilar"
"2759.5","","","html-slider-response","449","3932863","0.0-24.0-1.0-0.13","91288","List2A","black","man","","","","","","","","survey_race","69","","","I am similar to the average person of my race.","similar"
"1898.0999999940395","","","html-slider-response","450","3934764","0.0-24.0-1.0-0.14","91288","List2A","black","man","","","","","","","","survey_race","85","","","I feel a bond with my race.","bond"
"1855.7000000029802","","","html-slider-response","451","3936623","0.0-24.0-1.0-0.15","91288","List2A","black","man","","","","","","","","survey_race","85","","","I think that my race has a lot to be proud of.","proud"
"4165.29999999702","","","html-slider-response","452","3940792","0.0-24.0-1.0-0.16","91288","List2A","black","man","","","","","","","","survey_race","47","","","I feel a bond with people the same age as me.","filler"
"3790","","","html-slider-response","453","3944588","0.0-24.0-1.0-0.17","91288","List2A","black","man","","","","","","","","survey_race","55","","","Being my race gives me a good feeling.","feeling"
"2133.199999988079","","","html-slider-response","454","3946726","0.0-24.0-1.0-0.18","91288","List2A","black","man","","","","","","","","survey_race","51","","","People my age have a lot in common with each other.","filler"
"3699.1000000089407","","","html-slider-response","455","3950428","0.0-24.0-1.0-0.19","91288","List2A","black","man","","","","","","","","survey_race","51","","","I often think about the fact that I am my age.","filler"
"2332.7000000029802","","","html-slider-response","456","3952766","0.0-24.0-1.0-0.20","91288","List2A","black","man","","","","","","","","survey_race","71","","","I am glad to be my race.","glad"
"1337.5","","","html-slider-response","457","3954107","0.0-24.0-1.0-0.21","91288","List2A","black","man","","","","","","","","survey_race","51","","","Being my age gives me a good feeling.","filler"
"1427.2000000029802","","","html-slider-response","458","3955538","0.0-24.0-1.0-0.22","91288","List2A","black","man","","","","","","","","survey_race","51","","","I am glad to be my age.","filler"
"3558.2000000029802","","","html-slider-response","459","3959100","0.0-24.0-1.0-0.23","91288","List2A","black","man","","","","","","","","survey_race","47","","","My age is not an important part of who I am.","filler"
"3024.4000000059605","","","html-slider-response","460","3962130","0.0-24.0-1.0-0.24","91288","List2A","black","man","","","","","","","","survey_race","74","","","The fact that I am my race is an important part of my identity.","identity"
"2467.7000000029802","","","html-slider-response","461","3964603","0.0-24.0-1.0-0.25","91288","List2A","black","man","","","","","","","","survey_race","76","","","I feel committed to my race.","committed"
"1866.8999999910593","","","html-slider-response","462","3966473","0.0-24.0-1.0-0.26","91288","List2A","black","man","","","","","","","","survey_race","60","","","I have a lot in common with the average person of my race.","average"
"2323.3999999910593","","","html-slider-response","463","3968800","0.0-24.0-1.0-0.27","91288","List2A","black","man","","","","","","","","survey_race","64","","","I often think about the fact that I am my race.","often"
"8406.40000000596","","","survey-text","464","3977216","0.0-25.0","91288","List2A","black","man","","","","","{""Q0"":""6154320171c48a3233376062""}","","","worker_id","","","","",""
"1906.0999999940395","","","external-html","465","3981643","0.0-26.0","91288","List2A","black","man","debrief.html","","","","","","","","","","","",""
