rt,stimulus,button_pressed,trial_type,trial_index,time_elapsed,internal_node_id,subject,list,ppt_race,ppt_gender,url,first_guess,correct,key_press,responses,image_type,phrase_type,test_part,response,stimulus1,stimulus2,question_type,survey_item
6765.1,Welcome to the experiment. Press Continue to begin.,0,html-button-response,0,6769,0.0-0.0,91360,List1B,black,man,,,,,,,,,,,,,
531094.7,,,external-html,1,539642,0.0-1.0,91360,List1B,black,man,consent.html,,,,,,,,,,,,
9197.1,"<p>On the next page, you will see portraits of 8 people and their names.</p><p>Your first task is to take a few minutes to memorise the names of these people.</p><p>You will have to recall their names during the rest of the experiment, so it is</p><p>essential that you try to memorise these people and their names as best as you can.</p><br><p><strong>You will then be tested on your memory of these names and portraits.</strong></p><br><p>The experiment will start after you have completed this memory test.</p><br><p>Ready?</p>",0,html-button-response,2,548842,0.0-2.0,91360,List1B,black,man,,,,,,,,,,,,,
40884,"<img src='img/portrait_matrix_list1.jpg' style='width:900px;height:500px;''></img><p>If you have memorised all the portraits and names and are ready to start, press Continue.</p><p><strong>Please note: Your memory of these faces will be tested 4 times during this experiment.</strong></p>",0,html-button-response,3,590733,0.0-3.0-0.0,91360,List1B,black,man,,,,,,,,,,,,,
99236.7,"<img src=""portrait/BM2.jpg""style=""height:400px;""></img>",5,html-button-response,4,690979,0.0-3.0-1.0,91360,List1B,black,man,,TRUE,5,,,,,,,,,,
null,CORRECT,,html-keyboard-response,5,692507,0.0-3.0-2.0-0.0,91360,List1B,black,man,,,,null,,,,,,,,,
6296.9,"<img src=""portrait/WW2.jpg""style=""height:400px;""></img>",3,html-button-response,6,698806,0.0-3.0-4.0,91360,List1B,black,man,,TRUE,3,,,,,,,,,,
null,CORRECT,,html-keyboard-response,7,700318,0.0-3.0-5.0-0.0,91360,List1B,black,man,,,,null,,,,,,,,,
6006.4,"<img src=""portrait/BM1.jpg""style=""height:400px;""></img>",4,html-button-response,8,706326,0.0-3.0-7.0,91360,List1B,black,man,,TRUE,4,,,,,,,,,,
null,CORRECT,,html-keyboard-response,9,707844,0.0-3.0-8.0-0.0,91360,List1B,black,man,,,,null,,,,,,,,,
8272.9,"<img src=""portrait/BW2.jpg""style=""height:400px;""></img>",2,html-button-response,10,716118,0.0-3.0-10.0,91360,List1B,black,man,,TRUE,2,,,,,,,,,,
null,CORRECT,,html-keyboard-response,11,717638,0.0-3.0-11.0-0.0,91360,List1B,black,man,,,,null,,,,,,,,,
11374.3,"<img src=""portrait/WW1.jpg""style=""height:400px;""></img>",1,html-button-response,12,729014,0.0-3.0-13.0,91360,List1B,black,man,,TRUE,1,,,,,,,,,,
null,CORRECT,,html-keyboard-response,13,730529,0.0-3.0-14.0-0.0,91360,List1B,black,man,,,,null,,,,,,,,,
11972.1,"<img src=""portrait/BW1.jpg""style=""height:400px;""></img>",0,html-button-response,14,742503,0.0-3.0-16.0,91360,List1B,black,man,,TRUE,0,,,,,,,,,,
null,CORRECT,,html-keyboard-response,15,744020,0.0-3.0-17.0-0.0,91360,List1B,black,man,,,,null,,,,,,,,,
10718.7,"<img src=""portrait/WM2.jpg""style=""height:400px;""></img>",7,html-button-response,16,754740,0.0-3.0-19.0,91360,List1B,black,man,,TRUE,7,,,,,,,,,,
null,CORRECT,,html-keyboard-response,17,756265,0.0-3.0-20.0-0.0,91360,List1B,black,man,,,,null,,,,,,,,,
7569.4,"<img src=""portrait/WM1.jpg""style=""height:400px;""></img>",6,html-button-response,18,763836,0.0-3.0-22.0,91360,List1B,black,man,,TRUE,6,,,,,,,,,,
null,CORRECT,,html-keyboard-response,19,765349,0.0-3.0-23.0-0.0,91360,List1B,black,man,,,,null,,,,,,,,,
3215.9,<p>You got 8 out of 8 right first time. Press Continue.</p>,0,html-button-response,20,768567,0.0-3.0-25.0,91360,List1B,black,man,,,,,,,,,,,,,
31344.5,"<p>In this experiment, you will view photographs of the people from the memory game interacting.</p><p>By using the <strong>exact</strong> phrase given <i>after</i> the photograph appears and recalling the correct names of the people in the photographs, form a sentence describing the interaction. You do not need to capitalise names.</p><p>Type your answer in the space provided. Please complete every sentence before moving onto the next trial.</p><p>You will only have a few seconds to memorise each given photograph and phrase before you can respond, so try your best to focus.</p><p>An example is given below. Press 'Continue' when you are ready.</p><img src='img/speaking_example.jpg' style='width:800px;height:460px;''></img>",0,html-button-response,21,800914,0.0-4.0,91360,List1B,black,man,,,,,,,,,,,,,
5348.1,"<p>Before the experiment starts, you will watch two example trials. Press 'Continue'.</p>",0,html-button-response,22,807265,0.0-5.0,91360,List1B,black,man,,,,,,,,,,,,,
null,<img src='img/play_eg.gif' style='height:400px;''></img>,,html-keyboard-response,23,810279,0.0-6.0,91360,List1B,black,man,,,,null,,,,,,,,,
null,<p>is playing with</p>,,html-keyboard-response,24,812291,0.0-7.0,91360,List1B,black,man,,,,null,,,,,,,,,
2356.7,<p><b>Answer:</b> kate is playing with beth</p>,0,html-button-response,25,814649,0.0-8.0,91360,List1B,black,man,,,,,,,,,,,,,
null,<img src='img/dance_eg.gif' style='height:400px;''></img>,,html-keyboard-response,26,817675,0.0-9.0,91360,List1B,black,man,,,,null,,,,,,,,,
null,<p>is being entertained by</p>,,html-keyboard-response,27,819687,0.0-10.0,91360,List1B,black,man,,,,null,,,,,,,,,
2346.8,<p><b>Answer:</b> luke is being entertained by dave</p>,0,html-button-response,28,822035,0.0-11.0,91360,List1B,black,man,,,,,,,,,,,,,
10904.1,"<p>Ready to start the experiment?</p><br><p><strong>Remember to describe the picture using a full sentence,</strong></p><p><strong>that combines the names of the people with the <i>exact</i> phrase given.</strong></p><p><strong>To receive full payment you must do this correctly.</strong></p><p><strong> You do not need to capitalise names or use punctuation.</strong></p><br><p>Press 'Continue' to begin.</p>",0,html-button-response,29,833945,0.0-12.0,91360,List1B,black,man,,,,,,,,,,,,,
null,"<div style=""font-size:60px;"">+</div>",,html-keyboard-response,30,835470,0.0-13.0-0.0,91360,List1B,black,man,,,,null,,,,,,,,,
null,"<img src=""stim_listB/look6.gif""style=""height:400px;""></stim_listB>",,html-keyboard-response,31,837481,0.0-13.0-1.0,91360,List1B,black,man,,,,null,,,,,,,,,
null,is being looked at by,,html-keyboard-response,32,839495,0.0-13.0-2.0,91360,List1B,black,man,,,,null,,,,,,,,,
41251.5,,,survey-text,33,880750,0.0-13.0-3.0,91360,List1B,black,man,,,,,"{""Q0"":""dave is being looked at by mike""}","<img src=""stim_listB/look6.gif""style=""height:400px;""></stim_listB>",is being looked at by,,,,,,
null,"<div style=""font-size:60px;"">+</div>",,html-keyboard-response,34,881262,0.0-13.0-0.1,91360,List1B,black,man,,,,null,,,,,,,,,
null,"<img src=""stim_listB/look2.gif""style=""height:400px;""></stim_listB>",,html-keyboard-response,35,883275,0.0-13.0-1.1,91360,List1B,black,man,,,,null,,,,,,,,,
null,is being looked at by,,html-keyboard-response,36,885288,0.0-13.0-2.1,91360,List1B,black,man,,,,null,,,,,,,,,
34621.6,,,survey-text,37,919912,0.0-13.0-3.1,91360,List1B,black,man,,,,,"{""Q0"":""kate is listening to mike""}","<img src=""stim_listB/look2.gif""style=""height:400px;""></stim_listB>",is being looked at by,,,,,,
null,"<div style=""font-size:60px;"">+</div>",,html-keyboard-response,38,920420,0.0-13.0-0.2,91360,List1B,black,man,,,,null,,,,,,,,,
null,"<img src=""stim_listB/challenge2.gif""style=""height:400px;""></stim_listB>",,html-keyboard-response,39,922437,0.0-13.0-1.2,91360,List1B,black,man,,,,null,,,,,,,,,
null,is being challenged by,,html-keyboard-response,40,924451,0.0-13.0-2.2,91360,List1B,black,man,,,,null,,,,,,,,,
24555.7,,,survey-text,41,949011,0.0-13.0-3.2,91360,List1B,black,man,,,,,"{""Q0"":""fred is being challenged by beth""}","<img src=""stim_listB/challenge2.gif""style=""height:400px;""></stim_listB>",is being challenged by,,,,,,
null,"<div style=""font-size:60px;"">+</div>",,html-keyboard-response,42,949524,0.0-13.0-0.3,91360,List1B,black,man,,,,null,,,,,,,,,
null,"<img src=""stim_listB/seduce1.gif""style=""height:400px;""></stim_listB>",,html-keyboard-response,43,951535,0.0-13.0-1.3,91360,List1B,black,man,,,,null,,,,,,,,,
null,is seducing,,html-keyboard-response,44,953548,0.0-13.0-2.3,91360,List1B,black,man,,,,null,,,,,,,,,
25810.5,,,survey-text,45,979360,0.0-13.0-3.3,91360,List1B,black,man,,,,,"{""Q0"":""fred is being seduced by kate""}","<img src=""stim_listB/seduce1.gif""style=""height:400px;""></stim_listB>",is seducing,,,,,,
null,"<div style=""font-size:60px;"">+</div>",,html-keyboard-response,46,979865,0.0-13.0-0.4,91360,List1B,black,man,,,,null,,,,,,,,,
null,"<img src=""stim_listB/oppose8.gif""style=""height:400px;""></stim_listB>",,html-keyboard-response,47,981881,0.0-13.0-1.4,91360,List1B,black,man,,,,null,,,,,,,,,
null,is being opposed by,,html-keyboard-response,48,983895,0.0-13.0-2.4,91360,List1B,black,man,,,,null,,,,,,,,,
15438.2,,,survey-text,49,999334,0.0-13.0-3.4,91360,List1B,black,man,,,,,"{""Q0"":""ruth is being opposed by beth""}","<img src=""stim_listB/oppose8.gif""style=""height:400px;""></stim_listB>",is being opposed by,,,,,,
null,"<div style=""font-size:60px;"">+</div>",,html-keyboard-response,50,999843,0.0-13.0-0.5,91360,List1B,black,man,,,,null,,,,,,,,,
null,"<img src=""stim_listB/kiss1.gif""style=""height:400px;""></stim_listB>",,html-keyboard-response,51,1001858,0.0-13.0-1.5,91360,List1B,black,man,,,,null,,,,,,,,,
null,is kissing,,html-keyboard-response,52,1003872,0.0-13.0-2.5,91360,List1B,black,man,,,,null,,,,,,,,,
10588.8,,,survey-text,53,1014463,0.0-13.0-3.5,91360,List1B,black,man,,,,,"{""Q0"":""beth is kissing fred""}","<img src=""stim_listB/kiss1.gif""style=""height:400px;""></stim_listB>",is kissing,,,,,,
null,"<div style=""font-size:60px;"">+</div>",,html-keyboard-response,54,1014980,0.0-13.0-0.6,91360,List1B,black,man,,,,null,,,,,,,,,
null,"<img src=""stim_listB/challenge8.gif""style=""height:400px;""></stim_listB>",,html-keyboard-response,55,1016995,0.0-13.0-1.6,91360,List1B,black,man,,,,null,,,,,,,,,
null,is being challenged by,,html-keyboard-response,56,1019009,0.0-13.0-2.6,91360,List1B,black,man,,,,null,,,,,,,,,
30583.4,,,survey-text,57,1049595,0.0-13.0-3.6,91360,List1B,black,man,,,,,"{""Q0"":""jane is being challenged by beth""}","<img src=""stim_listB/challenge8.gif""style=""height:400px;""></stim_listB>",is being challenged by,,,,,,
null,"<div style=""font-size:60px;"">+</div>",,html-keyboard-response,58,1050102,0.0-13.0-0.7,91360,List1B,black,man,,,,null,,,,,,,,,
null,"<img src=""stim_listB/seduce3.gif""style=""height:400px;""></stim_listB>",,html-keyboard-response,59,1052116,0.0-13.0-1.7,91360,List1B,black,man,,,,null,,,,,,,,,
null,is seducing,,html-keyboard-response,60,1054130,0.0-13.0-2.7,91360,List1B,black,man,,,,null,,,,,,,,,
17211.8,,,survey-text,61,1071344,0.0-13.0-3.7,91360,List1B,black,man,,,,,"{""Q0"":""luke is seducing jane""}","<img src=""stim_listB/seduce3.gif""style=""height:400px;""></stim_listB>",is seducing,,,,,,
null,"<div style=""font-size:60px;"">+</div>",,html-keyboard-response,62,1071846,0.0-13.0-0.8,91360,List1B,black,man,,,,null,,,,,,,,,
null,"<img src=""stim_listB/hug5.gif""style=""height:400px;""></stim_listB>",,html-keyboard-response,63,1073849,0.0-13.0-1.8,91360,List1B,black,man,,,,null,,,,,,,,,
null,is hugging,,html-keyboard-response,64,1075850,0.0-13.0-2.8,91360,List1B,black,man,,,,null,,,,,,,,,
11775.1,,,survey-text,65,1087627,0.0-13.0-3.8,91360,List1B,black,man,,,,,"{""Q0"":""luke is hugging fred""}","<img src=""stim_listB/hug5.gif""style=""height:400px;""></stim_listB>",is hugging,,,,,,
null,"<div style=""font-size:60px;"">+</div>",,html-keyboard-response,66,1088139,0.0-13.0-0.9,91360,List1B,black,man,,,,null,,,,,,,,,
null,"<img src=""stim_listB/touch5.gif""style=""height:400px;""></stim_listB>",,html-keyboard-response,67,1090153,0.0-13.0-1.9,91360,List1B,black,man,,,,null,,,,,,,,,
null,is touching,,html-keyboard-response,68,1092166,0.0-13.0-2.9,91360,List1B,black,man,,,,null,,,,,,,,,
22167.5,,,survey-text,69,1114336,0.0-13.0-3.9,91360,List1B,black,man,,,,,"{""Q0"":""dave is touching mike""}","<img src=""stim_listB/touch5.gif""style=""height:400px;""></stim_listB>",is touching,,,,,,
null,"<div style=""font-size:60px;"">+</div>",,html-keyboard-response,70,1114845,0.0-13.0-0.10,91360,List1B,black,man,,,,null,,,,,,,,,
null,"<img src=""stim_listB/copy3.gif""style=""height:400px;""></stim_listB>",,html-keyboard-response,71,1116859,0.0-13.0-1.10,91360,List1B,black,man,,,,null,,,,,,,,,
null,is copying,,html-keyboard-response,72,1118871,0.0-13.0-2.10,91360,List1B,black,man,,,,null,,,,,,,,,
14167.5,,,survey-text,73,1133041,0.0-13.0-3.10,91360,List1B,black,man,,,,,"{""Q0"":""dave is copying ruth""}","<img src=""stim_listB/copy3.gif""style=""height:400px;""></stim_listB>",is copying,,,,,,
null,"<div style=""font-size:60px;"">+</div>",,html-keyboard-response,74,1133551,0.0-13.0-0.11,91360,List1B,black,man,,,,null,,,,,,,,,
null,"<img src=""stim_listB/greet3.gif""style=""height:400px;""></stim_listB>",,html-keyboard-response,75,1135563,0.0-13.0-1.11,91360,List1B,black,man,,,,null,,,,,,,,,
null,is greeting,,html-keyboard-response,76,1137574,0.0-13.0-2.11,91360,List1B,black,man,,,,null,,,,,,,,,
9977.5,,,survey-text,77,1147554,0.0-13.0-3.11,91360,List1B,black,man,,,,,"{""Q0"":""dave is greeting ruth""}","<img src=""stim_listB/greet3.gif""style=""height:400px;""></stim_listB>",is greeting,,,,,,
null,"<div style=""font-size:60px;"">+</div>",,html-keyboard-response,78,1148070,0.0-13.0-0.12,91360,List1B,black,man,,,,null,,,,,,,,,
null,"<img src=""stim_listB/challenge5.gif""style=""height:400px;""></stim_listB>",,html-keyboard-response,79,1150082,0.0-13.0-1.12,91360,List1B,black,man,,,,null,,,,,,,,,
null,is challenging,,html-keyboard-response,80,1152095,0.0-13.0-2.12,91360,List1B,black,man,,,,null,,,,,,,,,
14231.4,,,survey-text,81,1166329,0.0-13.0-3.12,91360,List1B,black,man,,,,,"{""Q0"":""luke is challenging mike""}","<img src=""stim_listB/challenge5.gif""style=""height:400px;""></stim_listB>",is challenging,,,,,,
null,"<div style=""font-size:60px;"">+</div>",,html-keyboard-response,82,1166834,0.0-13.0-0.13,91360,List1B,black,man,,,,null,,,,,,,,,
null,"<img src=""stim_listB/greet6.gif""style=""height:400px;""></stim_listB>",,html-keyboard-response,83,1168845,0.0-13.0-1.13,91360,List1B,black,man,,,,null,,,,,,,,,
null,is being greeted by,,html-keyboard-response,84,1170858,0.0-13.0-2.13,91360,List1B,black,man,,,,null,,,,,,,,,
16056.5,,,survey-text,85,1186917,0.0-13.0-3.13,91360,List1B,black,man,,,,,"{""Q0"":""fred is being greeted by dave""}","<img src=""stim_listB/greet6.gif""style=""height:400px;""></stim_listB>",is being greeted by,,,,,,
null,"<div style=""font-size:60px;"">+</div>",,html-keyboard-response,86,1187429,0.0-13.0-0.14,91360,List1B,black,man,,,,null,,,,,,,,,
null,"<img src=""stim_listB/oppose6.gif""style=""height:400px;""></stim_listB>",,html-keyboard-response,87,1189443,0.0-13.0-1.14,91360,List1B,black,man,,,,null,,,,,,,,,
null,is being opposed by,,html-keyboard-response,88,1191457,0.0-13.0-2.14,91360,List1B,black,man,,,,null,,,,,,,,,
16152.5,,,survey-text,89,1207613,0.0-13.0-3.14,91360,List1B,black,man,,,,,"{""Q0"":""fred is being opposed by luke""}","<img src=""stim_listB/oppose6.gif""style=""height:400px;""></stim_listB>",is being opposed by,,,,,,
null,"<div style=""font-size:60px;"">+</div>",,html-keyboard-response,90,1208126,0.0-13.0-0.15,91360,List1B,black,man,,,,null,,,,,,,,,
null,"<img src=""stim_listB/shout3.gif""style=""height:400px;""></stim_listB>",,html-keyboard-response,91,1210136,0.0-13.0-1.15,91360,List1B,black,man,,,,null,,,,,,,,,
null,is shouting at,,html-keyboard-response,92,1212145,0.0-13.0-2.15,91360,List1B,black,man,,,,null,,,,,,,,,
13821.1,,,survey-text,93,1225968,0.0-13.0-3.15,91360,List1B,black,man,,,,,"{""Q0"":""luke is shouting at ruth""}","<img src=""stim_listB/shout3.gif""style=""height:400px;""></stim_listB>",is shouting at,,,,,,
null,"<div style=""font-size:60px;"">+</div>",,html-keyboard-response,94,1226480,0.0-13.0-0.16,91360,List1B,black,man,,,,null,,,,,,,,,
null,"<img src=""stim_listB/shout5.gif""style=""height:400px;""></stim_listB>",,html-keyboard-response,95,1228492,0.0-13.0-1.16,91360,List1B,black,man,,,,null,,,,,,,,,
null,is shouting at,,html-keyboard-response,96,1230500,0.0-13.0-2.16,91360,List1B,black,man,,,,null,,,,,,,,,
10797.3,,,survey-text,97,1241300,0.0-13.0-3.16,91360,List1B,black,man,,,,,"{""Q0"":""luke is shouting at fred""}","<img src=""stim_listB/shout5.gif""style=""height:400px;""></stim_listB>",is shouting at,,,,,,
null,"<div style=""font-size:60px;"">+</div>",,html-keyboard-response,98,1241808,0.0-13.0-0.17,91360,List1B,black,man,,,,null,,,,,,,,,
null,"<img src=""stim_listB/greet2.gif""style=""height:400px;""></stim_listB>",,html-keyboard-response,99,1243822,0.0-13.0-1.17,91360,List1B,black,man,,,,null,,,,,,,,,
null,is being greeted by,,html-keyboard-response,100,1245837,0.0-13.0-2.17,91360,List1B,black,man,,,,null,,,,,,,,,
26096,,,survey-text,101,1271935,0.0-13.0-3.17,91360,List1B,black,man,,,,,"{""Q0"":""kate is being greeted by fred""}","<img src=""stim_listB/greet2.gif""style=""height:400px;""></stim_listB>",is being greeted by,,,,,,
null,"<div style=""font-size:60px;"">+</div>",,html-keyboard-response,102,1272449,0.0-13.0-0.18,91360,List1B,black,man,,,,null,,,,,,,,,
null,"<img src=""stim_listB/look4.gif""style=""height:400px;""></stim_listB>",,html-keyboard-response,103,1274459,0.0-13.0-1.18,91360,List1B,black,man,,,,null,,,,,,,,,
null,is being looked at by,,html-keyboard-response,104,1276471,0.0-13.0-2.18,91360,List1B,black,man,,,,null,,,,,,,,,
24869.3,,,survey-text,105,1301345,0.0-13.0-3.18,91360,List1B,black,man,,,,,"{""Q0"":""jane is being looked at by dave""}","<img src=""stim_listB/look4.gif""style=""height:400px;""></stim_listB>",is being looked at by,,,,,,
null,"<div style=""font-size:60px;"">+</div>",,html-keyboard-response,106,1301860,0.0-13.0-0.19,91360,List1B,black,man,,,,null,,,,,,,,,
null,"<img src=""stim_listB/touch3.gif""style=""height:400px;""></stim_listB>",,html-keyboard-response,107,1303869,0.0-13.0-1.19,91360,List1B,black,man,,,,null,,,,,,,,,
null,is touching,,html-keyboard-response,108,1305881,0.0-13.0-2.19,91360,List1B,black,man,,,,null,,,,,,,,,
9580,,,survey-text,109,1315464,0.0-13.0-3.19,91360,List1B,black,man,,,,,"{""Q0"":""jane is touching dave""}","<img src=""stim_listB/touch3.gif""style=""height:400px;""></stim_listB>",is touching,,,,,,
130105.8,"<img src='img/portrait_matrix_list1.jpg' style='width:900px;height:500px;''></img><p>If you have memorised all the portraits and names and are ready to start, press Continue.</p><p><strong>Please note: Your memory of these faces will be tested 4 times during this experiment.</strong></p>",0,html-button-response,110,1445572,0.0-14.0-0.0,91360,List1B,black,man,,,,,,,,,,,,,
16183.8,"<img src=""portrait/BW1.jpg""style=""height:400px;""></img>",0,html-button-response,111,1462762,0.0-14.0-1.0,91360,List1B,black,man,,TRUE,0,,,,,,,,,,
null,CORRECT,,html-keyboard-response,112,1464283,0.0-14.0-2.0-0.0,91360,List1B,black,man,,,,null,,,,,,,,,
25182.1,"<img src=""portrait/WM1.jpg""style=""height:400px;""></img>",6,html-button-response,113,1489467,0.0-14.0-4.0,91360,List1B,black,man,,TRUE,6,,,,,,,,,,
null,CORRECT,,html-keyboard-response,114,1490989,0.0-14.0-5.0-0.0,91360,List1B,black,man,,,,null,,,,,,,,,
4435.5,"<img src=""portrait/WW1.jpg""style=""height:400px;""></img>",1,html-button-response,115,1495427,0.0-14.0-7.0,91360,List1B,black,man,,TRUE,1,,,,,,,,,,
null,CORRECT,,html-keyboard-response,116,1496952,0.0-14.0-8.0-0.0,91360,List1B,black,man,,,,null,,,,,,,,,
3208.6,"<img src=""portrait/WW2.jpg""style=""height:400px;""></img>",3,html-button-response,117,1500163,0.0-14.0-10.0,91360,List1B,black,man,,TRUE,3,,,,,,,,,,
null,CORRECT,,html-keyboard-response,118,1501681,0.0-14.0-11.0-0.0,91360,List1B,black,man,,,,null,,,,,,,,,
12407.2,"<img src=""portrait/BM2.jpg""style=""height:400px;""></img>",5,html-button-response,119,1514090,0.0-14.0-13.0,91360,List1B,black,man,,TRUE,5,,,,,,,,,,
null,CORRECT,,html-keyboard-response,120,1515602,0.0-14.0-14.0-0.0,91360,List1B,black,man,,,,null,,,,,,,,,
14346.9,"<img src=""portrait/BW2.jpg""style=""height:400px;""></img>",2,html-button-response,121,1529950,0.0-14.0-16.0,91360,List1B,black,man,,TRUE,2,,,,,,,,,,
null,CORRECT,,html-keyboard-response,122,1531473,0.0-14.0-17.0-0.0,91360,List1B,black,man,,,,null,,,,,,,,,
2866.3,"<img src=""portrait/BM1.jpg""style=""height:400px;""></img>",4,html-button-response,123,1534341,0.0-14.0-19.0,91360,List1B,black,man,,TRUE,4,,,,,,,,,,
null,CORRECT,,html-keyboard-response,124,1535867,0.0-14.0-20.0-0.0,91360,List1B,black,man,,,,null,,,,,,,,,
5448.8,"<img src=""portrait/WM2.jpg""style=""height:400px;""></img>",7,html-button-response,125,1541317,0.0-14.0-22.0,91360,List1B,black,man,,TRUE,7,,,,,,,,,,
null,CORRECT,,html-keyboard-response,126,1542837,0.0-14.0-23.0-0.0,91360,List1B,black,man,,,,null,,,,,,,,,
2302.4,<p>You got 8 out of 8 right first time. Press Continue.</p>,0,html-button-response,127,1545140,0.0-14.0-25.0,91360,List1B,black,man,,,,,,,,,,,,,
null,"<div style=""font-size:60px;"">+</div>",,html-keyboard-response,128,1546656,0.0-15.0-0.0,91360,List1B,black,man,,,,null,,,,,,,,,
null,"<img src=""stim_listB/copy8.gif""style=""height:400px;""></stim_listB>",,html-keyboard-response,129,1548669,0.0-15.0-1.0,91360,List1B,black,man,,,,null,,,,,,,,,
null,is being copied by,,html-keyboard-response,130,1550684,0.0-15.0-2.0,91360,List1B,black,man,,,,null,,,,,,,,,
21199.4,,,survey-text,131,1571886,0.0-15.0-3.0,91360,List1B,black,man,,,,,"{""Q0"":""beth is being copied by jane""}","<img src=""stim_listB/copy8.gif""style=""height:400px;""></stim_listB>",is being copied by,,,,,,
null,"<div style=""font-size:60px;"">+</div>",,html-keyboard-response,132,1572388,0.0-15.0-0.1,91360,List1B,black,man,,,,null,,,,,,,,,
null,"<img src=""stim_listB/kiss3.gif""style=""height:400px;""></stim_listB>",,html-keyboard-response,133,1574400,0.0-15.0-1.1,91360,List1B,black,man,,,,null,,,,,,,,,
null,is kissing,,html-keyboard-response,134,1576415,0.0-15.0-2.1,91360,List1B,black,man,,,,null,,,,,,,,,
30901.3,,,survey-text,135,1607318,0.0-15.0-3.1,91360,List1B,black,man,,,,,"{""Q0"":""ruth is kissing luke""}","<img src=""stim_listB/kiss3.gif""style=""height:400px;""></stim_listB>",is kissing,,,,,,
null,"<div style=""font-size:60px;"">+</div>",,html-keyboard-response,136,1607828,0.0-15.0-0.2,91360,List1B,black,man,,,,null,,,,,,,,,
null,"<img src=""stim_listB/hug6.gif""style=""height:400px;""></stim_listB>",,html-keyboard-response,137,1609844,0.0-15.0-1.2,91360,List1B,black,man,,,,null,,,,,,,,,
null,is being hugged by,,html-keyboard-response,138,1611855,0.0-15.0-2.2,91360,List1B,black,man,,,,null,,,,,,,,,
18341.2,,,survey-text,139,1630198,0.0-15.0-3.2,91360,List1B,black,man,,,,,"{""Q0"":""mike is being hugged by dave""}","<img src=""stim_listB/hug6.gif""style=""height:400px;""></stim_listB>",is being hugged by,,,,,,
null,"<div style=""font-size:60px;"">+</div>",,html-keyboard-response,140,1630711,0.0-15.0-0.3,91360,List1B,black,man,,,,null,,,,,,,,,
null,"<img src=""stim_listB/kiss6.gif""style=""height:400px;""></stim_listB>",,html-keyboard-response,141,1632724,0.0-15.0-1.3,91360,List1B,black,man,,,,null,,,,,,,,,
null,is being kissed by,,html-keyboard-response,142,1634737,0.0-15.0-2.3,91360,List1B,black,man,,,,null,,,,,,,,,
15032.4,,,survey-text,143,1649771,0.0-15.0-3.3,91360,List1B,black,man,,,,,"{""Q0"":""dave is being kissed by mike""}","<img src=""stim_listB/kiss6.gif""style=""height:400px;""></stim_listB>",is being kissed by,,,,,,
null,"<div style=""font-size:60px;"">+</div>",,html-keyboard-response,144,1650284,0.0-15.0-0.4,91360,List1B,black,man,,,,null,,,,,,,,,
null,"<img src=""stim_listB/seduce5.gif""style=""height:400px;""></stim_listB>",,html-keyboard-response,145,1652287,0.0-15.0-1.4,91360,List1B,black,man,,,,null,,,,,,,,,
null,is seducing,,html-keyboard-response,146,1654297,0.0-15.0-2.4,91360,List1B,black,man,,,,null,,,,,,,,,
16196.1,,,survey-text,147,1670495,0.0-15.0-3.4,91360,List1B,black,man,,,,,"{""Q0"":""dave is seducing fred""}","<img src=""stim_listB/seduce5.gif""style=""height:400px;""></stim_listB>",is seducing,,,,,,
null,"<div style=""font-size:60px;"">+</div>",,html-keyboard-response,148,1671010,0.0-15.0-0.5,91360,List1B,black,man,,,,null,,,,,,,,,
null,"<img src=""stim_listB/look5.gif""style=""height:400px;""></stim_listB>",,html-keyboard-response,149,1673024,0.0-15.0-1.5,91360,List1B,black,man,,,,null,,,,,,,,,
null,is looking at,,html-keyboard-response,150,1675037,0.0-15.0-2.5,91360,List1B,black,man,,,,null,,,,,,,,,
15090,,,survey-text,151,1690129,0.0-15.0-3.5,91360,List1B,black,man,,,,,"{""Q0"":""luke is looking at fred""}","<img src=""stim_listB/look5.gif""style=""height:400px;""></stim_listB>",is looking at,,,,,,
null,"<div style=""font-size:60px;"">+</div>",,html-keyboard-response,152,1690637,0.0-15.0-0.6,91360,List1B,black,man,,,,null,,,,,,,,,
null,"<img src=""stim_listB/shout4.gif""style=""height:400px;""></stim_listB>",,html-keyboard-response,153,1692648,0.0-15.0-1.6,91360,List1B,black,man,,,,null,,,,,,,,,
null,is being shouted at by,,html-keyboard-response,154,1694662,0.0-15.0-2.6,91360,List1B,black,man,,,,null,,,,,,,,,
54838,,,survey-text,155,1749502,0.0-15.0-3.6,91360,List1B,black,man,,,,,"{""Q0"":""jane is being shouted at by dave""}","<img src=""stim_listB/shout4.gif""style=""height:400px;""></stim_listB>",is being shouted at by,,,,,,
null,"<div style=""font-size:60px;"">+</div>",,html-keyboard-response,156,1750005,0.0-15.0-0.7,91360,List1B,black,man,,,,null,,,,,,,,,
null,"<img src=""stim_listB/seduce2.gif""style=""height:400px;""></stim_listB>",,html-keyboard-response,157,1752019,0.0-15.0-1.7,91360,List1B,black,man,,,,null,,,,,,,,,
null,is being seduced by,,html-keyboard-response,158,1754032,0.0-15.0-2.7,91360,List1B,black,man,,,,null,,,,,,,,,
27372,,,survey-text,159,1781406,0.0-15.0-3.7,91360,List1B,black,man,,,,,"{""Q0"":""kate is being seduced by mike""}","<img src=""stim_listB/seduce2.gif""style=""height:400px;""></stim_listB>",is being seduced by,,,,,,
null,"<div style=""font-size:60px;"">+</div>",,html-keyboard-response,160,1781914,0.0-15.0-0.8,91360,List1B,black,man,,,,null,,,,,,,,,
null,"<img src=""stim_listB/challenge1.gif""style=""height:400px;""></stim_listB>",,html-keyboard-response,161,1783929,0.0-15.0-1.8,91360,List1B,black,man,,,,null,,,,,,,,,
null,is challenging,,html-keyboard-response,162,1785943,0.0-15.0-2.8,91360,List1B,black,man,,,,null,,,,,,,,,
17584.9,,,survey-text,163,1803530,0.0-15.0-3.8,91360,List1B,black,man,,,,,"{""Q0"":""beth is challenging mike""}","<img src=""stim_listB/challenge1.gif""style=""height:400px;""></stim_listB>",is challenging,,,,,,
null,"<div style=""font-size:60px;"">+</div>",,html-keyboard-response,164,1804034,0.0-15.0-0.9,91360,List1B,black,man,,,,null,,,,,,,,,
null,"<img src=""stim_listB/oppose7.gif""style=""height:400px;""></stim_listB>",,html-keyboard-response,165,1806042,0.0-15.0-1.9,91360,List1B,black,man,,,,null,,,,,,,,,
null,is opposing,,html-keyboard-response,166,1808058,0.0-15.0-2.9,91360,List1B,black,man,,,,null,,,,,,,,,
33159.3,,,survey-text,167,1841220,0.0-15.0-3.9,91360,List1B,black,man,,,,,"{""Q0"":""kate is fighting with jane""}","<img src=""stim_listB/oppose7.gif""style=""height:400px;""></stim_listB>",is opposing,,,,,,
null,"<div style=""font-size:60px;"">+</div>",,html-keyboard-response,168,1841734,0.0-15.0-0.10,91360,List1B,black,man,,,,null,,,,,,,,,
null,"<img src=""stim_listB/touch2.gif""style=""height:400px;""></stim_listB>",,html-keyboard-response,169,1843747,0.0-15.0-1.10,91360,List1B,black,man,,,,null,,,,,,,,,
null,is being touched by,,html-keyboard-response,170,1845760,0.0-15.0-2.10,91360,List1B,black,man,,,,null,,,,,,,,,
14228.1,,,survey-text,171,1859990,0.0-15.0-3.10,91360,List1B,black,man,,,,,"{""Q0"":""fred is being touched by beth""}","<img src=""stim_listB/touch2.gif""style=""height:400px;""></stim_listB>",is being touched by,,,,,,
null,"<div style=""font-size:60px;"">+</div>",,html-keyboard-response,172,1860501,0.0-15.0-0.11,91360,List1B,black,man,,,,null,,,,,,,,,
null,"<img src=""stim_listB/hug4.gif""style=""height:400px;""></stim_listB>",,html-keyboard-response,173,1862516,0.0-15.0-1.11,91360,List1B,black,man,,,,null,,,,,,,,,
null,is being hugged by,,html-keyboard-response,174,1864529,0.0-15.0-2.11,91360,List1B,black,man,,,,null,,,,,,,,,
14193.3,,,survey-text,175,1878724,0.0-15.0-3.11,91360,List1B,black,man,,,,,"{""Q0"":""dave is being hugged by jane""}","<img src=""stim_listB/hug4.gif""style=""height:400px;""></stim_listB>",is being hugged by,,,,,,
null,"<div style=""font-size:60px;"">+</div>",,html-keyboard-response,176,1879227,0.0-15.0-0.12,91360,List1B,black,man,,,,null,,,,,,,,,
null,"<img src=""stim_listB/seduce8.gif""style=""height:400px;""></stim_listB>",,html-keyboard-response,177,1881243,0.0-15.0-1.12,91360,List1B,black,man,,,,null,,,,,,,,,
null,is being seduced by,,html-keyboard-response,178,1883257,0.0-15.0-2.12,91360,List1B,black,man,,,,null,,,,,,,,,
18005.1,,,survey-text,179,1901265,0.0-15.0-3.12,91360,List1B,black,man,,,,,"{""Q0"":""ruth is being seduced by beth""}","<img src=""stim_listB/seduce8.gif""style=""height:400px;""></stim_listB>",is being seduced by,,,,,,
null,"<div style=""font-size:60px;"">+</div>",,html-keyboard-response,180,1901776,0.0-15.0-0.13,91360,List1B,black,man,,,,null,,,,,,,,,
null,"<img src=""stim_listB/oppose1.gif""style=""height:400px;""></stim_listB>",,html-keyboard-response,181,1903788,0.0-15.0-1.13,91360,List1B,black,man,,,,null,,,,,,,,,
null,is opposing,,html-keyboard-response,182,1905803,0.0-15.0-2.13,91360,List1B,black,man,,,,null,,,,,,,,,
19702.5,,,survey-text,183,1925508,0.0-15.0-3.13,91360,List1B,black,man,,,,,"{""Q0"":""kate is opposing mike""}","<img src=""stim_listB/oppose1.gif""style=""height:400px;""></stim_listB>",is opposing,,,,,,
null,"<div style=""font-size:60px;"">+</div>",,html-keyboard-response,184,1926010,0.0-15.0-0.14,91360,List1B,black,man,,,,null,,,,,,,,,
null,"<img src=""stim_listB/kiss8.gif""style=""height:400px;""></stim_listB>",,html-keyboard-response,185,1928021,0.0-15.0-1.14,91360,List1B,black,man,,,,null,,,,,,,,,
null,is being kissed by,,html-keyboard-response,186,1930033,0.0-15.0-2.14,91360,List1B,black,man,,,,null,,,,,,,,,
9900.8,,,survey-text,187,1939937,0.0-15.0-3.14,91360,List1B,black,man,,,,,"{""Q0"":""kate is being kissed by jane""}","<img src=""stim_listB/kiss8.gif""style=""height:400px;""></stim_listB>",is being kissed by,,,,,,
null,"<div style=""font-size:60px;"">+</div>",,html-keyboard-response,188,1940453,0.0-15.0-0.15,91360,List1B,black,man,,,,null,,,,,,,,,
null,"<img src=""stim_listB/shout6.gif""style=""height:400px;""></stim_listB>",,html-keyboard-response,189,1942463,0.0-15.0-1.15,91360,List1B,black,man,,,,null,,,,,,,,,
null,is being shouted at by,,html-keyboard-response,190,1944475,0.0-15.0-2.15,91360,List1B,black,man,,,,null,,,,,,,,,
34476.2,,,survey-text,191,1978954,0.0-15.0-3.15,91360,List1B,black,man,,,,,"{""Q0"":""dave is being shouted at by mike""}","<img src=""stim_listB/shout6.gif""style=""height:400px;""></stim_listB>",is being shouted at by,,,,,,
null,"<div style=""font-size:60px;"">+</div>",,html-keyboard-response,192,1979459,0.0-15.0-0.16,91360,List1B,black,man,,,,null,,,,,,,,,
null,"<img src=""stim_listB/copy6.gif""style=""height:400px;""></stim_listB>",,html-keyboard-response,193,1981473,0.0-15.0-1.16,91360,List1B,black,man,,,,null,,,,,,,,,
null,is being copied by,,html-keyboard-response,194,1983488,0.0-15.0-2.16,91360,List1B,black,man,,,,null,,,,,,,,,
13207.6,,,survey-text,195,1996697,0.0-15.0-3.16,91360,List1B,black,man,,,,,"{""Q0"":""fred is being copied by dave""}","<img src=""stim_listB/copy6.gif""style=""height:400px;""></stim_listB>",is being copied by,,,,,,
null,"<div style=""font-size:60px;"">+</div>",,html-keyboard-response,196,1997207,0.0-15.0-0.17,91360,List1B,black,man,,,,null,,,,,,,,,
null,"<img src=""stim_listB/touch7.gif""style=""height:400px;""></stim_listB>",,html-keyboard-response,197,1999220,0.0-15.0-1.17,91360,List1B,black,man,,,,null,,,,,,,,,
null,is touching,,html-keyboard-response,198,2001235,0.0-15.0-2.17,91360,List1B,black,man,,,,null,,,,,,,,,
11405.6,,,survey-text,199,2012643,0.0-15.0-3.17,91360,List1B,black,man,,,,,"{""Q0"":""kate is touching jane""}","<img src=""stim_listB/touch7.gif""style=""height:400px;""></stim_listB>",is touching,,,,,,
null,"<div style=""font-size:60px;"">+</div>",,html-keyboard-response,200,2013147,0.0-15.0-0.18,91360,List1B,black,man,,,,null,,,,,,,,,
null,"<img src=""stim_listB/shout8.gif""style=""height:400px;""></stim_listB>",,html-keyboard-response,201,2015159,0.0-15.0-1.18,91360,List1B,black,man,,,,null,,,,,,,,,
null,is being shouted at by,,html-keyboard-response,202,2017169,0.0-15.0-2.18,91360,List1B,black,man,,,,null,,,,,,,,,
29477.3,,,survey-text,203,2046649,0.0-15.0-3.18,91360,List1B,black,man,,,,,"{""Q0"":""kate is being shouted at by jane""}","<img src=""stim_listB/shout8.gif""style=""height:400px;""></stim_listB>",is being shouted at by,,,,,,
null,"<div style=""font-size:60px;"">+</div>",,html-keyboard-response,204,2047163,0.0-15.0-0.19,91360,List1B,black,man,,,,null,,,,,,,,,
null,"<img src=""stim_listB/touch1.gif""style=""height:400px;""></stim_listB>",,html-keyboard-response,205,2049175,0.0-15.0-1.19,91360,List1B,black,man,,,,null,,,,,,,,,
null,is touching,,html-keyboard-response,206,2051187,0.0-15.0-2.19,91360,List1B,black,man,,,,null,,,,,,,,,
11392.7,,,survey-text,207,2062583,0.0-15.0-3.19,91360,List1B,black,man,,,,,"{""Q0"":""kate is touching mike""}","<img src=""stim_listB/touch1.gif""style=""height:400px;""></stim_listB>",is touching,,,,,,
17856.5,"<img src='img/portrait_matrix_list1.jpg' style='width:900px;height:500px;''></img><p>If you have memorised all the portraits and names and are ready to start, press Continue.</p><p><strong>Please note: Your memory of these faces will be tested 4 times during this experiment.</strong></p>",0,html-button-response,208,2080441,0.0-16.0-0.0,91360,List1B,black,man,,,,,,,,,,,,,
16572.3,"<img src=""portrait/BW2.jpg""style=""height:400px;""></img>",2,html-button-response,209,2098016,0.0-16.0-1.0,91360,List1B,black,man,,TRUE,2,,,,,,,,,,
null,CORRECT,,html-keyboard-response,210,2099534,0.0-16.0-2.0-0.0,91360,List1B,black,man,,,,null,,,,,,,,,
4554.3,"<img src=""portrait/BW1.jpg""style=""height:400px;""></img>",0,html-button-response,211,2104090,0.0-16.0-4.0,91360,List1B,black,man,,TRUE,0,,,,,,,,,,
null,CORRECT,,html-keyboard-response,212,2105607,0.0-16.0-5.0-0.0,91360,List1B,black,man,,,,null,,,,,,,,,
9268.1,"<img src=""portrait/WM1.jpg""style=""height:400px;""></img>",6,html-button-response,213,2114876,0.0-16.0-7.0,91360,List1B,black,man,,TRUE,6,,,,,,,,,,
null,CORRECT,,html-keyboard-response,214,2116399,0.0-16.0-8.0-0.0,91360,List1B,black,man,,,,null,,,,,,,,,
3751,"<img src=""portrait/BM2.jpg""style=""height:400px;""></img>",5,html-button-response,215,2120151,0.0-16.0-10.0,91360,List1B,black,man,,TRUE,5,,,,,,,,,,
null,CORRECT,,html-keyboard-response,216,2121671,0.0-16.0-11.0-0.0,91360,List1B,black,man,,,,null,,,,,,,,,
8109,"<img src=""portrait/BM1.jpg""style=""height:400px;""></img>",4,html-button-response,217,2129781,0.0-16.0-13.0,91360,List1B,black,man,,TRUE,4,,,,,,,,,,
null,CORRECT,,html-keyboard-response,218,2131307,0.0-16.0-14.0-0.0,91360,List1B,black,man,,,,null,,,,,,,,,
3383.3,"<img src=""portrait/WW2.jpg""style=""height:400px;""></img>",3,html-button-response,219,2134691,0.0-16.0-16.0,91360,List1B,black,man,,TRUE,3,,,,,,,,,,
null,CORRECT,,html-keyboard-response,220,2136214,0.0-16.0-17.0-0.0,91360,List1B,black,man,,,,null,,,,,,,,,
5142.7,"<img src=""portrait/WM2.jpg""style=""height:400px;""></img>",7,html-button-response,221,2141358,0.0-16.0-19.0,91360,List1B,black,man,,TRUE,7,,,,,,,,,,
null,CORRECT,,html-keyboard-response,222,2142886,0.0-16.0-20.0-0.0,91360,List1B,black,man,,,,null,,,,,,,,,
5680.3,"<img src=""portrait/WW1.jpg""style=""height:400px;""></img>",1,html-button-response,223,2148567,0.0-16.0-22.0,91360,List1B,black,man,,TRUE,1,,,,,,,,,,
null,CORRECT,,html-keyboard-response,224,2150089,0.0-16.0-23.0-0.0,91360,List1B,black,man,,,,null,,,,,,,,,
1980.7,<p>You got 8 out of 8 right first time. Press Continue.</p>,0,html-button-response,225,2152071,0.0-16.0-25.0,91360,List1B,black,man,,,,,,,,,,,,,
null,"<div style=""font-size:60px;"">+</div>",,html-keyboard-response,226,2153599,0.0-17.0-0.0,91360,List1B,black,man,,,,null,,,,,,,,,
null,"<img src=""stim_listB/touch8.gif""style=""height:400px;""></stim_listB>",,html-keyboard-response,227,2155601,0.0-17.0-1.0,91360,List1B,black,man,,,,null,,,,,,,,,
null,is being touched by,,html-keyboard-response,228,2157612,0.0-17.0-2.0,91360,List1B,black,man,,,,null,,,,,,,,,
51637.6,,,survey-text,229,2209251,0.0-17.0-3.0,91360,List1B,black,man,,,,,"{""Q0"":""ruth is being touched by beth""}","<img src=""stim_listB/touch8.gif""style=""height:400px;""></stim_listB>",is being touched by,,,,,,
null,"<div style=""font-size:60px;"">+</div>",,html-keyboard-response,230,2209766,0.0-17.0-0.1,91360,List1B,black,man,,,,null,,,,,,,,,
null,"<img src=""stim_listB/look8.gif""style=""height:400px;""></stim_listB>",,html-keyboard-response,231,2211780,0.0-17.0-1.1,91360,List1B,black,man,,,,null,,,,,,,,,
null,is being looked at by,,html-keyboard-response,232,2213793,0.0-17.0-2.1,91360,List1B,black,man,,,,null,,,,,,,,,
31741.7,,,survey-text,233,2245538,0.0-17.0-3.1,91360,List1B,black,man,,,,,"{""Q0"":""jane is being looked at by kate""}","<img src=""stim_listB/look8.gif""style=""height:400px;""></stim_listB>",is being looked at by,,,,,,
null,"<div style=""font-size:60px;"">+</div>",,html-keyboard-response,234,2246055,0.0-17.0-0.2,91360,List1B,black,man,,,,null,,,,,,,,,
null,"<img src=""stim_listB/shout7.gif""style=""height:400px;""></stim_listB>",,html-keyboard-response,235,2248067,0.0-17.0-1.2,91360,List1B,black,man,,,,null,,,,,,,,,
null,is shouting at,,html-keyboard-response,236,2250081,0.0-17.0-2.2,91360,List1B,black,man,,,,null,,,,,,,,,
35093.5,,,survey-text,237,2285176,0.0-17.0-3.2,91360,List1B,black,man,,,,,"{""Q0"":""ruth is shouting at beth""}","<img src=""stim_listB/shout7.gif""style=""height:400px;""></stim_listB>",is shouting at,,,,,,
null,"<div style=""font-size:60px;"">+</div>",,html-keyboard-response,238,2285687,0.0-17.0-0.3,91360,List1B,black,man,,,,null,,,,,,,,,
null,"<img src=""stim_listB/hug7.gif""style=""height:400px;""></stim_listB>",,html-keyboard-response,239,2287697,0.0-17.0-1.3,91360,List1B,black,man,,,,null,,,,,,,,,
null,is hugging,,html-keyboard-response,240,2289711,0.0-17.0-2.3,91360,List1B,black,man,,,,null,,,,,,,,,
107954.4,,,survey-text,241,2397667,0.0-17.0-3.3,91360,List1B,black,man,,,,,"{""Q0"":""ruth is hugging beth""}","<img src=""stim_listB/hug7.gif""style=""height:400px;""></stim_listB>",is hugging,,,,,,
null,"<div style=""font-size:60px;"">+</div>",,html-keyboard-response,242,2398183,0.0-17.0-0.4,91360,List1B,black,man,,,,null,,,,,,,,,
null,"<img src=""stim_listB/kiss4.gif""style=""height:400px;""></stim_listB>",,html-keyboard-response,243,2400198,0.0-17.0-1.4,91360,List1B,black,man,,,,null,,,,,,,,,
null,is being kissed by,,html-keyboard-response,244,2402211,0.0-17.0-2.4,91360,List1B,black,man,,,,null,,,,,,,,,
11686.6,,,survey-text,245,2413900,0.0-17.0-3.4,91360,List1B,black,man,,,,,"{""Q0"":""dave is kissing jane""}","<img src=""stim_listB/kiss4.gif""style=""height:400px;""></stim_listB>",is being kissed by,,,,,,
null,"<div style=""font-size:60px;"">+</div>",,html-keyboard-response,246,2414402,0.0-17.0-0.5,91360,List1B,black,man,,,,null,,,,,,,,,
null,"<img src=""stim_listB/greet7.gif""style=""height:400px;""></stim_listB>",,html-keyboard-response,247,2416413,0.0-17.0-1.5,91360,List1B,black,man,,,,null,,,,,,,,,
null,is greeting,,html-keyboard-response,248,2418427,0.0-17.0-2.5,91360,List1B,black,man,,,,null,,,,,,,,,
32772.8,,,survey-text,249,2451202,0.0-17.0-3.5,91360,List1B,black,man,,,,,"{""Q0"":""kate is greeting jane""}","<img src=""stim_listB/greet7.gif""style=""height:400px;""></stim_listB>",is greeting,,,,,,
null,"<div style=""font-size:60px;"">+</div>",,html-keyboard-response,250,2451707,0.0-17.0-0.6,91360,List1B,black,man,,,,null,,,,,,,,,
null,"<img src=""stim_listB/kiss7.gif""style=""height:400px;""></stim_listB>",,html-keyboard-response,251,2453719,0.0-17.0-1.6,91360,List1B,black,man,,,,null,,,,,,,,,
null,is kissing,,html-keyboard-response,252,2455730,0.0-17.0-2.6,91360,List1B,black,man,,,,null,,,,,,,,,
7986.8,,,survey-text,253,2463719,0.0-17.0-3.6,91360,List1B,black,man,,,,,"{""Q0"":""ruth is kissing beth""}","<img src=""stim_listB/kiss7.gif""style=""height:400px;""></stim_listB>",is kissing,,,,,,
null,"<div style=""font-size:60px;"">+</div>",,html-keyboard-response,254,2464226,0.0-17.0-0.7,91360,List1B,black,man,,,,null,,,,,,,,,
null,"<img src=""stim_listB/copy2.gif""style=""height:400px;""></stim_listB>",,html-keyboard-response,255,2466241,0.0-17.0-1.7,91360,List1B,black,man,,,,null,,,,,,,,,
null,is being copied by,,html-keyboard-response,256,2468252,0.0-17.0-2.7,91360,List1B,black,man,,,,null,,,,,,,,,
32262.7,,,survey-text,257,2500518,0.0-17.0-3.7,91360,List1B,black,man,,,,,"{""Q0"":""kate is being copied by fred""}","<img src=""stim_listB/copy2.gif""style=""height:400px;""></stim_listB>",is being copied by,,,,,,
null,"<div style=""font-size:60px;"">+</div>",,html-keyboard-response,258,2501031,0.0-17.0-0.8,91360,List1B,black,man,,,,null,,,,,,,,,
null,"<img src=""stim_listB/oppose5.gif""style=""height:400px;""></stim_listB>",,html-keyboard-response,259,2503045,0.0-17.0-1.8,91360,List1B,black,man,,,,null,,,,,,,,,
null,is opposing,,html-keyboard-response,260,2505057,0.0-17.0-2.8,91360,List1B,black,man,,,,null,,,,,,,,,
34756.3,,,survey-text,261,2539815,0.0-17.0-3.8,91360,List1B,black,man,,,,,"{""Q0"":""dave is opposing mike""}","<img src=""stim_listB/oppose5.gif""style=""height:400px;""></stim_listB>",is opposing,,,,,,
null,"<div style=""font-size:60px;"">+</div>",,html-keyboard-response,262,2540328,0.0-17.0-0.9,91360,List1B,black,man,,,,null,,,,,,,,,
null,"<img src=""stim_listB/look3.gif""style=""height:400px;""></stim_listB>",,html-keyboard-response,263,2542343,0.0-17.0-1.9,91360,List1B,black,man,,,,null,,,,,,,,,
null,is looking at,,html-keyboard-response,264,2544354,0.0-17.0-2.9,91360,List1B,black,man,,,,null,,,,,,,,,
16692,,,survey-text,265,2561049,0.0-17.0-3.9,91360,List1B,black,man,,,,,"{""Q0"":""ruth is looking at luke""}","<img src=""stim_listB/look3.gif""style=""height:400px;""></stim_listB>",is looking at,,,,,,
null,"<div style=""font-size:60px;"">+</div>",,html-keyboard-response,266,2561560,0.0-17.0-0.10,91360,List1B,black,man,,,,null,,,,,,,,,
null,"<img src=""stim_listB/hug1.gif""style=""height:400px;""></stim_listB>",,html-keyboard-response,267,2563576,0.0-17.0-1.10,91360,List1B,black,man,,,,null,,,,,,,,,
null,is hugging,,html-keyboard-response,268,2565591,0.0-17.0-2.10,91360,List1B,black,man,,,,null,,,,,,,,,
8631.6,,,survey-text,269,2574225,0.0-17.0-3.10,91360,List1B,black,man,,,,,"{""Q0"":""fred is hugging beth""}","<img src=""stim_listB/hug1.gif""style=""height:400px;""></stim_listB>",is hugging,,,,,,
null,"<div style=""font-size:60px;"">+</div>",,html-keyboard-response,270,2574735,0.0-17.0-0.11,91360,List1B,black,man,,,,null,,,,,,,,,
null,"<img src=""stim_listB/oppose2.gif""style=""height:400px;""></stim_listB>",,html-keyboard-response,271,2576748,0.0-17.0-1.11,91360,List1B,black,man,,,,null,,,,,,,,,
null,is being opposed by,,html-keyboard-response,272,2578760,0.0-17.0-2.11,91360,List1B,black,man,,,,null,,,,,,,,,
46240.7,,,survey-text,273,2625003,0.0-17.0-3.11,91360,List1B,black,man,,,,,"{""Q0"":""beth is being copied by fred""}","<img src=""stim_listB/oppose2.gif""style=""height:400px;""></stim_listB>",is being opposed by,,,,,,
null,"<div style=""font-size:60px;"">+</div>",,html-keyboard-response,274,2625507,0.0-17.0-0.12,91360,List1B,black,man,,,,null,,,,,,,,,
null,"<img src=""stim_listB/copy7.gif""style=""height:400px;""></stim_listB>",,html-keyboard-response,275,2627521,0.0-17.0-1.12,91360,List1B,black,man,,,,null,,,,,,,,,
null,is copying,,html-keyboard-response,276,2629537,0.0-17.0-2.12,91360,List1B,black,man,,,,null,,,,,,,,,
20043.2,,,survey-text,277,2649582,0.0-17.0-3.12,91360,List1B,black,man,,,,,"{""Q0"":""kate is copying jane""}","<img src=""stim_listB/copy7.gif""style=""height:400px;""></stim_listB>",is copying,,,,,,
null,"<div style=""font-size:60px;"">+</div>",,html-keyboard-response,278,2650085,0.0-17.0-0.13,91360,List1B,black,man,,,,null,,,,,,,,,
null,"<img src=""stim_listB/hug3.gif""style=""height:400px;""></stim_listB>",,html-keyboard-response,279,2652097,0.0-17.0-1.13,91360,List1B,black,man,,,,null,,,,,,,,,
null,is hugging,,html-keyboard-response,280,2654107,0.0-17.0-2.13,91360,List1B,black,man,,,,null,,,,,,,,,
7591.1,,,survey-text,281,2661700,0.0-17.0-3.13,91360,List1B,black,man,,,,,"{""Q0"":""luke is hugging ruth""}","<img src=""stim_listB/hug3.gif""style=""height:400px;""></stim_listB>",is hugging,,,,,,
null,"<div style=""font-size:60px;"">+</div>",,html-keyboard-response,282,2662207,0.0-17.0-0.14,91360,List1B,black,man,,,,null,,,,,,,,,
null,"<img src=""stim_listB/challenge7.gif""style=""height:400px;""></stim_listB>",,html-keyboard-response,283,2664218,0.0-17.0-1.14,91360,List1B,black,man,,,,null,,,,,,,,,
null,is challenging,,html-keyboard-response,284,2666232,0.0-17.0-2.14,91360,List1B,black,man,,,,null,,,,,,,,,
10800.2,,,survey-text,285,2677034,0.0-17.0-3.14,91360,List1B,black,man,,,,,"{""Q0"":""ruth is challenging kate""}","<img src=""stim_listB/challenge7.gif""style=""height:400px;""></stim_listB>",is challenging,,,,,,
null,"<div style=""font-size:60px;"">+</div>",,html-keyboard-response,286,2677548,0.0-17.0-0.15,91360,List1B,black,man,,,,null,,,,,,,,,
null,"<img src=""stim_listB/oppose3.gif""style=""height:400px;""></stim_listB>",,html-keyboard-response,287,2679563,0.0-17.0-1.15,91360,List1B,black,man,,,,null,,,,,,,,,
null,is opposing,,html-keyboard-response,288,2681576,0.0-17.0-2.15,91360,List1B,black,man,,,,null,,,,,,,,,
14277.2,,,survey-text,289,2695856,0.0-17.0-3.15,91360,List1B,black,man,,,,,"{""Q0"":""dave is opposing jane""}","<img src=""stim_listB/oppose3.gif""style=""height:400px;""></stim_listB>",is opposing,,,,,,
null,"<div style=""font-size:60px;"">+</div>",,html-keyboard-response,290,2696363,0.0-17.0-0.16,91360,List1B,black,man,,,,null,,,,,,,,,
null,"<img src=""stim_listB/copy1.gif""style=""height:400px;""></stim_listB>",,html-keyboard-response,291,2698376,0.0-17.0-1.16,91360,List1B,black,man,,,,null,,,,,,,,,
null,is copying,,html-keyboard-response,292,2700387,0.0-17.0-2.16,91360,List1B,black,man,,,,null,,,,,,,,,
20166.8,,,survey-text,293,2720556,0.0-17.0-3.16,91360,List1B,black,man,,,,,"{""Q0"":""mike is copying beth""}","<img src=""stim_listB/copy1.gif""style=""height:400px;""></stim_listB>",is copying,,,,,,
null,"<div style=""font-size:60px;"">+</div>",,html-keyboard-response,294,2721063,0.0-17.0-0.17,91360,List1B,black,man,,,,null,,,,,,,,,
null,"<img src=""stim_listB/copy4.gif""style=""height:400px;""></stim_listB>",,html-keyboard-response,295,2723078,0.0-17.0-1.17,91360,List1B,black,man,,,,null,,,,,,,,,
null,is being copied by,,html-keyboard-response,296,2725089,0.0-17.0-2.17,91360,List1B,black,man,,,,null,,,,,,,,,
27667.4,,,survey-text,297,2752759,0.0-17.0-3.17,91360,List1B,black,man,,,,,"{""Q0"":""luke was being copied by jane""}","<img src=""stim_listB/copy4.gif""style=""height:400px;""></stim_listB>",is being copied by,,,,,,
null,"<div style=""font-size:60px;"">+</div>",,html-keyboard-response,298,2753268,0.0-17.0-0.18,91360,List1B,black,man,,,,null,,,,,,,,,
null,"<img src=""stim_listB/seduce4.gif""style=""height:400px;""></stim_listB>",,html-keyboard-response,299,2755282,0.0-17.0-1.18,91360,List1B,black,man,,,,null,,,,,,,,,
null,is being seduced by,,html-keyboard-response,300,2757295,0.0-17.0-2.18,91360,List1B,black,man,,,,null,,,,,,,,,
29753.1,,,survey-text,301,2787051,0.0-17.0-3.18,91360,List1B,black,man,,,,,"{""Q0"":""ruth is being seduced by luke""}","<img src=""stim_listB/seduce4.gif""style=""height:400px;""></stim_listB>",is being seduced by,,,,,,
null,"<div style=""font-size:60px;"">+</div>",,html-keyboard-response,302,2787567,0.0-17.0-0.19,91360,List1B,black,man,,,,null,,,,,,,,,
null,"<img src=""stim_listB/kiss5.gif""style=""height:400px;""></stim_listB>",,html-keyboard-response,303,2789581,0.0-17.0-1.19,91360,List1B,black,man,,,,null,,,,,,,,,
null,is kissing,,html-keyboard-response,304,2791596,0.0-17.0-2.19,91360,List1B,black,man,,,,null,,,,,,,,,
7882.2,,,survey-text,305,2799480,0.0-17.0-3.19,91360,List1B,black,man,,,,,"{""Q0"":""luke is kissing fred""}","<img src=""stim_listB/kiss5.gif""style=""height:400px;""></stim_listB>",is kissing,,,,,,
58732,"<img src='img/portrait_matrix_list1.jpg' style='width:900px;height:500px;''></img><p>If you have memorised all the portraits and names and are ready to start, press Continue.</p><p><strong>Please note: Your memory of these faces will be tested 4 times during this experiment.</strong></p>",0,html-button-response,306,2858213,0.0-18.0-0.0,91360,List1B,black,man,,,,,,,,,,,,,
4745.4,"<img src=""portrait/BW1.jpg""style=""height:400px;""></img>",0,html-button-response,307,2863975,0.0-18.0-1.0,91360,List1B,black,man,,TRUE,0,,,,,,,,,,
null,CORRECT,,html-keyboard-response,308,2865489,0.0-18.0-2.0-0.0,91360,List1B,black,man,,,,null,,,,,,,,,
3560.5,"<img src=""portrait/WM1.jpg""style=""height:400px;""></img>",6,html-button-response,309,2869051,0.0-18.0-4.0,91360,List1B,black,man,,TRUE,6,,,,,,,,,,
null,CORRECT,,html-keyboard-response,310,2870566,0.0-18.0-5.0-0.0,91360,List1B,black,man,,,,null,,,,,,,,,
3833.6,"<img src=""portrait/WM2.jpg""style=""height:400px;""></img>",7,html-button-response,311,2874402,0.0-18.0-7.0,91360,List1B,black,man,,TRUE,7,,,,,,,,,,
null,CORRECT,,html-keyboard-response,312,2875917,0.0-18.0-8.0-0.0,91360,List1B,black,man,,,,null,,,,,,,,,
3159.1,"<img src=""portrait/BM1.jpg""style=""height:400px;""></img>",4,html-button-response,313,2879078,0.0-18.0-10.0,91360,List1B,black,man,,TRUE,4,,,,,,,,,,
null,CORRECT,,html-keyboard-response,314,2880594,0.0-18.0-11.0-0.0,91360,List1B,black,man,,,,null,,,,,,,,,
2954.4,"<img src=""portrait/WW2.jpg""style=""height:400px;""></img>",3,html-button-response,315,2883550,0.0-18.0-13.0,91360,List1B,black,man,,TRUE,3,,,,,,,,,,
null,CORRECT,,html-keyboard-response,316,2885070,0.0-18.0-14.0-0.0,91360,List1B,black,man,,,,null,,,,,,,,,
3526.9,"<img src=""portrait/WW1.jpg""style=""height:400px;""></img>",1,html-button-response,317,2888598,0.0-18.0-16.0,91360,List1B,black,man,,TRUE,1,,,,,,,,,,
null,CORRECT,,html-keyboard-response,318,2890124,0.0-18.0-17.0-0.0,91360,List1B,black,man,,,,null,,,,,,,,,
4688.2,"<img src=""portrait/BM2.jpg""style=""height:400px;""></img>",5,html-button-response,319,2894813,0.0-18.0-19.0,91360,List1B,black,man,,TRUE,5,,,,,,,,,,
null,CORRECT,,html-keyboard-response,320,2896327,0.0-18.0-20.0-0.0,91360,List1B,black,man,,,,null,,,,,,,,,
6219.6,"<img src=""portrait/BW2.jpg""style=""height:400px;""></img>",2,html-button-response,321,2902549,0.0-18.0-22.0,91360,List1B,black,man,,TRUE,2,,,,,,,,,,
null,CORRECT,,html-keyboard-response,322,2904065,0.0-18.0-23.0-0.0,91360,List1B,black,man,,,,null,,,,,,,,,
5979.8,<p>You got 8 out of 8 right first time. Press Continue.</p>,0,html-button-response,323,2910047,0.0-18.0-25.0,91360,List1B,black,man,,,,,,,,,,,,,
null,"<div style=""font-size:60px;"">+</div>",,html-keyboard-response,324,2911574,0.0-19.0-0.0,91360,List1B,black,man,,,,null,,,,,,,,,
null,"<img src=""stim_listB/challenge6.gif""style=""height:400px;""></stim_listB>",,html-keyboard-response,325,2913586,0.0-19.0-1.0,91360,List1B,black,man,,,,null,,,,,,,,,
null,is being challenged by,,html-keyboard-response,326,2915599,0.0-19.0-2.0,91360,List1B,black,man,,,,null,,,,,,,,,
22815.3,,,survey-text,327,2938417,0.0-19.0-3.0,91360,List1B,black,man,,,,,"{""Q0"":""dave is being challenged by fred""}","<img src=""stim_listB/challenge6.gif""style=""height:400px;""></stim_listB>",is being challenged by,,,,,,
null,"<div style=""font-size:60px;"">+</div>",,html-keyboard-response,328,2938933,0.0-19.0-0.1,91360,List1B,black,man,,,,null,,,,,,,,,
null,"<img src=""stim_listB/kiss2.gif""style=""height:400px;""></stim_listB>",,html-keyboard-response,329,2940935,0.0-19.0-1.1,91360,List1B,black,man,,,,null,,,,,,,,,
null,is being kissed by,,html-keyboard-response,330,2942945,0.0-19.0-2.1,91360,List1B,black,man,,,,null,,,,,,,,,
25851,,,survey-text,331,2968799,0.0-19.0-3.1,91360,List1B,black,man,,,,,"{""Q0"":""mike is being kissed by kate""}","<img src=""stim_listB/kiss2.gif""style=""height:400px;""></stim_listB>",is being kissed by,,,,,,
null,"<div style=""font-size:60px;"">+</div>",,html-keyboard-response,332,2969313,0.0-19.0-0.2,91360,List1B,black,man,,,,null,,,,,,,,,
null,"<img src=""stim_listB/hug8.gif""style=""height:400px;""></stim_listB>",,html-keyboard-response,333,2971326,0.0-19.0-1.2,91360,List1B,black,man,,,,null,,,,,,,,,
null,is being hugged by,,html-keyboard-response,334,2973341,0.0-19.0-2.2,91360,List1B,black,man,,,,null,,,,,,,,,
13596.1,,,survey-text,335,2986940,0.0-19.0-3.2,91360,List1B,black,man,,,,,"{""Q0"":""kate is being hugged by jane""}","<img src=""stim_listB/hug8.gif""style=""height:400px;""></stim_listB>",is being hugged by,,,,,,
null,"<div style=""font-size:60px;"">+</div>",,html-keyboard-response,336,2987450,0.0-19.0-0.3,91360,List1B,black,man,,,,null,,,,,,,,,
null,"<img src=""stim_listB/seduce7.gif""style=""height:400px;""></stim_listB>",,html-keyboard-response,337,2989465,0.0-19.0-1.3,91360,List1B,black,man,,,,null,,,,,,,,,
null,is seducing,,html-keyboard-response,338,2991481,0.0-19.0-2.3,91360,List1B,black,man,,,,null,,,,,,,,,
28163.4,,,survey-text,339,3019648,0.0-19.0-3.3,91360,List1B,black,man,,,,,"{""Q0"":""kate is being seduced by beth""}","<img src=""stim_listB/seduce7.gif""style=""height:400px;""></stim_listB>",is seducing,,,,,,
null,"<div style=""font-size:60px;"">+</div>",,html-keyboard-response,340,3020163,0.0-19.0-0.4,91360,List1B,black,man,,,,null,,,,,,,,,
null,"<img src=""stim_listB/look7.gif""style=""height:400px;""></stim_listB>",,html-keyboard-response,341,3022178,0.0-19.0-1.4,91360,List1B,black,man,,,,null,,,,,,,,,
null,is looking at,,html-keyboard-response,342,3024192,0.0-19.0-2.4,91360,List1B,black,man,,,,null,,,,,,,,,
10619.2,,,survey-text,343,3034814,0.0-19.0-3.4,91360,List1B,black,man,,,,,"{""Q0"":""ruth is looking at beth""}","<img src=""stim_listB/look7.gif""style=""height:400px;""></stim_listB>",is looking at,,,,,,
null,"<div style=""font-size:60px;"">+</div>",,html-keyboard-response,344,3035330,0.0-19.0-0.5,91360,List1B,black,man,,,,null,,,,,,,,,
null,"<img src=""stim_listB/greet4.gif""style=""height:400px;""></stim_listB>",,html-keyboard-response,345,3037343,0.0-19.0-1.5,91360,List1B,black,man,,,,null,,,,,,,,,
null,is being greeted by,,html-keyboard-response,346,3039359,0.0-19.0-2.5,91360,List1B,black,man,,,,null,,,,,,,,,
45689.7,,,survey-text,347,3085051,0.0-19.0-3.5,91360,List1B,black,man,,,,,"{""Q0"":""luke is being greeted by jane""}","<img src=""stim_listB/greet4.gif""style=""height:400px;""></stim_listB>",is being greeted by,,,,,,
null,"<div style=""font-size:60px;"">+</div>",,html-keyboard-response,348,3085566,0.0-19.0-0.6,91360,List1B,black,man,,,,null,,,,,,,,,
null,"<img src=""stim_listB/greet8.gif""style=""height:400px;""></stim_listB>",,html-keyboard-response,349,3087579,0.0-19.0-1.6,91360,List1B,black,man,,,,null,,,,,,,,,
null,is being greeted by,,html-keyboard-response,350,3089593,0.0-19.0-2.6,91360,List1B,black,man,,,,null,,,,,,,,,
13494.2,,,survey-text,351,3103090,0.0-19.0-3.6,91360,List1B,black,man,,,,,"{""Q0"":""beth is being greeted by jane""}","<img src=""stim_listB/greet8.gif""style=""height:400px;""></stim_listB>",is being greeted by,,,,,,
null,"<div style=""font-size:60px;"">+</div>",,html-keyboard-response,352,3103602,0.0-19.0-0.7,91360,List1B,black,man,,,,null,,,,,,,,,
null,"<img src=""stim_listB/seduce6.gif""style=""height:400px;""></stim_listB>",,html-keyboard-response,353,3105615,0.0-19.0-1.7,91360,List1B,black,man,,,,null,,,,,,,,,
null,is being seduced by,,html-keyboard-response,354,3107630,0.0-19.0-2.7,91360,List1B,black,man,,,,null,,,,,,,,,
17476.2,,,survey-text,355,3125109,0.0-19.0-3.7,91360,List1B,black,man,,,,,"{""Q0"":""luke is being seduced by mike""}","<img src=""stim_listB/seduce6.gif""style=""height:400px;""></stim_listB>",is being seduced by,,,,,,
null,"<div style=""font-size:60px;"">+</div>",,html-keyboard-response,356,3125617,0.0-19.0-0.8,91360,List1B,black,man,,,,null,,,,,,,,,
null,"<img src=""stim_listB/greet5.gif""style=""height:400px;""></stim_listB>",,html-keyboard-response,357,3127632,0.0-19.0-1.8,91360,List1B,black,man,,,,null,,,,,,,,,
null,is greeting,,html-keyboard-response,358,3129647,0.0-19.0-2.8,91360,List1B,black,man,,,,null,,,,,,,,,
16625.1,,,survey-text,359,3146275,0.0-19.0-3.8,91360,List1B,black,man,,,,,"{""Q0"":""luke is greeting mike""}","<img src=""stim_listB/greet5.gif""style=""height:400px;""></stim_listB>",is greeting,,,,,,
null,"<div style=""font-size:60px;"">+</div>",,html-keyboard-response,360,3146784,0.0-19.0-0.9,91360,List1B,black,man,,,,null,,,,,,,,,
null,"<img src=""stim_listB/copy5.gif""style=""height:400px;""></stim_listB>",,html-keyboard-response,361,3148799,0.0-19.0-1.9,91360,List1B,black,man,,,,null,,,,,,,,,
null,is copying,,html-keyboard-response,362,3150813,0.0-19.0-2.9,91360,List1B,black,man,,,,null,,,,,,,,,
14077.2,,,survey-text,363,3164893,0.0-19.0-3.9,91360,List1B,black,man,,,,,"{""Q0"":""luke is copying mike""}","<img src=""stim_listB/copy5.gif""style=""height:400px;""></stim_listB>",is copying,,,,,,
null,"<div style=""font-size:60px;"">+</div>",,html-keyboard-response,364,3165407,0.0-19.0-0.10,91360,List1B,black,man,,,,null,,,,,,,,,
null,"<img src=""stim_listB/look1.gif""style=""height:400px;""></stim_listB>",,html-keyboard-response,365,3167422,0.0-19.0-1.10,91360,List1B,black,man,,,,null,,,,,,,,,
null,is looking at,,html-keyboard-response,366,3169436,0.0-19.0-2.10,91360,List1B,black,man,,,,null,,,,,,,,,
14722.2,,,survey-text,367,3184160,0.0-19.0-3.10,91360,List1B,black,man,,,,,"{""Q0"":""fred is looking at dave""}","<img src=""stim_listB/look1.gif""style=""height:400px;""></stim_listB>",is looking at,,,,,,
null,"<div style=""font-size:60px;"">+</div>",,html-keyboard-response,368,3184662,0.0-19.0-0.11,91360,List1B,black,man,,,,null,,,,,,,,,
null,"<img src=""stim_listB/greet1.gif""style=""height:400px;""></stim_listB>",,html-keyboard-response,369,3186677,0.0-19.0-1.11,91360,List1B,black,man,,,,null,,,,,,,,,
null,is greeting,,html-keyboard-response,370,3188690,0.0-19.0-2.11,91360,List1B,black,man,,,,null,,,,,,,,,
44666.1,,,survey-text,371,3233359,0.0-19.0-3.11,91360,List1B,black,man,,,,,"{""Q0"":""beth is greeting fred""}","<img src=""stim_listB/greet1.gif""style=""height:400px;""></stim_listB>",is greeting,,,,,,
null,"<div style=""font-size:60px;"">+</div>",,html-keyboard-response,372,3233872,0.0-19.0-0.12,91360,List1B,black,man,,,,null,,,,,,,,,
null,"<img src=""stim_listB/shout2.gif""style=""height:400px;""></stim_listB>",,html-keyboard-response,373,3235884,0.0-19.0-1.12,91360,List1B,black,man,,,,null,,,,,,,,,
null,is being shouted at by,,html-keyboard-response,374,3237898,0.0-19.0-2.12,91360,List1B,black,man,,,,null,,,,,,,,,
28375.5,,,survey-text,375,3266275,0.0-19.0-3.12,91360,List1B,black,man,,,,,"{""Q0"":""mike is being shouted at by kate""}","<img src=""stim_listB/shout2.gif""style=""height:400px;""></stim_listB>",is being shouted at by,,,,,,
null,"<div style=""font-size:60px;"">+</div>",,html-keyboard-response,376,3266791,0.0-19.0-0.13,91360,List1B,black,man,,,,null,,,,,,,,,
null,"<img src=""stim_listB/hug2.gif""style=""height:400px;""></stim_listB>",,html-keyboard-response,377,3268807,0.0-19.0-1.13,91360,List1B,black,man,,,,null,,,,,,,,,
null,is being hugged by,,html-keyboard-response,378,3270821,0.0-19.0-2.13,91360,List1B,black,man,,,,null,,,,,,,,,
31621.8,,,survey-text,379,3302445,0.0-19.0-3.13,91360,List1B,black,man,,,,,"{""Q0"":""kate is being hugged by mike""}","<img src=""stim_listB/hug2.gif""style=""height:400px;""></stim_listB>",is being hugged by,,,,,,
null,"<div style=""font-size:60px;"">+</div>",,html-keyboard-response,380,3302958,0.0-19.0-0.14,91360,List1B,black,man,,,,null,,,,,,,,,
null,"<img src=""stim_listB/challenge3.gif""style=""height:400px;""></stim_listB>",,html-keyboard-response,381,3304961,0.0-19.0-1.14,91360,List1B,black,man,,,,null,,,,,,,,,
null,is challenging,,html-keyboard-response,382,3306977,0.0-19.0-2.14,91360,List1B,black,man,,,,null,,,,,,,,,
14046.2,,,survey-text,383,3321025,0.0-19.0-3.14,91360,List1B,black,man,,,,,"{""Q0"":""ruth is challenging dave""}","<img src=""stim_listB/challenge3.gif""style=""height:400px;""></stim_listB>",is challenging,,,,,,
null,"<div style=""font-size:60px;"">+</div>",,html-keyboard-response,384,3321532,0.0-19.0-0.15,91360,List1B,black,man,,,,null,,,,,,,,,
null,"<img src=""stim_listB/touch6.gif""style=""height:400px;""></stim_listB>",,html-keyboard-response,385,3323548,0.0-19.0-1.15,91360,List1B,black,man,,,,null,,,,,,,,,
null,is being touched by,,html-keyboard-response,386,3325562,0.0-19.0-2.15,91360,List1B,black,man,,,,null,,,,,,,,,
95020.2,,,survey-text,387,3420584,0.0-19.0-3.15,91360,List1B,black,man,,,,,"{""Q0"":""dave is being touched by fred""}","<img src=""stim_listB/touch6.gif""style=""height:400px;""></stim_listB>",is being touched by,,,,,,
null,"<div style=""font-size:60px;"">+</div>",,html-keyboard-response,388,3421100,0.0-19.0-0.16,91360,List1B,black,man,,,,null,,,,,,,,,
null,"<img src=""stim_listB/shout1.gif""style=""height:400px;""></stim_listB>",,html-keyboard-response,389,3423116,0.0-19.0-1.16,91360,List1B,black,man,,,,null,,,,,,,,,
null,is shouting at,,html-keyboard-response,390,3425130,0.0-19.0-2.16,91360,List1B,black,man,,,,null,,,,,,,,,
22104,,,survey-text,391,3447236,0.0-19.0-3.16,91360,List1B,black,man,,,,,"{""Q0"":""fred is being shouted at by beth""}","<img src=""stim_listB/shout1.gif""style=""height:400px;""></stim_listB>",is shouting at,,,,,,
null,"<div style=""font-size:60px;"">+</div>",,html-keyboard-response,392,3447744,0.0-19.0-0.17,91360,List1B,black,man,,,,null,,,,,,,,,
null,"<img src=""stim_listB/touch4.gif""style=""height:400px;""></stim_listB>",,html-keyboard-response,393,3449758,0.0-19.0-1.17,91360,List1B,black,man,,,,null,,,,,,,,,
null,is being touched by,,html-keyboard-response,394,3451769,0.0-19.0-2.17,91360,List1B,black,man,,,,null,,,,,,,,,
13044.6,,,survey-text,395,3464817,0.0-19.0-3.17,91360,List1B,black,man,,,,,"{""Q0"":""ruth is being touched by luke""}","<img src=""stim_listB/touch4.gif""style=""height:400px;""></stim_listB>",is being touched by,,,,,,
null,"<div style=""font-size:60px;"">+</div>",,html-keyboard-response,396,3465333,0.0-19.0-0.18,91360,List1B,black,man,,,,null,,,,,,,,,
null,"<img src=""stim_listB/oppose4.gif""style=""height:400px;""></stim_listB>",,html-keyboard-response,397,3467336,0.0-19.0-1.18,91360,List1B,black,man,,,,null,,,,,,,,,
null,is being opposed by,,html-keyboard-response,398,3469342,0.0-19.0-2.18,91360,List1B,black,man,,,,null,,,,,,,,,
13560.3,,,survey-text,399,3482905,0.0-19.0-3.18,91360,List1B,black,man,,,,,"{""Q0"":""ruth is being opposed by luke""}","<img src=""stim_listB/oppose4.gif""style=""height:400px;""></stim_listB>",is being opposed by,,,,,,
null,"<div style=""font-size:60px;"">+</div>",,html-keyboard-response,400,3483415,0.0-19.0-0.19,91360,List1B,black,man,,,,null,,,,,,,,,
null,"<img src=""stim_listB/challenge4.gif""style=""height:400px;""></stim_listB>",,html-keyboard-response,401,3485429,0.0-19.0-1.19,91360,List1B,black,man,,,,null,,,,,,,,,
null,is being challenged by,,html-keyboard-response,402,3487440,0.0-19.0-2.19,91360,List1B,black,man,,,,null,,,,,,,,,
28106,,,survey-text,403,3515549,0.0-19.0-3.19,91360,List1B,black,man,,,,,"{""Q0"":""luke is being challenged by ruth""}","<img src=""stim_listB/challenge4.gif""style=""height:400px;""></stim_listB>",is being challenged by,,,,,,
6149.8,<p>Thank you for completing that task.</p><p>The final part of this session is a questionnaire that will take about 4 minutes.</p><p>Press Continue.</p>,0,html-button-response,404,3521700,0.0-20.0,91360,List1B,black,man,,,,,,,,,,,,,
56640.4,,,survey-text,405,3579352,0.0-21.0,91360,List1B,black,man,,,,,"{""Q0"":""33"",""Q1"":""english"",""Q2"":""english"",""Q3"":""US"",""Q4"":""American"",""Q5"":""African-American"",""Q6"":""male""}",,,demographics,,,,,
2806.5,<p>Have you lived in the USA for the last 5 years or more?</p>,0,html-button-response,406,3582162,0.0-22.0,91360,List1B,black,man,,,,,,,,fiveyears,,,,,
2880.9,<p>Move the slider to show the extent to which you agree with the following statements.</p>,0,html-button-response,407,3586049,0.0-23.0,91360,List1B,black,man,,,,,,,,,,,,,
16673.3,,,html-slider-response,408,3603729,0.0-24.0-0.0-0.0,91360,List1B,black,man,,,,,,,,survey_race,74,,,I often think about the fact that I am my race.,often
8995.2,,,html-slider-response,409,3612726,0.0-24.0-0.0-0.1,91360,List1B,black,man,,,,,,,,survey_race,98,,,I am glad to be my race.,glad
3851,,,html-slider-response,410,3616580,0.0-24.0-0.0-0.2,91360,List1B,black,man,,,,,,,,survey_race,98,,,I feel committed to my race.,committed
3777.3,,,html-slider-response,411,3620358,0.0-24.0-0.0-0.3,91360,List1B,black,man,,,,,,,,survey_race,98,,,Being my race gives me a good feeling.,feeling
5746.8,,,html-slider-response,412,3626108,0.0-24.0-0.0-0.4,91360,List1B,black,man,,,,,,,,survey_race,13,,,I enjoy being in large groups.,filler
4962.1,,,html-slider-response,413,3631072,0.0-24.0-0.0-0.5,91360,List1B,black,man,,,,,,,,survey_race,100,,,People of my race are very similar to each other.,verysimilar
7409.5,,,html-slider-response,414,3638483,0.0-24.0-0.0-0.6,91360,List1B,black,man,,,,,,,,survey_race,76,,,I have a lot in common with the average person of my race.,average
4318.3,,,html-slider-response,415,3642804,0.0-24.0-0.0-0.7,91360,List1B,black,man,,,,,,,,survey_race,93,,,I am glad to be my age.,filler
9106.4,,,html-slider-response,416,3651913,0.0-24.0-0.0-0.8,91360,List1B,black,man,,,,,,,,survey_race,53,,,I feel solidarity with people the same age as me.,filler
11369.3,,,html-slider-response,417,3663284,0.0-24.0-0.0-0.9,91360,List1B,black,man,,,,,,,,survey_race,47,,,My age is not an important part of who I am.,filler
17406.4,,,html-slider-response,418,3680693,0.0-24.0-0.0-0.10,91360,List1B,black,man,,,,,,,,survey_race,83,,,Being my race is an important part of how I see myself.,important
4888.7,,,html-slider-response,419,3685584,0.0-24.0-0.0-0.11,91360,List1B,black,man,,,,,,,,survey_race,83,,,I often think about the fact that I am my age.,filler
5736.5,,,html-slider-response,420,3691323,0.0-24.0-0.0-0.12,91360,List1B,black,man,,,,,,,,survey_race,84,,,Being my age gives me a good feeling.,filler
6327.6,,,html-slider-response,421,3697653,0.0-24.0-0.0-0.13,91360,List1B,black,man,,,,,,,,survey_race,48,,,I have a lot in common with people of a similar age to me.,filler
9864.7,,,html-slider-response,422,3707520,0.0-24.0-0.0-0.14,91360,List1B,black,man,,,,,,,,survey_race,48,,,People my age have a lot in common with each other.,filler
5821.3,,,html-slider-response,423,3713345,0.0-24.0-0.0-0.15,91360,List1B,black,man,,,,,,,,survey_race,100,,,It is pleasant to be my race.,pleasant
6736.9,,,html-slider-response,424,3720084,0.0-24.0-0.0-0.16,91360,List1B,black,man,,,,,,,,survey_race,99,,,I feel a bond with my race.,bond
4685.7,,,html-slider-response,425,3724771,0.0-24.0-0.0-0.17,91360,List1B,black,man,,,,,,,,survey_race,99,,,The fact that I am my race is an important part of my identity.,identity
15637,,,html-slider-response,426,3740410,0.0-24.0-0.0-0.18,91360,List1B,black,man,,,,,,,,survey_race,73,,,People of my race have a lot in common with each other.,common
10728.5,,,html-slider-response,427,3751141,0.0-24.0-0.0-0.19,91360,List1B,black,man,,,,,,,,survey_race,100,,,I consider myself an introvert.,filler
3348,,,html-slider-response,428,3754492,0.0-24.0-0.0-0.20,91360,List1B,black,man,,,,,,,,survey_race,77,,,I am glad to be the age I am.,filler
3680.4,,,html-slider-response,429,3758174,0.0-24.0-0.0-0.21,91360,List1B,black,man,,,,,,,,survey_race,83,,,I am similar to the average person of my race.,similar
3283.2,,,html-slider-response,430,3761459,0.0-24.0-0.0-0.22,91360,List1B,black,man,,,,,,,,survey_race,88,,,I feel solidarity with my race.,solidarity
3852.5,,,html-slider-response,431,3765315,0.0-24.0-0.0-0.23,91360,List1B,black,man,,,,,,,,survey_race,83,,,I feel a bond with people the same age as me.,filler
3851.1,,,html-slider-response,432,3769168,0.0-24.0-0.0-0.24,91360,List1B,black,man,,,,,,,,survey_race,89,,,Getting older does not worry me.,filler
3809.2,,,html-slider-response,433,3772979,0.0-24.0-0.0-0.25,91360,List1B,black,man,,,,,,,,survey_race,99,,,I think that my race has a lot to be proud of.,proud
10335.3,,,html-slider-response,434,3783317,0.0-24.0-0.0-0.26,91360,List1B,black,man,,,,,,,,survey_race,78,,,"The older I get, the wiser I feel.",filler
9258.9,,,html-slider-response,435,3792578,0.0-24.0-0.0-0.27,91360,List1B,black,man,,,,,,,,survey_race,0,,,I consider myself an extrovert.,filler
8869.5,,,html-slider-response,436,3801450,0.0-24.0-1.0-0.0,91360,List1B,black,man,,,,,,,,survey_gender,54,,,My friends have a lot in common with each other.,filler
8422.7,,,html-slider-response,437,3809877,0.0-24.0-1.0-0.1,91360,List1B,black,man,,,,,,,,survey_gender,76,,,It is not always easy for people to know what I am thinking.,filler
4906.8,,,html-slider-response,438,3814786,0.0-24.0-1.0-0.2,91360,List1B,black,man,,,,,,,,survey_gender,99,,,I consider myself a highly empathetic person.,filler
15448.3,,,html-slider-response,439,3830237,0.0-24.0-1.0-0.3,91360,List1B,black,man,,,,,,,,survey_gender,98,,,The fact that I am my gender is an important part of my identity.,identity
8335.2,,,html-slider-response,440,3838575,0.0-24.0-1.0-0.4,91360,List1B,black,man,,,,,,,,survey_gender,0,,,Routine is not important to me.,filler
9674.9,,,html-slider-response,441,3848252,0.0-24.0-1.0-0.5,91360,List1B,black,man,,,,,,,,survey_gender,66,,,Most of the friends in my life are very similar to me.,filler
6024.3,,,html-slider-response,442,3854278,0.0-24.0-1.0-0.6,91360,List1B,black,man,,,,,,,,survey_gender,70,,,I have a lot in common with the average person of my gender.,average
2523.4,,,html-slider-response,443,3856803,0.0-24.0-1.0-0.7,91360,List1B,black,man,,,,,,,,survey_gender,81,,,I feel a bond with my gender.,bond
3205,,,html-slider-response,444,3860010,0.0-24.0-1.0-0.8,91360,List1B,black,man,,,,,,,,survey_gender,83,,,I feel committed to my gender.,committed
3675.6,,,html-slider-response,445,3863688,0.0-24.0-1.0-0.9,91360,List1B,black,man,,,,,,,,survey_gender,77,,,People of my gender are very similar to each other.,verysimilar
2712.2,,,html-slider-response,446,3866403,0.0-24.0-1.0-0.10,91360,List1B,black,man,,,,,,,,survey_gender,78,,,People of my gender have a lot in common with each other.,common
3180.5,,,html-slider-response,447,3869585,0.0-24.0-1.0-0.11,91360,List1B,black,man,,,,,,,,survey_gender,81,,,I feel solidarity with my gender.,solidarity
3815.7,,,html-slider-response,448,3873403,0.0-24.0-1.0-0.12,91360,List1B,black,man,,,,,,,,survey_gender,82,,,I often think about the fact that I am my gender.,often
7053.2,,,html-slider-response,449,3880458,0.0-24.0-1.0-0.13,91360,List1B,black,man,,,,,,,,survey_gender,0,,,Family is not more important to me than friendship.,filler
5311.2,,,html-slider-response,450,3885774,0.0-24.0-1.0-0.14,91360,List1B,black,man,,,,,,,,survey_gender,75,,,Being my gender gives me a good feeling.,feeling
12449.9,,,html-slider-response,451,3898226,0.0-24.0-1.0-0.15,91360,List1B,black,man,,,,,,,,survey_gender,99,,,I would say I am an animal person.,filler
7766.8,,,html-slider-response,452,3905995,0.0-24.0-1.0-0.16,91360,List1B,black,man,,,,,,,,survey_gender,73,,,I feel a bond with my friends.,filler
4300,,,html-slider-response,453,3910298,0.0-24.0-1.0-0.17,91360,List1B,black,man,,,,,,,,survey_gender,72,,,Being around my friends gives me a good feeling.,filler
4076.8,,,html-slider-response,454,3914377,0.0-24.0-1.0-0.18,91360,List1B,black,man,,,,,,,,survey_gender,77,,,I think that my gender has a lot to be proud of.,proud
4476.7,,,html-slider-response,455,3918856,0.0-24.0-1.0-0.19,91360,List1B,black,man,,,,,,,,survey_gender,72,,,I am similar to the average person of my gender.,similar
3919.3,,,html-slider-response,456,3922778,0.0-24.0-1.0-0.20,91360,List1B,black,man,,,,,,,,survey_gender,71,,,I am glad to have the friends that I have.,filler
2998.4,,,html-slider-response,457,3925778,0.0-24.0-1.0-0.21,91360,List1B,black,man,,,,,,,,survey_gender,79,,,My friends understand me.,filler
2959.5,,,html-slider-response,458,3928739,0.0-24.0-1.0-0.22,91360,List1B,black,man,,,,,,,,survey_gender,77,,,I feel solidarity with my friends.,filler
10040.2,,,html-slider-response,459,3938781,0.0-24.0-1.0-0.23,91360,List1B,black,man,,,,,,,,survey_gender,73,,,I have a lot in common with my friends.,filler
4561.9,,,html-slider-response,460,3943345,0.0-24.0-1.0-0.24,91360,List1B,black,man,,,,,,,,survey_gender,83,,,I often think about my actions.,filler
5270.9,,,html-slider-response,461,3948618,0.0-24.0-1.0-0.25,91360,List1B,black,man,,,,,,,,survey_gender,74,,,I am glad to be my gender.,glad
8115,,,html-slider-response,462,3956735,0.0-24.0-1.0-0.26,91360,List1B,black,man,,,,,,,,survey_gender,78,,,Being my gender is an important part of how I see myself.,important
2935.7,,,html-slider-response,463,3959673,0.0-24.0-1.0-0.27,91360,List1B,black,man,,,,,,,,survey_gender,83,,,It is pleasant to be my gender.,pleasant
8267.4,,,survey-text,464,3967943,0.0-25.0,91360,List1B,black,man,,,,,"{""Q0"":""ccc""}",,,worker_id,,,,,
9441.5,,,external-html,465,3979435,0.0-26.0,91360,List1B,black,man,debrief.html,,,,,,,,,,,,
