rt,stimulus,button_pressed,trial_type,trial_index,time_elapsed,internal_node_id,subject,list,ppt_race,ppt_gender,url,first_guess,correct,key_press,responses,image_type,phrase_type,test_part,response,stimulus1,stimulus2,question_type,survey_item
2181.1,Welcome to the experiment. Press Continue to begin.,0,html-button-response,0,2184,0.0-0.0,91462,List1B,white,woman,,,,,,,,,,,,,
43982.3,,,external-html,1,47313,0.0-1.0,91462,List1B,white,woman,consent.html,,,,,,,,,,,,
21870.3,"<p>On the next page, you will see portraits of 8 people and their names.</p><p>Your first task is to take a few minutes to memorise the names of these people.</p><p>You will have to recall their names during the rest of the experiment, so it is</p><p>essential that you try to memorise these people and their names as best as you can.</p><br><p><strong>You will then be tested on your memory of these names and portraits.</strong></p><br><p>The experiment will start after you have completed this memory test.</p><br><p>Ready?</p>",0,html-button-response,2,69185,0.0-2.0,91462,List1B,white,woman,,,,,,,,,,,,,
117471.9,"<img src='img/portrait_matrix_list1.jpg' style='width:900px;height:500px;''></img><p>If you have memorised all the portraits and names and are ready to start, press Continue.</p><p><strong>Please note: Your memory of these faces will be tested 4 times during this experiment.</strong></p>",0,html-button-response,3,187658,0.0-3.0-0.0,91462,List1B,white,woman,,,,,,,,,,,,,
6613,"<img src=""portrait/WM2.jpg""style=""height:400px;""></img>",7,html-button-response,4,195274,0.0-3.0-1.0,91462,List1B,white,woman,,TRUE,7,,,,,,,,,,
null,CORRECT,,html-keyboard-response,5,196778,0.0-3.0-2.0-0.0,91462,List1B,white,woman,,,,null,,,,,,,,,
6488.6,"<img src=""portrait/BW2.jpg""style=""height:400px;""></img>",2,html-button-response,6,203269,0.0-3.0-4.0,91462,List1B,white,woman,,TRUE,2,,,,,,,,,,
null,CORRECT,,html-keyboard-response,7,204773,0.0-3.0-5.0-0.0,91462,List1B,white,woman,,,,null,,,,,,,,,
10271,"<img src=""portrait/BM2.jpg""style=""height:400px;""></img>",5,html-button-response,8,215046,0.0-3.0-7.0,91462,List1B,white,woman,,TRUE,5,,,,,,,,,,
null,CORRECT,,html-keyboard-response,9,216549,0.0-3.0-8.0-0.0,91462,List1B,white,woman,,,,null,,,,,,,,,
11780.4,"<img src=""portrait/WM1.jpg""style=""height:400px;""></img>",6,html-button-response,10,228331,0.0-3.0-10.0,91462,List1B,white,woman,,TRUE,6,,,,,,,,,,
null,CORRECT,,html-keyboard-response,11,229834,0.0-3.0-11.0-0.0,91462,List1B,white,woman,,,,null,,,,,,,,,
6186.9,"<img src=""portrait/WW1.jpg""style=""height:400px;""></img>",1,html-button-response,12,236023,0.0-3.0-13.0,91462,List1B,white,woman,,TRUE,1,,,,,,,,,,
null,CORRECT,,html-keyboard-response,13,237525,0.0-3.0-14.0-0.0,91462,List1B,white,woman,,,,null,,,,,,,,,
10794.4,"<img src=""portrait/WW2.jpg""style=""height:400px;""></img>",3,html-button-response,14,248322,0.0-3.0-16.0,91462,List1B,white,woman,,TRUE,3,,,,,,,,,,
null,CORRECT,,html-keyboard-response,15,249825,0.0-3.0-17.0-0.0,91462,List1B,white,woman,,,,null,,,,,,,,,
12184.6,"<img src=""portrait/BW1.jpg""style=""height:400px;""></img>",0,html-button-response,16,262011,0.0-3.0-19.0,91462,List1B,white,woman,,TRUE,0,,,,,,,,,,
null,CORRECT,,html-keyboard-response,17,263514,0.0-3.0-20.0-0.0,91462,List1B,white,woman,,,,null,,,,,,,,,
6509.7,"<img src=""portrait/BM1.jpg""style=""height:400px;""></img>",4,html-button-response,18,270025,0.0-3.0-22.0,91462,List1B,white,woman,,TRUE,4,,,,,,,,,,
null,CORRECT,,html-keyboard-response,19,271528,0.0-3.0-23.0-0.0,91462,List1B,white,woman,,,,null,,,,,,,,,
2322.3,<p>You got 8 out of 8 right first time. Press Continue.</p>,0,html-button-response,20,273852,0.0-3.0-25.0,91462,List1B,white,woman,,,,,,,,,,,,,
32403.2,"<p>In this experiment, you will view photographs of the people from the memory game interacting.</p><p>By using the <strong>exact</strong> phrase given <i>after</i> the photograph appears and recalling the correct names of the people in the photographs, form a sentence describing the interaction. You do not need to capitalise names.</p><p>Type your answer in the space provided. Please complete every sentence before moving onto the next trial.</p><p>You will only have a few seconds to memorise each given photograph and phrase before you can respond, so try your best to focus.</p><p>An example is given below. Press 'Continue' when you are ready.</p><img src='img/speaking_example.jpg' style='width:800px;height:460px;''></img>",0,html-button-response,21,307260,0.0-4.0,91462,List1B,white,woman,,,,,,,,,,,,,
4315,"<p>Before the experiment starts, you will watch two example trials. Press 'Continue'.</p>",0,html-button-response,22,312577,0.0-5.0,91462,List1B,white,woman,,,,,,,,,,,,,
null,<img src='img/play_eg.gif' style='height:400px;''></img>,,html-keyboard-response,23,315584,0.0-6.0,91462,List1B,white,woman,,,,null,,,,,,,,,
null,<p>is playing with</p>,,html-keyboard-response,24,317586,0.0-7.0,91462,List1B,white,woman,,,,null,,,,,,,,,
3392.2,<p><b>Answer:</b> kate is playing with beth</p>,0,html-button-response,25,320979,0.0-8.0,91462,List1B,white,woman,,,,,,,,,,,,,
null,<img src='img/dance_eg.gif' style='height:400px;''></img>,,html-keyboard-response,26,323981,0.0-9.0,91462,List1B,white,woman,,,,null,,,,,,,,,
null,<p>is being entertained by</p>,,html-keyboard-response,27,325982,0.0-10.0,91462,List1B,white,woman,,,,null,,,,,,,,,
2507.4,<p><b>Answer:</b> luke is being entertained by dave</p>,0,html-button-response,28,328491,0.0-11.0,91462,List1B,white,woman,,,,,,,,,,,,,
6390.7,"<p>Ready to start the experiment?</p><br><p><strong>Remember to describe the picture using a full sentence,</strong></p><p><strong>that combines the names of the people with the <i>exact</i> phrase given.</strong></p><p><strong>To receive full payment you must do this correctly.</strong></p><p><strong> You do not need to capitalise names or use punctuation.</strong></p><br><p>Press 'Continue' to begin.</p>",0,html-button-response,29,335883,0.0-12.0,91462,List1B,white,woman,,,,,,,,,,,,,
null,"<div style=""font-size:60px;"">+</div>",,html-keyboard-response,30,337386,0.0-13.0-0.0,91462,List1B,white,woman,,,,null,,,,,,,,,
null,"<img src=""stim_listB/oppose8.gif""style=""height:400px;""></stim_listB>",,html-keyboard-response,31,339389,0.0-13.0-1.0,91462,List1B,white,woman,,,,null,,,,,,,,,
null,is being opposed by,,html-keyboard-response,32,341390,0.0-13.0-2.0,91462,List1B,white,woman,,,,null,,,,,,,,,
35419.4,,,survey-text,33,376813,0.0-13.0-3.0,91462,List1B,white,woman,,,,,"{""Q0"":""beth is being amused by ruth""}","<img src=""stim_listB/oppose8.gif""style=""height:400px;""></stim_listB>",is being opposed by,,,,,,
null,"<div style=""font-size:60px;"">+</div>",,html-keyboard-response,34,377316,0.0-13.0-0.1,91462,List1B,white,woman,,,,null,,,,,,,,,
null,"<img src=""stim_listB/touch4.gif""style=""height:400px;""></stim_listB>",,html-keyboard-response,35,379318,0.0-13.0-1.1,91462,List1B,white,woman,,,,null,,,,,,,,,
null,is being touched by,,html-keyboard-response,36,381328,0.0-13.0-2.1,91462,List1B,white,woman,,,,null,,,,,,,,,
40673.7,,,survey-text,37,422005,0.0-13.0-3.1,91462,List1B,white,woman,,,,,"{""Q0"":""ruth is being touched by luke.""}","<img src=""stim_listB/touch4.gif""style=""height:400px;""></stim_listB>",is being touched by,,,,,,
null,"<div style=""font-size:60px;"">+</div>",,html-keyboard-response,38,422507,0.0-13.0-0.2,91462,List1B,white,woman,,,,null,,,,,,,,,
null,"<img src=""stim_listB/shout2.gif""style=""height:400px;""></stim_listB>",,html-keyboard-response,39,424509,0.0-13.0-1.2,91462,List1B,white,woman,,,,null,,,,,,,,,
null,is being shouted at by,,html-keyboard-response,40,426510,0.0-13.0-2.2,91462,List1B,white,woman,,,,null,,,,,,,,,
34946.2,,,survey-text,41,461460,0.0-13.0-3.2,91462,List1B,white,woman,,,,,"{""Q0"":""kate is being shouted at by mike""}","<img src=""stim_listB/shout2.gif""style=""height:400px;""></stim_listB>",is being shouted at by,,,,,,
null,"<div style=""font-size:60px;"">+</div>",,html-keyboard-response,42,461961,0.0-13.0-0.3,91462,List1B,white,woman,,,,null,,,,,,,,,
null,"<img src=""stim_listB/hug4.gif""style=""height:400px;""></stim_listB>",,html-keyboard-response,43,463964,0.0-13.0-1.3,91462,List1B,white,woman,,,,null,,,,,,,,,
null,is being hugged by,,html-keyboard-response,44,465965,0.0-13.0-2.3,91462,List1B,white,woman,,,,null,,,,,,,,,
54687.6,,,survey-text,45,520656,0.0-13.0-3.3,91462,List1B,white,woman,,,,,"{""Q0"":""beth is being hugged by dave.""}","<img src=""stim_listB/hug4.gif""style=""height:400px;""></stim_listB>",is being hugged by,,,,,,
null,"<div style=""font-size:60px;"">+</div>",,html-keyboard-response,46,521157,0.0-13.0-0.4,91462,List1B,white,woman,,,,null,,,,,,,,,
null,"<img src=""stim_listB/look8.gif""style=""height:400px;""></stim_listB>",,html-keyboard-response,47,523161,0.0-13.0-1.4,91462,List1B,white,woman,,,,null,,,,,,,,,
null,is being looked at by,,html-keyboard-response,48,525163,0.0-13.0-2.4,91462,List1B,white,woman,,,,null,,,,,,,,,
32352.7,,,survey-text,49,557518,0.0-13.0-3.4,91462,List1B,white,woman,,,,,"{""Q0"":""kate is being looked at by jane.""}","<img src=""stim_listB/look8.gif""style=""height:400px;""></stim_listB>",is being looked at by,,,,,,
null,"<div style=""font-size:60px;"">+</div>",,html-keyboard-response,50,558020,0.0-13.0-0.5,91462,List1B,white,woman,,,,null,,,,,,,,,
null,"<img src=""stim_listB/seduce2.gif""style=""height:400px;""></stim_listB>",,html-keyboard-response,51,560023,0.0-13.0-1.5,91462,List1B,white,woman,,,,null,,,,,,,,,
null,is being seduced by,,html-keyboard-response,52,562024,0.0-13.0-2.5,91462,List1B,white,woman,,,,null,,,,,,,,,
29307.1,,,survey-text,53,591335,0.0-13.0-3.5,91462,List1B,white,woman,,,,,"{""Q0"":""beth is being seduced by mike""}","<img src=""stim_listB/seduce2.gif""style=""height:400px;""></stim_listB>",is being seduced by,,,,,,
null,"<div style=""font-size:60px;"">+</div>",,html-keyboard-response,54,591842,0.0-13.0-0.6,91462,List1B,white,woman,,,,null,,,,,,,,,
null,"<img src=""stim_listB/challenge6.gif""style=""height:400px;""></stim_listB>",,html-keyboard-response,55,593844,0.0-13.0-1.6,91462,List1B,white,woman,,,,null,,,,,,,,,
null,is being challenged by,,html-keyboard-response,56,595846,0.0-13.0-2.6,91462,List1B,white,woman,,,,null,,,,,,,,,
30806.8,,,survey-text,57,626655,0.0-13.0-3.6,91462,List1B,white,woman,,,,,"{""Q0"":""fred is being challenged by dave""}","<img src=""stim_listB/challenge6.gif""style=""height:400px;""></stim_listB>",is being challenged by,,,,,,
null,"<div style=""font-size:60px;"">+</div>",,html-keyboard-response,58,627156,0.0-13.0-0.7,91462,List1B,white,woman,,,,null,,,,,,,,,
null,"<img src=""stim_listB/challenge2.gif""style=""height:400px;""></stim_listB>",,html-keyboard-response,59,629159,0.0-13.0-1.7,91462,List1B,white,woman,,,,null,,,,,,,,,
null,is being challenged by,,html-keyboard-response,60,631162,0.0-13.0-2.7,91462,List1B,white,woman,,,,null,,,,,,,,,
23352.5,,,survey-text,61,654518,0.0-13.0-3.7,91462,List1B,white,woman,,,,,"{""Q0"":""fred is being challenged by kate""}","<img src=""stim_listB/challenge2.gif""style=""height:400px;""></stim_listB>",is being challenged by,,,,,,
null,"<div style=""font-size:60px;"">+</div>",,html-keyboard-response,62,655019,0.0-13.0-0.8,91462,List1B,white,woman,,,,null,,,,,,,,,
null,"<img src=""stim_listB/seduce7.gif""style=""height:400px;""></stim_listB>",,html-keyboard-response,63,657022,0.0-13.0-1.8,91462,List1B,white,woman,,,,null,,,,,,,,,
null,is seducing,,html-keyboard-response,64,659024,0.0-13.0-2.8,91462,List1B,white,woman,,,,null,,,,,,,,,
24858.7,,,survey-text,65,683886,0.0-13.0-3.8,91462,List1B,white,woman,,,,,"{""Q0"":""beth is seducing jane.""}","<img src=""stim_listB/seduce7.gif""style=""height:400px;""></stim_listB>",is seducing,,,,,,
null,"<div style=""font-size:60px;"">+</div>",,html-keyboard-response,66,684387,0.0-13.0-0.9,91462,List1B,white,woman,,,,null,,,,,,,,,
null,"<img src=""stim_listB/touch1.gif""style=""height:400px;""></stim_listB>",,html-keyboard-response,67,686389,0.0-13.0-1.9,91462,List1B,white,woman,,,,null,,,,,,,,,
null,is touching,,html-keyboard-response,68,688393,0.0-13.0-2.9,91462,List1B,white,woman,,,,null,,,,,,,,,
13865,,,survey-text,69,702261,0.0-13.0-3.9,91462,List1B,white,woman,,,,,"{""Q0"":""kate is touching mike.""}","<img src=""stim_listB/touch1.gif""style=""height:400px;""></stim_listB>",is touching,,,,,,
null,"<div style=""font-size:60px;"">+</div>",,html-keyboard-response,70,702763,0.0-13.0-0.10,91462,List1B,white,woman,,,,null,,,,,,,,,
null,"<img src=""stim_listB/kiss2.gif""style=""height:400px;""></stim_listB>",,html-keyboard-response,71,704765,0.0-13.0-1.10,91462,List1B,white,woman,,,,null,,,,,,,,,
null,is being kissed by,,html-keyboard-response,72,706767,0.0-13.0-2.10,91462,List1B,white,woman,,,,null,,,,,,,,,
14760.5,,,survey-text,73,721531,0.0-13.0-3.10,91462,List1B,white,woman,,,,,"{""Q0"":""kate is being kissed by mike.""}","<img src=""stim_listB/kiss2.gif""style=""height:400px;""></stim_listB>",is being kissed by,,,,,,
null,"<div style=""font-size:60px;"">+</div>",,html-keyboard-response,74,722032,0.0-13.0-0.11,91462,List1B,white,woman,,,,null,,,,,,,,,
null,"<img src=""stim_listB/touch5.gif""style=""height:400px;""></stim_listB>",,html-keyboard-response,75,724035,0.0-13.0-1.11,91462,List1B,white,woman,,,,null,,,,,,,,,
null,is touching,,html-keyboard-response,76,726036,0.0-13.0-2.11,91462,List1B,white,woman,,,,null,,,,,,,,,
25654.6,,,survey-text,77,751694,0.0-13.0-3.11,91462,List1B,white,woman,,,,,"{""Q0"":""mike is touching dave.""}","<img src=""stim_listB/touch5.gif""style=""height:400px;""></stim_listB>",is touching,,,,,,
null,"<div style=""font-size:60px;"">+</div>",,html-keyboard-response,78,752196,0.0-13.0-0.12,91462,List1B,white,woman,,,,null,,,,,,,,,
null,"<img src=""stim_listB/look7.gif""style=""height:400px;""></stim_listB>",,html-keyboard-response,79,754198,0.0-13.0-1.12,91462,List1B,white,woman,,,,null,,,,,,,,,
null,is looking at,,html-keyboard-response,80,756199,0.0-13.0-2.12,91462,List1B,white,woman,,,,null,,,,,,,,,
27554.1,,,survey-text,81,783756,0.0-13.0-3.12,91462,List1B,white,woman,,,,,"{""Q0"":""ruth is looking at jane.""}","<img src=""stim_listB/look7.gif""style=""height:400px;""></stim_listB>",is looking at,,,,,,
null,"<div style=""font-size:60px;"">+</div>",,html-keyboard-response,82,784259,0.0-13.0-0.13,91462,List1B,white,woman,,,,null,,,,,,,,,
null,"<img src=""stim_listB/look4.gif""style=""height:400px;""></stim_listB>",,html-keyboard-response,83,786261,0.0-13.0-1.13,91462,List1B,white,woman,,,,null,,,,,,,,,
null,is being looked at by,,html-keyboard-response,84,788263,0.0-13.0-2.13,91462,List1B,white,woman,,,,null,,,,,,,,,
24703.7,,,survey-text,85,812970,0.0-13.0-3.13,91462,List1B,white,woman,,,,,"{""Q0"":""jane is being looked at by mike""}","<img src=""stim_listB/look4.gif""style=""height:400px;""></stim_listB>",is being looked at by,,,,,,
null,"<div style=""font-size:60px;"">+</div>",,html-keyboard-response,86,813472,0.0-13.0-0.14,91462,List1B,white,woman,,,,null,,,,,,,,,
null,"<img src=""stim_listB/seduce5.gif""style=""height:400px;""></stim_listB>",,html-keyboard-response,87,815475,0.0-13.0-1.14,91462,List1B,white,woman,,,,null,,,,,,,,,
null,is seducing,,html-keyboard-response,88,817477,0.0-13.0-2.14,91462,List1B,white,woman,,,,null,,,,,,,,,
13810.4,,,survey-text,89,831290,0.0-13.0-3.14,91462,List1B,white,woman,,,,,"{""Q0"":""fred is seducing dave.""}","<img src=""stim_listB/seduce5.gif""style=""height:400px;""></stim_listB>",is seducing,,,,,,
null,"<div style=""font-size:60px;"">+</div>",,html-keyboard-response,90,831793,0.0-13.0-0.15,91462,List1B,white,woman,,,,null,,,,,,,,,
null,"<img src=""stim_listB/kiss7.gif""style=""height:400px;""></stim_listB>",,html-keyboard-response,91,833795,0.0-13.0-1.15,91462,List1B,white,woman,,,,null,,,,,,,,,
null,is kissing,,html-keyboard-response,92,835798,0.0-13.0-2.15,91462,List1B,white,woman,,,,null,,,,,,,,,
19320.4,,,survey-text,93,855122,0.0-13.0-3.15,91462,List1B,white,woman,,,,,"{""Q0"":""beth is kissing ruth.""}","<img src=""stim_listB/kiss7.gif""style=""height:400px;""></stim_listB>",is kissing,,,,,,
null,"<div style=""font-size:60px;"">+</div>",,html-keyboard-response,94,855624,0.0-13.0-0.16,91462,List1B,white,woman,,,,null,,,,,,,,,
null,"<img src=""stim_listB/oppose7.gif""style=""height:400px;""></stim_listB>",,html-keyboard-response,95,857627,0.0-13.0-1.16,91462,List1B,white,woman,,,,null,,,,,,,,,
null,is opposing,,html-keyboard-response,96,859629,0.0-13.0-2.16,91462,List1B,white,woman,,,,null,,,,,,,,,
17801.6,,,survey-text,97,877434,0.0-13.0-3.16,91462,List1B,white,woman,,,,,"{""Q0"":""kate is opposing jane.""}","<img src=""stim_listB/oppose7.gif""style=""height:400px;""></stim_listB>",is opposing,,,,,,
null,"<div style=""font-size:60px;"">+</div>",,html-keyboard-response,98,877935,0.0-13.0-0.17,91462,List1B,white,woman,,,,null,,,,,,,,,
null,"<img src=""stim_listB/kiss6.gif""style=""height:400px;""></stim_listB>",,html-keyboard-response,99,879937,0.0-13.0-1.17,91462,List1B,white,woman,,,,null,,,,,,,,,
null,is being kissed by,,html-keyboard-response,100,881939,0.0-13.0-2.17,91462,List1B,white,woman,,,,null,,,,,,,,,
29885.4,,,survey-text,101,911827,0.0-13.0-3.17,91462,List1B,white,woman,,,,,"{""Q0"":""mike is being kissed by dave.""}","<img src=""stim_listB/kiss6.gif""style=""height:400px;""></stim_listB>",is being kissed by,,,,,,
null,"<div style=""font-size:60px;"">+</div>",,html-keyboard-response,102,912328,0.0-13.0-0.18,91462,List1B,white,woman,,,,null,,,,,,,,,
null,"<img src=""stim_listB/kiss3.gif""style=""height:400px;""></stim_listB>",,html-keyboard-response,103,914331,0.0-13.0-1.18,91462,List1B,white,woman,,,,null,,,,,,,,,
null,is kissing,,html-keyboard-response,104,916332,0.0-13.0-2.18,91462,List1B,white,woman,,,,null,,,,,,,,,
15693.4,,,survey-text,105,932028,0.0-13.0-3.18,91462,List1B,white,woman,,,,,"{""Q0"":""ruth is kissing luke.""}","<img src=""stim_listB/kiss3.gif""style=""height:400px;""></stim_listB>",is kissing,,,,,,
null,"<div style=""font-size:60px;"">+</div>",,html-keyboard-response,106,932530,0.0-13.0-0.19,91462,List1B,white,woman,,,,null,,,,,,,,,
null,"<img src=""stim_listB/oppose6.gif""style=""height:400px;""></stim_listB>",,html-keyboard-response,107,934532,0.0-13.0-1.19,91462,List1B,white,woman,,,,null,,,,,,,,,
null,is being opposed by,,html-keyboard-response,108,936534,0.0-13.0-2.19,91462,List1B,white,woman,,,,null,,,,,,,,,
15822.6,,,survey-text,109,952359,0.0-13.0-3.19,91462,List1B,white,woman,,,,,"{""Q0"":""fred is being opposed by luke.""}","<img src=""stim_listB/oppose6.gif""style=""height:400px;""></stim_listB>",is being opposed by,,,,,,
24142.8,"<img src='img/portrait_matrix_list1.jpg' style='width:900px;height:500px;''></img><p>If you have memorised all the portraits and names and are ready to start, press Continue.</p><p><strong>Please note: Your memory of these faces will be tested 4 times during this experiment.</strong></p>",0,html-button-response,110,976502,0.0-14.0-0.0,91462,List1B,white,woman,,,,,,,,,,,,,
7351.4,"<img src=""portrait/BW1.jpg""style=""height:400px;""></img>",0,html-button-response,111,984856,0.0-14.0-1.0,91462,List1B,white,woman,,TRUE,0,,,,,,,,,,
null,CORRECT,,html-keyboard-response,112,986360,0.0-14.0-2.0-0.0,91462,List1B,white,woman,,,,null,,,,,,,,,
3532.1,"<img src=""portrait/WM2.jpg""style=""height:400px;""></img>",7,html-button-response,113,989894,0.0-14.0-4.0,91462,List1B,white,woman,,TRUE,7,,,,,,,,,,
null,CORRECT,,html-keyboard-response,114,991397,0.0-14.0-5.0-0.0,91462,List1B,white,woman,,,,null,,,,,,,,,
6480.3,"<img src=""portrait/WM1.jpg""style=""height:400px;""></img>",6,html-button-response,115,997879,0.0-14.0-7.0,91462,List1B,white,woman,,TRUE,6,,,,,,,,,,
null,CORRECT,,html-keyboard-response,116,999382,0.0-14.0-8.0-0.0,91462,List1B,white,woman,,,,null,,,,,,,,,
5662.2,"<img src=""portrait/WW2.jpg""style=""height:400px;""></img>",3,html-button-response,117,1005046,0.0-14.0-10.0,91462,List1B,white,woman,,TRUE,3,,,,,,,,,,
null,CORRECT,,html-keyboard-response,118,1006549,0.0-14.0-11.0-0.0,91462,List1B,white,woman,,,,null,,,,,,,,,
4355.3,"<img src=""portrait/BM1.jpg""style=""height:400px;""></img>",4,html-button-response,119,1010907,0.0-14.0-13.0,91462,List1B,white,woman,,TRUE,4,,,,,,,,,,
null,CORRECT,,html-keyboard-response,120,1012415,0.0-14.0-14.0-0.0,91462,List1B,white,woman,,,,null,,,,,,,,,
3443.1,"<img src=""portrait/WW1.jpg""style=""height:400px;""></img>",1,html-button-response,121,1015860,0.0-14.0-16.0,91462,List1B,white,woman,,TRUE,1,,,,,,,,,,
null,CORRECT,,html-keyboard-response,122,1017363,0.0-14.0-17.0-0.0,91462,List1B,white,woman,,,,null,,,,,,,,,
3323,"<img src=""portrait/BW2.jpg""style=""height:400px;""></img>",2,html-button-response,123,1020688,0.0-14.0-19.0,91462,List1B,white,woman,,TRUE,2,,,,,,,,,,
null,CORRECT,,html-keyboard-response,124,1022191,0.0-14.0-20.0-0.0,91462,List1B,white,woman,,,,null,,,,,,,,,
2419.5,"<img src=""portrait/BM2.jpg""style=""height:400px;""></img>",5,html-button-response,125,1024612,0.0-14.0-22.0,91462,List1B,white,woman,,TRUE,5,,,,,,,,,,
null,CORRECT,,html-keyboard-response,126,1026116,0.0-14.0-23.0-0.0,91462,List1B,white,woman,,,,null,,,,,,,,,
2627.3,<p>You got 8 out of 8 right first time. Press Continue.</p>,0,html-button-response,127,1028745,0.0-14.0-25.0,91462,List1B,white,woman,,,,,,,,,,,,,
null,"<div style=""font-size:60px;"">+</div>",,html-keyboard-response,128,1030248,0.0-15.0-0.0,91462,List1B,white,woman,,,,null,,,,,,,,,
null,"<img src=""stim_listB/greet8.gif""style=""height:400px;""></stim_listB>",,html-keyboard-response,129,1032250,0.0-15.0-1.0,91462,List1B,white,woman,,,,null,,,,,,,,,
null,is being greeted by,,html-keyboard-response,130,1034252,0.0-15.0-2.0,91462,List1B,white,woman,,,,null,,,,,,,,,
19159.6,,,survey-text,131,1053415,0.0-15.0-3.0,91462,List1B,white,woman,,,,,"{""Q0"":""beth is being greeted by jane.""}","<img src=""stim_listB/greet8.gif""style=""height:400px;""></stim_listB>",is being greeted by,,,,,,
null,"<div style=""font-size:60px;"">+</div>",,html-keyboard-response,132,1053916,0.0-15.0-0.1,91462,List1B,white,woman,,,,null,,,,,,,,,
null,"<img src=""stim_listB/challenge8.gif""style=""height:400px;""></stim_listB>",,html-keyboard-response,133,1055919,0.0-15.0-1.1,91462,List1B,white,woman,,,,null,,,,,,,,,
null,is being challenged by,,html-keyboard-response,134,1057921,0.0-15.0-2.1,91462,List1B,white,woman,,,,null,,,,,,,,,
12912.8,,,survey-text,135,1070837,0.0-15.0-3.1,91462,List1B,white,woman,,,,,"{""Q0"":""beth is being challenged by jane.""}","<img src=""stim_listB/challenge8.gif""style=""height:400px;""></stim_listB>",is being challenged by,,,,,,
null,"<div style=""font-size:60px;"">+</div>",,html-keyboard-response,136,1071338,0.0-15.0-0.2,91462,List1B,white,woman,,,,null,,,,,,,,,
null,"<img src=""stim_listB/shout3.gif""style=""height:400px;""></stim_listB>",,html-keyboard-response,137,1073340,0.0-15.0-1.2,91462,List1B,white,woman,,,,null,,,,,,,,,
null,is shouting at,,html-keyboard-response,138,1075341,0.0-15.0-2.2,91462,List1B,white,woman,,,,null,,,,,,,,,
13681.1,,,survey-text,139,1089025,0.0-15.0-3.2,91462,List1B,white,woman,,,,,"{""Q0"":""ruth is shouting at luke.""}","<img src=""stim_listB/shout3.gif""style=""height:400px;""></stim_listB>",is shouting at,,,,,,
null,"<div style=""font-size:60px;"">+</div>",,html-keyboard-response,140,1089527,0.0-15.0-0.3,91462,List1B,white,woman,,,,null,,,,,,,,,
null,"<img src=""stim_listB/kiss1.gif""style=""height:400px;""></stim_listB>",,html-keyboard-response,141,1091529,0.0-15.0-1.3,91462,List1B,white,woman,,,,null,,,,,,,,,
null,is kissing,,html-keyboard-response,142,1093531,0.0-15.0-2.3,91462,List1B,white,woman,,,,null,,,,,,,,,
9540.8,,,survey-text,143,1103076,0.0-15.0-3.3,91462,List1B,white,woman,,,,,"{""Q0"":""beth is kissing fred""}","<img src=""stim_listB/kiss1.gif""style=""height:400px;""></stim_listB>",is kissing,,,,,,
null,"<div style=""font-size:60px;"">+</div>",,html-keyboard-response,144,1103576,0.0-15.0-0.4,91462,List1B,white,woman,,,,null,,,,,,,,,
null,"<img src=""stim_listB/challenge5.gif""style=""height:400px;""></stim_listB>",,html-keyboard-response,145,1105579,0.0-15.0-1.4,91462,List1B,white,woman,,,,null,,,,,,,,,
null,is challenging,,html-keyboard-response,146,1107580,0.0-15.0-2.4,91462,List1B,white,woman,,,,null,,,,,,,,,
13413.1,,,survey-text,147,1120996,0.0-15.0-3.4,91462,List1B,white,woman,,,,,"{""Q0"":""mike is challenging luke""}","<img src=""stim_listB/challenge5.gif""style=""height:400px;""></stim_listB>",is challenging,,,,,,
null,"<div style=""font-size:60px;"">+</div>",,html-keyboard-response,148,1121497,0.0-15.0-0.5,91462,List1B,white,woman,,,,null,,,,,,,,,
null,"<img src=""stim_listB/shout8.gif""style=""height:400px;""></stim_listB>",,html-keyboard-response,149,1123499,0.0-15.0-1.5,91462,List1B,white,woman,,,,null,,,,,,,,,
null,is being shouted at by,,html-keyboard-response,150,1125500,0.0-15.0-2.5,91462,List1B,white,woman,,,,null,,,,,,,,,
22851.8,,,survey-text,151,1148355,0.0-15.0-3.5,91462,List1B,white,woman,,,,,"{""Q0"":""kate is being shouted at by ruth""}","<img src=""stim_listB/shout8.gif""style=""height:400px;""></stim_listB>",is being shouted at by,,,,,,
null,"<div style=""font-size:60px;"">+</div>",,html-keyboard-response,152,1148857,0.0-15.0-0.6,91462,List1B,white,woman,,,,null,,,,,,,,,
null,"<img src=""stim_listB/touch8.gif""style=""height:400px;""></stim_listB>",,html-keyboard-response,153,1150859,0.0-15.0-1.6,91462,List1B,white,woman,,,,null,,,,,,,,,
null,is being touched by,,html-keyboard-response,154,1152860,0.0-15.0-2.6,91462,List1B,white,woman,,,,null,,,,,,,,,
11919.7,,,survey-text,155,1164783,0.0-15.0-3.6,91462,List1B,white,woman,,,,,"{""Q0"":""beth is being touched by ruth""}","<img src=""stim_listB/touch8.gif""style=""height:400px;""></stim_listB>",is being touched by,,,,,,
null,"<div style=""font-size:60px;"">+</div>",,html-keyboard-response,156,1165284,0.0-15.0-0.7,91462,List1B,white,woman,,,,null,,,,,,,,,
null,"<img src=""stim_listB/touch7.gif""style=""height:400px;""></stim_listB>",,html-keyboard-response,157,1167287,0.0-15.0-1.7,91462,List1B,white,woman,,,,null,,,,,,,,,
null,is touching,,html-keyboard-response,158,1169288,0.0-15.0-2.7,91462,List1B,white,woman,,,,null,,,,,,,,,
12628.5,,,survey-text,159,1181920,0.0-15.0-3.7,91462,List1B,white,woman,,,,,"{""Q0"":""jane is touching kate""}","<img src=""stim_listB/touch7.gif""style=""height:400px;""></stim_listB>",is touching,,,,,,
null,"<div style=""font-size:60px;"">+</div>",,html-keyboard-response,160,1182421,0.0-15.0-0.8,91462,List1B,white,woman,,,,null,,,,,,,,,
null,"<img src=""stim_listB/challenge4.gif""style=""height:400px;""></stim_listB>",,html-keyboard-response,161,1184424,0.0-15.0-1.8,91462,List1B,white,woman,,,,null,,,,,,,,,
null,is being challenged by,,html-keyboard-response,162,1186425,0.0-15.0-2.8,91462,List1B,white,woman,,,,null,,,,,,,,,
15121.7,,,survey-text,163,1201550,0.0-15.0-3.8,91462,List1B,white,woman,,,,,"{""Q0"":""luke is being challenged by jane.""}","<img src=""stim_listB/challenge4.gif""style=""height:400px;""></stim_listB>",is being challenged by,,,,,,
null,"<div style=""font-size:60px;"">+</div>",,html-keyboard-response,164,1202051,0.0-15.0-0.9,91462,List1B,white,woman,,,,null,,,,,,,,,
null,"<img src=""stim_listB/hug1.gif""style=""height:400px;""></stim_listB>",,html-keyboard-response,165,1204054,0.0-15.0-1.9,91462,List1B,white,woman,,,,null,,,,,,,,,
null,is hugging,,html-keyboard-response,166,1206055,0.0-15.0-2.9,91462,List1B,white,woman,,,,null,,,,,,,,,
7048.7,,,survey-text,167,1213107,0.0-15.0-3.9,91462,List1B,white,woman,,,,,"{""Q0"":""d is hugging beth.""}","<img src=""stim_listB/hug1.gif""style=""height:400px;""></stim_listB>",is hugging,,,,,,
null,"<div style=""font-size:60px;"">+</div>",,html-keyboard-response,168,1213609,0.0-15.0-0.10,91462,List1B,white,woman,,,,null,,,,,,,,,
null,"<img src=""stim_listB/greet5.gif""style=""height:400px;""></stim_listB>",,html-keyboard-response,169,1215612,0.0-15.0-1.10,91462,List1B,white,woman,,,,null,,,,,,,,,
null,is greeting,,html-keyboard-response,170,1217614,0.0-15.0-2.10,91462,List1B,white,woman,,,,null,,,,,,,,,
19815,,,survey-text,171,1237431,0.0-15.0-3.10,91462,List1B,white,woman,,,,,"{""Q0"":""mike is greeting luke.""}","<img src=""stim_listB/greet5.gif""style=""height:400px;""></stim_listB>",is greeting,,,,,,
null,"<div style=""font-size:60px;"">+</div>",,html-keyboard-response,172,1237932,0.0-15.0-0.11,91462,List1B,white,woman,,,,null,,,,,,,,,
null,"<img src=""stim_listB/copy6.gif""style=""height:400px;""></stim_listB>",,html-keyboard-response,173,1239935,0.0-15.0-1.11,91462,List1B,white,woman,,,,null,,,,,,,,,
null,is being copied by,,html-keyboard-response,174,1241937,0.0-15.0-2.11,91462,List1B,white,woman,,,,null,,,,,,,,,
22545.9,,,survey-text,175,1264486,0.0-15.0-3.11,91462,List1B,white,woman,,,,,"{""Q0"":""fred is being copied by dave.""}","<img src=""stim_listB/copy6.gif""style=""height:400px;""></stim_listB>",is being copied by,,,,,,
null,"<div style=""font-size:60px;"">+</div>",,html-keyboard-response,176,1264987,0.0-15.0-0.12,91462,List1B,white,woman,,,,null,,,,,,,,,
null,"<img src=""stim_listB/hug3.gif""style=""height:400px;""></stim_listB>",,html-keyboard-response,177,1266990,0.0-15.0-1.12,91462,List1B,white,woman,,,,null,,,,,,,,,
null,is hugging,,html-keyboard-response,178,1268992,0.0-15.0-2.12,91462,List1B,white,woman,,,,null,,,,,,,,,
13317.8,,,survey-text,179,1282312,0.0-15.0-3.12,91462,List1B,white,woman,,,,,"{""Q0"":""ruth is hugging luke.""}","<img src=""stim_listB/hug3.gif""style=""height:400px;""></stim_listB>",is hugging,,,,,,
null,"<div style=""font-size:60px;"">+</div>",,html-keyboard-response,180,1282814,0.0-15.0-0.13,91462,List1B,white,woman,,,,null,,,,,,,,,
null,"<img src=""stim_listB/hug6.gif""style=""height:400px;""></stim_listB>",,html-keyboard-response,181,1284816,0.0-15.0-1.13,91462,List1B,white,woman,,,,null,,,,,,,,,
null,is being hugged by,,html-keyboard-response,182,1286818,0.0-15.0-2.13,91462,List1B,white,woman,,,,null,,,,,,,,,
10439.7,,,survey-text,183,1297261,0.0-15.0-3.13,91462,List1B,white,woman,,,,,"{""Q0"":""mike is being hugged by dave.""}","<img src=""stim_listB/hug6.gif""style=""height:400px;""></stim_listB>",is being hugged by,,,,,,
null,"<div style=""font-size:60px;"">+</div>",,html-keyboard-response,184,1297762,0.0-15.0-0.14,91462,List1B,white,woman,,,,null,,,,,,,,,
null,"<img src=""stim_listB/oppose1.gif""style=""height:400px;""></stim_listB>",,html-keyboard-response,185,1299765,0.0-15.0-1.14,91462,List1B,white,woman,,,,null,,,,,,,,,
null,is opposing,,html-keyboard-response,186,1301767,0.0-15.0-2.14,91462,List1B,white,woman,,,,null,,,,,,,,,
14165,,,survey-text,187,1315935,0.0-15.0-3.14,91462,List1B,white,woman,,,,,"{""Q0"":""kate is opposing mike.""}","<img src=""stim_listB/oppose1.gif""style=""height:400px;""></stim_listB>",is opposing,,,,,,
null,"<div style=""font-size:60px;"">+</div>",,html-keyboard-response,188,1316437,0.0-15.0-0.15,91462,List1B,white,woman,,,,null,,,,,,,,,
null,"<img src=""stim_listB/greet1.gif""style=""height:400px;""></stim_listB>",,html-keyboard-response,189,1318438,0.0-15.0-1.15,91462,List1B,white,woman,,,,null,,,,,,,,,
null,is greeting,,html-keyboard-response,190,1320441,0.0-15.0-2.15,91462,List1B,white,woman,,,,null,,,,,,,,,
14972.8,,,survey-text,191,1335417,0.0-15.0-3.15,91462,List1B,white,woman,,,,,"{""Q0"":""beth is greeting mike.""}","<img src=""stim_listB/greet1.gif""style=""height:400px;""></stim_listB>",is greeting,,,,,,
null,"<div style=""font-size:60px;"">+</div>",,html-keyboard-response,192,1335919,0.0-15.0-0.16,91462,List1B,white,woman,,,,null,,,,,,,,,
null,"<img src=""stim_listB/greet2.gif""style=""height:400px;""></stim_listB>",,html-keyboard-response,193,1337921,0.0-15.0-1.16,91462,List1B,white,woman,,,,null,,,,,,,,,
null,is being greeted by,,html-keyboard-response,194,1339923,0.0-15.0-2.16,91462,List1B,white,woman,,,,null,,,,,,,,,
11748.6,,,survey-text,195,1351675,0.0-15.0-3.16,91462,List1B,white,woman,,,,,"{""Q0"":""fred is being greeted by kate.""}","<img src=""stim_listB/greet2.gif""style=""height:400px;""></stim_listB>",is being greeted by,,,,,,
null,"<div style=""font-size:60px;"">+</div>",,html-keyboard-response,196,1352176,0.0-15.0-0.17,91462,List1B,white,woman,,,,null,,,,,,,,,
null,"<img src=""stim_listB/hug2.gif""style=""height:400px;""></stim_listB>",,html-keyboard-response,197,1354178,0.0-15.0-1.17,91462,List1B,white,woman,,,,null,,,,,,,,,
null,is being hugged by,,html-keyboard-response,198,1356180,0.0-15.0-2.17,91462,List1B,white,woman,,,,null,,,,,,,,,
11682.4,,,survey-text,199,1367866,0.0-15.0-3.17,91462,List1B,white,woman,,,,,"{""Q0"":""kate is being hugged by mike.""}","<img src=""stim_listB/hug2.gif""style=""height:400px;""></stim_listB>",is being hugged by,,,,,,
null,"<div style=""font-size:60px;"">+</div>",,html-keyboard-response,200,1368367,0.0-15.0-0.18,91462,List1B,white,woman,,,,null,,,,,,,,,
null,"<img src=""stim_listB/kiss8.gif""style=""height:400px;""></stim_listB>",,html-keyboard-response,201,1370370,0.0-15.0-1.18,91462,List1B,white,woman,,,,null,,,,,,,,,
null,is being kissed by,,html-keyboard-response,202,1372371,0.0-15.0-2.18,91462,List1B,white,woman,,,,null,,,,,,,,,
10782.9,,,survey-text,203,1383157,0.0-15.0-3.18,91462,List1B,white,woman,,,,,"{""Q0"":""jane is being kissed by kate.""}","<img src=""stim_listB/kiss8.gif""style=""height:400px;""></stim_listB>",is being kissed by,,,,,,
null,"<div style=""font-size:60px;"">+</div>",,html-keyboard-response,204,1383658,0.0-15.0-0.19,91462,List1B,white,woman,,,,null,,,,,,,,,
null,"<img src=""stim_listB/shout5.gif""style=""height:400px;""></stim_listB>",,html-keyboard-response,205,1385661,0.0-15.0-1.19,91462,List1B,white,woman,,,,null,,,,,,,,,
null,is shouting at,,html-keyboard-response,206,1387662,0.0-15.0-2.19,91462,List1B,white,woman,,,,null,,,,,,,,,
10239.7,,,survey-text,207,1397906,0.0-15.0-3.19,91462,List1B,white,woman,,,,,"{""Q0"":""fred is shouting at luke.""}","<img src=""stim_listB/shout5.gif""style=""height:400px;""></stim_listB>",is shouting at,,,,,,
7724.2,"<img src='img/portrait_matrix_list1.jpg' style='width:900px;height:500px;''></img><p>If you have memorised all the portraits and names and are ready to start, press Continue.</p><p><strong>Please note: Your memory of these faces will be tested 4 times during this experiment.</strong></p>",0,html-button-response,208,1405631,0.0-16.0-0.0,91462,List1B,white,woman,,,,,,,,,,,,,
3250.1,"<img src=""portrait/WW2.jpg""style=""height:400px;""></img>",3,html-button-response,209,1409884,0.0-16.0-1.0,91462,List1B,white,woman,,TRUE,3,,,,,,,,,,
null,CORRECT,,html-keyboard-response,210,1411388,0.0-16.0-2.0-0.0,91462,List1B,white,woman,,,,null,,,,,,,,,
2078.8,"<img src=""portrait/BW2.jpg""style=""height:400px;""></img>",2,html-button-response,211,1413468,0.0-16.0-4.0,91462,List1B,white,woman,,TRUE,2,,,,,,,,,,
null,CORRECT,,html-keyboard-response,212,1414970,0.0-16.0-5.0-0.0,91462,List1B,white,woman,,,,null,,,,,,,,,
2435.6,"<img src=""portrait/BM2.jpg""style=""height:400px;""></img>",5,html-button-response,213,1417407,0.0-16.0-7.0,91462,List1B,white,woman,,TRUE,5,,,,,,,,,,
null,CORRECT,,html-keyboard-response,214,1418910,0.0-16.0-8.0-0.0,91462,List1B,white,woman,,,,null,,,,,,,,,
2262.3,"<img src=""portrait/WW1.jpg""style=""height:400px;""></img>",1,html-button-response,215,1421174,0.0-16.0-10.0,91462,List1B,white,woman,,TRUE,1,,,,,,,,,,
null,CORRECT,,html-keyboard-response,216,1422677,0.0-16.0-11.0-0.0,91462,List1B,white,woman,,,,null,,,,,,,,,
2630.7,"<img src=""portrait/BM1.jpg""style=""height:400px;""></img>",4,html-button-response,217,1425309,0.0-16.0-13.0,91462,List1B,white,woman,,TRUE,4,,,,,,,,,,
null,CORRECT,,html-keyboard-response,218,1426812,0.0-16.0-14.0-0.0,91462,List1B,white,woman,,,,null,,,,,,,,,
2482.3,"<img src=""portrait/WM2.jpg""style=""height:400px;""></img>",7,html-button-response,219,1429296,0.0-16.0-16.0,91462,List1B,white,woman,,TRUE,7,,,,,,,,,,
null,CORRECT,,html-keyboard-response,220,1430799,0.0-16.0-17.0-0.0,91462,List1B,white,woman,,,,null,,,,,,,,,
4629.5,"<img src=""portrait/BW1.jpg""style=""height:400px;""></img>",0,html-button-response,221,1435430,0.0-16.0-19.0,91462,List1B,white,woman,,TRUE,0,,,,,,,,,,
null,CORRECT,,html-keyboard-response,222,1436933,0.0-16.0-20.0-0.0,91462,List1B,white,woman,,,,null,,,,,,,,,
2821.8,"<img src=""portrait/WM1.jpg""style=""height:400px;""></img>",6,html-button-response,223,1439756,0.0-16.0-22.0,91462,List1B,white,woman,,TRUE,6,,,,,,,,,,
null,CORRECT,,html-keyboard-response,224,1441259,0.0-16.0-23.0-0.0,91462,List1B,white,woman,,,,null,,,,,,,,,
2149.9,<p>You got 8 out of 8 right first time. Press Continue.</p>,0,html-button-response,225,1443411,0.0-16.0-25.0,91462,List1B,white,woman,,,,,,,,,,,,,
null,"<div style=""font-size:60px;"">+</div>",,html-keyboard-response,226,1444914,0.0-17.0-0.0,91462,List1B,white,woman,,,,null,,,,,,,,,
null,"<img src=""stim_listB/touch6.gif""style=""height:400px;""></stim_listB>",,html-keyboard-response,227,1446916,0.0-17.0-1.0,91462,List1B,white,woman,,,,null,,,,,,,,,
null,is being touched by,,html-keyboard-response,228,1448917,0.0-17.0-2.0,91462,List1B,white,woman,,,,null,,,,,,,,,
11394.1,,,survey-text,229,1460314,0.0-17.0-3.0,91462,List1B,white,woman,,,,,"{""Q0"":""luke is being touched by fred.""}","<img src=""stim_listB/touch6.gif""style=""height:400px;""></stim_listB>",is being touched by,,,,,,
null,"<div style=""font-size:60px;"">+</div>",,html-keyboard-response,230,1460816,0.0-17.0-0.1,91462,List1B,white,woman,,,,null,,,,,,,,,
null,"<img src=""stim_listB/seduce1.gif""style=""height:400px;""></stim_listB>",,html-keyboard-response,231,1462818,0.0-17.0-1.1,91462,List1B,white,woman,,,,null,,,,,,,,,
null,is seducing,,html-keyboard-response,232,1464820,0.0-17.0-2.1,91462,List1B,white,woman,,,,null,,,,,,,,,
9016.6,,,survey-text,233,1473840,0.0-17.0-3.1,91462,List1B,white,woman,,,,,"{""Q0"":""kate is seducing fred.""}","<img src=""stim_listB/seduce1.gif""style=""height:400px;""></stim_listB>",is seducing,,,,,,
null,"<div style=""font-size:60px;"">+</div>",,html-keyboard-response,234,1474341,0.0-17.0-0.2,91462,List1B,white,woman,,,,null,,,,,,,,,
null,"<img src=""stim_listB/shout4.gif""style=""height:400px;""></stim_listB>",,html-keyboard-response,235,1476343,0.0-17.0-1.2,91462,List1B,white,woman,,,,null,,,,,,,,,
null,is being shouted at by,,html-keyboard-response,236,1478346,0.0-17.0-2.2,91462,List1B,white,woman,,,,null,,,,,,,,,
12301.9,,,survey-text,237,1490651,0.0-17.0-3.2,91462,List1B,white,woman,,,,,"{""Q0"":""jane is being shouted at by dave""}","<img src=""stim_listB/shout4.gif""style=""height:400px;""></stim_listB>",is being shouted at by,,,,,,
null,"<div style=""font-size:60px;"">+</div>",,html-keyboard-response,238,1491152,0.0-17.0-0.3,91462,List1B,white,woman,,,,null,,,,,,,,,
null,"<img src=""stim_listB/shout1.gif""style=""height:400px;""></stim_listB>",,html-keyboard-response,239,1493154,0.0-17.0-1.3,91462,List1B,white,woman,,,,null,,,,,,,,,
null,is shouting at,,html-keyboard-response,240,1495157,0.0-17.0-2.3,91462,List1B,white,woman,,,,null,,,,,,,,,
16567.9,,,survey-text,241,1511728,0.0-17.0-3.3,91462,List1B,white,woman,,,,,"{""Q0"":""beth is shouting at fred.""}","<img src=""stim_listB/shout1.gif""style=""height:400px;""></stim_listB>",is shouting at,,,,,,
null,"<div style=""font-size:60px;"">+</div>",,html-keyboard-response,242,1512229,0.0-17.0-0.4,91462,List1B,white,woman,,,,null,,,,,,,,,
null,"<img src=""stim_listB/shout7.gif""style=""height:400px;""></stim_listB>",,html-keyboard-response,243,1514231,0.0-17.0-1.4,91462,List1B,white,woman,,,,null,,,,,,,,,
null,is shouting at,,html-keyboard-response,244,1516233,0.0-17.0-2.4,91462,List1B,white,woman,,,,null,,,,,,,,,
12620.1,,,survey-text,245,1528856,0.0-17.0-3.4,91462,List1B,white,woman,,,,,"{""Q0"":""beth is shouting at ruth.""}","<img src=""stim_listB/shout7.gif""style=""height:400px;""></stim_listB>",is shouting at,,,,,,
null,"<div style=""font-size:60px;"">+</div>",,html-keyboard-response,246,1529357,0.0-17.0-0.5,91462,List1B,white,woman,,,,null,,,,,,,,,
null,"<img src=""stim_listB/copy2.gif""style=""height:400px;""></stim_listB>",,html-keyboard-response,247,1531361,0.0-17.0-1.5,91462,List1B,white,woman,,,,null,,,,,,,,,
null,is being copied by,,html-keyboard-response,248,1533363,0.0-17.0-2.5,91462,List1B,white,woman,,,,null,,,,,,,,,
16775.4,,,survey-text,249,1550141,0.0-17.0-3.5,91462,List1B,white,woman,,,,,"{""Q0"":""kate is being copied by fred.""}","<img src=""stim_listB/copy2.gif""style=""height:400px;""></stim_listB>",is being copied by,,,,,,
null,"<div style=""font-size:60px;"">+</div>",,html-keyboard-response,250,1550643,0.0-17.0-0.6,91462,List1B,white,woman,,,,null,,,,,,,,,
null,"<img src=""stim_listB/copy7.gif""style=""height:400px;""></stim_listB>",,html-keyboard-response,251,1552646,0.0-17.0-1.6,91462,List1B,white,woman,,,,null,,,,,,,,,
null,is copying,,html-keyboard-response,252,1554649,0.0-17.0-2.6,91462,List1B,white,woman,,,,null,,,,,,,,,
15664.6,,,survey-text,253,1570317,0.0-17.0-3.6,91462,List1B,white,woman,,,,,"{""Q0"":""kate is being copied by ruth.""}","<img src=""stim_listB/copy7.gif""style=""height:400px;""></stim_listB>",is copying,,,,,,
null,"<div style=""font-size:60px;"">+</div>",,html-keyboard-response,254,1570818,0.0-17.0-0.7,91462,List1B,white,woman,,,,null,,,,,,,,,
null,"<img src=""stim_listB/copy8.gif""style=""height:400px;""></stim_listB>",,html-keyboard-response,255,1572820,0.0-17.0-1.7,91462,List1B,white,woman,,,,null,,,,,,,,,
null,is being copied by,,html-keyboard-response,256,1574822,0.0-17.0-2.7,91462,List1B,white,woman,,,,null,,,,,,,,,
16084.1,,,survey-text,257,1590910,0.0-17.0-3.7,91462,List1B,white,woman,,,,,"{""Q0"":""kate is being copied by jane.""}","<img src=""stim_listB/copy8.gif""style=""height:400px;""></stim_listB>",is being copied by,,,,,,
null,"<div style=""font-size:60px;"">+</div>",,html-keyboard-response,258,1591412,0.0-17.0-0.8,91462,List1B,white,woman,,,,null,,,,,,,,,
null,"<img src=""stim_listB/look6.gif""style=""height:400px;""></stim_listB>",,html-keyboard-response,259,1593415,0.0-17.0-1.8,91462,List1B,white,woman,,,,null,,,,,,,,,
null,is being looked at by,,html-keyboard-response,260,1595417,0.0-17.0-2.8,91462,List1B,white,woman,,,,null,,,,,,,,,
10211.9,,,survey-text,261,1605632,0.0-17.0-3.8,91462,List1B,white,woman,,,,,"{""Q0"":""e is being looked at by dave.""}","<img src=""stim_listB/look6.gif""style=""height:400px;""></stim_listB>",is being looked at by,,,,,,
null,"<div style=""font-size:60px;"">+</div>",,html-keyboard-response,262,1606134,0.0-17.0-0.9,91462,List1B,white,woman,,,,null,,,,,,,,,
null,"<img src=""stim_listB/oppose2.gif""style=""height:400px;""></stim_listB>",,html-keyboard-response,263,1608137,0.0-17.0-1.9,91462,List1B,white,woman,,,,null,,,,,,,,,
null,is being opposed by,,html-keyboard-response,264,1610139,0.0-17.0-2.9,91462,List1B,white,woman,,,,null,,,,,,,,,
12298.4,,,survey-text,265,1622441,0.0-17.0-3.9,91462,List1B,white,woman,,,,,"{""Q0"":""beth is being opposed by fred.""}","<img src=""stim_listB/oppose2.gif""style=""height:400px;""></stim_listB>",is being opposed by,,,,,,
null,"<div style=""font-size:60px;"">+</div>",,html-keyboard-response,266,1622942,0.0-17.0-0.10,91462,List1B,white,woman,,,,null,,,,,,,,,
null,"<img src=""stim_listB/look5.gif""style=""height:400px;""></stim_listB>",,html-keyboard-response,267,1624944,0.0-17.0-1.10,91462,List1B,white,woman,,,,null,,,,,,,,,
null,is looking at,,html-keyboard-response,268,1626946,0.0-17.0-2.10,91462,List1B,white,woman,,,,null,,,,,,,,,
11117.5,,,survey-text,269,1638067,0.0-17.0-3.10,91462,List1B,white,woman,,,,,"{""Q0"":""fred is looking at luke.""}","<img src=""stim_listB/look5.gif""style=""height:400px;""></stim_listB>",is looking at,,,,,,
null,"<div style=""font-size:60px;"">+</div>",,html-keyboard-response,270,1638568,0.0-17.0-0.11,91462,List1B,white,woman,,,,null,,,,,,,,,
null,"<img src=""stim_listB/hug8.gif""style=""height:400px;""></stim_listB>",,html-keyboard-response,271,1640571,0.0-17.0-1.11,91462,List1B,white,woman,,,,null,,,,,,,,,
null,is being hugged by,,html-keyboard-response,272,1642573,0.0-17.0-2.11,91462,List1B,white,woman,,,,null,,,,,,,,,
10913.9,,,survey-text,273,1653490,0.0-17.0-3.11,91462,List1B,white,woman,,,,,"{""Q0"":""jane is being hugged by kate.""}","<img src=""stim_listB/hug8.gif""style=""height:400px;""></stim_listB>",is being hugged by,,,,,,
null,"<div style=""font-size:60px;"">+</div>",,html-keyboard-response,274,1653991,0.0-17.0-0.12,91462,List1B,white,woman,,,,null,,,,,,,,,
null,"<img src=""stim_listB/look1.gif""style=""height:400px;""></stim_listB>",,html-keyboard-response,275,1655993,0.0-17.0-1.12,91462,List1B,white,woman,,,,null,,,,,,,,,
null,is looking at,,html-keyboard-response,276,1657994,0.0-17.0-2.12,91462,List1B,white,woman,,,,null,,,,,,,,,
13879.6,,,survey-text,277,1671877,0.0-17.0-3.12,91462,List1B,white,woman,,,,,"{""Q0"":""beth is looking at fred""}","<img src=""stim_listB/look1.gif""style=""height:400px;""></stim_listB>",is looking at,,,,,,
null,"<div style=""font-size:60px;"">+</div>",,html-keyboard-response,278,1672378,0.0-17.0-0.13,91462,List1B,white,woman,,,,null,,,,,,,,,
null,"<img src=""stim_listB/challenge1.gif""style=""height:400px;""></stim_listB>",,html-keyboard-response,279,1674381,0.0-17.0-1.13,91462,List1B,white,woman,,,,null,,,,,,,,,
null,is challenging,,html-keyboard-response,280,1676383,0.0-17.0-2.13,91462,List1B,white,woman,,,,null,,,,,,,,,
11155.5,,,survey-text,281,1687542,0.0-17.0-3.13,91462,List1B,white,woman,,,,,"{""Q0"":""mike is challenging beth.""}","<img src=""stim_listB/challenge1.gif""style=""height:400px;""></stim_listB>",is challenging,,,,,,
null,"<div style=""font-size:60px;"">+</div>",,html-keyboard-response,282,1688043,0.0-17.0-0.14,91462,List1B,white,woman,,,,null,,,,,,,,,
null,"<img src=""stim_listB/greet3.gif""style=""height:400px;""></stim_listB>",,html-keyboard-response,283,1690045,0.0-17.0-1.14,91462,List1B,white,woman,,,,null,,,,,,,,,
null,is greeting,,html-keyboard-response,284,1692046,0.0-17.0-2.14,91462,List1B,white,woman,,,,null,,,,,,,,,
8840.1,,,survey-text,285,1700889,0.0-17.0-3.14,91462,List1B,white,woman,,,,,"{""Q0"":""ruth is greeting dave.""}","<img src=""stim_listB/greet3.gif""style=""height:400px;""></stim_listB>",is greeting,,,,,,
null,"<div style=""font-size:60px;"">+</div>",,html-keyboard-response,286,1701390,0.0-17.0-0.15,91462,List1B,white,woman,,,,null,,,,,,,,,
null,"<img src=""stim_listB/hug5.gif""style=""height:400px;""></stim_listB>",,html-keyboard-response,287,1703392,0.0-17.0-1.15,91462,List1B,white,woman,,,,null,,,,,,,,,
null,is hugging,,html-keyboard-response,288,1705393,0.0-17.0-2.15,91462,List1B,white,woman,,,,null,,,,,,,,,
7638.3,,,survey-text,289,1713035,0.0-17.0-3.15,91462,List1B,white,woman,,,,,"{""Q0"":"" is hugging luke.""}","<img src=""stim_listB/hug5.gif""style=""height:400px;""></stim_listB>",is hugging,,,,,,
null,"<div style=""font-size:60px;"">+</div>",,html-keyboard-response,290,1713537,0.0-17.0-0.16,91462,List1B,white,woman,,,,null,,,,,,,,,
null,"<img src=""stim_listB/oppose3.gif""style=""height:400px;""></stim_listB>",,html-keyboard-response,291,1715540,0.0-17.0-1.16,91462,List1B,white,woman,,,,null,,,,,,,,,
null,is opposing,,html-keyboard-response,292,1717541,0.0-17.0-2.16,91462,List1B,white,woman,,,,null,,,,,,,,,
8360.6,,,survey-text,293,1725905,0.0-17.0-3.16,91462,List1B,white,woman,,,,,"{""Q0"":""jane is opposing dave.""}","<img src=""stim_listB/oppose3.gif""style=""height:400px;""></stim_listB>",is opposing,,,,,,
null,"<div style=""font-size:60px;"">+</div>",,html-keyboard-response,294,1726406,0.0-17.0-0.17,91462,List1B,white,woman,,,,null,,,,,,,,,
null,"<img src=""stim_listB/greet6.gif""style=""height:400px;""></stim_listB>",,html-keyboard-response,295,1728409,0.0-17.0-1.17,91462,List1B,white,woman,,,,null,,,,,,,,,
null,is being greeted by,,html-keyboard-response,296,1730411,0.0-17.0-2.17,91462,List1B,white,woman,,,,null,,,,,,,,,
17308.9,,,survey-text,297,1747723,0.0-17.0-3.17,91462,List1B,white,woman,,,,,"{""Q0"":""dave is opposing fred.""}","<img src=""stim_listB/greet6.gif""style=""height:400px;""></stim_listB>",is being greeted by,,,,,,
null,"<div style=""font-size:60px;"">+</div>",,html-keyboard-response,298,1748224,0.0-17.0-0.18,91462,List1B,white,woman,,,,null,,,,,,,,,
null,"<img src=""stim_listB/seduce8.gif""style=""height:400px;""></stim_listB>",,html-keyboard-response,299,1750226,0.0-17.0-1.18,91462,List1B,white,woman,,,,null,,,,,,,,,
null,is being seduced by,,html-keyboard-response,300,1752242,0.0-17.0-2.18,91462,List1B,white,woman,,,,null,,,,,,,,,
13187.9,,,survey-text,301,1765433,0.0-17.0-3.18,91462,List1B,white,woman,,,,,"{""Q0"":""ruth is being seduced by kate.""}","<img src=""stim_listB/seduce8.gif""style=""height:400px;""></stim_listB>",is being seduced by,,,,,,
null,"<div style=""font-size:60px;"">+</div>",,html-keyboard-response,302,1765934,0.0-17.0-0.19,91462,List1B,white,woman,,,,null,,,,,,,,,
null,"<img src=""stim_listB/shout6.gif""style=""height:400px;""></stim_listB>",,html-keyboard-response,303,1767937,0.0-17.0-1.19,91462,List1B,white,woman,,,,null,,,,,,,,,
null,is being shouted at by,,html-keyboard-response,304,1769939,0.0-17.0-2.19,91462,List1B,white,woman,,,,null,,,,,,,,,
11774.2,,,survey-text,305,1781716,0.0-17.0-3.19,91462,List1B,white,woman,,,,,"{""Q0"":""mike is being shouted at by dave.""}","<img src=""stim_listB/shout6.gif""style=""height:400px;""></stim_listB>",is being shouted at by,,,,,,
11365.8,"<img src='img/portrait_matrix_list1.jpg' style='width:900px;height:500px;''></img><p>If you have memorised all the portraits and names and are ready to start, press Continue.</p><p><strong>Please note: Your memory of these faces will be tested 4 times during this experiment.</strong></p>",0,html-button-response,306,1793083,0.0-18.0-0.0,91462,List1B,white,woman,,,,,,,,,,,,,
3416.8,"<img src=""portrait/WM1.jpg""style=""height:400px;""></img>",6,html-button-response,307,1797503,0.0-18.0-1.0,91462,List1B,white,woman,,TRUE,6,,,,,,,,,,
null,CORRECT,,html-keyboard-response,308,1799006,0.0-18.0-2.0-0.0,91462,List1B,white,woman,,,,null,,,,,,,,,
2884.1,"<img src=""portrait/WW2.jpg""style=""height:400px;""></img>",3,html-button-response,309,1801893,0.0-18.0-4.0,91462,List1B,white,woman,,TRUE,3,,,,,,,,,,
null,CORRECT,,html-keyboard-response,310,1803395,0.0-18.0-5.0-0.0,91462,List1B,white,woman,,,,null,,,,,,,,,
2423.1,"<img src=""portrait/WM2.jpg""style=""height:400px;""></img>",7,html-button-response,311,1805820,0.0-18.0-7.0,91462,List1B,white,woman,,TRUE,7,,,,,,,,,,
null,CORRECT,,html-keyboard-response,312,1807323,0.0-18.0-8.0-0.0,91462,List1B,white,woman,,,,null,,,,,,,,,
2478.5,"<img src=""portrait/WW1.jpg""style=""height:400px;""></img>",1,html-button-response,313,1809803,0.0-18.0-10.0,91462,List1B,white,woman,,TRUE,1,,,,,,,,,,
null,CORRECT,,html-keyboard-response,314,1811305,0.0-18.0-11.0-0.0,91462,List1B,white,woman,,,,null,,,,,,,,,
2570.2,"<img src=""portrait/BW2.jpg""style=""height:400px;""></img>",2,html-button-response,315,1813879,0.0-18.0-13.0,91462,List1B,white,woman,,TRUE,2,,,,,,,,,,
null,CORRECT,,html-keyboard-response,316,1815381,0.0-18.0-14.0-0.0,91462,List1B,white,woman,,,,null,,,,,,,,,
2397.8,"<img src=""portrait/BM1.jpg""style=""height:400px;""></img>",4,html-button-response,317,1817782,0.0-18.0-16.0,91462,List1B,white,woman,,TRUE,4,,,,,,,,,,
null,CORRECT,,html-keyboard-response,318,1819290,0.0-18.0-17.0-0.0,91462,List1B,white,woman,,,,null,,,,,,,,,
2471,"<img src=""portrait/BW1.jpg""style=""height:400px;""></img>",0,html-button-response,319,1821763,0.0-18.0-19.0,91462,List1B,white,woman,,TRUE,0,,,,,,,,,,
null,CORRECT,,html-keyboard-response,320,1823266,0.0-18.0-20.0-0.0,91462,List1B,white,woman,,,,null,,,,,,,,,
2209.3,"<img src=""portrait/BM2.jpg""style=""height:400px;""></img>",5,html-button-response,321,1825478,0.0-18.0-22.0,91462,List1B,white,woman,,TRUE,5,,,,,,,,,,
null,CORRECT,,html-keyboard-response,322,1826981,0.0-18.0-23.0-0.0,91462,List1B,white,woman,,,,null,,,,,,,,,
2250.8,<p>You got 8 out of 8 right first time. Press Continue.</p>,0,html-button-response,323,1829233,0.0-18.0-25.0,91462,List1B,white,woman,,,,,,,,,,,,,
null,"<div style=""font-size:60px;"">+</div>",,html-keyboard-response,324,1830736,0.0-19.0-0.0,91462,List1B,white,woman,,,,null,,,,,,,,,
null,"<img src=""stim_listB/copy1.gif""style=""height:400px;""></stim_listB>",,html-keyboard-response,325,1832738,0.0-19.0-1.0,91462,List1B,white,woman,,,,null,,,,,,,,,
null,is copying,,html-keyboard-response,326,1834740,0.0-19.0-2.0,91462,List1B,white,woman,,,,null,,,,,,,,,
10196.3,,,survey-text,327,1844940,0.0-19.0-3.0,91462,List1B,white,woman,,,,,"{""Q0"":""beth is copying mike.""}","<img src=""stim_listB/copy1.gif""style=""height:400px;""></stim_listB>",is copying,,,,,,
null,"<div style=""font-size:60px;"">+</div>",,html-keyboard-response,328,1845441,0.0-19.0-0.1,91462,List1B,white,woman,,,,null,,,,,,,,,
null,"<img src=""stim_listB/seduce3.gif""style=""height:400px;""></stim_listB>",,html-keyboard-response,329,1847443,0.0-19.0-1.1,91462,List1B,white,woman,,,,null,,,,,,,,,
null,is seducing,,html-keyboard-response,330,1849444,0.0-19.0-2.1,91462,List1B,white,woman,,,,null,,,,,,,,,
12421.5,,,survey-text,331,1861869,0.0-19.0-3.1,91462,List1B,white,woman,,,,,"{""Q0"":""jane is seducing luke.""}","<img src=""stim_listB/seduce3.gif""style=""height:400px;""></stim_listB>",is seducing,,,,,,
null,"<div style=""font-size:60px;"">+</div>",,html-keyboard-response,332,1862370,0.0-19.0-0.2,91462,List1B,white,woman,,,,null,,,,,,,,,
null,"<img src=""stim_listB/look2.gif""style=""height:400px;""></stim_listB>",,html-keyboard-response,333,1864372,0.0-19.0-1.2,91462,List1B,white,woman,,,,null,,,,,,,,,
null,is being looked at by,,html-keyboard-response,334,1866374,0.0-19.0-2.2,91462,List1B,white,woman,,,,null,,,,,,,,,
13956.1,,,survey-text,335,1880332,0.0-19.0-3.2,91462,List1B,white,woman,,,,,"{""Q0"":""kate is being looked at by mike.""}","<img src=""stim_listB/look2.gif""style=""height:400px;""></stim_listB>",is being looked at by,,,,,,
null,"<div style=""font-size:60px;"">+</div>",,html-keyboard-response,336,1880833,0.0-19.0-0.3,91462,List1B,white,woman,,,,null,,,,,,,,,
null,"<img src=""stim_listB/hug7.gif""style=""height:400px;""></stim_listB>",,html-keyboard-response,337,1882835,0.0-19.0-1.3,91462,List1B,white,woman,,,,null,,,,,,,,,
null,is hugging,,html-keyboard-response,338,1884838,0.0-19.0-2.3,91462,List1B,white,woman,,,,null,,,,,,,,,
10031,,,survey-text,339,1894872,0.0-19.0-3.3,91462,List1B,white,woman,,,,,"{""Q0"":""ruth is hugging beth.""}","<img src=""stim_listB/hug7.gif""style=""height:400px;""></stim_listB>",is hugging,,,,,,
null,"<div style=""font-size:60px;"">+</div>",,html-keyboard-response,340,1895373,0.0-19.0-0.4,91462,List1B,white,woman,,,,null,,,,,,,,,
null,"<img src=""stim_listB/seduce4.gif""style=""height:400px;""></stim_listB>",,html-keyboard-response,341,1897376,0.0-19.0-1.4,91462,List1B,white,woman,,,,null,,,,,,,,,
null,is being seduced by,,html-keyboard-response,342,1899378,0.0-19.0-2.4,91462,List1B,white,woman,,,,null,,,,,,,,,
11701.5,,,survey-text,343,1911083,0.0-19.0-3.4,91462,List1B,white,woman,,,,,"{""Q0"":""ruth is being seduced by dave.""}","<img src=""stim_listB/seduce4.gif""style=""height:400px;""></stim_listB>",is being seduced by,,,,,,
null,"<div style=""font-size:60px;"">+</div>",,html-keyboard-response,344,1911584,0.0-19.0-0.5,91462,List1B,white,woman,,,,null,,,,,,,,,
null,"<img src=""stim_listB/seduce6.gif""style=""height:400px;""></stim_listB>",,html-keyboard-response,345,1913586,0.0-19.0-1.5,91462,List1B,white,woman,,,,null,,,,,,,,,
null,is being seduced by,,html-keyboard-response,346,1915587,0.0-19.0-2.5,91462,List1B,white,woman,,,,null,,,,,,,,,
11476.4,,,survey-text,347,1927067,0.0-19.0-3.5,91462,List1B,white,woman,,,,,"{""Q0"":""luke is being seduced by mike.""}","<img src=""stim_listB/seduce6.gif""style=""height:400px;""></stim_listB>",is being seduced by,,,,,,
null,"<div style=""font-size:60px;"">+</div>",,html-keyboard-response,348,1927568,0.0-19.0-0.6,91462,List1B,white,woman,,,,null,,,,,,,,,
null,"<img src=""stim_listB/touch2.gif""style=""height:400px;""></stim_listB>",,html-keyboard-response,349,1929570,0.0-19.0-1.6,91462,List1B,white,woman,,,,null,,,,,,,,,
null,is being touched by,,html-keyboard-response,350,1931572,0.0-19.0-2.6,91462,List1B,white,woman,,,,null,,,,,,,,,
14229.7,,,survey-text,351,1945805,0.0-19.0-3.6,91462,List1B,white,woman,,,,,"{""Q0"":""beth is being touched by fred.""}","<img src=""stim_listB/touch2.gif""style=""height:400px;""></stim_listB>",is being touched by,,,,,,
null,"<div style=""font-size:60px;"">+</div>",,html-keyboard-response,352,1946306,0.0-19.0-0.7,91462,List1B,white,woman,,,,null,,,,,,,,,
null,"<img src=""stim_listB/kiss5.gif""style=""height:400px;""></stim_listB>",,html-keyboard-response,353,1948309,0.0-19.0-1.7,91462,List1B,white,woman,,,,null,,,,,,,,,
null,is kissing,,html-keyboard-response,354,1950311,0.0-19.0-2.7,91462,List1B,white,woman,,,,null,,,,,,,,,
9082.9,,,survey-text,355,1959398,0.0-19.0-3.7,91462,List1B,white,woman,,,,,"{""Q0"":""luke is kissing fred.""}","<img src=""stim_listB/kiss5.gif""style=""height:400px;""></stim_listB>",is kissing,,,,,,
null,"<div style=""font-size:60px;"">+</div>",,html-keyboard-response,356,1959900,0.0-19.0-0.8,91462,List1B,white,woman,,,,null,,,,,,,,,
null,"<img src=""stim_listB/oppose5.gif""style=""height:400px;""></stim_listB>",,html-keyboard-response,357,1961902,0.0-19.0-1.8,91462,List1B,white,woman,,,,null,,,,,,,,,
null,is opposing,,html-keyboard-response,358,1963904,0.0-19.0-2.8,91462,List1B,white,woman,,,,null,,,,,,,,,
8642,,,survey-text,359,1972549,0.0-19.0-3.8,91462,List1B,white,woman,,,,,"{""Q0"":""mike is opposing dave.""}","<img src=""stim_listB/oppose5.gif""style=""height:400px;""></stim_listB>",is opposing,,,,,,
null,"<div style=""font-size:60px;"">+</div>",,html-keyboard-response,360,1973050,0.0-19.0-0.9,91462,List1B,white,woman,,,,null,,,,,,,,,
null,"<img src=""stim_listB/greet7.gif""style=""height:400px;""></stim_listB>",,html-keyboard-response,361,1975052,0.0-19.0-1.9,91462,List1B,white,woman,,,,null,,,,,,,,,
null,is greeting,,html-keyboard-response,362,1977054,0.0-19.0-2.9,91462,List1B,white,woman,,,,null,,,,,,,,,
10646.2,,,survey-text,363,1987704,0.0-19.0-3.9,91462,List1B,white,woman,,,,,"{""Q0"":""ruth is greeting kate.""}","<img src=""stim_listB/greet7.gif""style=""height:400px;""></stim_listB>",is greeting,,,,,,
null,"<div style=""font-size:60px;"">+</div>",,html-keyboard-response,364,1988205,0.0-19.0-0.10,91462,List1B,white,woman,,,,null,,,,,,,,,
null,"<img src=""stim_listB/challenge7.gif""style=""height:400px;""></stim_listB>",,html-keyboard-response,365,1990208,0.0-19.0-1.10,91462,List1B,white,woman,,,,null,,,,,,,,,
null,is challenging,,html-keyboard-response,366,1992209,0.0-19.0-2.10,91462,List1B,white,woman,,,,null,,,,,,,,,
11454.2,,,survey-text,367,2003667,0.0-19.0-3.10,91462,List1B,white,woman,,,,,"{""Q0"":""ruth is challenging kate.""}","<img src=""stim_listB/challenge7.gif""style=""height:400px;""></stim_listB>",is challenging,,,,,,
null,"<div style=""font-size:60px;"">+</div>",,html-keyboard-response,368,2004169,0.0-19.0-0.11,91462,List1B,white,woman,,,,null,,,,,,,,,
null,"<img src=""stim_listB/copy4.gif""style=""height:400px;""></stim_listB>",,html-keyboard-response,369,2006171,0.0-19.0-1.11,91462,List1B,white,woman,,,,null,,,,,,,,,
null,is being copied by,,html-keyboard-response,370,2008173,0.0-19.0-2.11,91462,List1B,white,woman,,,,null,,,,,,,,,
18199.9,,,survey-text,371,2026376,0.0-19.0-3.11,91462,List1B,white,woman,,,,,"{""Q0"":""ruth is being copied by mike.""}","<img src=""stim_listB/copy4.gif""style=""height:400px;""></stim_listB>",is being copied by,,,,,,
null,"<div style=""font-size:60px;"">+</div>",,html-keyboard-response,372,2026888,0.0-19.0-0.12,91462,List1B,white,woman,,,,null,,,,,,,,,
null,"<img src=""stim_listB/look3.gif""style=""height:400px;""></stim_listB>",,html-keyboard-response,373,2028890,0.0-19.0-1.12,91462,List1B,white,woman,,,,null,,,,,,,,,
null,is looking at,,html-keyboard-response,374,2030891,0.0-19.0-2.12,91462,List1B,white,woman,,,,null,,,,,,,,,
10980.3,,,survey-text,375,2041875,0.0-19.0-3.12,91462,List1B,white,woman,,,,,"{""Q0"":""ruth is looking at luke.""}","<img src=""stim_listB/look3.gif""style=""height:400px;""></stim_listB>",is looking at,,,,,,
null,"<div style=""font-size:60px;"">+</div>",,html-keyboard-response,376,2042377,0.0-19.0-0.13,91462,List1B,white,woman,,,,null,,,,,,,,,
null,"<img src=""stim_listB/greet4.gif""style=""height:400px;""></stim_listB>",,html-keyboard-response,377,2044380,0.0-19.0-1.13,91462,List1B,white,woman,,,,null,,,,,,,,,
null,is being greeted by,,html-keyboard-response,378,2046382,0.0-19.0-2.13,91462,List1B,white,woman,,,,null,,,,,,,,,
11369.9,,,survey-text,379,2057754,0.0-19.0-3.13,91462,List1B,white,woman,,,,,"{""Q0"":""jane is being greeted by luke.""}","<img src=""stim_listB/greet4.gif""style=""height:400px;""></stim_listB>",is being greeted by,,,,,,
null,"<div style=""font-size:60px;"">+</div>",,html-keyboard-response,380,2058255,0.0-19.0-0.14,91462,List1B,white,woman,,,,null,,,,,,,,,
null,"<img src=""stim_listB/copy3.gif""style=""height:400px;""></stim_listB>",,html-keyboard-response,381,2060257,0.0-19.0-1.14,91462,List1B,white,woman,,,,null,,,,,,,,,
null,is copying,,html-keyboard-response,382,2062259,0.0-19.0-2.14,91462,List1B,white,woman,,,,null,,,,,,,,,
13331.5,,,survey-text,383,2075593,0.0-19.0-3.14,91462,List1B,white,woman,,,,,"{""Q0"":""dave is copying ruth.""}","<img src=""stim_listB/copy3.gif""style=""height:400px;""></stim_listB>",is copying,,,,,,
null,"<div style=""font-size:60px;"">+</div>",,html-keyboard-response,384,2076094,0.0-19.0-0.15,91462,List1B,white,woman,,,,null,,,,,,,,,
null,"<img src=""stim_listB/kiss4.gif""style=""height:400px;""></stim_listB>",,html-keyboard-response,385,2078097,0.0-19.0-1.15,91462,List1B,white,woman,,,,null,,,,,,,,,
null,is being kissed by,,html-keyboard-response,386,2080098,0.0-19.0-2.15,91462,List1B,white,woman,,,,null,,,,,,,,,
11955.9,,,survey-text,387,2092057,0.0-19.0-3.15,91462,List1B,white,woman,,,,,"{""Q0"":""jane is being kissed by dave.""}","<img src=""stim_listB/kiss4.gif""style=""height:400px;""></stim_listB>",is being kissed by,,,,,,
null,"<div style=""font-size:60px;"">+</div>",,html-keyboard-response,388,2092559,0.0-19.0-0.16,91462,List1B,white,woman,,,,null,,,,,,,,,
null,"<img src=""stim_listB/copy5.gif""style=""height:400px;""></stim_listB>",,html-keyboard-response,389,2094561,0.0-19.0-1.16,91462,List1B,white,woman,,,,null,,,,,,,,,
null,is copying,,html-keyboard-response,390,2096563,0.0-19.0-2.16,91462,List1B,white,woman,,,,null,,,,,,,,,
8898.4,,,survey-text,391,2105467,0.0-19.0-3.16,91462,List1B,white,woman,,,,,"{""Q0"":""mike is copying luke.""}","<img src=""stim_listB/copy5.gif""style=""height:400px;""></stim_listB>",is copying,,,,,,
null,"<div style=""font-size:60px;"">+</div>",,html-keyboard-response,392,2105968,0.0-19.0-0.17,91462,List1B,white,woman,,,,null,,,,,,,,,
null,"<img src=""stim_listB/oppose4.gif""style=""height:400px;""></stim_listB>",,html-keyboard-response,393,2107970,0.0-19.0-1.17,91462,List1B,white,woman,,,,null,,,,,,,,,
null,is being opposed by,,html-keyboard-response,394,2109972,0.0-19.0-2.17,91462,List1B,white,woman,,,,null,,,,,,,,,
13093.2,,,survey-text,395,2123069,0.0-19.0-3.17,91462,List1B,white,woman,,,,,"{""Q0"":""ruth is being opposed by luke.""}","<img src=""stim_listB/oppose4.gif""style=""height:400px;""></stim_listB>",is being opposed by,,,,,,
null,"<div style=""font-size:60px;"">+</div>",,html-keyboard-response,396,2123584,0.0-19.0-0.18,91462,List1B,white,woman,,,,null,,,,,,,,,
null,"<img src=""stim_listB/challenge3.gif""style=""height:400px;""></stim_listB>",,html-keyboard-response,397,2125587,0.0-19.0-1.18,91462,List1B,white,woman,,,,null,,,,,,,,,
null,is challenging,,html-keyboard-response,398,2127589,0.0-19.0-2.18,91462,List1B,white,woman,,,,null,,,,,,,,,
15902.1,,,survey-text,399,2143494,0.0-19.0-3.18,91462,List1B,white,woman,,,,,"{""Q0"":""ruth is challenging dave.""}","<img src=""stim_listB/challenge3.gif""style=""height:400px;""></stim_listB>",is challenging,,,,,,
null,"<div style=""font-size:60px;"">+</div>",,html-keyboard-response,400,2143996,0.0-19.0-0.19,91462,List1B,white,woman,,,,null,,,,,,,,,
null,"<img src=""stim_listB/touch3.gif""style=""height:400px;""></stim_listB>",,html-keyboard-response,401,2145999,0.0-19.0-1.19,91462,List1B,white,woman,,,,null,,,,,,,,,
null,is touching,,html-keyboard-response,402,2148001,0.0-19.0-2.19,91462,List1B,white,woman,,,,null,,,,,,,,,
11315.1,,,survey-text,403,2159319,0.0-19.0-3.19,91462,List1B,white,woman,,,,,"{""Q0"":""jane is touching dave.""}","<img src=""stim_listB/touch3.gif""style=""height:400px;""></stim_listB>",is touching,,,,,,
3100.1,<p>Thank you for completing that task.</p><p>The final part of this session is a questionnaire that will take about 4 minutes.</p><p>Press Continue.</p>,0,html-button-response,404,2162421,0.0-20.0,91462,List1B,white,woman,,,,,,,,,,,,,
53461.3,,,survey-text,405,2216890,0.0-21.0,91462,List1B,white,woman,,,,,"{""Q0"":""43"",""Q1"":""English"",""Q2"":""English"",""Q3"":""United States"",""Q4"":""american"",""Q5"":""white"",""Q6"":""female""}",,,demographics,,,,,
2465.9,<p>Have you lived in the USA for the last 5 years or more?</p>,0,html-button-response,406,2219358,0.0-22.0,91462,List1B,white,woman,,,,,,,,fiveyears,,,,,
3289.9,<p>Move the slider to show the extent to which you agree with the following statements.</p>,0,html-button-response,407,2223651,0.0-23.0,91462,List1B,white,woman,,,,,,,,,,,,,
7368.8,,,html-slider-response,408,2232023,0.0-24.0-0.0-0.0,91462,List1B,white,woman,,,,,,,,survey_gender,100,,,I think that my gender has a lot to be proud of.,proud
5532.6,,,html-slider-response,409,2237558,0.0-24.0-0.0-0.1,91462,List1B,white,woman,,,,,,,,survey_gender,37,,,Most of the friends in my life are very similar to me.,filler
4751.4,,,html-slider-response,410,2242312,0.0-24.0-0.0-0.2,91462,List1B,white,woman,,,,,,,,survey_gender,14,,,My friends have a lot in common with each other.,filler
11878.1,,,html-slider-response,411,2254192,0.0-24.0-0.0-0.3,91462,List1B,white,woman,,,,,,,,survey_gender,100,,,I feel a bond with my friends.,filler
5751.9,,,html-slider-response,412,2259946,0.0-24.0-0.0-0.4,91462,List1B,white,woman,,,,,,,,survey_gender,100,,,I would say I am an animal person.,filler
4950.8,,,html-slider-response,413,2264900,0.0-24.0-0.0-0.5,91462,List1B,white,woman,,,,,,,,survey_gender,3,,,Routine is not important to me.,filler
6162.9,,,html-slider-response,414,2271065,0.0-24.0-0.0-0.6,91462,List1B,white,woman,,,,,,,,survey_gender,77,,,I often think about the fact that I am my gender.,often
4737.8,,,html-slider-response,415,2275805,0.0-24.0-0.0-0.7,91462,List1B,white,woman,,,,,,,,survey_gender,30,,,I am similar to the average person of my gender.,similar
5069.1,,,html-slider-response,416,2280876,0.0-24.0-0.0-0.8,91462,List1B,white,woman,,,,,,,,survey_gender,100,,,I consider myself a highly empathetic person.,filler
12512.4,,,html-slider-response,417,2293390,0.0-24.0-0.0-0.9,91462,List1B,white,woman,,,,,,,,survey_gender,51,,,Family is not more important to me than friendship.,filler
6460.8,,,html-slider-response,418,2299854,0.0-24.0-0.0-0.10,91462,List1B,white,woman,,,,,,,,survey_gender,99,,,It is not always easy for people to know what I am thinking.,filler
3752.2,,,html-slider-response,419,2303609,0.0-24.0-0.0-0.11,91462,List1B,white,woman,,,,,,,,survey_gender,100,,,I often think about my actions.,filler
13669,,,html-slider-response,420,2317280,0.0-24.0-0.0-0.12,91462,List1B,white,woman,,,,,,,,survey_gender,49,,,I feel committed to my gender.,committed
8730.5,,,html-slider-response,421,2326013,0.0-24.0-0.0-0.13,91462,List1B,white,woman,,,,,,,,survey_gender,11,,,People of my gender are very similar to each other.,verysimilar
5787.7,,,html-slider-response,422,2331803,0.0-24.0-0.0-0.14,91462,List1B,white,woman,,,,,,,,survey_gender,89,,,Being around my friends gives me a good feeling.,filler
5847.5,,,html-slider-response,423,2337652,0.0-24.0-0.0-0.15,91462,List1B,white,woman,,,,,,,,survey_gender,68,,,Being my gender gives me a good feeling.,feeling
7508.5,,,html-slider-response,424,2345162,0.0-24.0-0.0-0.16,91462,List1B,white,woman,,,,,,,,survey_gender,100,,,Being my gender is an important part of how I see myself.,important
9477.9,,,html-slider-response,425,2354643,0.0-24.0-0.0-0.17,91462,List1B,white,woman,,,,,,,,survey_gender,90,,,I feel solidarity with my gender.,solidarity
5628.5,,,html-slider-response,426,2360273,0.0-24.0-0.0-0.18,91462,List1B,white,woman,,,,,,,,survey_gender,40,,,It is pleasant to be my gender.,pleasant
7473.4,,,html-slider-response,427,2367749,0.0-24.0-0.0-0.19,91462,List1B,white,woman,,,,,,,,survey_gender,100,,,The fact that I am my gender is an important part of my identity.,identity
4648.2,,,html-slider-response,428,2372399,0.0-24.0-0.0-0.20,91462,List1B,white,woman,,,,,,,,survey_gender,87,,,I feel solidarity with my friends.,filler
8969.1,,,html-slider-response,429,2381371,0.0-24.0-0.0-0.21,91462,List1B,white,woman,,,,,,,,survey_gender,8,,,People of my gender have a lot in common with each other.,common
6624.5,,,html-slider-response,430,2387998,0.0-24.0-0.0-0.22,91462,List1B,white,woman,,,,,,,,survey_gender,51,,,I feel a bond with my gender.,bond
5725.6,,,html-slider-response,431,2393726,0.0-24.0-0.0-0.23,91462,List1B,white,woman,,,,,,,,survey_gender,100,,,I am glad to be my gender.,glad
5515.3,,,html-slider-response,432,2399243,0.0-24.0-0.0-0.24,91462,List1B,white,woman,,,,,,,,survey_gender,22,,,I have a lot in common with my friends.,filler
7451.1,,,html-slider-response,433,2406696,0.0-24.0-0.0-0.25,91462,List1B,white,woman,,,,,,,,survey_gender,87,,,My friends understand me.,filler
4714.6,,,html-slider-response,434,2411412,0.0-24.0-0.0-0.26,91462,List1B,white,woman,,,,,,,,survey_gender,18,,,I have a lot in common with the average person of my gender.,average
4961.1,,,html-slider-response,435,2416376,0.0-24.0-0.0-0.27,91462,List1B,white,woman,,,,,,,,survey_gender,100,,,I am glad to have the friends that I have.,filler
4330.3,,,html-slider-response,436,2420708,0.0-24.0-1.0-0.0,91462,List1B,white,woman,,,,,,,,survey_race,30,,,I consider myself an extrovert.,filler
4990.7,,,html-slider-response,437,2425701,0.0-24.0-1.0-0.1,91462,List1B,white,woman,,,,,,,,survey_race,40,,,I feel a bond with people the same age as me.,filler
4468,,,html-slider-response,438,2430171,0.0-24.0-1.0-0.2,91462,List1B,white,woman,,,,,,,,survey_race,75,,,I often think about the fact that I am my age.,filler
6160.9,,,html-slider-response,439,2436334,0.0-24.0-1.0-0.3,91462,List1B,white,woman,,,,,,,,survey_race,33,,,I think that my race has a lot to be proud of.,proud
4383.9,,,html-slider-response,440,2440721,0.0-24.0-1.0-0.4,91462,List1B,white,woman,,,,,,,,survey_race,37,,,I feel a bond with my race.,bond
4243,,,html-slider-response,441,2444966,0.0-24.0-1.0-0.5,91462,List1B,white,woman,,,,,,,,survey_race,80,,,I am glad to be the age I am.,filler
5796.5,,,html-slider-response,442,2450765,0.0-24.0-1.0-0.6,91462,List1B,white,woman,,,,,,,,survey_race,7,,,I have a lot in common with people of a similar age to me.,filler
9407.8,,,html-slider-response,443,2460175,0.0-24.0-1.0-0.7,91462,List1B,white,woman,,,,,,,,survey_race,0,,,I feel solidarity with my race.,solidarity
5359.8,,,html-slider-response,444,2465537,0.0-24.0-1.0-0.8,91462,List1B,white,woman,,,,,,,,survey_race,14,,,People of my race are very similar to each other.,verysimilar
4438.5,,,html-slider-response,445,2469977,0.0-24.0-1.0-0.9,91462,List1B,white,woman,,,,,,,,survey_race,0,,,I enjoy being in large groups.,filler
5402.2,,,html-slider-response,446,2475382,0.0-24.0-1.0-0.10,91462,List1B,white,woman,,,,,,,,survey_race,40,,,"The older I get, the wiser I feel.",filler
8627.5,,,html-slider-response,447,2484011,0.0-24.0-1.0-0.11,91462,List1B,white,woman,,,,,,,,survey_race,0,,,The fact that I am my race is an important part of my identity.,identity
8972.9,,,html-slider-response,448,2492986,0.0-24.0-1.0-0.12,91462,List1B,white,woman,,,,,,,,survey_race,8,,,People of my race have a lot in common with each other.,common
7964.1,,,html-slider-response,449,2500953,0.0-24.0-1.0-0.13,91462,List1B,white,woman,,,,,,,,survey_race,0,,,Being my race is an important part of how I see myself.,important
4840.5,,,html-slider-response,450,2505796,0.0-24.0-1.0-0.14,91462,List1B,white,woman,,,,,,,,survey_race,36,,,I am glad to be my age.,filler
8617.4,,,html-slider-response,451,2514416,0.0-24.0-1.0-0.15,91462,List1B,white,woman,,,,,,,,survey_race,49,,,I am glad to be my race.,glad
5599.3,,,html-slider-response,452,2520018,0.0-24.0-1.0-0.16,91462,List1B,white,woman,,,,,,,,survey_race,0,,,I feel committed to my race.,committed
5926.6,,,html-slider-response,453,2525946,0.0-24.0-1.0-0.17,91462,List1B,white,woman,,,,,,,,survey_race,35,,,Being my race gives me a good feeling.,feeling
5635.7,,,html-slider-response,454,2531584,0.0-24.0-1.0-0.18,91462,List1B,white,woman,,,,,,,,survey_race,11,,,I have a lot in common with the average person of my race.,average
5523,,,html-slider-response,455,2537109,0.0-24.0-1.0-0.19,91462,List1B,white,woman,,,,,,,,survey_race,7,,,I am similar to the average person of my race.,similar
6455.7,,,html-slider-response,456,2543567,0.0-24.0-1.0-0.20,91462,List1B,white,woman,,,,,,,,survey_race,35,,,I feel solidarity with people the same age as me.,filler
4267.1,,,html-slider-response,457,2547836,0.0-24.0-1.0-0.21,91462,List1B,white,woman,,,,,,,,survey_race,5,,,Getting older does not worry me.,filler
9954.5,,,html-slider-response,458,2557793,0.0-24.0-1.0-0.22,91462,List1B,white,woman,,,,,,,,survey_race,0,,,I often think about the fact that I am my race.,often
5863.5,,,html-slider-response,459,2563658,0.0-24.0-1.0-0.23,91462,List1B,white,woman,,,,,,,,survey_race,62,,,Being my age gives me a good feeling.,filler
11639.5,,,html-slider-response,460,2575300,0.0-24.0-1.0-0.24,91462,List1B,white,woman,,,,,,,,survey_race,29,,,It is pleasant to be my race.,pleasant
4974.5,,,html-slider-response,461,2580278,0.0-24.0-1.0-0.25,91462,List1B,white,woman,,,,,,,,survey_race,92,,,I consider myself an introvert.,filler
6552.8,,,html-slider-response,462,2586833,0.0-24.0-1.0-0.26,91462,List1B,white,woman,,,,,,,,survey_race,30,,,People my age have a lot in common with each other.,filler
4665.2,,,html-slider-response,463,2591500,0.0-24.0-1.0-0.27,91462,List1B,white,woman,,,,,,,,survey_race,16,,,My age is not an important part of who I am.,filler
10242.6,,,survey-text,464,2601747,0.0-25.0,91462,List1B,white,woman,,,,,"{""Q0"":""ccc""}",,,worker_id,,,,,
13565,,,external-html,465,2615548,0.0-26.0,91462,List1B,white,woman,debrief.html,,,,,,,,,,,,
