"rt","stimulus","button_pressed","trial_type","trial_index","time_elapsed","internal_node_id","subject","list","ppt_race","ppt_gender","url","first_guess","correct","key_press","responses","image_type","phrase_type","test_part","response","stimulus1","stimulus2","question_type","survey_item"
"21813","Welcome to the experiment. Press Continue to begin.","0","html-button-response","0","21823","0.0-0.0","92204","List2B","black","woman","","","","","","","","","","","","",""
"41898.39999985695","","","external-html","1","64961","0.0-1.0","92204","List2B","black","woman","consent.html","","","","","","","","","","","",""
"9129.700000047684","<p>On the next page, you will see portraits of 8 people and their names.</p><p>Your first task is to take a few minutes to memorise the names of these people.</p><p>You will have to recall their names during the rest of the experiment, so it is</p><p>essential that you try to memorise these people and their names as best as you can.</p><br><p><strong>You will then be tested on your memory of these names and portraits.</strong></p><br><p>The experiment will start after you have completed this memory test.</p><br><p>Ready?</p>","0","html-button-response","2","74092","0.0-2.0","92204","List2B","black","woman","","","","","","","","","","","","",""
"65372","<img src='img/portrait_matrix_list2.jpg' style='width:900px;height:500px;''></img><p>If you have memorised all the portraits and names and are ready to start, press Continue.</p><p><strong>Please note: Your memory of these faces will be tested 4 times during this experiment.</strong></p>","0","html-button-response","3","140483","0.0-3.0-0.0","92204","List2B","black","woman","","","","","","","","","","","","",""
"4036.7999999523163","<img src=""portrait/WW2.jpg""style=""height:400px;""></img>","3","html-button-response","4","145537","0.0-3.0-1.0","92204","List2B","black","woman","","true","3","","","","","","","","","",""
"null","CORRECT","","html-keyboard-response","5","147062","0.0-3.0-2.0-0.0","92204","List2B","black","woman","","","","null","","","","","","","","",""
"4425.700000047684","<img src=""portrait/BM2.jpg""style=""height:400px;""></img>","5","html-button-response","6","151490","0.0-3.0-4.0","92204","List2B","black","woman","","true","5","","","","","","","","","",""
"null","CORRECT","","html-keyboard-response","7","153006","0.0-3.0-5.0-0.0","92204","List2B","black","woman","","","","null","","","","","","","","",""
"4711.299999952316","<img src=""portrait/BW1.jpg""style=""height:400px;""></img>","0","html-button-response","8","157718","0.0-3.0-7.0","92204","List2B","black","woman","","true","0","","","","","","","","","",""
"null","CORRECT","","html-keyboard-response","9","159230","0.0-3.0-8.0-0.0","92204","List2B","black","woman","","","","null","","","","","","","","",""
"4194.299999952316","<img src=""portrait/WM2.jpg""style=""height:400px;""></img>","7","html-button-response","10","163426","0.0-3.0-10.0","92204","List2B","black","woman","","true","7","","","","","","","","","",""
"null","CORRECT","","html-keyboard-response","11","164932","0.0-3.0-11.0-0.0","92204","List2B","black","woman","","","","null","","","","","","","","",""
"2702","<img src=""portrait/BW2.jpg""style=""height:400px;""></img>","2","html-button-response","12","167636","0.0-3.0-13.0","92204","List2B","black","woman","","true","2","","","","","","","","","",""
"null","CORRECT","","html-keyboard-response","13","169152","0.0-3.0-14.0-0.0","92204","List2B","black","woman","","","","null","","","","","","","","",""
"3047.7000000476837","<img src=""portrait/WM1.jpg""style=""height:400px;""></img>","6","html-button-response","14","172201","0.0-3.0-16.0","92204","List2B","black","woman","","true","6","","","","","","","","","",""
"null","CORRECT","","html-keyboard-response","15","173729","0.0-3.0-17.0-0.0","92204","List2B","black","woman","","","","null","","","","","","","","",""
"3684","<img src=""portrait/WW1.jpg""style=""height:400px;""></img>","1","html-button-response","16","177415","0.0-3.0-19.0","92204","List2B","black","woman","","true","1","","","","","","","","","",""
"null","CORRECT","","html-keyboard-response","17","178948","0.0-3.0-20.0-0.0","92204","List2B","black","woman","","","","null","","","","","","","","",""
"2371.0999999046326","<img src=""portrait/BM1.jpg""style=""height:400px;""></img>","4","html-button-response","18","181321","0.0-3.0-22.0","92204","List2B","black","woman","","true","4","","","","","","","","","",""
"null","CORRECT","","html-keyboard-response","19","182838","0.0-3.0-23.0-0.0","92204","List2B","black","woman","","","","null","","","","","","","","",""
"1729.7999999523163","<p>You got 8 out of 8 right first time. Press Continue.</p>","0","html-button-response","20","184570","0.0-3.0-25.0","92204","List2B","black","woman","","","","","","","","","","","","",""
"21159.10000014305","<p>In this experiment, you will view photographs of the people from the memory game interacting.</p><p>By using the <strong>exact</strong> phrase given <i>after</i> the photograph appears and recalling the correct names of the people in the photographs, form a sentence describing the interaction. You do not need to capitalise names.</p><p>Type your answer in the space provided. Please complete every sentence before moving onto the next trial.</p><p>You will only have a few seconds to memorise each given photograph and phrase before you can respond, so try your best to focus.</p><p>An example is given below. Press 'Continue' when you are ready.</p><img src='img/speaking_example.jpg' style='width:800px;height:460px;''></img>","0","html-button-response","21","206742","0.0-4.0","92204","List2B","black","woman","","","","","","","","","","","","",""
"1630.6999998092651","<p>Before the experiment starts, you will watch two example trials. Press 'Continue'.</p>","0","html-button-response","22","209379","0.0-5.0","92204","List2B","black","woman","","","","","","","","","","","","",""
"null","<img src='img/play_eg.gif' style='height:400px;''></img>","","html-keyboard-response","23","212403","0.0-6.0","92204","List2B","black","woman","","","","null","","","","","","","","",""
"null","<p>is playing with</p>","","html-keyboard-response","24","214410","0.0-7.0","92204","List2B","black","woman","","","","null","","","","","","","","",""
"4521.599999904633","<p><b>Answer:</b> jane is playing with ruth</p>","0","html-button-response","25","218933","0.0-8.0","92204","List2B","black","woman","","","","","","","","","","","","",""
"null","<img src='img/dance_eg.gif' style='height:400px;''></img>","","html-keyboard-response","26","221946","0.0-9.0","92204","List2B","black","woman","","","","null","","","","","","","","",""
"null","<p>is being entertained by</p>","","html-keyboard-response","27","223954","0.0-10.0","92204","List2B","black","woman","","","","null","","","","","","","","",""
"1682.2000000476837","<p><b>Answer:</b> fred is being entertained by mike</p>","0","html-button-response","28","225637","0.0-11.0","92204","List2B","black","woman","","","","","","","","","","","","",""
"5609.799999952316","<p>Ready to start the experiment?</p><br><p><strong>Remember to describe the picture using a full sentence,</strong></p><p><strong>that combines the names of the people with the <i>exact</i> phrase given.</strong></p><p><strong>To receive full payment you must do this correctly.</strong></p><p><strong> You do not need to capitalise names or use punctuation.</strong></p><br><p>Press 'Continue' to begin.</p>","0","html-button-response","29","232261","0.0-12.0","92204","List2B","black","woman","","","","","","","","","","","","",""
"null","<div style=""font-size:60px;"">+</div>","","html-keyboard-response","30","233771","0.0-13.0-0.0","92204","List2B","black","woman","","","","null","","","","","","","","",""
"null","<img src=""stim_listB/hug7.gif""style=""height:400px;""></stim_listB>","","html-keyboard-response","31","235778","0.0-13.0-1.0","92204","List2B","black","woman","","","","null","","","","","","","","",""
"null","is hugging","","html-keyboard-response","32","237781","0.0-13.0-2.0","92204","List2B","black","woman","","","","null","","","","","","","","",""
"13475.299999952316","","","survey-text","33","251264","0.0-13.0-3.0","92204","List2B","black","woman","","","","","{""Q0"":""Beth is hugging ruth""}","<img src=""stim_listB/hug7.gif""style=""height:400px;""></stim_listB>","is hugging","","","","","",""
"null","<div style=""font-size:60px;"">+</div>","","html-keyboard-response","34","251780","0.0-13.0-0.1","92204","List2B","black","woman","","","","null","","","","","","","","",""
"null","<img src=""stim_listB/hug3.gif""style=""height:400px;""></stim_listB>","","html-keyboard-response","35","253789","0.0-13.0-1.1","92204","List2B","black","woman","","","","null","","","","","","","","",""
"null","is hugging","","html-keyboard-response","36","255794","0.0-13.0-2.1","92204","List2B","black","woman","","","","null","","","","","","","","",""
"8194.5","","","survey-text","37","263992","0.0-13.0-3.1","92204","List2B","black","woman","","","","","{""Q0"":""Beth is hugging fred""}","<img src=""stim_listB/hug3.gif""style=""height:400px;""></stim_listB>","is hugging","","","","","",""
"null","<div style=""font-size:60px;"">+</div>","","html-keyboard-response","38","264497","0.0-13.0-0.2","92204","List2B","black","woman","","","","null","","","","","","","","",""
"null","<img src=""stim_listB/hug8.gif""style=""height:400px;""></stim_listB>","","html-keyboard-response","39","266503","0.0-13.0-1.2","92204","List2B","black","woman","","","","null","","","","","","","","",""
"null","is being hugged by","","html-keyboard-response","40","268514","0.0-13.0-2.2","92204","List2B","black","woman","","","","null","","","","","","","","",""
"11992.899999856949","","","survey-text","41","280510","0.0-13.0-3.2","92204","List2B","black","woman","","","","","{""Q0"":""Jane is being hugged by kate""}","<img src=""stim_listB/hug8.gif""style=""height:400px;""></stim_listB>","is being hugged by","","","","","",""
"null","<div style=""font-size:60px;"">+</div>","","html-keyboard-response","42","281019","0.0-13.0-0.3","92204","List2B","black","woman","","","","null","","","","","","","","",""
"null","<img src=""stim_listB/look4.gif""style=""height:400px;""></stim_listB>","","html-keyboard-response","43","283028","0.0-13.0-1.3","92204","List2B","black","woman","","","","null","","","","","","","","",""
"null","is being looked at by","","html-keyboard-response","44","285033","0.0-13.0-2.3","92204","List2B","black","woman","","","","null","","","","","","","","",""
"14642","","","survey-text","45","299677","0.0-13.0-3.3","92204","List2B","black","woman","","","","","{""Q0"":""Kate is being looked at by Mike""}","<img src=""stim_listB/look4.gif""style=""height:400px;""></stim_listB>","is being looked at by","","","","","",""
"null","<div style=""font-size:60px;"">+</div>","","html-keyboard-response","46","300189","0.0-13.0-0.4","92204","List2B","black","woman","","","","null","","","","","","","","",""
"null","<img src=""stim_listB/touch2.gif""style=""height:400px;""></stim_listB>","","html-keyboard-response","47","302199","0.0-13.0-1.4","92204","List2B","black","woman","","","","null","","","","","","","","",""
"null","is being touched by","","html-keyboard-response","48","304207","0.0-13.0-2.4","92204","List2B","black","woman","","","","null","","","","","","","","",""
"13697","","","survey-text","49","317906","0.0-13.0-3.4","92204","List2B","black","woman","","","","","{""Q0"":""Luke is being touched by Ruth""}","<img src=""stim_listB/touch2.gif""style=""height:400px;""></stim_listB>","is being touched by","","","","","",""
"null","<div style=""font-size:60px;"">+</div>","","html-keyboard-response","50","318408","0.0-13.0-0.5","92204","List2B","black","woman","","","","null","","","","","","","","",""
"null","<img src=""stim_listB/kiss8.gif""style=""height:400px;""></stim_listB>","","html-keyboard-response","51","320414","0.0-13.0-1.5","92204","List2B","black","woman","","","","null","","","","","","","","",""
"null","is being kissed by","","html-keyboard-response","52","322422","0.0-13.0-2.5","92204","List2B","black","woman","","","","null","","","","","","","","",""
"13468.299999952316","","","survey-text","53","335892","0.0-13.0-3.5","92204","List2B","black","woman","","","","","{""Q0"":""Kate is being kissed by Jane""}","<img src=""stim_listB/kiss8.gif""style=""height:400px;""></stim_listB>","is being kissed by","","","","","",""
"null","<div style=""font-size:60px;"">+</div>","","html-keyboard-response","54","336399","0.0-13.0-0.6","92204","List2B","black","woman","","","","null","","","","","","","","",""
"null","<img src=""stim_listB/oppose8.gif""style=""height:400px;""></stim_listB>","","html-keyboard-response","55","338412","0.0-13.0-1.6","92204","List2B","black","woman","","","","null","","","","","","","","",""
"null","is being opposed by","","html-keyboard-response","56","340419","0.0-13.0-2.6","92204","List2B","black","woman","","","","null","","","","","","","","",""
"11794.299999952316","","","survey-text","57","352216","0.0-13.0-3.6","92204","List2B","black","woman","","","","","{""Q0"":""Beth is being opposed by Ruth""}","<img src=""stim_listB/oppose8.gif""style=""height:400px;""></stim_listB>","is being opposed by","","","","","",""
"null","<div style=""font-size:60px;"">+</div>","","html-keyboard-response","58","352723","0.0-13.0-0.7","92204","List2B","black","woman","","","","null","","","","","","","","",""
"null","<img src=""stim_listB/oppose4.gif""style=""height:400px;""></stim_listB>","","html-keyboard-response","59","354730","0.0-13.0-1.7","92204","List2B","black","woman","","","","null","","","","","","","","",""
"null","is being opposed by","","html-keyboard-response","60","356731","0.0-13.0-2.7","92204","List2B","black","woman","","","","null","","","","","","","","",""
"12791.5","","","survey-text","61","369526","0.0-13.0-3.7","92204","List2B","black","woman","","","","","{""Q0"":""Fred is being opposed by Beth""}","<img src=""stim_listB/oppose4.gif""style=""height:400px;""></stim_listB>","is being opposed by","","","","","",""
"null","<div style=""font-size:60px;"">+</div>","","html-keyboard-response","62","370030","0.0-13.0-0.8","92204","List2B","black","woman","","","","null","","","","","","","","",""
"null","<img src=""stim_listB/shout4.gif""style=""height:400px;""></stim_listB>","","html-keyboard-response","63","372039","0.0-13.0-1.8","92204","List2B","black","woman","","","","null","","","","","","","","",""
"null","is being shouted at by","","html-keyboard-response","64","374062","0.0-13.0-2.8","92204","List2B","black","woman","","","","null","","","","","","","","",""
"11965.900000095367","","","survey-text","65","386030","0.0-13.0-3.8","92204","List2B","black","woman","","","","","{""Q0"":""KATE is being shouted at by Mike""}","<img src=""stim_listB/shout4.gif""style=""height:400px;""></stim_listB>","is being shouted at by","","","","","",""
"null","<div style=""font-size:60px;"">+</div>","","html-keyboard-response","66","386537","0.0-13.0-0.9","92204","List2B","black","woman","","","","null","","","","","","","","",""
"null","<img src=""stim_listB/greet5.gif""style=""height:400px;""></stim_listB>","","html-keyboard-response","67","388545","0.0-13.0-1.9","92204","List2B","black","woman","","","","null","","","","","","","","",""
"null","is greeting","","html-keyboard-response","68","390563","0.0-13.0-2.9","92204","List2B","black","woman","","","","null","","","","","","","","",""
"8274.699999809265","","","survey-text","69","398841","0.0-13.0-3.9","92204","List2B","black","woman","","","","","{""Q0"":""Fred is greeting Dave""}","<img src=""stim_listB/greet5.gif""style=""height:400px;""></stim_listB>","is greeting","","","","","",""
"null","<div style=""font-size:60px;"">+</div>","","html-keyboard-response","70","399344","0.0-13.0-0.10","92204","List2B","black","woman","","","","null","","","","","","","","",""
"null","<img src=""stim_listB/hug2.gif""style=""height:400px;""></stim_listB>","","html-keyboard-response","71","401351","0.0-13.0-1.10","92204","List2B","black","woman","","","","null","","","","","","","","",""
"null","is being hugged by","","html-keyboard-response","72","403365","0.0-13.0-2.10","92204","List2B","black","woman","","","","null","","","","","","","","",""
"8561.400000095367","","","survey-text","73","411928","0.0-13.0-3.10","92204","List2B","black","woman","","","","","{""Q0"":""JANE IS BEING HUGGED BY DAVE""}","<img src=""stim_listB/hug2.gif""style=""height:400px;""></stim_listB>","is being hugged by","","","","","",""
"null","<div style=""font-size:60px;"">+</div>","","html-keyboard-response","74","412435","0.0-13.0-0.11","92204","List2B","black","woman","","","","null","","","","","","","","",""
"null","<img src=""stim_listB/copy3.gif""style=""height:400px;""></stim_listB>","","html-keyboard-response","75","414443","0.0-13.0-1.11","92204","List2B","black","woman","","","","null","","","","","","","","",""
"null","is copying","","html-keyboard-response","76","416444","0.0-13.0-2.11","92204","List2B","black","woman","","","","null","","","","","","","","",""
"10363.700000047684","","","survey-text","77","426810","0.0-13.0-3.11","92204","List2B","black","woman","","","","","{""Q0"":""Beth is copying Mike""}","<img src=""stim_listB/copy3.gif""style=""height:400px;""></stim_listB>","is copying","","","","","",""
"null","<div style=""font-size:60px;"">+</div>","","html-keyboard-response","78","427314","0.0-13.0-0.12","92204","List2B","black","woman","","","","null","","","","","","","","",""
"null","<img src=""stim_listB/shout3.gif""style=""height:400px;""></stim_listB>","","html-keyboard-response","79","429320","0.0-13.0-1.12","92204","List2B","black","woman","","","","null","","","","","","","","",""
"null","is shouting at","","html-keyboard-response","80","431329","0.0-13.0-2.12","92204","List2B","black","woman","","","","null","","","","","","","","",""
"9010.200000047684","","","survey-text","81","440342","0.0-13.0-3.12","92204","List2B","black","woman","","","","","{""Q0"":""Fred is shouting at Beth""}","<img src=""stim_listB/shout3.gif""style=""height:400px;""></stim_listB>","is shouting at","","","","","",""
"null","<div style=""font-size:60px;"">+</div>","","html-keyboard-response","82","440858","0.0-13.0-0.13","92204","List2B","black","woman","","","","null","","","","","","","","",""
"null","<img src=""stim_listB/touch1.gif""style=""height:400px;""></stim_listB>","","html-keyboard-response","83","442863","0.0-13.0-1.13","92204","List2B","black","woman","","","","null","","","","","","","","",""
"null","is touching","","html-keyboard-response","84","444866","0.0-13.0-2.13","92204","List2B","black","woman","","","","null","","","","","","","","",""
"11738.300000190735","","","survey-text","85","456607","0.0-13.0-3.13","92204","List2B","black","woman","","","","","{""Q0"":""Dave is touching Jane""}","<img src=""stim_listB/touch1.gif""style=""height:400px;""></stim_listB>","is touching","","","","","",""
"null","<div style=""font-size:60px;"">+</div>","","html-keyboard-response","86","457129","0.0-13.0-0.14","92204","List2B","black","woman","","","","null","","","","","","","","",""
"null","<img src=""stim_listB/hug6.gif""style=""height:400px;""></stim_listB>","","html-keyboard-response","87","459136","0.0-13.0-1.14","92204","List2B","black","woman","","","","null","","","","","","","","",""
"null","is being hugged by","","html-keyboard-response","88","461138","0.0-13.0-2.14","92204","List2B","black","woman","","","","null","","","","","","","","",""
"11667.299999952316","","","survey-text","89","472808","0.0-13.0-3.14","92204","List2B","black","woman","","","","","{""Q0"":""Mike is being hugged by Dave""}","<img src=""stim_listB/hug6.gif""style=""height:400px;""></stim_listB>","is being hugged by","","","","","",""
"null","<div style=""font-size:60px;"">+</div>","","html-keyboard-response","90","473323","0.0-13.0-0.15","92204","List2B","black","woman","","","","null","","","","","","","","",""
"null","<img src=""stim_listB/look3.gif""style=""height:400px;""></stim_listB>","","html-keyboard-response","91","475331","0.0-13.0-1.15","92204","List2B","black","woman","","","","null","","","","","","","","",""
"null","is looking at","","html-keyboard-response","92","477337","0.0-13.0-2.15","92204","List2B","black","woman","","","","null","","","","","","","","",""
"8195.100000143051","","","survey-text","93","485534","0.0-13.0-3.15","92204","List2B","black","woman","","","","","{""Q0"":""Beth is looking at Fred""}","<img src=""stim_listB/look3.gif""style=""height:400px;""></stim_listB>","is looking at","","","","","",""
"null","<div style=""font-size:60px;"">+</div>","","html-keyboard-response","94","486038","0.0-13.0-0.16","92204","List2B","black","woman","","","","null","","","","","","","","",""
"null","<img src=""stim_listB/seduce3.gif""style=""height:400px;""></stim_listB>","","html-keyboard-response","95","488045","0.0-13.0-1.16","92204","List2B","black","woman","","","","null","","","","","","","","",""
"null","is seducing","","html-keyboard-response","96","490053","0.0-13.0-2.16","92204","List2B","black","woman","","","","null","","","","","","","","",""
"13766","","","survey-text","97","503821","0.0-13.0-3.16","92204","List2B","black","woman","","","","","{""Q0"":""KATE is seducing Fred""}","<img src=""stim_listB/seduce3.gif""style=""height:400px;""></stim_listB>","is seducing","","","","","",""
"null","<div style=""font-size:60px;"">+</div>","","html-keyboard-response","98","504336","0.0-13.0-0.17","92204","List2B","black","woman","","","","null","","","","","","","","",""
"null","<img src=""stim_listB/challenge5.gif""style=""height:400px;""></stim_listB>","","html-keyboard-response","99","506338","0.0-13.0-1.17","92204","List2B","black","woman","","","","null","","","","","","","","",""
"null","is challenging","","html-keyboard-response","100","508347","0.0-13.0-2.17","92204","List2B","black","woman","","","","null","","","","","","","","",""
"7783.900000095367","","","survey-text","101","516133","0.0-13.0-3.17","92204","List2B","black","woman","","","","","{""Q0"":""Dave is challenging Fred""}","<img src=""stim_listB/challenge5.gif""style=""height:400px;""></stim_listB>","is challenging","","","","","",""
"null","<div style=""font-size:60px;"">+</div>","","html-keyboard-response","102","516638","0.0-13.0-0.18","92204","List2B","black","woman","","","","null","","","","","","","","",""
"null","<img src=""stim_listB/greet4.gif""style=""height:400px;""></stim_listB>","","html-keyboard-response","103","518645","0.0-13.0-1.18","92204","List2B","black","woman","","","","null","","","","","","","","",""
"null","is being greeted by","","html-keyboard-response","104","520656","0.0-13.0-2.18","92204","List2B","black","woman","","","","null","","","","","","","","",""
"9516.700000047684","","","survey-text","105","530176","0.0-13.0-3.18","92204","List2B","black","woman","","","","","{""Q0"":""Fred is being greeted by Kate""}","<img src=""stim_listB/greet4.gif""style=""height:400px;""></stim_listB>","is being greeted by","","","","","",""
"null","<div style=""font-size:60px;"">+</div>","","html-keyboard-response","106","530686","0.0-13.0-0.19","92204","List2B","black","woman","","","","null","","","","","","","","",""
"null","<img src=""stim_listB/oppose2.gif""style=""height:400px;""></stim_listB>","","html-keyboard-response","107","532694","0.0-13.0-1.19","92204","List2B","black","woman","","","","null","","","","","","","","",""
"null","is being opposed by","","html-keyboard-response","108","534699","0.0-13.0-2.19","92204","List2B","black","woman","","","","null","","","","","","","","",""
"10087.900000095367","","","survey-text","109","544789","0.0-13.0-3.19","92204","List2B","black","woman","","","","","{""Q0"":""Luke is being opposed by Ruth""}","<img src=""stim_listB/oppose2.gif""style=""height:400px;""></stim_listB>","is being opposed by","","","","","",""
"9788.800000190735","<img src='img/portrait_matrix_list2.jpg' style='width:900px;height:500px;''></img><p>If you have memorised all the portraits and names and are ready to start, press Continue.</p><p><strong>Please note: Your memory of these faces will be tested 4 times during this experiment.</strong></p>","0","html-button-response","110","554580","0.0-14.0-0.0","92204","List2B","black","woman","","","","","","","","","","","","",""
"3194.800000190735","<img src=""portrait/WW1.jpg""style=""height:400px;""></img>","1","html-button-response","111","558791","0.0-14.0-1.0","92204","List2B","black","woman","","true","1","","","","","","","","","",""
"null","CORRECT","","html-keyboard-response","112","560297","0.0-14.0-2.0-0.0","92204","List2B","black","woman","","","","null","","","","","","","","",""
"2940.5999999046326","<img src=""portrait/WM2.jpg""style=""height:400px;""></img>","7","html-button-response","113","563239","0.0-14.0-4.0","92204","List2B","black","woman","","true","7","","","","","","","","","",""
"null","CORRECT","","html-keyboard-response","114","564757","0.0-14.0-5.0-0.0","92204","List2B","black","woman","","","","null","","","","","","","","",""
"1572","<img src=""portrait/BM1.jpg""style=""height:400px;""></img>","4","html-button-response","115","566330","0.0-14.0-7.0","92204","List2B","black","woman","","true","4","","","","","","","","","",""
"null","CORRECT","","html-keyboard-response","116","567868","0.0-14.0-8.0-0.0","92204","List2B","black","woman","","","","null","","","","","","","","",""
"1381.0999999046326","<img src=""portrait/BW2.jpg""style=""height:400px;""></img>","2","html-button-response","117","569250","0.0-14.0-10.0","92204","List2B","black","woman","","true","2","","","","","","","","","",""
"null","CORRECT","","html-keyboard-response","118","570755","0.0-14.0-11.0-0.0","92204","List2B","black","woman","","","","null","","","","","","","","",""
"1982.7000000476837","<img src=""portrait/BW1.jpg""style=""height:400px;""></img>","0","html-button-response","119","572739","0.0-14.0-13.0","92204","List2B","black","woman","","true","0","","","","","","","","","",""
"null","CORRECT","","html-keyboard-response","120","574265","0.0-14.0-14.0-0.0","92204","List2B","black","woman","","","","null","","","","","","","","",""
"2542.7999999523163","<img src=""portrait/BM2.jpg""style=""height:400px;""></img>","5","html-button-response","121","576809","0.0-14.0-16.0","92204","List2B","black","woman","","true","5","","","","","","","","","",""
"null","CORRECT","","html-keyboard-response","122","578327","0.0-14.0-17.0-0.0","92204","List2B","black","woman","","","","null","","","","","","","","",""
"1874.0999999046326","<img src=""portrait/WM1.jpg""style=""height:400px;""></img>","6","html-button-response","123","580203","0.0-14.0-19.0","92204","List2B","black","woman","","true","6","","","","","","","","","",""
"null","CORRECT","","html-keyboard-response","124","581711","0.0-14.0-20.0-0.0","92204","List2B","black","woman","","","","null","","","","","","","","",""
"1521.2999999523163","<img src=""portrait/WW2.jpg""style=""height:400px;""></img>","3","html-button-response","125","583234","0.0-14.0-22.0","92204","List2B","black","woman","","true","3","","","","","","","","","",""
"null","CORRECT","","html-keyboard-response","126","584737","0.0-14.0-23.0-0.0","92204","List2B","black","woman","","","","null","","","","","","","","",""
"1135.4000000953674","<p>You got 8 out of 8 right first time. Press Continue.</p>","0","html-button-response","127","585874","0.0-14.0-25.0","92204","List2B","black","woman","","","","","","","","","","","","",""
"null","<div style=""font-size:60px;"">+</div>","","html-keyboard-response","128","587386","0.0-15.0-0.0","92204","List2B","black","woman","","","","null","","","","","","","","",""
"null","<img src=""stim_listB/shout8.gif""style=""height:400px;""></stim_listB>","","html-keyboard-response","129","589393","0.0-15.0-1.0","92204","List2B","black","woman","","","","null","","","","","","","","",""
"null","is being shouted at by","","html-keyboard-response","130","591401","0.0-15.0-2.0","92204","List2B","black","woman","","","","null","","","","","","","","",""
"13771.300000190735","","","survey-text","131","605176","0.0-15.0-3.0","92204","List2B","black","woman","","","","","{""Q0"":""Kate is being shouted at by Jane""}","<img src=""stim_listB/shout8.gif""style=""height:400px;""></stim_listB>","is being shouted at by","","","","","",""
"null","<div style=""font-size:60px;"">+</div>","","html-keyboard-response","132","605681","0.0-15.0-0.1","92204","List2B","black","woman","","","","null","","","","","","","","",""
"null","<img src=""stim_listB/challenge3.gif""style=""height:400px;""></stim_listB>","","html-keyboard-response","133","607689","0.0-15.0-1.1","92204","List2B","black","woman","","","","null","","","","","","","","",""
"null","is challenging","","html-keyboard-response","134","609695","0.0-15.0-2.1","92204","List2B","black","woman","","","","null","","","","","","","","",""
"6718.599999904633","","","survey-text","135","616416","0.0-15.0-3.1","92204","List2B","black","woman","","","","","{""Q0"":""Mike is challenging Beth""}","<img src=""stim_listB/challenge3.gif""style=""height:400px;""></stim_listB>","is challenging","","","","","",""
"null","<div style=""font-size:60px;"">+</div>","","html-keyboard-response","136","616937","0.0-15.0-0.2","92204","List2B","black","woman","","","","null","","","","","","","","",""
"null","<img src=""stim_listB/challenge2.gif""style=""height:400px;""></stim_listB>","","html-keyboard-response","137","618945","0.0-15.0-1.2","92204","List2B","black","woman","","","","null","","","","","","","","",""
"null","is being challenged by","","html-keyboard-response","138","620950","0.0-15.0-2.2","92204","List2B","black","woman","","","","null","","","","","","","","",""
"18933.10000014305","","","survey-text","139","639886","0.0-15.0-3.2","92204","List2B","black","woman","","","","","{""Q0"":""Luke is challenging Jane""}","<img src=""stim_listB/challenge2.gif""style=""height:400px;""></stim_listB>","is being challenged by","","","","","",""
"null","<div style=""font-size:60px;"">+</div>","","html-keyboard-response","140","640390","0.0-15.0-0.3","92204","List2B","black","woman","","","","null","","","","","","","","",""
"null","<img src=""stim_listB/seduce2.gif""style=""height:400px;""></stim_listB>","","html-keyboard-response","141","642397","0.0-15.0-1.3","92204","List2B","black","woman","","","","null","","","","","","","","",""
"null","is being seduced by","","html-keyboard-response","142","644404","0.0-15.0-2.3","92204","List2B","black","woman","","","","null","","","","","","","","",""
"12582.5","","","survey-text","143","656990","0.0-15.0-3.3","92204","List2B","black","woman","","","","","{""Q0"":""Ruth is being seduced by Dave""}","<img src=""stim_listB/seduce2.gif""style=""height:400px;""></stim_listB>","is being seduced by","","","","","",""
"null","<div style=""font-size:60px;"">+</div>","","html-keyboard-response","144","657497","0.0-15.0-0.4","92204","List2B","black","woman","","","","null","","","","","","","","",""
"null","<img src=""stim_listB/oppose1.gif""style=""height:400px;""></stim_listB>","","html-keyboard-response","145","659515","0.0-15.0-1.4","92204","List2B","black","woman","","","","null","","","","","","","","",""
"null","is opposing","","html-keyboard-response","146","661516","0.0-15.0-2.4","92204","List2B","black","woman","","","","null","","","","","","","","",""
"9672.699999809265","","","survey-text","147","671192","0.0-15.0-3.4","92204","List2B","black","woman","","","","","{""Q0"":""Jane is opposing Dave""}","<img src=""stim_listB/oppose1.gif""style=""height:400px;""></stim_listB>","is opposing","","","","","",""
"null","<div style=""font-size:60px;"">+</div>","","html-keyboard-response","148","671696","0.0-15.0-0.5","92204","List2B","black","woman","","","","null","","","","","","","","",""
"null","<img src=""stim_listB/kiss6.gif""style=""height:400px;""></stim_listB>","","html-keyboard-response","149","673704","0.0-15.0-1.5","92204","List2B","black","woman","","","","null","","","","","","","","",""
"null","is being kissed by","","html-keyboard-response","150","675705","0.0-15.0-2.5","92204","List2B","black","woman","","","","null","","","","","","","","",""
"6503.700000047684","","","survey-text","151","682213","0.0-15.0-3.5","92204","List2B","black","woman","","","","","{""Q0"":""Dave is being kissed by Mike""}","<img src=""stim_listB/kiss6.gif""style=""height:400px;""></stim_listB>","is being kissed by","","","","","",""
"null","<div style=""font-size:60px;"">+</div>","","html-keyboard-response","152","682730","0.0-15.0-0.6","92204","List2B","black","woman","","","","null","","","","","","","","",""
"null","<img src=""stim_listB/greet2.gif""style=""height:400px;""></stim_listB>","","html-keyboard-response","153","684738","0.0-15.0-1.6","92204","List2B","black","woman","","","","null","","","","","","","","",""
"null","is being greeted by","","html-keyboard-response","154","686764","0.0-15.0-2.6","92204","List2B","black","woman","","","","null","","","","","","","","",""
"6880.799999952316","","","survey-text","155","693648","0.0-15.0-3.6","92204","List2B","black","woman","","","","","{""Q0"":""Luke is being greeted by Jane""}","<img src=""stim_listB/greet2.gif""style=""height:400px;""></stim_listB>","is being greeted by","","","","","",""
"null","<div style=""font-size:60px;"">+</div>","","html-keyboard-response","156","694154","0.0-15.0-0.7","92204","List2B","black","woman","","","","null","","","","","","","","",""
"null","<img src=""stim_listB/seduce6.gif""style=""height:400px;""></stim_listB>","","html-keyboard-response","157","696167","0.0-15.0-1.7","92204","List2B","black","woman","","","","null","","","","","","","","",""
"null","is being seduced by","","html-keyboard-response","158","698174","0.0-15.0-2.7","92204","List2B","black","woman","","","","null","","","","","","","","",""
"6642.299999952316","","","survey-text","159","704819","0.0-15.0-3.7","92204","List2B","black","woman","","","","","{""Q0"":""Dave is being seduced by Fred""}","<img src=""stim_listB/seduce6.gif""style=""height:400px;""></stim_listB>","is being seduced by","","","","","",""
"null","<div style=""font-size:60px;"">+</div>","","html-keyboard-response","160","705325","0.0-15.0-0.8","92204","List2B","black","woman","","","","null","","","","","","","","",""
"null","<img src=""stim_listB/hug4.gif""style=""height:400px;""></stim_listB>","","html-keyboard-response","161","707330","0.0-15.0-1.8","92204","List2B","black","woman","","","","null","","","","","","","","",""
"null","is being hugged by","","html-keyboard-response","162","709338","0.0-15.0-2.8","92204","List2B","black","woman","","","","null","","","","","","","","",""
"6839.599999904633","","","survey-text","163","716181","0.0-15.0-3.8","92204","List2B","black","woman","","","","","{""Q0"":""Kate is being hugged by Mike""}","<img src=""stim_listB/hug4.gif""style=""height:400px;""></stim_listB>","is being hugged by","","","","","",""
"null","<div style=""font-size:60px;"">+</div>","","html-keyboard-response","164","716688","0.0-15.0-0.9","92204","List2B","black","woman","","","","null","","","","","","","","",""
"null","<img src=""stim_listB/kiss1.gif""style=""height:400px;""></stim_listB>","","html-keyboard-response","165","718694","0.0-15.0-1.9","92204","List2B","black","woman","","","","null","","","","","","","","",""
"null","is kissing","","html-keyboard-response","166","720702","0.0-15.0-2.9","92204","List2B","black","woman","","","","null","","","","","","","","",""
"7002.200000047684","","","survey-text","167","727707","0.0-15.0-3.9","92204","List2B","black","woman","","","","","{""Q0"":""Luke is kissing Ruth""}","<img src=""stim_listB/kiss1.gif""style=""height:400px;""></stim_listB>","is kissing","","","","","",""
"null","<div style=""font-size:60px;"">+</div>","","html-keyboard-response","168","728210","0.0-15.0-0.10","92204","List2B","black","woman","","","","null","","","","","","","","",""
"null","<img src=""stim_listB/shout2.gif""style=""height:400px;""></stim_listB>","","html-keyboard-response","169","730217","0.0-15.0-1.10","92204","List2B","black","woman","","","","null","","","","","","","","",""
"null","is being shouted at by","","html-keyboard-response","170","732225","0.0-15.0-2.10","92204","List2B","black","woman","","","","null","","","","","","","","",""
"8788.599999904633","","","survey-text","171","741017","0.0-15.0-3.10","92204","List2B","black","woman","","","","","{""Q0"":""JANE is being shouted at by Dave""}","<img src=""stim_listB/shout2.gif""style=""height:400px;""></stim_listB>","is being shouted at by","","","","","",""
"null","<div style=""font-size:60px;"">+</div>","","html-keyboard-response","172","741520","0.0-15.0-0.11","92204","List2B","black","woman","","","","null","","","","","","","","",""
"null","<img src=""stim_listB/greet8.gif""style=""height:400px;""></stim_listB>","","html-keyboard-response","173","743526","0.0-15.0-1.11","92204","List2B","black","woman","","","","null","","","","","","","","",""
"null","is being greeted by","","html-keyboard-response","174","745527","0.0-15.0-2.11","92204","List2B","black","woman","","","","null","","","","","","","","",""
"8522.700000047684","","","survey-text","175","754054","0.0-15.0-3.11","92204","List2B","black","woman","","","","","{""Q0"":""Ruth is being greeted by Kate""}","<img src=""stim_listB/greet8.gif""style=""height:400px;""></stim_listB>","is being greeted by","","","","","",""
"null","<div style=""font-size:60px;"">+</div>","","html-keyboard-response","176","754571","0.0-15.0-0.12","92204","List2B","black","woman","","","","null","","","","","","","","",""
"null","<img src=""stim_listB/touch4.gif""style=""height:400px;""></stim_listB>","","html-keyboard-response","177","756585","0.0-15.0-1.12","92204","List2B","black","woman","","","","null","","","","","","","","",""
"null","is being touched by","","html-keyboard-response","178","758592","0.0-15.0-2.12","92204","List2B","black","woman","","","","null","","","","","","","","",""
"7967.599999904633","","","survey-text","179","766564","0.0-15.0-3.12","92204","List2B","black","woman","","","","","{""Q0"":""Beth is being touched by Fred""}","<img src=""stim_listB/touch4.gif""style=""height:400px;""></stim_listB>","is being touched by","","","","","",""
"null","<div style=""font-size:60px;"">+</div>","","html-keyboard-response","180","767071","0.0-15.0-0.13","92204","List2B","black","woman","","","","null","","","","","","","","",""
"null","<img src=""stim_listB/shout7.gif""style=""height:400px;""></stim_listB>","","html-keyboard-response","181","769080","0.0-15.0-1.13","92204","List2B","black","woman","","","","null","","","","","","","","",""
"null","is shouting at","","html-keyboard-response","182","771087","0.0-15.0-2.13","92204","List2B","black","woman","","","","null","","","","","","","","",""
"8155.700000047684","","","survey-text","183","779246","0.0-15.0-3.13","92204","List2B","black","woman","","","","","{""Q0"":""Ruth is shouting at Beth""}","<img src=""stim_listB/shout7.gif""style=""height:400px;""></stim_listB>","is shouting at","","","","","",""
"null","<div style=""font-size:60px;"">+</div>","","html-keyboard-response","184","779754","0.0-15.0-0.14","92204","List2B","black","woman","","","","null","","","","","","","","",""
"null","<img src=""stim_listB/greet6.gif""style=""height:400px;""></stim_listB>","","html-keyboard-response","185","781763","0.0-15.0-1.14","92204","List2B","black","woman","","","","null","","","","","","","","",""
"null","is being greeted by","","html-keyboard-response","186","783771","0.0-15.0-2.14","92204","List2B","black","woman","","","","null","","","","","","","","",""
"9221.799999952316","","","survey-text","187","792996","0.0-15.0-3.14","92204","List2B","black","woman","","","","","{""Q0"":""Mike is being greeted by Luke""}","<img src=""stim_listB/greet6.gif""style=""height:400px;""></stim_listB>","is being greeted by","","","","","",""
"null","<div style=""font-size:60px;"">+</div>","","html-keyboard-response","188","793503","0.0-15.0-0.15","92204","List2B","black","woman","","","","null","","","","","","","","",""
"null","<img src=""stim_listB/look8.gif""style=""height:400px;""></stim_listB>","","html-keyboard-response","189","795509","0.0-15.0-1.15","92204","List2B","black","woman","","","","null","","","","","","","","",""
"null","is being looked at by","","html-keyboard-response","190","797517","0.0-15.0-2.15","92204","List2B","black","woman","","","","null","","","","","","","","",""
"7635.400000095367","","","survey-text","191","805155","0.0-15.0-3.15","92204","List2B","black","woman","","","","","{""Q0"":""Kate is being looked at by Jane""}","<img src=""stim_listB/look8.gif""style=""height:400px;""></stim_listB>","is being looked at by","","","","","",""
"null","<div style=""font-size:60px;"">+</div>","","html-keyboard-response","192","805668","0.0-15.0-0.16","92204","List2B","black","woman","","","","null","","","","","","","","",""
"null","<img src=""stim_listB/copy7.gif""style=""height:400px;""></stim_listB>","","html-keyboard-response","193","807674","0.0-15.0-1.16","92204","List2B","black","woman","","","","null","","","","","","","","",""
"null","is copying","","html-keyboard-response","194","809680","0.0-15.0-2.16","92204","List2B","black","woman","","","","null","","","","","","","","",""
"10652.099999904633","","","survey-text","195","820334","0.0-15.0-3.16","92204","List2B","black","woman","","","","","{""Q0"":""Beth is copying Jane""}","<img src=""stim_listB/copy7.gif""style=""height:400px;""></stim_listB>","is copying","","","","","",""
"null","<div style=""font-size:60px;"">+</div>","","html-keyboard-response","196","820836","0.0-15.0-0.17","92204","List2B","black","woman","","","","null","","","","","","","","",""
"null","<img src=""stim_listB/challenge7.gif""style=""height:400px;""></stim_listB>","","html-keyboard-response","197","822850","0.0-15.0-1.17","92204","List2B","black","woman","","","","null","","","","","","","","",""
"null","is challenging","","html-keyboard-response","198","824855","0.0-15.0-2.17","92204","List2B","black","woman","","","","null","","","","","","","","",""
"8734.200000047684","","","survey-text","199","833591","0.0-15.0-3.17","92204","List2B","black","woman","","","","","{""Q0"":""JANE IS CHALLENGING BETH""}","<img src=""stim_listB/challenge7.gif""style=""height:400px;""></stim_listB>","is challenging","","","","","",""
"null","<div style=""font-size:60px;"">+</div>","","html-keyboard-response","200","834105","0.0-15.0-0.18","92204","List2B","black","woman","","","","null","","","","","","","","",""
"null","<img src=""stim_listB/challenge1.gif""style=""height:400px;""></stim_listB>","","html-keyboard-response","201","836110","0.0-15.0-1.18","92204","List2B","black","woman","","","","null","","","","","","","","",""
"null","is challenging","","html-keyboard-response","202","838118","0.0-15.0-2.18","92204","List2B","black","woman","","","","null","","","","","","","","",""
"8255.200000047684","","","survey-text","203","846376","0.0-15.0-3.18","92204","List2B","black","woman","","","","","{""Q0"":""DAVE IS CHALLENGING RUTH""}","<img src=""stim_listB/challenge1.gif""style=""height:400px;""></stim_listB>","is challenging","","","","","",""
"null","<div style=""font-size:60px;"">+</div>","","html-keyboard-response","204","846882","0.0-15.0-0.19","92204","List2B","black","woman","","","","null","","","","","","","","",""
"null","<img src=""stim_listB/copy6.gif""style=""height:400px;""></stim_listB>","","html-keyboard-response","205","848889","0.0-15.0-1.19","92204","List2B","black","woman","","","","null","","","","","","","","",""
"null","is being copied by","","html-keyboard-response","206","850893","0.0-15.0-2.19","92204","List2B","black","woman","","","","null","","","","","","","","",""
"8816.900000095367","","","survey-text","207","859713","0.0-15.0-3.19","92204","List2B","black","woman","","","","","{""Q0"":""Mike is being copied by Luke""}","<img src=""stim_listB/copy6.gif""style=""height:400px;""></stim_listB>","is being copied by","","","","","",""
"4408.599999904633","<img src='img/portrait_matrix_list2.jpg' style='width:900px;height:500px;''></img><p>If you have memorised all the portraits and names and are ready to start, press Continue.</p><p><strong>Please note: Your memory of these faces will be tested 4 times during this experiment.</strong></p>","0","html-button-response","208","864122","0.0-16.0-0.0","92204","List2B","black","woman","","","","","","","","","","","","",""
"1927.9000000953674","<img src=""portrait/WM2.jpg""style=""height:400px;""></img>","7","html-button-response","209","867059","0.0-16.0-1.0","92204","List2B","black","woman","","true","7","","","","","","","","","",""
"null","CORRECT","","html-keyboard-response","210","868565","0.0-16.0-2.0-0.0","92204","List2B","black","woman","","","","null","","","","","","","","",""
"1978.1000001430511","<img src=""portrait/BM2.jpg""style=""height:400px;""></img>","5","html-button-response","211","870545","0.0-16.0-4.0","92204","List2B","black","woman","","true","5","","","","","","","","","",""
"null","CORRECT","","html-keyboard-response","212","872060","0.0-16.0-5.0-0.0","92204","List2B","black","woman","","","","null","","","","","","","","",""
"2045.8000001907349","<img src=""portrait/BW1.jpg""style=""height:400px;""></img>","0","html-button-response","213","874107","0.0-16.0-7.0","92204","List2B","black","woman","","true","0","","","","","","","","","",""
"null","CORRECT","","html-keyboard-response","214","875645","0.0-16.0-8.0-0.0","92204","List2B","black","woman","","","","null","","","","","","","","",""
"1511.7000000476837","<img src=""portrait/BW2.jpg""style=""height:400px;""></img>","2","html-button-response","215","877158","0.0-16.0-10.0","92204","List2B","black","woman","","true","2","","","","","","","","","",""
"null","CORRECT","","html-keyboard-response","216","878688","0.0-16.0-11.0-0.0","92204","List2B","black","woman","","","","null","","","","","","","","",""
"3114.0999999046326","<img src=""portrait/WM1.jpg""style=""height:400px;""></img>","6","html-button-response","217","881804","0.0-16.0-13.0","92204","List2B","black","woman","","true","6","","","","","","","","","",""
"null","CORRECT","","html-keyboard-response","218","883315","0.0-16.0-14.0-0.0","92204","List2B","black","woman","","","","null","","","","","","","","",""
"2002.2000000476837","<img src=""portrait/WW1.jpg""style=""height:400px;""></img>","1","html-button-response","219","885319","0.0-16.0-16.0","92204","List2B","black","woman","","true","1","","","","","","","","","",""
"null","CORRECT","","html-keyboard-response","220","886824","0.0-16.0-17.0-0.0","92204","List2B","black","woman","","","","null","","","","","","","","",""
"1685.5","<img src=""portrait/WW2.jpg""style=""height:400px;""></img>","3","html-button-response","221","888512","0.0-16.0-19.0","92204","List2B","black","woman","","true","3","","","","","","","","","",""
"null","CORRECT","","html-keyboard-response","222","890037","0.0-16.0-20.0-0.0","92204","List2B","black","woman","","","","null","","","","","","","","",""
"1215.7999999523163","<img src=""portrait/BM1.jpg""style=""height:400px;""></img>","4","html-button-response","223","891255","0.0-16.0-22.0","92204","List2B","black","woman","","true","4","","","","","","","","","",""
"null","CORRECT","","html-keyboard-response","224","892782","0.0-16.0-23.0-0.0","92204","List2B","black","woman","","","","null","","","","","","","","",""
"983","<p>You got 8 out of 8 right first time. Press Continue.</p>","0","html-button-response","225","893767","0.0-16.0-25.0","92204","List2B","black","woman","","","","","","","","","","","","",""
"null","<div style=""font-size:60px;"">+</div>","","html-keyboard-response","226","895291","0.0-17.0-0.0","92204","List2B","black","woman","","","","null","","","","","","","","",""
"null","<img src=""stim_listB/seduce4.gif""style=""height:400px;""></stim_listB>","","html-keyboard-response","227","897299","0.0-17.0-1.0","92204","List2B","black","woman","","","","null","","","","","","","","",""
"null","is being seduced by","","html-keyboard-response","228","899307","0.0-17.0-2.0","92204","List2B","black","woman","","","","null","","","","","","","","",""
"14800.900000095367","","","survey-text","229","914109","0.0-17.0-3.0","92204","List2B","black","woman","","","","","{""Q0"":""Mike is being seduced by Beth""}","<img src=""stim_listB/seduce4.gif""style=""height:400px;""></stim_listB>","is being seduced by","","","","","",""
"null","<div style=""font-size:60px;"">+</div>","","html-keyboard-response","230","914611","0.0-17.0-0.1","92204","List2B","black","woman","","","","null","","","","","","","","",""
"null","<img src=""stim_listB/shout1.gif""style=""height:400px;""></stim_listB>","","html-keyboard-response","231","916627","0.0-17.0-1.1","92204","List2B","black","woman","","","","null","","","","","","","","",""
"null","is shouting at","","html-keyboard-response","232","918635","0.0-17.0-2.1","92204","List2B","black","woman","","","","null","","","","","","","","",""
"7245.700000047684","","","survey-text","233","925884","0.0-17.0-3.1","92204","List2B","black","woman","","","","","{""Q0"":""Luke is shouting at Ruth""}","<img src=""stim_listB/shout1.gif""style=""height:400px;""></stim_listB>","is shouting at","","","","","",""
"null","<div style=""font-size:60px;"">+</div>","","html-keyboard-response","234","926395","0.0-17.0-0.2","92204","List2B","black","woman","","","","null","","","","","","","","",""
"null","<img src=""stim_listB/greet1.gif""style=""height:400px;""></stim_listB>","","html-keyboard-response","235","928398","0.0-17.0-1.2","92204","List2B","black","woman","","","","null","","","","","","","","",""
"null","is greeting","","html-keyboard-response","236","930407","0.0-17.0-2.2","92204","List2B","black","woman","","","","null","","","","","","","","",""
"5660.599999904633","","","survey-text","237","936071","0.0-17.0-3.2","92204","List2B","black","woman","","","","","{""Q0"":""Dave is greeting Ruth""}","<img src=""stim_listB/greet1.gif""style=""height:400px;""></stim_listB>","is greeting","","","","","",""
"null","<div style=""font-size:60px;"">+</div>","","html-keyboard-response","238","936584","0.0-17.0-0.3","92204","List2B","black","woman","","","","null","","","","","","","","",""
"null","<img src=""stim_listB/kiss2.gif""style=""height:400px;""></stim_listB>","","html-keyboard-response","239","938590","0.0-17.0-1.3","92204","List2B","black","woman","","","","null","","","","","","","","",""
"null","is being kissed by","","html-keyboard-response","240","940597","0.0-17.0-2.3","92204","List2B","black","woman","","","","null","","","","","","","","",""
"6804.200000047684","","","survey-text","241","947403","0.0-17.0-3.3","92204","List2B","black","woman","","","","","{""Q0"":""Dave is being kissed by Jane""}","<img src=""stim_listB/kiss2.gif""style=""height:400px;""></stim_listB>","is being kissed by","","","","","",""
"null","<div style=""font-size:60px;"">+</div>","","html-keyboard-response","242","947917","0.0-17.0-0.4","92204","List2B","black","woman","","","","null","","","","","","","","",""
"null","<img src=""stim_listB/challenge8.gif""style=""height:400px;""></stim_listB>","","html-keyboard-response","243","949925","0.0-17.0-1.4","92204","List2B","black","woman","","","","null","","","","","","","","",""
"null","is being challenged by","","html-keyboard-response","244","951932","0.0-17.0-2.4","92204","List2B","black","woman","","","","null","","","","","","","","",""
"13131.600000143051","","","survey-text","245","965066","0.0-17.0-3.4","92204","List2B","black","woman","","","","","{""Q0"":""Ruth is being challenged by Kate""}","<img src=""stim_listB/challenge8.gif""style=""height:400px;""></stim_listB>","is being challenged by","","","","","",""
"null","<div style=""font-size:60px;"">+</div>","","html-keyboard-response","246","965572","0.0-17.0-0.5","92204","List2B","black","woman","","","","null","","","","","","","","",""
"null","<img src=""stim_listB/seduce5.gif""style=""height:400px;""></stim_listB>","","html-keyboard-response","247","967576","0.0-17.0-1.5","92204","List2B","black","woman","","","","null","","","","","","","","",""
"null","is seducing","","html-keyboard-response","248","969584","0.0-17.0-2.5","92204","List2B","black","woman","","","","null","","","","","","","","",""
"12301.700000047684","","","survey-text","249","981888","0.0-17.0-3.5","92204","List2B","black","woman","","","","","{""Q0"":""Luke is seducing Mike""}","<img src=""stim_listB/seduce5.gif""style=""height:400px;""></stim_listB>","is seducing","","","","","",""
"null","<div style=""font-size:60px;"">+</div>","","html-keyboard-response","250","982394","0.0-17.0-0.6","92204","List2B","black","woman","","","","null","","","","","","","","",""
"null","<img src=""stim_listB/copy8.gif""style=""height:400px;""></stim_listB>","","html-keyboard-response","251","984398","0.0-17.0-1.6","92204","List2B","black","woman","","","","null","","","","","","","","",""
"null","is being copied by","","html-keyboard-response","252","986404","0.0-17.0-2.6","92204","List2B","black","woman","","","","null","","","","","","","","",""
"14040.399999856949","","","survey-text","253","1000447","0.0-17.0-3.6","92204","List2B","black","woman","","","","","{""Q0"":""Kate is being copied by Ruth""}","<img src=""stim_listB/copy8.gif""style=""height:400px;""></stim_listB>","is being copied by","","","","","",""
"null","<div style=""font-size:60px;"">+</div>","","html-keyboard-response","254","1000954","0.0-17.0-0.7","92204","List2B","black","woman","","","","null","","","","","","","","",""
"null","<img src=""stim_listB/look6.gif""style=""height:400px;""></stim_listB>","","html-keyboard-response","255","1002957","0.0-17.0-1.7","92204","List2B","black","woman","","","","null","","","","","","","","",""
"null","is being looked at by","","html-keyboard-response","256","1004965","0.0-17.0-2.7","92204","List2B","black","woman","","","","null","","","","","","","","",""
"10783.099999904633","","","survey-text","257","1015750","0.0-17.0-3.7","92204","List2B","black","woman","","","","","{""Q0"":""DAVE IS BEING LOOKED AT BY MIKE""}","<img src=""stim_listB/look6.gif""style=""height:400px;""></stim_listB>","is being looked at by","","","","","",""
"null","<div style=""font-size:60px;"">+</div>","","html-keyboard-response","258","1016263","0.0-17.0-0.8","92204","List2B","black","woman","","","","null","","","","","","","","",""
"null","<img src=""stim_listB/kiss7.gif""style=""height:400px;""></stim_listB>","","html-keyboard-response","259","1018274","0.0-17.0-1.8","92204","List2B","black","woman","","","","null","","","","","","","","",""
"null","is kissing","","html-keyboard-response","260","1020281","0.0-17.0-2.8","92204","List2B","black","woman","","","","null","","","","","","","","",""
"4628.900000095367","","","survey-text","261","1024913","0.0-17.0-3.8","92204","List2B","black","woman","","","","","{""Q0"":""ruth is kissing beth""}","<img src=""stim_listB/kiss7.gif""style=""height:400px;""></stim_listB>","is kissing","","","","","",""
"null","<div style=""font-size:60px;"">+</div>","","html-keyboard-response","262","1025416","0.0-17.0-0.9","92204","List2B","black","woman","","","","null","","","","","","","","",""
"null","<img src=""stim_listB/oppose3.gif""style=""height:400px;""></stim_listB>","","html-keyboard-response","263","1027429","0.0-17.0-1.9","92204","List2B","black","woman","","","","null","","","","","","","","",""
"null","is opposing","","html-keyboard-response","264","1029436","0.0-17.0-2.9","92204","List2B","black","woman","","","","null","","","","","","","","",""
"5965.600000143051","","","survey-text","265","1035405","0.0-17.0-3.9","92204","List2B","black","woman","","","","","{""Q0"":""kate is opposing mike""}","<img src=""stim_listB/oppose3.gif""style=""height:400px;""></stim_listB>","is opposing","","","","","",""
"null","<div style=""font-size:60px;"">+</div>","","html-keyboard-response","266","1035912","0.0-17.0-0.10","92204","List2B","black","woman","","","","null","","","","","","","","",""
"null","<img src=""stim_listB/oppose5.gif""style=""height:400px;""></stim_listB>","","html-keyboard-response","267","1037916","0.0-17.0-1.10","92204","List2B","black","woman","","","","null","","","","","","","","",""
"null","is opposing","","html-keyboard-response","268","1039925","0.0-17.0-2.10","92204","List2B","black","woman","","","","null","","","","","","","","",""
"5809.5","","","survey-text","269","1045738","0.0-17.0-3.10","92204","List2B","black","woman","","","","","{""Q0"":""dave is opposing mike""}","<img src=""stim_listB/oppose5.gif""style=""height:400px;""></stim_listB>","is opposing","","","","","",""
"null","<div style=""font-size:60px;"">+</div>","","html-keyboard-response","270","1046242","0.0-17.0-0.11","92204","List2B","black","woman","","","","null","","","","","","","","",""
"null","<img src=""stim_listB/copy2.gif""style=""height:400px;""></stim_listB>","","html-keyboard-response","271","1048248","0.0-17.0-1.11","92204","List2B","black","woman","","","","null","","","","","","","","",""
"null","is being copied by","","html-keyboard-response","272","1050254","0.0-17.0-2.11","92204","List2B","black","woman","","","","null","","","","","","","","",""
"9605.600000143051","","","survey-text","273","1059862","0.0-17.0-3.11","92204","List2B","black","woman","","","","","{""Q0"":""jane is being copied by luke""}","<img src=""stim_listB/copy2.gif""style=""height:400px;""></stim_listB>","is being copied by","","","","","",""
"null","<div style=""font-size:60px;"">+</div>","","html-keyboard-response","274","1060374","0.0-17.0-0.12","92204","List2B","black","woman","","","","null","","","","","","","","",""
"null","<img src=""stim_listB/touch6.gif""style=""height:400px;""></stim_listB>","","html-keyboard-response","275","1062388","0.0-17.0-1.12","92204","List2B","black","woman","","","","null","","","","","","","","",""
"null","is being touched by","","html-keyboard-response","276","1064390","0.0-17.0-2.12","92204","List2B","black","woman","","","","null","","","","","","","","",""
"9895.299999952316","","","survey-text","277","1074288","0.0-17.0-3.12","92204","List2B","black","woman","","","","","{""Q0"":""fred is being touched by luke""}","<img src=""stim_listB/touch6.gif""style=""height:400px;""></stim_listB>","is being touched by","","","","","",""
"null","<div style=""font-size:60px;"">+</div>","","html-keyboard-response","278","1074805","0.0-17.0-0.13","92204","List2B","black","woman","","","","null","","","","","","","","",""
"null","<img src=""stim_listB/look5.gif""style=""height:400px;""></stim_listB>","","html-keyboard-response","279","1076813","0.0-17.0-1.13","92204","List2B","black","woman","","","","null","","","","","","","","",""
"null","is looking at","","html-keyboard-response","280","1078818","0.0-17.0-2.13","92204","List2B","black","woman","","","","null","","","","","","","","",""
"5750.600000143051","","","survey-text","281","1084571","0.0-17.0-3.13","92204","List2B","black","woman","","","","","{""Q0"":""luke is looking at fred""}","<img src=""stim_listB/look5.gif""style=""height:400px;""></stim_listB>","is looking at","","","","","",""
"null","<div style=""font-size:60px;"">+</div>","","html-keyboard-response","282","1085086","0.0-17.0-0.14","92204","List2B","black","woman","","","","null","","","","","","","","",""
"null","<img src=""stim_listB/copy5.gif""style=""height:400px;""></stim_listB>","","html-keyboard-response","283","1087094","0.0-17.0-1.14","92204","List2B","black","woman","","","","null","","","","","","","","",""
"null","is copying","","html-keyboard-response","284","1089102","0.0-17.0-2.14","92204","List2B","black","woman","","","","null","","","","","","","","",""
"6537.199999809265","","","survey-text","285","1095643","0.0-17.0-3.14","92204","List2B","black","woman","","","","","{""Q0"":""dave is copying fred""}","<img src=""stim_listB/copy5.gif""style=""height:400px;""></stim_listB>","is copying","","","","","",""
"null","<div style=""font-size:60px;"">+</div>","","html-keyboard-response","286","1096154","0.0-17.0-0.15","92204","List2B","black","woman","","","","null","","","","","","","","",""
"null","<img src=""stim_listB/hug1.gif""style=""height:400px;""></stim_listB>","","html-keyboard-response","287","1098163","0.0-17.0-1.15","92204","List2B","black","woman","","","","null","","","","","","","","",""
"null","is hugging","","html-keyboard-response","288","1100170","0.0-17.0-2.15","92204","List2B","black","woman","","","","null","","","","","","","","",""
"6380.200000047684","","","survey-text","289","1106553","0.0-17.0-3.15","92204","List2B","black","woman","","","","","{""Q0"":""dave is hugging ruth""}","<img src=""stim_listB/hug1.gif""style=""height:400px;""></stim_listB>","is hugging","","","","","",""
"null","<div style=""font-size:60px;"">+</div>","","html-keyboard-response","290","1107068","0.0-17.0-0.16","92204","List2B","black","woman","","","","null","","","","","","","","",""
"null","<img src=""stim_listB/touch8.gif""style=""height:400px;""></stim_listB>","","html-keyboard-response","291","1109088","0.0-17.0-1.16","92204","List2B","black","woman","","","","null","","","","","","","","",""
"null","is being touched by","","html-keyboard-response","292","1111095","0.0-17.0-2.16","92204","List2B","black","woman","","","","null","","","","","","","","",""
"6711.200000047684","","","survey-text","293","1117808","0.0-17.0-3.16","92204","List2B","black","woman","","","","","{""Q0"":""beth is being touched by ruth""}","<img src=""stim_listB/touch8.gif""style=""height:400px;""></stim_listB>","is being touched by","","","","","",""
"null","<div style=""font-size:60px;"">+</div>","","html-keyboard-response","294","1118339","0.0-17.0-0.17","92204","List2B","black","woman","","","","null","","","","","","","","",""
"null","<img src=""stim_listB/kiss5.gif""style=""height:400px;""></stim_listB>","","html-keyboard-response","295","1120346","0.0-17.0-1.17","92204","List2B","black","woman","","","","null","","","","","","","","",""
"null","is kissing","","html-keyboard-response","296","1122352","0.0-17.0-2.17","92204","List2B","black","woman","","","","null","","","","","","","","",""
"10708.5","","","survey-text","297","1133067","0.0-17.0-3.17","92204","List2B","black","woman","","","","","{""Q0"":""luke is kissing fred""}","<img src=""stim_listB/kiss5.gif""style=""height:400px;""></stim_listB>","is kissing","","","","","",""
"null","<div style=""font-size:60px;"">+</div>","","html-keyboard-response","298","1133575","0.0-17.0-0.18","92204","List2B","black","woman","","","","null","","","","","","","","",""
"null","<img src=""stim_listB/kiss4.gif""style=""height:400px;""></stim_listB>","","html-keyboard-response","299","1135582","0.0-17.0-1.18","92204","List2B","black","woman","","","","null","","","","","","","","",""
"null","is being kissed by","","html-keyboard-response","300","1137589","0.0-17.0-2.18","92204","List2B","black","woman","","","","null","","","","","","","","",""
"11235","","","survey-text","301","1148827","0.0-17.0-3.18","92204","List2B","black","woman","","","","","{""Q0"":""kate is being kissed by mike""}","<img src=""stim_listB/kiss4.gif""style=""height:400px;""></stim_listB>","is being kissed by","","","","","",""
"null","<div style=""font-size:60px;"">+</div>","","html-keyboard-response","302","1149334","0.0-17.0-0.19","92204","List2B","black","woman","","","","null","","","","","","","","",""
"null","<img src=""stim_listB/look2.gif""style=""height:400px;""></stim_listB>","","html-keyboard-response","303","1151338","0.0-17.0-1.19","92204","List2B","black","woman","","","","null","","","","","","","","",""
"null","is being looked at by","","html-keyboard-response","304","1153340","0.0-17.0-2.19","92204","List2B","black","woman","","","","null","","","","","","","","",""
"9356.199999809265","","","survey-text","305","1162699","0.0-17.0-3.19","92204","List2B","black","woman","","","","","{""Q0"":""dave is being looked at by jane""}","<img src=""stim_listB/look2.gif""style=""height:400px;""></stim_listB>","is being looked at by","","","","","",""
"2771.2999999523163","<img src='img/portrait_matrix_list2.jpg' style='width:900px;height:500px;''></img><p>If you have memorised all the portraits and names and are ready to start, press Continue.</p><p><strong>Please note: Your memory of these faces will be tested 4 times during this experiment.</strong></p>","0","html-button-response","306","1165472","0.0-18.0-0.0","92204","List2B","black","woman","","","","","","","","","","","","",""
"1281.5","<img src=""portrait/BM1.jpg""style=""height:400px;""></img>","4","html-button-response","307","1167765","0.0-18.0-1.0","92204","List2B","black","woman","","true","4","","","","","","","","","",""
"null","CORRECT","","html-keyboard-response","308","1169287","0.0-18.0-2.0-0.0","92204","List2B","black","woman","","","","null","","","","","","","","",""
"1356.7999999523163","<img src=""portrait/WW1.jpg""style=""height:400px;""></img>","1","html-button-response","309","1170645","0.0-18.0-4.0","92204","List2B","black","woman","","true","1","","","","","","","","","",""
"null","CORRECT","","html-keyboard-response","310","1172156","0.0-18.0-5.0-0.0","92204","List2B","black","woman","","","","null","","","","","","","","",""
"1429.5","<img src=""portrait/WM1.jpg""style=""height:400px;""></img>","6","html-button-response","311","1173588","0.0-18.0-7.0","92204","List2B","black","woman","","true","6","","","","","","","","","",""
"null","CORRECT","","html-keyboard-response","312","1175117","0.0-18.0-8.0-0.0","92204","List2B","black","woman","","","","null","","","","","","","","",""
"1410.5","<img src=""portrait/BW2.jpg""style=""height:400px;""></img>","2","html-button-response","313","1176529","0.0-18.0-10.0","92204","List2B","black","woman","","true","2","","","","","","","","","",""
"null","CORRECT","","html-keyboard-response","314","1178039","0.0-18.0-11.0-0.0","92204","List2B","black","woman","","","","null","","","","","","","","",""
"1450.4000000953674","<img src=""portrait/WW2.jpg""style=""height:400px;""></img>","3","html-button-response","315","1179491","0.0-18.0-13.0","92204","List2B","black","woman","","true","3","","","","","","","","","",""
"null","CORRECT","","html-keyboard-response","316","1181013","0.0-18.0-14.0-0.0","92204","List2B","black","woman","","","","null","","","","","","","","",""
"1352.6999998092651","<img src=""portrait/WM2.jpg""style=""height:400px;""></img>","7","html-button-response","317","1182367","0.0-18.0-16.0","92204","List2B","black","woman","","true","7","","","","","","","","","",""
"null","CORRECT","","html-keyboard-response","318","1183885","0.0-18.0-17.0-0.0","92204","List2B","black","woman","","","","null","","","","","","","","",""
"1503.0999999046326","<img src=""portrait/BW1.jpg""style=""height:400px;""></img>","0","html-button-response","319","1185389","0.0-18.0-19.0","92204","List2B","black","woman","","true","0","","","","","","","","","",""
"null","CORRECT","","html-keyboard-response","320","1186907","0.0-18.0-20.0-0.0","92204","List2B","black","woman","","","","null","","","","","","","","",""
"1318.1000001430511","<img src=""portrait/BM2.jpg""style=""height:400px;""></img>","5","html-button-response","321","1188227","0.0-18.0-22.0","92204","List2B","black","woman","","true","5","","","","","","","","","",""
"null","CORRECT","","html-keyboard-response","322","1189745","0.0-18.0-23.0-0.0","92204","List2B","black","woman","","","","null","","","","","","","","",""
"889.5","<p>You got 8 out of 8 right first time. Press Continue.</p>","0","html-button-response","323","1190636","0.0-18.0-25.0","92204","List2B","black","woman","","","","","","","","","","","","",""
"null","<div style=""font-size:60px;"">+</div>","","html-keyboard-response","324","1192157","0.0-19.0-0.0","92204","List2B","black","woman","","","","null","","","","","","","","",""
"null","<img src=""stim_listB/touch3.gif""style=""height:400px;""></stim_listB>","","html-keyboard-response","325","1194166","0.0-19.0-1.0","92204","List2B","black","woman","","","","null","","","","","","","","",""
"null","is touching","","html-keyboard-response","326","1196174","0.0-19.0-2.0","92204","List2B","black","woman","","","","null","","","","","","","","",""
"5493.700000047684","","","survey-text","327","1201671","0.0-19.0-3.0","92204","List2B","black","woman","","","","","{""Q0"":""mike is touching kate""}","<img src=""stim_listB/touch3.gif""style=""height:400px;""></stim_listB>","is touching","","","","","",""
"null","<div style=""font-size:60px;"">+</div>","","html-keyboard-response","328","1202176","0.0-19.0-0.1","92204","List2B","black","woman","","","","null","","","","","","","","",""
"null","<img src=""stim_listB/shout5.gif""style=""height:400px;""></stim_listB>","","html-keyboard-response","329","1204184","0.0-19.0-1.1","92204","List2B","black","woman","","","","null","","","","","","","","",""
"null","is shouting at","","html-keyboard-response","330","1206191","0.0-19.0-2.1","92204","List2B","black","woman","","","","null","","","","","","","","",""
"11170.700000047684","","","survey-text","331","1217364","0.0-19.0-3.1","92204","List2B","black","woman","","","","","{""Q0"":""luke is shouting at fred""}","<img src=""stim_listB/shout5.gif""style=""height:400px;""></stim_listB>","is shouting at","","","","","",""
"null","<div style=""font-size:60px;"">+</div>","","html-keyboard-response","332","1217885","0.0-19.0-0.2","92204","List2B","black","woman","","","","null","","","","","","","","",""
"null","<img src=""stim_listB/touch5.gif""style=""height:400px;""></stim_listB>","","html-keyboard-response","333","1219891","0.0-19.0-1.2","92204","List2B","black","woman","","","","null","","","","","","","","",""
"null","is touching","","html-keyboard-response","334","1221897","0.0-19.0-2.2","92204","List2B","black","woman","","","","null","","","","","","","","",""
"8120.200000047684","","","survey-text","335","1230019","0.0-19.0-3.2","92204","List2B","black","woman","","","","","{""Q0"":""dave is touching mike""}","<img src=""stim_listB/touch5.gif""style=""height:400px;""></stim_listB>","is touching","","","","","",""
"null","<div style=""font-size:60px;"">+</div>","","html-keyboard-response","336","1230536","0.0-19.0-0.3","92204","List2B","black","woman","","","","null","","","","","","","","",""
"null","<img src=""stim_listB/hug5.gif""style=""height:400px;""></stim_listB>","","html-keyboard-response","337","1232541","0.0-19.0-1.3","92204","List2B","black","woman","","","","null","","","","","","","","",""
"null","is hugging","","html-keyboard-response","338","1234549","0.0-19.0-2.3","92204","List2B","black","woman","","","","null","","","","","","","","",""
"5799.5","","","survey-text","339","1240352","0.0-19.0-3.3","92204","List2B","black","woman","","","","","{""Q0"":""luke is hugging fred""}","<img src=""stim_listB/hug5.gif""style=""height:400px;""></stim_listB>","is hugging","","","","","",""
"null","<div style=""font-size:60px;"">+</div>","","html-keyboard-response","340","1240865","0.0-19.0-0.4","92204","List2B","black","woman","","","","null","","","","","","","","",""
"null","<img src=""stim_listB/seduce7.gif""style=""height:400px;""></stim_listB>","","html-keyboard-response","341","1242874","0.0-19.0-1.4","92204","List2B","black","woman","","","","null","","","","","","","","",""
"null","is seducing","","html-keyboard-response","342","1244880","0.0-19.0-2.4","92204","List2B","black","woman","","","","null","","","","","","","","",""
"7733","","","survey-text","343","1252617","0.0-19.0-3.4","92204","List2B","black","woman","","","","","{""Q0"":""ruth is seducing kate""}","<img src=""stim_listB/seduce7.gif""style=""height:400px;""></stim_listB>","is seducing","","","","","",""
"null","<div style=""font-size:60px;"">+</div>","","html-keyboard-response","344","1253124","0.0-19.0-0.5","92204","List2B","black","woman","","","","null","","","","","","","","",""
"null","<img src=""stim_listB/copy1.gif""style=""height:400px;""></stim_listB>","","html-keyboard-response","345","1255133","0.0-19.0-1.5","92204","List2B","black","woman","","","","null","","","","","","","","",""
"null","is copying","","html-keyboard-response","346","1257139","0.0-19.0-2.5","92204","List2B","black","woman","","","","null","","","","","","","","",""
"6220.099999904633","","","survey-text","347","1263363","0.0-19.0-3.5","92204","List2B","black","woman","","","","","{""Q0"":""ruth is copying dave""}","<img src=""stim_listB/copy1.gif""style=""height:400px;""></stim_listB>","is copying","","","","","",""
"null","<div style=""font-size:60px;"">+</div>","","html-keyboard-response","348","1263867","0.0-19.0-0.6","92204","List2B","black","woman","","","","null","","","","","","","","",""
"null","<img src=""stim_listB/oppose6.gif""style=""height:400px;""></stim_listB>","","html-keyboard-response","349","1265885","0.0-19.0-1.6","92204","List2B","black","woman","","","","null","","","","","","","","",""
"null","is being opposed by","","html-keyboard-response","350","1267894","0.0-19.0-2.6","92204","List2B","black","woman","","","","null","","","","","","","","",""
"9242.900000095367","","","survey-text","351","1277140","0.0-19.0-3.6","92204","List2B","black","woman","","","","","{""Q0"":""fred is being opposed by luke""}","<img src=""stim_listB/oppose6.gif""style=""height:400px;""></stim_listB>","is being opposed by","","","","","",""
"null","<div style=""font-size:60px;"">+</div>","","html-keyboard-response","352","1277651","0.0-19.0-0.7","92204","List2B","black","woman","","","","null","","","","","","","","",""
"null","<img src=""stim_listB/look1.gif""style=""height:400px;""></stim_listB>","","html-keyboard-response","353","1279665","0.0-19.0-1.7","92204","List2B","black","woman","","","","null","","","","","","","","",""
"null","is looking at","","html-keyboard-response","354","1281673","0.0-19.0-2.7","92204","List2B","black","woman","","","","null","","","","","","","","",""
"8163","","","survey-text","355","1289840","0.0-19.0-3.7","92204","List2B","black","woman","","","","","{""Q0"":""ruth is looking at dave""}","<img src=""stim_listB/look1.gif""style=""height:400px;""></stim_listB>","is looking at","","","","","",""
"null","<div style=""font-size:60px;"">+</div>","","html-keyboard-response","356","1290347","0.0-19.0-0.8","92204","List2B","black","woman","","","","null","","","","","","","","",""
"null","<img src=""stim_listB/kiss3.gif""style=""height:400px;""></stim_listB>","","html-keyboard-response","357","1292363","0.0-19.0-1.8","92204","List2B","black","woman","","","","null","","","","","","","","",""
"null","is kissing","","html-keyboard-response","358","1294370","0.0-19.0-2.8","92204","List2B","black","woman","","","","null","","","","","","","","",""
"5092.200000047684","","","survey-text","359","1299465","0.0-19.0-3.8","92204","List2B","black","woman","","","","","{""Q0"":""beth is kissing fred""}","<img src=""stim_listB/kiss3.gif""style=""height:400px;""></stim_listB>","is kissing","","","","","",""
"null","<div style=""font-size:60px;"">+</div>","","html-keyboard-response","360","1299968","0.0-19.0-0.9","92204","List2B","black","woman","","","","null","","","","","","","","",""
"null","<img src=""stim_listB/greet3.gif""style=""height:400px;""></stim_listB>","","html-keyboard-response","361","1301974","0.0-19.0-1.9","92204","List2B","black","woman","","","","null","","","","","","","","",""
"null","is greeting","","html-keyboard-response","362","1303980","0.0-19.0-2.9","92204","List2B","black","woman","","","","null","","","","","","","","",""
"4489.399999856949","","","survey-text","363","1308473","0.0-19.0-3.9","92204","List2B","black","woman","","","","","{""Q0"":""mike is greeting beth""}","<img src=""stim_listB/greet3.gif""style=""height:400px;""></stim_listB>","is greeting","","","","","",""
"null","<div style=""font-size:60px;"">+</div>","","html-keyboard-response","364","1308983","0.0-19.0-0.10","92204","List2B","black","woman","","","","null","","","","","","","","",""
"null","<img src=""stim_listB/challenge6.gif""style=""height:400px;""></stim_listB>","","html-keyboard-response","365","1311003","0.0-19.0-1.10","92204","List2B","black","woman","","","","null","","","","","","","","",""
"null","is being challenged by","","html-keyboard-response","366","1313010","0.0-19.0-2.10","92204","List2B","black","woman","","","","null","","","","","","","","",""
"6693.400000095367","","","survey-text","367","1319706","0.0-19.0-3.10","92204","List2B","black","woman","","","","","{""Q0"":""mike is being challenged by luke""}","<img src=""stim_listB/challenge6.gif""style=""height:400px;""></stim_listB>","is being challenged by","","","","","",""
"null","<div style=""font-size:60px;"">+</div>","","html-keyboard-response","368","1320223","0.0-19.0-0.11","92204","List2B","black","woman","","","","null","","","","","","","","",""
"null","<img src=""stim_listB/touch7.gif""style=""height:400px;""></stim_listB>","","html-keyboard-response","369","1322228","0.0-19.0-1.11","92204","List2B","black","woman","","","","null","","","","","","","","",""
"null","is touching","","html-keyboard-response","370","1324235","0.0-19.0-2.11","92204","List2B","black","woman","","","","null","","","","","","","","",""
"6474.699999809265","","","survey-text","371","1330712","0.0-19.0-3.11","92204","List2B","black","woman","","","","","{""Q0"":""kate is touching jane""}","<img src=""stim_listB/touch7.gif""style=""height:400px;""></stim_listB>","is touching","","","","","",""
"null","<div style=""font-size:60px;"">+</div>","","html-keyboard-response","372","1331218","0.0-19.0-0.12","92204","List2B","black","woman","","","","null","","","","","","","","",""
"null","<img src=""stim_listB/shout6.gif""style=""height:400px;""></stim_listB>","","html-keyboard-response","373","1333232","0.0-19.0-1.12","92204","List2B","black","woman","","","","null","","","","","","","","",""
"null","is being shouted at by","","html-keyboard-response","374","1335240","0.0-19.0-2.12","92204","List2B","black","woman","","","","null","","","","","","","","",""
"7015.5","","","survey-text","375","1342259","0.0-19.0-3.12","92204","List2B","black","woman","","","","","{""Q0"":""mike is being shouted at by dave""}","<img src=""stim_listB/shout6.gif""style=""height:400px;""></stim_listB>","is being shouted at by","","","","","",""
"null","<div style=""font-size:60px;"">+</div>","","html-keyboard-response","376","1342764","0.0-19.0-0.13","92204","List2B","black","woman","","","","null","","","","","","","","",""
"null","<img src=""stim_listB/copy4.gif""style=""height:400px;""></stim_listB>","","html-keyboard-response","377","1344770","0.0-19.0-1.13","92204","List2B","black","woman","","","","null","","","","","","","","",""
"null","is being copied by","","html-keyboard-response","378","1346779","0.0-19.0-2.13","92204","List2B","black","woman","","","","null","","","","","","","","",""
"14173.600000143051","","","survey-text","379","1360956","0.0-19.0-3.13","92204","List2B","black","woman","","","","","{""Q0"":""fred is being copied by kate""}","<img src=""stim_listB/copy4.gif""style=""height:400px;""></stim_listB>","is being copied by","","","","","",""
"null","<div style=""font-size:60px;"">+</div>","","html-keyboard-response","380","1361469","0.0-19.0-0.14","92204","List2B","black","woman","","","","null","","","","","","","","",""
"null","<img src=""stim_listB/seduce1.gif""style=""height:400px;""></stim_listB>","","html-keyboard-response","381","1363483","0.0-19.0-1.14","92204","List2B","black","woman","","","","null","","","","","","","","",""
"null","is seducing","","html-keyboard-response","382","1365495","0.0-19.0-2.14","92204","List2B","black","woman","","","","null","","","","","","","","",""
"5319.700000047684","","","survey-text","383","1370818","0.0-19.0-3.14","92204","List2B","black","woman","","","","","{""Q0"":""luke is seducing jane""}","<img src=""stim_listB/seduce1.gif""style=""height:400px;""></stim_listB>","is seducing","","","","","",""
"null","<div style=""font-size:60px;"">+</div>","","html-keyboard-response","384","1371327","0.0-19.0-0.15","92204","List2B","black","woman","","","","null","","","","","","","","",""
"null","<img src=""stim_listB/look7.gif""style=""height:400px;""></stim_listB>","","html-keyboard-response","385","1373334","0.0-19.0-1.15","92204","List2B","black","woman","","","","null","","","","","","","","",""
"null","is looking at","","html-keyboard-response","386","1375341","0.0-19.0-2.15","92204","List2B","black","woman","","","","null","","","","","","","","",""
"5528.799999952316","","","survey-text","387","1380872","0.0-19.0-3.15","92204","List2B","black","woman","","","","","{""Q0"":""ruth is looking at beth""}","<img src=""stim_listB/look7.gif""style=""height:400px;""></stim_listB>","is looking at","","","","","",""
"null","<div style=""font-size:60px;"">+</div>","","html-keyboard-response","388","1381375","0.0-19.0-0.16","92204","List2B","black","woman","","","","null","","","","","","","","",""
"null","<img src=""stim_listB/oppose7.gif""style=""height:400px;""></stim_listB>","","html-keyboard-response","389","1383382","0.0-19.0-1.16","92204","List2B","black","woman","","","","null","","","","","","","","",""
"null","is opposing","","html-keyboard-response","390","1385391","0.0-19.0-2.16","92204","List2B","black","woman","","","","null","","","","","","","","",""
"5808.5","","","survey-text","391","1391205","0.0-19.0-3.16","92204","List2B","black","woman","","","","","{""Q0"":""jane is opposing kate""}","<img src=""stim_listB/oppose7.gif""style=""height:400px;""></stim_listB>","is opposing","","","","","",""
"null","<div style=""font-size:60px;"">+</div>","","html-keyboard-response","392","1391708","0.0-19.0-0.17","92204","List2B","black","woman","","","","null","","","","","","","","",""
"null","<img src=""stim_listB/seduce8.gif""style=""height:400px;""></stim_listB>","","html-keyboard-response","393","1393715","0.0-19.0-1.17","92204","List2B","black","woman","","","","null","","","","","","","","",""
"null","is being seduced by","","html-keyboard-response","394","1395735","0.0-19.0-2.17","92204","List2B","black","woman","","","","null","","","","","","","","",""
"7046.799999952316","","","survey-text","395","1402784","0.0-19.0-3.17","92204","List2B","black","woman","","","","","{""Q0"":""beth is being seduced by jane""}","<img src=""stim_listB/seduce8.gif""style=""height:400px;""></stim_listB>","is being seduced by","","","","","",""
"null","<div style=""font-size:60px;"">+</div>","","html-keyboard-response","396","1403300","0.0-19.0-0.18","92204","List2B","black","woman","","","","null","","","","","","","","",""
"null","<img src=""stim_listB/challenge4.gif""style=""height:400px;""></stim_listB>","","html-keyboard-response","397","1405313","0.0-19.0-1.18","92204","List2B","black","woman","","","","null","","","","","","","","",""
"null","is being challenged by","","html-keyboard-response","398","1407320","0.0-19.0-2.18","92204","List2B","black","woman","","","","null","","","","","","","","",""
"6732.699999809265","","","survey-text","399","1414056","0.0-19.0-3.18","92204","List2B","black","woman","","","","","{""Q0"":""fred is being challenged by kate""}","<img src=""stim_listB/challenge4.gif""style=""height:400px;""></stim_listB>","is being challenged by","","","","","",""
"null","<div style=""font-size:60px;"">+</div>","","html-keyboard-response","400","1414563","0.0-19.0-0.19","92204","List2B","black","woman","","","","null","","","","","","","","",""
"null","<img src=""stim_listB/greet7.gif""style=""height:400px;""></stim_listB>","","html-keyboard-response","401","1416571","0.0-19.0-1.19","92204","List2B","black","woman","","","","null","","","","","","","","",""
"null","is greeting","","html-keyboard-response","402","1418577","0.0-19.0-2.19","92204","List2B","black","woman","","","","null","","","","","","","","",""
"7754.299999952316","","","survey-text","403","1426335","0.0-19.0-3.19","92204","List2B","black","woman","","","","","{""Q0"":""jane is greeting beth""}","<img src=""stim_listB/greet7.gif""style=""height:400px;""></stim_listB>","is greeting","","","","","",""
"2909","<p>Thank you for completing that task.</p><p>The final part of this session is a questionnaire that will take about 4 minutes.</p><p>Press Continue.</p>","0","html-button-response","404","1429245","0.0-20.0","92204","List2B","black","woman","","","","","","","","","","","","",""
"46162","","","survey-text","405","1476421","0.0-21.0","92204","List2B","black","woman","","","","","{""Q0"":""21"",""Q1"":""english"",""Q2"":""english"",""Q3"":""United States"",""Q4"":""Jamaican"",""Q5"":""black"",""Q6"":""female""}","","","demographics","","","","",""
"6181.5","<p>Have you lived in the USA for the last 5 years or more?</p>","0","html-button-response","406","1482605","0.0-22.0","92204","List2B","black","woman","","","","","","","","fiveyears","","","","",""
"3391.899999856949","<p>Move the slider to show the extent to which you agree with the following statements.</p>","0","html-button-response","407","1486998","0.0-23.0","92204","List2B","black","woman","","","","","","","","","","","","",""
"3804.5999999046326","","","html-slider-response","408","1491812","0.0-24.0-0.0-0.0","92204","List2B","black","woman","","","","","","","","survey_gender","92","","","I feel committed to my gender.","committed"
"2526.7999999523163","","","html-slider-response","409","1494340","0.0-24.0-0.0-0.1","92204","List2B","black","woman","","","","","","","","survey_gender","94","","","It is pleasant to be my gender.","pleasant"
"4251.399999856949","","","html-slider-response","410","1498593","0.0-24.0-0.0-0.2","92204","List2B","black","woman","","","","","","","","survey_gender","91","","","I feel solidarity with my friends.","filler"
"5703.200000047684","","","html-slider-response","411","1504298","0.0-24.0-0.0-0.3","92204","List2B","black","woman","","","","","","","","survey_gender","32","","","Most of the friends in my life are very similar to me.","filler"
"3042.100000143051","","","html-slider-response","412","1507343","0.0-24.0-0.0-0.4","92204","List2B","black","woman","","","","","","","","survey_gender","60","","","I would say I am an animal person.","filler"
"2600.100000143051","","","html-slider-response","413","1509946","0.0-24.0-0.0-0.5","92204","List2B","black","woman","","","","","","","","survey_gender","95","","","I feel solidarity with my gender.","solidarity"
"4005.9000000953674","","","html-slider-response","414","1513953","0.0-24.0-0.0-0.6","92204","List2B","black","woman","","","","","","","","survey_gender","65","","","I have a lot in common with my friends.","filler"
"3558.9000000953674","","","html-slider-response","415","1517514","0.0-24.0-0.0-0.7","92204","List2B","black","woman","","","","","","","","survey_gender","58","","","I consider myself a highly empathetic person.","filler"
"4833.400000095367","","","html-slider-response","416","1522349","0.0-24.0-0.0-0.8","92204","List2B","black","woman","","","","","","","","survey_gender","93","","","I think that my gender has a lot to be proud of.","proud"
"4201.400000095367","","","html-slider-response","417","1526551","0.0-24.0-0.0-0.9","92204","List2B","black","woman","","","","","","","","survey_gender","98","","","It is not always easy for people to know what I am thinking.","filler"
"4715.099999904633","","","html-slider-response","418","1531269","0.0-24.0-0.0-0.10","92204","List2B","black","woman","","","","","","","","survey_gender","52","","","People of my gender have a lot in common with each other.","common"
"2894.2999999523163","","","html-slider-response","419","1534165","0.0-24.0-0.0-0.11","92204","List2B","black","woman","","","","","","","","survey_gender","55","","","My friends understand me.","filler"
"2938.2000000476837","","","html-slider-response","420","1537105","0.0-24.0-0.0-0.12","92204","List2B","black","woman","","","","","","","","survey_gender","75","","","I often think about my actions.","filler"
"2748.7000000476837","","","html-slider-response","421","1539855","0.0-24.0-0.0-0.13","92204","List2B","black","woman","","","","","","","","survey_gender","82","","","People of my gender are very similar to each other.","verysimilar"
"2777.5","","","html-slider-response","422","1542634","0.0-24.0-0.0-0.14","92204","List2B","black","woman","","","","","","","","survey_gender","96","","","I am glad to be my gender.","glad"
"5290.699999809265","","","html-slider-response","423","1547927","0.0-24.0-0.0-0.15","92204","List2B","black","woman","","","","","","","","survey_gender","96","","","The fact that I am my gender is an important part of my identity.","identity"
"5134.700000047684","","","html-slider-response","424","1553063","0.0-24.0-0.0-0.16","92204","List2B","black","woman","","","","","","","","survey_gender","98","","","Being around my friends gives me a good feeling.","filler"
"3226.600000143051","","","html-slider-response","425","1556292","0.0-24.0-0.0-0.17","92204","List2B","black","woman","","","","","","","","survey_gender","92","","","Being my gender is an important part of how I see myself.","important"
"2842.5999999046326","","","html-slider-response","426","1559136","0.0-24.0-0.0-0.18","92204","List2B","black","woman","","","","","","","","survey_gender","88","","","I feel a bond with my friends.","filler"
"4509.099999904633","","","html-slider-response","427","1563647","0.0-24.0-0.0-0.19","92204","List2B","black","woman","","","","","","","","survey_gender","28","","","I often think about the fact that I am my gender.","often"
"6993","","","html-slider-response","428","1570641","0.0-24.0-0.0-0.20","92204","List2B","black","woman","","","","","","","","survey_gender","1","","","Family is not more important to me than friendship.","filler"
"3485.2000000476837","","","html-slider-response","429","1574127","0.0-24.0-0.0-0.21","92204","List2B","black","woman","","","","","","","","survey_gender","84","","","I am similar to the average person of my gender.","similar"
"2239.5999999046326","","","html-slider-response","430","1576368","0.0-24.0-0.0-0.22","92204","List2B","black","woman","","","","","","","","survey_gender","86","","","I feel a bond with my gender.","bond"
"5953.800000190735","","","html-slider-response","431","1582323","0.0-24.0-0.0-0.23","92204","List2B","black","woman","","","","","","","","survey_gender","94","","","I have a lot in common with the average person of my gender.","average"
"2586.2999999523163","","","html-slider-response","432","1584911","0.0-24.0-0.0-0.24","92204","List2B","black","woman","","","","","","","","survey_gender","90","","","I am glad to have the friends that I have.","filler"
"3646.7000000476837","","","html-slider-response","433","1588559","0.0-24.0-0.0-0.25","92204","List2B","black","woman","","","","","","","","survey_gender","42","","","Routine is not important to me.","filler"
"2613.5","","","html-slider-response","434","1591174","0.0-24.0-0.0-0.26","92204","List2B","black","woman","","","","","","","","survey_gender","95","","","Being my gender gives me a good feeling.","feeling"
"2298.899999856949","","","html-slider-response","435","1593475","0.0-24.0-0.0-0.27","92204","List2B","black","woman","","","","","","","","survey_gender","92","","","My friends have a lot in common with each other.","filler"
"2591.9000000953674","","","html-slider-response","436","1596070","0.0-24.0-1.0-0.0","92204","List2B","black","woman","","","","","","","","survey_race","85","","","People my age have a lot in common with each other.","filler"
"4795.400000095367","","","html-slider-response","437","1600866","0.0-24.0-1.0-0.1","92204","List2B","black","woman","","","","","","","","survey_race","100","","","The fact that I am my race is an important part of my identity.","identity"
"3625","","","html-slider-response","438","1604492","0.0-24.0-1.0-0.2","92204","List2B","black","woman","","","","","","","","survey_race","63","","","I have a lot in common with the average person of my race.","average"
"3160.7999999523163","","","html-slider-response","439","1607655","0.0-24.0-1.0-0.3","92204","List2B","black","woman","","","","","","","","survey_race","93","","","I have a lot in common with people of a similar age to me.","filler"
"4868.900000095367","","","html-slider-response","440","1612525","0.0-24.0-1.0-0.4","92204","List2B","black","woman","","","","","","","","survey_race","71","","","It is pleasant to be my race.","pleasant"
"3270.7000000476837","","","html-slider-response","441","1615798","0.0-24.0-1.0-0.5","92204","List2B","black","woman","","","","","","","","survey_race","36","","","I enjoy being in large groups.","filler"
"3204.5","","","html-slider-response","442","1619003","0.0-24.0-1.0-0.6","92204","List2B","black","woman","","","","","","","","survey_race","93","","","I am similar to the average person of my race.","similar"
"2047.8000001907349","","","html-slider-response","443","1621053","0.0-24.0-1.0-0.7","92204","List2B","black","woman","","","","","","","","survey_race","93","","","I am glad to be my age.","filler"
"2681.600000143051","","","html-slider-response","444","1623736","0.0-24.0-1.0-0.8","92204","List2B","black","woman","","","","","","","","survey_race","99","","","I feel a bond with people the same age as me.","filler"
"5362.5","","","html-slider-response","445","1629101","0.0-24.0-1.0-0.9","92204","List2B","black","woman","","","","","","","","survey_race","62","","","I consider myself an extrovert.","filler"
"2966.2000000476837","","","html-slider-response","446","1632069","0.0-24.0-1.0-0.10","92204","List2B","black","woman","","","","","","","","survey_race","100","","","I feel solidarity with my race.","solidarity"
"2439.399999856949","","","html-slider-response","447","1634510","0.0-24.0-1.0-0.11","92204","List2B","black","woman","","","","","","","","survey_race","87","","","The older I get, the wiser I feel.","filler"
"5436.799999952316","","","html-slider-response","448","1639948","0.0-24.0-1.0-0.12","92204","List2B","black","woman","","","","","","","","survey_race","42","","","My age is not an important part of who I am.","filler"
"3131","","","html-slider-response","449","1643081","0.0-24.0-1.0-0.13","92204","List2B","black","woman","","","","","","","","survey_race","85","","","Getting older does not worry me.","filler"
"2467.699999809265","","","html-slider-response","450","1645551","0.0-24.0-1.0-0.14","92204","List2B","black","woman","","","","","","","","survey_race","94","","","I feel solidarity with people the same age as me.","filler"
"2666.399999856949","","","html-slider-response","451","1648218","0.0-24.0-1.0-0.15","92204","List2B","black","woman","","","","","","","","survey_race","97","","","I often think about the fact that I am my age.","filler"
"2984.4000000953674","","","html-slider-response","452","1651204","0.0-24.0-1.0-0.16","92204","List2B","black","woman","","","","","","","","survey_race","89","","","I am glad to be my race.","glad"
"2880.5","","","html-slider-response","453","1654086","0.0-24.0-1.0-0.17","92204","List2B","black","woman","","","","","","","","survey_race","83","","","Being my race gives me a good feeling.","feeling"
"3064.5","","","html-slider-response","454","1657152","0.0-24.0-1.0-0.18","92204","List2B","black","woman","","","","","","","","survey_race","97","","","Being my race is an important part of how I see myself.","important"
"2991.100000143051","","","html-slider-response","455","1660144","0.0-24.0-1.0-0.19","92204","List2B","black","woman","","","","","","","","survey_race","83","","","Being my age gives me a good feeling.","filler"
"4331.400000095367","","","html-slider-response","456","1664477","0.0-24.0-1.0-0.20","92204","List2B","black","woman","","","","","","","","survey_race","84","","","People of my race are very similar to each other.","verysimilar"
"2733.4000000953674","","","html-slider-response","457","1667212","0.0-24.0-1.0-0.21","92204","List2B","black","woman","","","","","","","","survey_race","98","","","I am glad to be the age I am.","filler"
"3455.800000190735","","","html-slider-response","458","1670669","0.0-24.0-1.0-0.22","92204","List2B","black","woman","","","","","","","","survey_race","98","","","I often think about the fact that I am my race.","often"
"3366","","","html-slider-response","459","1674038","0.0-24.0-1.0-0.23","92204","List2B","black","woman","","","","","","","","survey_race","82","","","People of my race have a lot in common with each other.","common"
"4190.799999952316","","","html-slider-response","460","1678230","0.0-24.0-1.0-0.24","92204","List2B","black","woman","","","","","","","","survey_race","35","","","I consider myself an introvert.","filler"
"3278.5999999046326","","","html-slider-response","461","1681510","0.0-24.0-1.0-0.25","92204","List2B","black","woman","","","","","","","","survey_race","100","","","I think that my race has a lot to be proud of.","proud"
"2497.899999856949","","","html-slider-response","462","1684009","0.0-24.0-1.0-0.26","92204","List2B","black","woman","","","","","","","","survey_race","100","","","I feel a bond with my race.","bond"
"2725.2000000476837","","","html-slider-response","463","1686736","0.0-24.0-1.0-0.27","92204","List2B","black","woman","","","","","","","","survey_race","100","","","I feel committed to my race.","committed"
"10438.299999952316","","","survey-text","464","1697178","0.0-25.0","92204","List2B","black","woman","","","","","{""Q0"":""60fd0f90835061fda42204e8""}","","","worker_id","","","","",""
"21811.39999985695","","","external-html","465","1719233","0.0-26.0","92204","List2B","black","woman","debrief.html","","","","","","","","","","","",""
