"rt","stimulus","button_pressed","trial_type","trial_index","time_elapsed","internal_node_id","subject","list","ppt_race","ppt_gender","url","first_guess","correct","key_press","responses","image_type","phrase_type","test_part","response","stimulus1","stimulus2","question_type","survey_item"
"33681.39999997616","Welcome to the experiment. Press Continue to begin.","0","html-button-response","0","33730","0.0-0.0","92700","List2B","black","man","","","","","","","","","","","","",""
"14149.199999988079","","","external-html","1","49177","0.0-1.0","92700","List2B","black","man","consent.html","","","","","","","","","","","",""
"13484.799999952316","<p>On the next page, you will see portraits of 8 people and their names.</p><p>Your first task is to take a few minutes to memorise the names of these people.</p><p>You will have to recall their names during the rest of the experiment, so it is</p><p>essential that you try to memorise these people and their names as best as you can.</p><br><p><strong>You will then be tested on your memory of these names and portraits.</strong></p><br><p>The experiment will start after you have completed this memory test.</p><br><p>Ready?</p>","0","html-button-response","2","62664","0.0-2.0","92700","List2B","black","man","","","","","","","","","","","","",""
"50101.30000001192","<img src='img/portrait_matrix_list2.jpg' style='width:900px;height:500px;''></img><p>If you have memorised all the portraits and names and are ready to start, press Continue.</p><p><strong>Please note: Your memory of these faces will be tested 4 times during this experiment.</strong></p>","0","html-button-response","3","113769","0.0-3.0-0.0","92700","List2B","black","man","","","","","","","","","","","","",""
"18242.80000001192","<img src=""portrait/WW2.jpg""style=""height:400px;""></img>","1","html-button-response","4","133016","0.0-3.0-1.0","92700","List2B","black","man","","true","3","","","","","","","","","",""
"3577.400000035763","<img src=""portrait/WW2.jpg""style=""height:400px;""></img>","3","html-button-response","5","137600","0.0-3.0-3.0-0.0","92700","List2B","black","man","","false","3","","","","","","","","","",""
"null","CORRECT","","html-keyboard-response","6","139106","0.0-3.0-3.0-1.0-0.0","92700","List2B","black","man","","","","null","","","","","","","","",""
"3411.5","<img src=""portrait/WM1.jpg""style=""height:400px;""></img>","6","html-button-response","7","142521","0.0-3.0-4.0","92700","List2B","black","man","","true","6","","","","","","","","","",""
"null","CORRECT","","html-keyboard-response","8","144025","0.0-3.0-5.0-0.0","92700","List2B","black","man","","","","null","","","","","","","","",""
"3619.7000000476837","<img src=""portrait/BW1.jpg""style=""height:400px;""></img>","0","html-button-response","9","147648","0.0-3.0-7.0","92700","List2B","black","man","","true","0","","","","","","","","","",""
"null","CORRECT","","html-keyboard-response","10","149152","0.0-3.0-8.0-0.0","92700","List2B","black","man","","","","null","","","","","","","","",""
"2509.699999988079","<img src=""portrait/WM2.jpg""style=""height:400px;""></img>","7","html-button-response","11","151664","0.0-3.0-10.0","92700","List2B","black","man","","true","7","","","","","","","","","",""
"null","CORRECT","","html-keyboard-response","12","153168","0.0-3.0-11.0-0.0","92700","List2B","black","man","","","","null","","","","","","","","",""
"3318.199999988079","<img src=""portrait/WW1.jpg""style=""height:400px;""></img>","1","html-button-response","13","156488","0.0-3.0-13.0","92700","List2B","black","man","","true","1","","","","","","","","","",""
"null","CORRECT","","html-keyboard-response","14","157991","0.0-3.0-14.0-0.0","92700","List2B","black","man","","","","null","","","","","","","","",""
"2615.100000023842","<img src=""portrait/BM1.jpg""style=""height:400px;""></img>","4","html-button-response","15","160608","0.0-3.0-16.0","92700","List2B","black","man","","true","4","","","","","","","","","",""
"null","CORRECT","","html-keyboard-response","16","162113","0.0-3.0-17.0-0.0","92700","List2B","black","man","","","","null","","","","","","","","",""
"1285.0999999642372","<img src=""portrait/BM2.jpg""style=""height:400px;""></img>","5","html-button-response","17","163400","0.0-3.0-19.0","92700","List2B","black","man","","true","5","","","","","","","","","",""
"null","CORRECT","","html-keyboard-response","18","164903","0.0-3.0-20.0-0.0","92700","List2B","black","man","","","","null","","","","","","","","",""
"2071.100000023842","<img src=""portrait/BW2.jpg""style=""height:400px;""></img>","2","html-button-response","19","166978","0.0-3.0-22.0","92700","List2B","black","man","","true","2","","","","","","","","","",""
"null","CORRECT","","html-keyboard-response","20","168483","0.0-3.0-23.0-0.0","92700","List2B","black","man","","","","null","","","","","","","","",""
"1682.1000000238419","<p>You got 7 out of 8 right first time. Press Continue.</p>","0","html-button-response","21","170168","0.0-3.0-25.0","92700","List2B","black","man","","","","","","","","","","","","",""
"2292.600000023842","As you did not score 100%, the memory game will repeat. Press Continue.","0","html-button-response","22","173463","0.0-3.0-26.0-0.0","92700","List2B","black","man","","","","","","","","","","","","",""
"2420.100000023842","<img src='img/portrait_matrix_list2.jpg' style='width:900px;height:500px;''></img><p>If you have memorised all the portraits and names and are ready to start, press Continue.</p><p><strong>Please note: Your memory of these faces will be tested 4 times during this experiment.</strong></p>","0","html-button-response","23","176888","0.0-3.1-0.1","92700","List2B","black","man","","","","","","","","","","","","",""
"789.3999999761581","<img src=""portrait/WW2.jpg""style=""height:400px;""></img>","3","html-button-response","24","178680","0.0-3.1-1.1","92700","List2B","black","man","","true","3","","","","","","","","","",""
"null","CORRECT","","html-keyboard-response","25","180184","0.0-3.1-2.1-0.1","92700","List2B","black","man","","","","null","","","","","","","","",""
"1998","<img src=""portrait/WM1.jpg""style=""height:400px;""></img>","6","html-button-response","26","182184","0.0-3.1-4.1","92700","List2B","black","man","","true","6","","","","","","","","","",""
"null","CORRECT","","html-keyboard-response","27","183688","0.0-3.1-5.1-0.1","92700","List2B","black","man","","","","null","","","","","","","","",""
"3125.900000035763","<img src=""portrait/BW1.jpg""style=""height:400px;""></img>","0","html-button-response","28","186816","0.0-3.1-7.1","92700","List2B","black","man","","true","0","","","","","","","","","",""
"null","CORRECT","","html-keyboard-response","29","188320","0.0-3.1-8.1-0.1","92700","List2B","black","man","","","","null","","","","","","","","",""
"1182","<img src=""portrait/WM2.jpg""style=""height:400px;""></img>","7","html-button-response","30","189504","0.0-3.1-10.1","92700","List2B","black","man","","true","7","","","","","","","","","",""
"null","CORRECT","","html-keyboard-response","31","191009","0.0-3.1-11.1-0.1","92700","List2B","black","man","","","","null","","","","","","","","",""
"2563.800000011921","<img src=""portrait/WW1.jpg""style=""height:400px;""></img>","1","html-button-response","32","193576","0.0-3.1-13.1","92700","List2B","black","man","","true","1","","","","","","","","","",""
"null","CORRECT","","html-keyboard-response","33","195080","0.0-3.1-14.1-0.1","92700","List2B","black","man","","","","null","","","","","","","","",""
"1518","<img src=""portrait/BM1.jpg""style=""height:400px;""></img>","4","html-button-response","34","196601","0.0-3.1-16.1","92700","List2B","black","man","","true","4","","","","","","","","","",""
"null","CORRECT","","html-keyboard-response","35","198105","0.0-3.1-17.1-0.1","92700","List2B","black","man","","","","null","","","","","","","","",""
"917.3000000119209","<img src=""portrait/BM2.jpg""style=""height:400px;""></img>","5","html-button-response","36","199025","0.0-3.1-19.1","92700","List2B","black","man","","true","5","","","","","","","","","",""
"null","CORRECT","","html-keyboard-response","37","200529","0.0-3.1-20.1-0.1","92700","List2B","black","man","","","","null","","","","","","","","",""
"1748.6000000238419","<img src=""portrait/BW2.jpg""style=""height:400px;""></img>","2","html-button-response","38","202280","0.0-3.1-22.1","92700","List2B","black","man","","true","2","","","","","","","","","",""
"null","CORRECT","","html-keyboard-response","39","203783","0.0-3.1-23.1-0.1","92700","List2B","black","man","","","","null","","","","","","","","",""
"1246.3999999761581","<p>You got 8 out of 8 right first time. Press Continue.</p>","0","html-button-response","40","205032","0.0-3.1-25.1","92700","List2B","black","man","","","","","","","","","","","","",""
"27515.400000035763","<p>In this experiment, you will view photographs of the people from the memory game interacting.</p><p>By using the <strong>exact</strong> phrase given <i>after</i> the photograph appears and recalling the correct names of the people in the photographs, form a sentence describing the interaction. You do not need to capitalise names.</p><p>Type your answer in the space provided. Please complete every sentence before moving onto the next trial.</p><p>You will only have a few seconds to memorise each given photograph and phrase before you can respond, so try your best to focus.</p><p>An example is given below. Press 'Continue' when you are ready.</p><img src='img/speaking_example.jpg' style='width:800px;height:460px;''></img>","0","html-button-response","41","233552","0.0-4.0","92700","List2B","black","man","","","","","","","","","","","","",""
"1284.4000000357628","<p>Before the experiment starts, you will watch two example trials. Press 'Continue'.</p>","0","html-button-response","42","235840","0.0-5.0","92700","List2B","black","man","","","","","","","","","","","","",""
"null","<img src='img/play_eg.gif' style='height:400px;''></img>","","html-keyboard-response","43","238847","0.0-6.0","92700","List2B","black","man","","","","null","","","","","","","","",""
"null","<p>is playing with</p>","","html-keyboard-response","44","240849","0.0-7.0","92700","List2B","black","man","","","","null","","","","","","","","",""
"2805","<p><b>Answer:</b> jane is playing with ruth</p>","0","html-button-response","45","243656","0.0-8.0","92700","List2B","black","man","","","","","","","","","","","","",""
"null","<img src='img/dance_eg.gif' style='height:400px;''></img>","","html-keyboard-response","46","246660","0.0-9.0","92700","List2B","black","man","","","","null","","","","","","","","",""
"null","<p>is being entertained by</p>","","html-keyboard-response","47","248662","0.0-10.0","92700","List2B","black","man","","","","null","","","","","","","","",""
"1928.699999988079","<p><b>Answer:</b> fred is being entertained by mike</p>","0","html-button-response","48","250593","0.0-11.0","92700","List2B","black","man","","","","","","","","","","","","",""
"8427.600000023842","<p>Ready to start the experiment?</p><br><p><strong>Remember to describe the picture using a full sentence,</strong></p><p><strong>that combines the names of the people with the <i>exact</i> phrase given.</strong></p><p><strong>To receive full payment you must do this correctly.</strong></p><p><strong> You do not need to capitalise names or use punctuation.</strong></p><br><p>Press 'Continue' to begin.</p>","0","html-button-response","49","260024","0.0-12.0","92700","List2B","black","man","","","","","","","","","","","","",""
"null","<div style=""font-size:60px;"">+</div>","","html-keyboard-response","50","261572","0.0-13.0-0.0","92700","List2B","black","man","","","","null","","","","","","","","",""
"null","<img src=""stim_listB/oppose6.gif""style=""height:400px;""></stim_listB>","","html-keyboard-response","51","263583","0.0-13.0-1.0","92700","List2B","black","man","","","","null","","","","","","","","",""
"null","is being opposed by","","html-keyboard-response","52","265585","0.0-13.0-2.0","92700","List2B","black","man","","","","null","","","","","","","","",""
"13097.800000011921","","","survey-text","53","278690","0.0-13.0-3.0","92700","List2B","black","man","","","","","{""Q0"":""luke and fred""}","<img src=""stim_listB/oppose6.gif""style=""height:400px;""></stim_listB>","is being opposed by","","","","","",""
"null","<div style=""font-size:60px;"">+</div>","","html-keyboard-response","54","279194","0.0-13.0-0.1","92700","List2B","black","man","","","","null","","","","","","","","",""
"null","<img src=""stim_listB/copy6.gif""style=""height:400px;""></stim_listB>","","html-keyboard-response","55","281195","0.0-13.0-1.1","92700","List2B","black","man","","","","null","","","","","","","","",""
"null","is being copied by","","html-keyboard-response","56","283198","0.0-13.0-2.1","92700","List2B","black","man","","","","null","","","","","","","","",""
"6913.900000035763","","","survey-text","57","290116","0.0-13.0-3.1","92700","List2B","black","man","","","","","{""Q0"":""mike and luke""}","<img src=""stim_listB/copy6.gif""style=""height:400px;""></stim_listB>","is being copied by","","","","","",""
"null","<div style=""font-size:60px;"">+</div>","","html-keyboard-response","58","290619","0.0-13.0-0.2","92700","List2B","black","man","","","","null","","","","","","","","",""
"null","<img src=""stim_listB/touch3.gif""style=""height:400px;""></stim_listB>","","html-keyboard-response","59","292622","0.0-13.0-1.2","92700","List2B","black","man","","","","null","","","","","","","","",""
"null","is touching","","html-keyboard-response","60","294624","0.0-13.0-2.2","92700","List2B","black","man","","","","null","","","","","","","","",""
"7072.599999964237","","","survey-text","61","301724","0.0-13.0-3.2","92700","List2B","black","man","","","","","{""Q0"":""mike is touching kate""}","<img src=""stim_listB/touch3.gif""style=""height:400px;""></stim_listB>","is touching","","","","","",""
"null","<div style=""font-size:60px;"">+</div>","","html-keyboard-response","62","302227","0.0-13.0-0.3","92700","List2B","black","man","","","","null","","","","","","","","",""
"null","<img src=""stim_listB/challenge4.gif""style=""height:400px;""></stim_listB>","","html-keyboard-response","63","304230","0.0-13.0-1.3","92700","List2B","black","man","","","","null","","","","","","","","",""
"null","is being challenged by","","html-keyboard-response","64","306232","0.0-13.0-2.3","92700","List2B","black","man","","","","null","","","","","","","","",""
"11708.400000035763","","","survey-text","65","317945","0.0-13.0-3.3","92700","List2B","black","man","","","","","{""Q0"":""fred is being challenged by kate""}","<img src=""stim_listB/challenge4.gif""style=""height:400px;""></stim_listB>","is being challenged by","","","","","",""
"null","<div style=""font-size:60px;"">+</div>","","html-keyboard-response","66","318450","0.0-13.0-0.4","92700","List2B","black","man","","","","null","","","","","","","","",""
"null","<img src=""stim_listB/greet8.gif""style=""height:400px;""></stim_listB>","","html-keyboard-response","67","320453","0.0-13.0-1.4","92700","List2B","black","man","","","","null","","","","","","","","",""
"null","is being greeted by","","html-keyboard-response","68","322455","0.0-13.0-2.4","92700","List2B","black","man","","","","null","","","","","","","","",""
"9682.099999964237","","","survey-text","69","332145","0.0-13.0-3.4","92700","List2B","black","man","","","","","{""Q0"":""ruth is being greeted by kate""}","<img src=""stim_listB/greet8.gif""style=""height:400px;""></stim_listB>","is being greeted by","","","","","",""
"null","<div style=""font-size:60px;"">+</div>","","html-keyboard-response","70","332650","0.0-13.0-0.5","92700","List2B","black","man","","","","null","","","","","","","","",""
"null","<img src=""stim_listB/greet3.gif""style=""height:400px;""></stim_listB>","","html-keyboard-response","71","334653","0.0-13.0-1.5","92700","List2B","black","man","","","","null","","","","","","","","",""
"null","is greeting","","html-keyboard-response","72","336654","0.0-13.0-2.5","92700","List2B","black","man","","","","null","","","","","","","","",""
"6953.300000011921","","","survey-text","73","343612","0.0-13.0-3.5","92700","List2B","black","man","","","","","{""Q0"":""beth is greeting mike""}","<img src=""stim_listB/greet3.gif""style=""height:400px;""></stim_listB>","is greeting","","","","","",""
"null","<div style=""font-size:60px;"">+</div>","","html-keyboard-response","74","344116","0.0-13.0-0.6","92700","List2B","black","man","","","","null","","","","","","","","",""
"null","<img src=""stim_listB/seduce2.gif""style=""height:400px;""></stim_listB>","","html-keyboard-response","75","346119","0.0-13.0-1.6","92700","List2B","black","man","","","","null","","","","","","","","",""
"null","is being seduced by","","html-keyboard-response","76","348122","0.0-13.0-2.6","92700","List2B","black","man","","","","null","","","","","","","","",""
"9507.699999988079","","","survey-text","77","357634","0.0-13.0-3.6","92700","List2B","black","man","","","","","{""Q0"":""dave is being seduced by ruth""}","<img src=""stim_listB/seduce2.gif""style=""height:400px;""></stim_listB>","is being seduced by","","","","","",""
"null","<div style=""font-size:60px;"">+</div>","","html-keyboard-response","78","358138","0.0-13.0-0.7","92700","List2B","black","man","","","","null","","","","","","","","",""
"null","<img src=""stim_listB/hug7.gif""style=""height:400px;""></stim_listB>","","html-keyboard-response","79","360140","0.0-13.0-1.7","92700","List2B","black","man","","","","null","","","","","","","","",""
"null","is hugging","","html-keyboard-response","80","362143","0.0-13.0-2.7","92700","List2B","black","man","","","","null","","","","","","","","",""
"6493.599999964237","","","survey-text","81","368642","0.0-13.0-3.7","92700","List2B","black","man","","","","","{""Q0"":""beth is hugging ruth""}","<img src=""stim_listB/hug7.gif""style=""height:400px;""></stim_listB>","is hugging","","","","","",""
"null","<div style=""font-size:60px;"">+</div>","","html-keyboard-response","82","369145","0.0-13.0-0.8","92700","List2B","black","man","","","","null","","","","","","","","",""
"null","<img src=""stim_listB/copy7.gif""style=""height:400px;""></stim_listB>","","html-keyboard-response","83","371148","0.0-13.0-1.8","92700","List2B","black","man","","","","null","","","","","","","","",""
"null","is copying","","html-keyboard-response","84","373151","0.0-13.0-2.8","92700","List2B","black","man","","","","null","","","","","","","","",""
"6302","","","survey-text","85","379467","0.0-13.0-3.8","92700","List2B","black","man","","","","","{""Q0"":""beth is copying jane""}","<img src=""stim_listB/copy7.gif""style=""height:400px;""></stim_listB>","is copying","","","","","",""
"null","<div style=""font-size:60px;"">+</div>","","html-keyboard-response","86","379970","0.0-13.0-0.9","92700","List2B","black","man","","","","null","","","","","","","","",""
"null","<img src=""stim_listB/shout7.gif""style=""height:400px;""></stim_listB>","","html-keyboard-response","87","381973","0.0-13.0-1.9","92700","List2B","black","man","","","","null","","","","","","","","",""
"null","is shouting at","","html-keyboard-response","88","383976","0.0-13.0-2.9","92700","List2B","black","man","","","","null","","","","","","","","",""
"7408.899999976158","","","survey-text","89","391389","0.0-13.0-3.9","92700","List2B","black","man","","","","","{""Q0"":""beth is shouting at ruth""}","<img src=""stim_listB/shout7.gif""style=""height:400px;""></stim_listB>","is shouting at","","","","","",""
"null","<div style=""font-size:60px;"">+</div>","","html-keyboard-response","90","391892","0.0-13.0-0.10","92700","List2B","black","man","","","","null","","","","","","","","",""
"null","<img src=""stim_listB/oppose5.gif""style=""height:400px;""></stim_listB>","","html-keyboard-response","91","393896","0.0-13.0-1.10","92700","List2B","black","man","","","","null","","","","","","","","",""
"null","is opposing","","html-keyboard-response","92","395898","0.0-13.0-2.10","92700","List2B","black","man","","","","null","","","","","","","","",""
"6669.399999976158","","","survey-text","93","402574","0.0-13.0-3.10","92700","List2B","black","man","","","","","{""Q0"":""mike is opposing dave""}","<img src=""stim_listB/oppose5.gif""style=""height:400px;""></stim_listB>","is opposing","","","","","",""
"null","<div style=""font-size:60px;"">+</div>","","html-keyboard-response","94","403076","0.0-13.0-0.11","92700","List2B","black","man","","","","null","","","","","","","","",""
"null","<img src=""stim_listB/touch8.gif""style=""height:400px;""></stim_listB>","","html-keyboard-response","95","405080","0.0-13.0-1.11","92700","List2B","black","man","","","","null","","","","","","","","",""
"null","is being touched by","","html-keyboard-response","96","407081","0.0-13.0-2.11","92700","List2B","black","man","","","","null","","","","","","","","",""
"7875.100000023842","","","survey-text","97","414961","0.0-13.0-3.11","92700","List2B","black","man","","","","","{""Q0"":""ruth is being touched by beth""}","<img src=""stim_listB/touch8.gif""style=""height:400px;""></stim_listB>","is being touched by","","","","","",""
"null","<div style=""font-size:60px;"">+</div>","","html-keyboard-response","98","415464","0.0-13.0-0.12","92700","List2B","black","man","","","","null","","","","","","","","",""
"null","<img src=""stim_listB/look6.gif""style=""height:400px;""></stim_listB>","","html-keyboard-response","99","417468","0.0-13.0-1.12","92700","List2B","black","man","","","","null","","","","","","","","",""
"null","is being looked at by","","html-keyboard-response","100","419471","0.0-13.0-2.12","92700","List2B","black","man","","","","null","","","","","","","","",""
"8883.600000023842","","","survey-text","101","428369","0.0-13.0-3.12","92700","List2B","black","man","","","","","{""Q0"":""mike is being looked at by dave""}","<img src=""stim_listB/look6.gif""style=""height:400px;""></stim_listB>","is being looked at by","","","","","",""
"null","<div style=""font-size:60px;"">+</div>","","html-keyboard-response","102","428871","0.0-13.0-0.13","92700","List2B","black","man","","","","null","","","","","","","","",""
"null","<img src=""stim_listB/hug4.gif""style=""height:400px;""></stim_listB>","","html-keyboard-response","103","430873","0.0-13.0-1.13","92700","List2B","black","man","","","","null","","","","","","","","",""
"null","is being hugged by","","html-keyboard-response","104","432875","0.0-13.0-2.13","92700","List2B","black","man","","","","null","","","","","","","","",""
"8033.800000011921","","","survey-text","105","440913","0.0-13.0-3.13","92700","List2B","black","man","","","","","{""Q0"":""mike is being hugged by kate""}","<img src=""stim_listB/hug4.gif""style=""height:400px;""></stim_listB>","is being hugged by","","","","","",""
"null","<div style=""font-size:60px;"">+</div>","","html-keyboard-response","106","441416","0.0-13.0-0.14","92700","List2B","black","man","","","","null","","","","","","","","",""
"null","<img src=""stim_listB/greet4.gif""style=""height:400px;""></stim_listB>","","html-keyboard-response","107","443419","0.0-13.0-1.14","92700","List2B","black","man","","","","null","","","","","","","","",""
"null","is being greeted by","","html-keyboard-response","108","445421","0.0-13.0-2.14","92700","List2B","black","man","","","","null","","","","","","","","",""
"8789","","","survey-text","109","454214","0.0-13.0-3.14","92700","List2B","black","man","","","","","{""Q0"":""fred is being greeted by kate""}","<img src=""stim_listB/greet4.gif""style=""height:400px;""></stim_listB>","is being greeted by","","","","","",""
"null","<div style=""font-size:60px;"">+</div>","","html-keyboard-response","110","454718","0.0-13.0-0.15","92700","List2B","black","man","","","","null","","","","","","","","",""
"null","<img src=""stim_listB/oppose3.gif""style=""height:400px;""></stim_listB>","","html-keyboard-response","111","456720","0.0-13.0-1.15","92700","List2B","black","man","","","","null","","","","","","","","",""
"null","is opposing","","html-keyboard-response","112","458722","0.0-13.0-2.15","92700","List2B","black","man","","","","null","","","","","","","","",""
"7786.900000035763","","","survey-text","113","466513","0.0-13.0-3.15","92700","List2B","black","man","","","","","{""Q0"":""mike is opposing kate""}","<img src=""stim_listB/oppose3.gif""style=""height:400px;""></stim_listB>","is opposing","","","","","",""
"null","<div style=""font-size:60px;"">+</div>","","html-keyboard-response","114","467016","0.0-13.0-0.16","92700","List2B","black","man","","","","null","","","","","","","","",""
"null","<img src=""stim_listB/look3.gif""style=""height:400px;""></stim_listB>","","html-keyboard-response","115","469021","0.0-13.0-1.16","92700","List2B","black","man","","","","null","","","","","","","","",""
"null","is looking at","","html-keyboard-response","116","471023","0.0-13.0-2.16","92700","List2B","black","man","","","","null","","","","","","","","",""
"6493.300000011921","","","survey-text","117","477538","0.0-13.0-3.16","92700","List2B","black","man","","","","","{""Q0"":""beth is looking at fred""}","<img src=""stim_listB/look3.gif""style=""height:400px;""></stim_listB>","is looking at","","","","","",""
"null","<div style=""font-size:60px;"">+</div>","","html-keyboard-response","118","478040","0.0-13.0-0.17","92700","List2B","black","man","","","","null","","","","","","","","",""
"null","<img src=""stim_listB/shout1.gif""style=""height:400px;""></stim_listB>","","html-keyboard-response","119","480043","0.0-13.0-1.17","92700","List2B","black","man","","","","null","","","","","","","","",""
"null","is shouting at","","html-keyboard-response","120","482044","0.0-13.0-2.17","92700","List2B","black","man","","","","null","","","","","","","","",""
"6712","","","survey-text","121","488762","0.0-13.0-3.17","92700","List2B","black","man","","","","","{""Q0"":""luke is shouting at ruth""}","<img src=""stim_listB/shout1.gif""style=""height:400px;""></stim_listB>","is shouting at","","","","","",""
"null","<div style=""font-size:60px;"">+</div>","","html-keyboard-response","122","489265","0.0-13.0-0.18","92700","List2B","black","man","","","","null","","","","","","","","",""
"null","<img src=""stim_listB/look5.gif""style=""height:400px;""></stim_listB>","","html-keyboard-response","123","491269","0.0-13.0-1.18","92700","List2B","black","man","","","","null","","","","","","","","",""
"null","is looking at","","html-keyboard-response","124","493271","0.0-13.0-2.18","92700","List2B","black","man","","","","null","","","","","","","","",""
"10235.800000011921","","","survey-text","125","503512","0.0-13.0-3.18","92700","List2B","black","man","","","","","{""Q0"":""fred is looking at luke""}","<img src=""stim_listB/look5.gif""style=""height:400px;""></stim_listB>","is looking at","","","","","",""
"null","<div style=""font-size:60px;"">+</div>","","html-keyboard-response","126","504015","0.0-13.0-0.19","92700","List2B","black","man","","","","null","","","","","","","","",""
"null","<img src=""stim_listB/kiss1.gif""style=""height:400px;""></stim_listB>","","html-keyboard-response","127","506018","0.0-13.0-1.19","92700","List2B","black","man","","","","null","","","","","","","","",""
"null","is kissing","","html-keyboard-response","128","508020","0.0-13.0-2.19","92700","List2B","black","man","","","","null","","","","","","","","",""
"6756.100000023842","","","survey-text","129","514781","0.0-13.0-3.19","92700","List2B","black","man","","","","","{""Q0"":""ruth is kissing luke""}","<img src=""stim_listB/kiss1.gif""style=""height:400px;""></stim_listB>","is kissing","","","","","",""
"6064.899999976158","<img src='img/portrait_matrix_list2.jpg' style='width:900px;height:500px;''></img><p>If you have memorised all the portraits and names and are ready to start, press Continue.</p><p><strong>Please note: Your memory of these faces will be tested 4 times during this experiment.</strong></p>","0","html-button-response","130","520849","0.0-14.0-0.0","92700","List2B","black","man","","","","","","","","","","","","",""
"2626.599999964237","<img src=""portrait/WW1.jpg""style=""height:400px;""></img>","1","html-button-response","131","524481","0.0-14.0-1.0","92700","List2B","black","man","","true","1","","","","","","","","","",""
"null","CORRECT","","html-keyboard-response","132","525986","0.0-14.0-2.0-0.0","92700","List2B","black","man","","","","null","","","","","","","","",""
"1613.1000000238419","<img src=""portrait/BM1.jpg""style=""height:400px;""></img>","4","html-button-response","133","527603","0.0-14.0-4.0","92700","List2B","black","man","","true","4","","","","","","","","","",""
"null","CORRECT","","html-keyboard-response","134","529107","0.0-14.0-5.0-0.0","92700","List2B","black","man","","","","null","","","","","","","","",""
"2219.5","<img src=""portrait/BW2.jpg""style=""height:400px;""></img>","2","html-button-response","135","531329","0.0-14.0-7.0","92700","List2B","black","man","","true","2","","","","","","","","","",""
"null","CORRECT","","html-keyboard-response","136","532833","0.0-14.0-8.0-0.0","92700","List2B","black","man","","","","null","","","","","","","","",""
"2053.7000000476837","<img src=""portrait/WM2.jpg""style=""height:400px;""></img>","7","html-button-response","137","534889","0.0-14.0-10.0","92700","List2B","black","man","","true","7","","","","","","","","","",""
"null","CORRECT","","html-keyboard-response","138","536394","0.0-14.0-11.0-0.0","92700","List2B","black","man","","","","null","","","","","","","","",""
"2804.399999976158","<img src=""portrait/WM1.jpg""style=""height:400px;""></img>","6","html-button-response","139","539200","0.0-14.0-13.0","92700","List2B","black","man","","true","6","","","","","","","","","",""
"null","CORRECT","","html-keyboard-response","140","540704","0.0-14.0-14.0-0.0","92700","List2B","black","man","","","","null","","","","","","","","",""
"1791","<img src=""portrait/WW2.jpg""style=""height:400px;""></img>","3","html-button-response","141","542496","0.0-14.0-16.0","92700","List2B","black","man","","true","3","","","","","","","","","",""
"null","CORRECT","","html-keyboard-response","142","544001","0.0-14.0-17.0-0.0","92700","List2B","black","man","","","","null","","","","","","","","",""
"2445.2999999523163","<img src=""portrait/BW1.jpg""style=""height:400px;""></img>","0","html-button-response","143","546449","0.0-14.0-19.0","92700","List2B","black","man","","true","0","","","","","","","","","",""
"null","CORRECT","","html-keyboard-response","144","547952","0.0-14.0-20.0-0.0","92700","List2B","black","man","","","","null","","","","","","","","",""
"1318.1000000238419","<img src=""portrait/BM2.jpg""style=""height:400px;""></img>","5","html-button-response","145","549273","0.0-14.0-22.0","92700","List2B","black","man","","true","5","","","","","","","","","",""
"null","CORRECT","","html-keyboard-response","146","550777","0.0-14.0-23.0-0.0","92700","List2B","black","man","","","","null","","","","","","","","",""
"1189.6000000238419","<p>You got 8 out of 8 right first time. Press Continue.</p>","0","html-button-response","147","551968","0.0-14.0-25.0","92700","List2B","black","man","","","","","","","","","","","","",""
"null","<div style=""font-size:60px;"">+</div>","","html-keyboard-response","148","553474","0.0-15.0-0.0","92700","List2B","black","man","","","","null","","","","","","","","",""
"null","<img src=""stim_listB/look7.gif""style=""height:400px;""></stim_listB>","","html-keyboard-response","149","555477","0.0-15.0-1.0","92700","List2B","black","man","","","","null","","","","","","","","",""
"null","is looking at","","html-keyboard-response","150","557479","0.0-15.0-2.0","92700","List2B","black","man","","","","null","","","","","","","","",""
"7742","","","survey-text","151","565226","0.0-15.0-3.0","92700","List2B","black","man","","","","","{""Q0"":""ruth is looking at beth""}","<img src=""stim_listB/look7.gif""style=""height:400px;""></stim_listB>","is looking at","","","","","",""
"null","<div style=""font-size:60px;"">+</div>","","html-keyboard-response","152","565729","0.0-15.0-0.1","92700","List2B","black","man","","","","null","","","","","","","","",""
"null","<img src=""stim_listB/hug6.gif""style=""height:400px;""></stim_listB>","","html-keyboard-response","153","567732","0.0-15.0-1.1","92700","List2B","black","man","","","","null","","","","","","","","",""
"null","is being hugged by","","html-keyboard-response","154","569735","0.0-15.0-2.1","92700","List2B","black","man","","","","null","","","","","","","","",""
"8613.400000035763","","","survey-text","155","578355","0.0-15.0-3.1","92700","List2B","black","man","","","","","{""Q0"":""dave is being hugged by mike""}","<img src=""stim_listB/hug6.gif""style=""height:400px;""></stim_listB>","is being hugged by","","","","","",""
"null","<div style=""font-size:60px;"">+</div>","","html-keyboard-response","156","578859","0.0-15.0-0.2","92700","List2B","black","man","","","","null","","","","","","","","",""
"null","<img src=""stim_listB/greet7.gif""style=""height:400px;""></stim_listB>","","html-keyboard-response","157","580863","0.0-15.0-1.2","92700","List2B","black","man","","","","null","","","","","","","","",""
"null","is greeting","","html-keyboard-response","158","582866","0.0-15.0-2.2","92700","List2B","black","man","","","","null","","","","","","","","",""
"7153.300000011921","","","survey-text","159","590026","0.0-15.0-3.2","92700","List2B","black","man","","","","","{""Q0"":""jane is greeting beth""}","<img src=""stim_listB/greet7.gif""style=""height:400px;""></stim_listB>","is greeting","","","","","",""
"null","<div style=""font-size:60px;"">+</div>","","html-keyboard-response","160","590529","0.0-15.0-0.3","92700","List2B","black","man","","","","null","","","","","","","","",""
"null","<img src=""stim_listB/seduce7.gif""style=""height:400px;""></stim_listB>","","html-keyboard-response","161","592532","0.0-15.0-1.3","92700","List2B","black","man","","","","null","","","","","","","","",""
"null","is seducing","","html-keyboard-response","162","594534","0.0-15.0-2.3","92700","List2B","black","man","","","","null","","","","","","","","",""
"7533.899999976158","","","survey-text","163","602074","0.0-15.0-3.3","92700","List2B","black","man","","","","","{""Q0"":""kate is seducing ruth""}","<img src=""stim_listB/seduce7.gif""style=""height:400px;""></stim_listB>","is seducing","","","","","",""
"null","<div style=""font-size:60px;"">+</div>","","html-keyboard-response","164","602578","0.0-15.0-0.4","92700","List2B","black","man","","","","null","","","","","","","","",""
"null","<img src=""stim_listB/hug8.gif""style=""height:400px;""></stim_listB>","","html-keyboard-response","165","604580","0.0-15.0-1.4","92700","List2B","black","man","","","","null","","","","","","","","",""
"null","is being hugged by","","html-keyboard-response","166","606583","0.0-15.0-2.4","92700","List2B","black","man","","","","null","","","","","","","","",""
"8197.900000035763","","","survey-text","167","614787","0.0-15.0-3.4","92700","List2B","black","man","","","","","{""Q0"":""jane is being hugged by kate""}","<img src=""stim_listB/hug8.gif""style=""height:400px;""></stim_listB>","is being hugged by","","","","","",""
"null","<div style=""font-size:60px;"">+</div>","","html-keyboard-response","168","615292","0.0-15.0-0.5","92700","List2B","black","man","","","","null","","","","","","","","",""
"null","<img src=""stim_listB/challenge5.gif""style=""height:400px;""></stim_listB>","","html-keyboard-response","169","617295","0.0-15.0-1.5","92700","List2B","black","man","","","","null","","","","","","","","",""
"null","is challenging","","html-keyboard-response","170","619296","0.0-15.0-2.5","92700","List2B","black","man","","","","null","","","","","","","","",""
"10605.599999964237","","","survey-text","171","629924","0.0-15.0-3.5","92700","List2B","black","man","","","","","{""Q0"":""fred is challenging dave""}","<img src=""stim_listB/challenge5.gif""style=""height:400px;""></stim_listB>","is challenging","","","","","",""
"null","<div style=""font-size:60px;"">+</div>","","html-keyboard-response","172","630427","0.0-15.0-0.6","92700","List2B","black","man","","","","null","","","","","","","","",""
"null","<img src=""stim_listB/look2.gif""style=""height:400px;""></stim_listB>","","html-keyboard-response","173","632429","0.0-15.0-1.6","92700","List2B","black","man","","","","null","","","","","","","","",""
"null","is being looked at by","","html-keyboard-response","174","634433","0.0-15.0-2.6","92700","List2B","black","man","","","","null","","","","","","","","",""
"8613.900000035763","","","survey-text","175","643051","0.0-15.0-3.6","92700","List2B","black","man","","","","","{""Q0"":""dave is being looked at by jane""}","<img src=""stim_listB/look2.gif""style=""height:400px;""></stim_listB>","is being looked at by","","","","","",""
"null","<div style=""font-size:60px;"">+</div>","","html-keyboard-response","176","643554","0.0-15.0-0.7","92700","List2B","black","man","","","","null","","","","","","","","",""
"null","<img src=""stim_listB/look4.gif""style=""height:400px;""></stim_listB>","","html-keyboard-response","177","645558","0.0-15.0-1.7","92700","List2B","black","man","","","","null","","","","","","","","",""
"null","is being looked at by","","html-keyboard-response","178","647560","0.0-15.0-2.7","92700","List2B","black","man","","","","null","","","","","","","","",""
"8701.699999988079","","","survey-text","179","656267","0.0-15.0-3.7","92700","List2B","black","man","","","","","{""Q0"":""kate is being looked at by mike""}","<img src=""stim_listB/look4.gif""style=""height:400px;""></stim_listB>","is being looked at by","","","","","",""
"null","<div style=""font-size:60px;"">+</div>","","html-keyboard-response","180","656770","0.0-15.0-0.8","92700","List2B","black","man","","","","null","","","","","","","","",""
"null","<img src=""stim_listB/kiss3.gif""style=""height:400px;""></stim_listB>","","html-keyboard-response","181","658773","0.0-15.0-1.8","92700","List2B","black","man","","","","null","","","","","","","","",""
"null","is kissing","","html-keyboard-response","182","660775","0.0-15.0-2.8","92700","List2B","black","man","","","","null","","","","","","","","",""
"6256.899999976158","","","survey-text","183","667036","0.0-15.0-3.8","92700","List2B","black","man","","","","","{""Q0"":""beth is kissing fred""}","<img src=""stim_listB/kiss3.gif""style=""height:400px;""></stim_listB>","is kissing","","","","","",""
"null","<div style=""font-size:60px;"">+</div>","","html-keyboard-response","184","667538","0.0-15.0-0.9","92700","List2B","black","man","","","","null","","","","","","","","",""
"null","<img src=""stim_listB/kiss2.gif""style=""height:400px;""></stim_listB>","","html-keyboard-response","185","669541","0.0-15.0-1.9","92700","List2B","black","man","","","","null","","","","","","","","",""
"null","is being kissed by","","html-keyboard-response","186","671543","0.0-15.0-2.9","92700","List2B","black","man","","","","null","","","","","","","","",""
"8177","","","survey-text","187","679724","0.0-15.0-3.9","92700","List2B","black","man","","","","","{""Q0"":""dave is being kissed by jane""}","<img src=""stim_listB/kiss2.gif""style=""height:400px;""></stim_listB>","is being kissed by","","","","","",""
"null","<div style=""font-size:60px;"">+</div>","","html-keyboard-response","188","680228","0.0-15.0-0.10","92700","List2B","black","man","","","","null","","","","","","","","",""
"null","<img src=""stim_listB/shout2.gif""style=""height:400px;""></stim_listB>","","html-keyboard-response","189","682231","0.0-15.0-1.10","92700","List2B","black","man","","","","null","","","","","","","","",""
"null","is being shouted at by","","html-keyboard-response","190","684232","0.0-15.0-2.10","92700","List2B","black","man","","","","null","","","","","","","","",""
"8532.399999976158","","","survey-text","191","692769","0.0-15.0-3.10","92700","List2B","black","man","","","","","{""Q0"":""dave is being shouted at by jane""}","<img src=""stim_listB/shout2.gif""style=""height:400px;""></stim_listB>","is being shouted at by","","","","","",""
"null","<div style=""font-size:60px;"">+</div>","","html-keyboard-response","192","693274","0.0-15.0-0.11","92700","List2B","black","man","","","","null","","","","","","","","",""
"null","<img src=""stim_listB/touch4.gif""style=""height:400px;""></stim_listB>","","html-keyboard-response","193","695275","0.0-15.0-1.11","92700","List2B","black","man","","","","null","","","","","","","","",""
"null","is being touched by","","html-keyboard-response","194","697277","0.0-15.0-2.11","92700","List2B","black","man","","","","null","","","","","","","","",""
"8015.399999976158","","","survey-text","195","705297","0.0-15.0-3.11","92700","List2B","black","man","","","","","{""Q0"":""fred is being touched by beth""}","<img src=""stim_listB/touch4.gif""style=""height:400px;""></stim_listB>","is being touched by","","","","","",""
"null","<div style=""font-size:60px;"">+</div>","","html-keyboard-response","196","705801","0.0-15.0-0.12","92700","List2B","black","man","","","","null","","","","","","","","",""
"null","<img src=""stim_listB/copy2.gif""style=""height:400px;""></stim_listB>","","html-keyboard-response","197","707805","0.0-15.0-1.12","92700","List2B","black","man","","","","null","","","","","","","","",""
"null","is being copied by","","html-keyboard-response","198","709808","0.0-15.0-2.12","92700","List2B","black","man","","","","null","","","","","","","","",""
"7860.800000011921","","","survey-text","199","717675","0.0-15.0-3.12","92700","List2B","black","man","","","","","{""Q0"":""luke is being copied by jane""}","<img src=""stim_listB/copy2.gif""style=""height:400px;""></stim_listB>","is being copied by","","","","","",""
"null","<div style=""font-size:60px;"">+</div>","","html-keyboard-response","200","718178","0.0-15.0-0.13","92700","List2B","black","man","","","","null","","","","","","","","",""
"null","<img src=""stim_listB/challenge1.gif""style=""height:400px;""></stim_listB>","","html-keyboard-response","201","720181","0.0-15.0-1.13","92700","List2B","black","man","","","","null","","","","","","","","",""
"null","is challenging","","html-keyboard-response","202","722183","0.0-15.0-2.13","92700","List2B","black","man","","","","null","","","","","","","","",""
"8613.700000047684","","","survey-text","203","730801","0.0-15.0-3.13","92700","List2B","black","man","","","","","{""Q0"":""ruth is challenging dave""}","<img src=""stim_listB/challenge1.gif""style=""height:400px;""></stim_listB>","is challenging","","","","","",""
"null","<div style=""font-size:60px;"">+</div>","","html-keyboard-response","204","731304","0.0-15.0-0.14","92700","List2B","black","man","","","","null","","","","","","","","",""
"null","<img src=""stim_listB/copy8.gif""style=""height:400px;""></stim_listB>","","html-keyboard-response","205","733307","0.0-15.0-1.14","92700","List2B","black","man","","","","null","","","","","","","","",""
"null","is being copied by","","html-keyboard-response","206","735309","0.0-15.0-2.14","92700","List2B","black","man","","","","null","","","","","","","","",""
"7871.700000047684","","","survey-text","207","743185","0.0-15.0-3.14","92700","List2B","black","man","","","","","{""Q0"":""ruth is being copied by kate""}","<img src=""stim_listB/copy8.gif""style=""height:400px;""></stim_listB>","is being copied by","","","","","",""
"null","<div style=""font-size:60px;"">+</div>","","html-keyboard-response","208","743688","0.0-15.0-0.15","92700","List2B","black","man","","","","null","","","","","","","","",""
"null","<img src=""stim_listB/copy5.gif""style=""height:400px;""></stim_listB>","","html-keyboard-response","209","745694","0.0-15.0-1.15","92700","List2B","black","man","","","","null","","","","","","","","",""
"null","is copying","","html-keyboard-response","210","747697","0.0-15.0-2.15","92700","List2B","black","man","","","","null","","","","","","","","",""
"7332.900000035763","","","survey-text","211","755045","0.0-15.0-3.15","92700","List2B","black","man","","","","","{""Q0"":""fred is copying dave""}","<img src=""stim_listB/copy5.gif""style=""height:400px;""></stim_listB>","is copying","","","","","",""
"null","<div style=""font-size:60px;"">+</div>","","html-keyboard-response","212","755549","0.0-15.0-0.16","92700","List2B","black","man","","","","null","","","","","","","","",""
"null","<img src=""stim_listB/hug3.gif""style=""height:400px;""></stim_listB>","","html-keyboard-response","213","757552","0.0-15.0-1.16","92700","List2B","black","man","","","","null","","","","","","","","",""
"null","is hugging","","html-keyboard-response","214","759554","0.0-15.0-2.16","92700","List2B","black","man","","","","null","","","","","","","","",""
"8401.399999976158","","","survey-text","215","767962","0.0-15.0-3.16","92700","List2B","black","man","","","","","{""Q0"":""fred is hugging beth""}","<img src=""stim_listB/hug3.gif""style=""height:400px;""></stim_listB>","is hugging","","","","","",""
"null","<div style=""font-size:60px;"">+</div>","","html-keyboard-response","216","768466","0.0-15.0-0.17","92700","List2B","black","man","","","","null","","","","","","","","",""
"null","<img src=""stim_listB/kiss4.gif""style=""height:400px;""></stim_listB>","","html-keyboard-response","217","770469","0.0-15.0-1.17","92700","List2B","black","man","","","","null","","","","","","","","",""
"null","is being kissed by","","html-keyboard-response","218","772472","0.0-15.0-2.17","92700","List2B","black","man","","","","null","","","","","","","","",""
"7630.899999976158","","","survey-text","219","780122","0.0-15.0-3.17","92700","List2B","black","man","","","","","{""Q0"":""mike is being kissed by kate""}","<img src=""stim_listB/kiss4.gif""style=""height:400px;""></stim_listB>","is being kissed by","","","","","",""
"null","<div style=""font-size:60px;"">+</div>","","html-keyboard-response","220","780625","0.0-15.0-0.18","92700","List2B","black","man","","","","null","","","","","","","","",""
"null","<img src=""stim_listB/kiss7.gif""style=""height:400px;""></stim_listB>","","html-keyboard-response","221","782628","0.0-15.0-1.18","92700","List2B","black","man","","","","null","","","","","","","","",""
"null","is kissing","","html-keyboard-response","222","784630","0.0-15.0-2.18","92700","List2B","black","man","","","","null","","","","","","","","",""
"6462.199999988079","","","survey-text","223","791098","0.0-15.0-3.18","92700","List2B","black","man","","","","","{""Q0"":""beth is kissing ruth""}","<img src=""stim_listB/kiss7.gif""style=""height:400px;""></stim_listB>","is kissing","","","","","",""
"null","<div style=""font-size:60px;"">+</div>","","html-keyboard-response","224","791602","0.0-15.0-0.19","92700","List2B","black","man","","","","null","","","","","","","","",""
"null","<img src=""stim_listB/seduce1.gif""style=""height:400px;""></stim_listB>","","html-keyboard-response","225","793606","0.0-15.0-1.19","92700","List2B","black","man","","","","null","","","","","","","","",""
"null","is seducing","","html-keyboard-response","226","795610","0.0-15.0-2.19","92700","List2B","black","man","","","","null","","","","","","","","",""
"6718","","","survey-text","227","802332","0.0-15.0-3.19","92700","List2B","black","man","","","","","{""Q0"":""jane is seducing luke""}","<img src=""stim_listB/seduce1.gif""style=""height:400px;""></stim_listB>","is seducing","","","","","",""
"12449.600000023842","<img src='img/portrait_matrix_list2.jpg' style='width:900px;height:500px;''></img><p>If you have memorised all the portraits and names and are ready to start, press Continue.</p><p><strong>Please note: Your memory of these faces will be tested 4 times during this experiment.</strong></p>","0","html-button-response","228","814785","0.0-16.0-0.0","92700","List2B","black","man","","","","","","","","","","","","",""
"1245.8999999761581","<img src=""portrait/WW2.jpg""style=""height:400px;""></img>","3","html-button-response","229","817034","0.0-16.0-1.0","92700","List2B","black","man","","true","3","","","","","","","","","",""
"null","CORRECT","","html-keyboard-response","230","818539","0.0-16.0-2.0-0.0","92700","List2B","black","man","","","","null","","","","","","","","",""
"2147.800000011921","<img src=""portrait/WM1.jpg""style=""height:400px;""></img>","6","html-button-response","231","820689","0.0-16.0-4.0","92700","List2B","black","man","","true","6","","","","","","","","","",""
"null","CORRECT","","html-keyboard-response","232","822194","0.0-16.0-5.0-0.0","92700","List2B","black","man","","","","null","","","","","","","","",""
"1917.4000000357628","<img src=""portrait/BM2.jpg""style=""height:400px;""></img>","5","html-button-response","233","824114","0.0-16.0-7.0","92700","List2B","black","man","","true","5","","","","","","","","","",""
"null","CORRECT","","html-keyboard-response","234","826190","0.0-16.0-8.0-0.0","92700","List2B","black","man","","","","null","","","","","","","","",""
"4633.199999988079","<img src=""portrait/BM1.jpg""style=""height:400px;""></img>","4","html-button-response","235","830827","0.0-16.0-10.0","92700","List2B","black","man","","true","4","","","","","","","","","",""
"null","CORRECT","","html-keyboard-response","236","832332","0.0-16.0-11.0-0.0","92700","List2B","black","man","","","","null","","","","","","","","",""
"1523.5","<img src=""portrait/WM2.jpg""style=""height:400px;""></img>","7","html-button-response","237","833858","0.0-16.0-13.0","92700","List2B","black","man","","true","7","","","","","","","","","",""
"null","CORRECT","","html-keyboard-response","238","835361","0.0-16.0-14.0-0.0","92700","List2B","black","man","","","","null","","","","","","","","",""
"2877.2999999523163","<img src=""portrait/WW1.jpg""style=""height:400px;""></img>","1","html-button-response","239","838241","0.0-16.0-16.0","92700","List2B","black","man","","true","1","","","","","","","","","",""
"null","CORRECT","","html-keyboard-response","240","839744","0.0-16.0-17.0-0.0","92700","List2B","black","man","","","","null","","","","","","","","",""
"2894","<img src=""portrait/BW1.jpg""style=""height:400px;""></img>","0","html-button-response","241","842641","0.0-16.0-19.0","92700","List2B","black","man","","true","0","","","","","","","","","",""
"null","CORRECT","","html-keyboard-response","242","844144","0.0-16.0-20.0-0.0","92700","List2B","black","man","","","","null","","","","","","","","",""
"2126.300000011921","<img src=""portrait/BW2.jpg""style=""height:400px;""></img>","2","html-button-response","243","846273","0.0-16.0-22.0","92700","List2B","black","man","","true","2","","","","","","","","","",""
"null","CORRECT","","html-keyboard-response","244","847778","0.0-16.0-23.0-0.0","92700","List2B","black","man","","","","null","","","","","","","","",""
"17276.299999952316","<p>You got 8 out of 8 right first time. Press Continue.</p>","0","html-button-response","245","865057","0.0-16.0-25.0","92700","List2B","black","man","","","","","","","","","","","","",""
"null","<div style=""font-size:60px;"">+</div>","","html-keyboard-response","246","866561","0.0-17.0-0.0","92700","List2B","black","man","","","","null","","","","","","","","",""
"null","<img src=""stim_listB/challenge6.gif""style=""height:400px;""></stim_listB>","","html-keyboard-response","247","868564","0.0-17.0-1.0","92700","List2B","black","man","","","","null","","","","","","","","",""
"null","is being challenged by","","html-keyboard-response","248","870567","0.0-17.0-2.0","92700","List2B","black","man","","","","null","","","","","","","","",""
"10317.300000011921","","","survey-text","249","880890","0.0-17.0-3.0","92700","List2B","black","man","","","","","{""Q0"":""luke is being challenged by mike""}","<img src=""stim_listB/challenge6.gif""style=""height:400px;""></stim_listB>","is being challenged by","","","","","",""
"null","<div style=""font-size:60px;"">+</div>","","html-keyboard-response","250","881394","0.0-17.0-0.1","92700","List2B","black","man","","","","null","","","","","","","","",""
"null","<img src=""stim_listB/look1.gif""style=""height:400px;""></stim_listB>","","html-keyboard-response","251","883398","0.0-17.0-1.1","92700","List2B","black","man","","","","null","","","","","","","","",""
"null","is looking at","","html-keyboard-response","252","885400","0.0-17.0-2.1","92700","List2B","black","man","","","","null","","","","","","","","",""
"8789.399999976158","","","survey-text","253","894195","0.0-17.0-3.1","92700","List2B","black","man","","","","","{""Q0"":""luke is looking at ruth""}","<img src=""stim_listB/look1.gif""style=""height:400px;""></stim_listB>","is looking at","","","","","",""
"null","<div style=""font-size:60px;"">+</div>","","html-keyboard-response","254","894698","0.0-17.0-0.2","92700","List2B","black","man","","","","null","","","","","","","","",""
"null","<img src=""stim_listB/hug5.gif""style=""height:400px;""></stim_listB>","","html-keyboard-response","255","896701","0.0-17.0-1.2","92700","List2B","black","man","","","","null","","","","","","","","",""
"null","is hugging","","html-keyboard-response","256","898703","0.0-17.0-2.2","92700","List2B","black","man","","","","null","","","","","","","","",""
"7129.699999988079","","","survey-text","257","905838","0.0-17.0-3.2","92700","List2B","black","man","","","","","{""Q0"":""fred is hugging luke""}","<img src=""stim_listB/hug5.gif""style=""height:400px;""></stim_listB>","is hugging","","","","","",""
"null","<div style=""font-size:60px;"">+</div>","","html-keyboard-response","258","906342","0.0-17.0-0.3","92700","List2B","black","man","","","","null","","","","","","","","",""
"null","<img src=""stim_listB/challenge7.gif""style=""height:400px;""></stim_listB>","","html-keyboard-response","259","908346","0.0-17.0-1.3","92700","List2B","black","man","","","","null","","","","","","","","",""
"null","is challenging","","html-keyboard-response","260","910348","0.0-17.0-2.3","92700","List2B","black","man","","","","null","","","","","","","","",""
"7121.300000011921","","","survey-text","261","917474","0.0-17.0-3.3","92700","List2B","black","man","","","","","{""Q0"":""beth is challenging jane""}","<img src=""stim_listB/challenge7.gif""style=""height:400px;""></stim_listB>","is challenging","","","","","",""
"null","<div style=""font-size:60px;"">+</div>","","html-keyboard-response","262","917977","0.0-17.0-0.4","92700","List2B","black","man","","","","null","","","","","","","","",""
"null","<img src=""stim_listB/hug1.gif""style=""height:400px;""></stim_listB>","","html-keyboard-response","263","919981","0.0-17.0-1.4","92700","List2B","black","man","","","","null","","","","","","","","",""
"null","is hugging","","html-keyboard-response","264","921984","0.0-17.0-2.4","92700","List2B","black","man","","","","null","","","","","","","","",""
"6368","","","survey-text","265","928370","0.0-17.0-3.4","92700","List2B","black","man","","","","","{""Q0"":""luke is hugging ruth""}","<img src=""stim_listB/hug1.gif""style=""height:400px;""></stim_listB>","is hugging","","","","","",""
"null","<div style=""font-size:60px;"">+</div>","","html-keyboard-response","266","928874","0.0-17.0-0.5","92700","List2B","black","man","","","","null","","","","","","","","",""
"null","<img src=""stim_listB/touch5.gif""style=""height:400px;""></stim_listB>","","html-keyboard-response","267","930876","0.0-17.0-1.5","92700","List2B","black","man","","","","null","","","","","","","","",""
"null","is touching","","html-keyboard-response","268","932879","0.0-17.0-2.5","92700","List2B","black","man","","","","null","","","","","","","","",""
"6116.199999988079","","","survey-text","269","939014","0.0-17.0-3.5","92700","List2B","black","man","","","","","{""Q0"":""mike is touching dave""}","<img src=""stim_listB/touch5.gif""style=""height:400px;""></stim_listB>","is touching","","","","","",""
"null","<div style=""font-size:60px;"">+</div>","","html-keyboard-response","270","939517","0.0-17.0-0.6","92700","List2B","black","man","","","","null","","","","","","","","",""
"null","<img src=""stim_listB/challenge3.gif""style=""height:400px;""></stim_listB>","","html-keyboard-response","271","941519","0.0-17.0-1.6","92700","List2B","black","man","","","","null","","","","","","","","",""
"null","is challenging","","html-keyboard-response","272","943522","0.0-17.0-2.6","92700","List2B","black","man","","","","null","","","","","","","","",""
"7326.100000023842","","","survey-text","273","950866","0.0-17.0-3.6","92700","List2B","black","man","","","","","{""Q0"":""mike is challenging beth""}","<img src=""stim_listB/challenge3.gif""style=""height:400px;""></stim_listB>","is challenging","","","","","",""
"null","<div style=""font-size:60px;"">+</div>","","html-keyboard-response","274","951368","0.0-17.0-0.7","92700","List2B","black","man","","","","null","","","","","","","","",""
"null","<img src=""stim_listB/greet1.gif""style=""height:400px;""></stim_listB>","","html-keyboard-response","275","953372","0.0-17.0-1.7","92700","List2B","black","man","","","","null","","","","","","","","",""
"null","is greeting","","html-keyboard-response","276","955373","0.0-17.0-2.7","92700","List2B","black","man","","","","null","","","","","","","","",""
"6446.299999952316","","","survey-text","277","961838","0.0-17.0-3.7","92700","List2B","black","man","","","","","{""Q0"":""ruth is greeting dave""}","<img src=""stim_listB/greet1.gif""style=""height:400px;""></stim_listB>","is greeting","","","","","",""
"null","<div style=""font-size:60px;"">+</div>","","html-keyboard-response","278","962341","0.0-17.0-0.8","92700","List2B","black","man","","","","null","","","","","","","","",""
"null","<img src=""stim_listB/challenge8.gif""style=""height:400px;""></stim_listB>","","html-keyboard-response","279","964343","0.0-17.0-1.8","92700","List2B","black","man","","","","null","","","","","","","","",""
"null","is being challenged by","","html-keyboard-response","280","966345","0.0-17.0-2.8","92700","List2B","black","man","","","","null","","","","","","","","",""
"9059.5","","","survey-text","281","975410","0.0-17.0-3.8","92700","List2B","black","man","","","","","{""Q0"":""ruth is being challenged by kate""}","<img src=""stim_listB/challenge8.gif""style=""height:400px;""></stim_listB>","is being challenged by","","","","","",""
"null","<div style=""font-size:60px;"">+</div>","","html-keyboard-response","282","975913","0.0-17.0-0.9","92700","List2B","black","man","","","","null","","","","","","","","",""
"null","<img src=""stim_listB/kiss6.gif""style=""height:400px;""></stim_listB>","","html-keyboard-response","283","977917","0.0-17.0-1.9","92700","List2B","black","man","","","","null","","","","","","","","",""
"null","is being kissed by","","html-keyboard-response","284","979918","0.0-17.0-2.9","92700","List2B","black","man","","","","null","","","","","","","","",""
"7750.299999952316","","","survey-text","285","987674","0.0-17.0-3.9","92700","List2B","black","man","","","","","{""Q0"":""mike is being kissed by dave""}","<img src=""stim_listB/kiss6.gif""style=""height:400px;""></stim_listB>","is being kissed by","","","","","",""
"null","<div style=""font-size:60px;"">+</div>","","html-keyboard-response","286","988177","0.0-17.0-0.10","92700","List2B","black","man","","","","null","","","","","","","","",""
"null","<img src=""stim_listB/oppose7.gif""style=""height:400px;""></stim_listB>","","html-keyboard-response","287","990180","0.0-17.0-1.10","92700","List2B","black","man","","","","null","","","","","","","","",""
"null","is opposing","","html-keyboard-response","288","992182","0.0-17.0-2.10","92700","List2B","black","man","","","","null","","","","","","","","",""
"13303.899999976158","","","survey-text","289","1005491","0.0-17.0-3.10","92700","List2B","black","man","","","","","{""Q0"":""jane is opposing kate""}","<img src=""stim_listB/oppose7.gif""style=""height:400px;""></stim_listB>","is opposing","","","","","",""
"null","<div style=""font-size:60px;"">+</div>","","html-keyboard-response","290","1005995","0.0-17.0-0.11","92700","List2B","black","man","","","","null","","","","","","","","",""
"null","<img src=""stim_listB/look8.gif""style=""height:400px;""></stim_listB>","","html-keyboard-response","291","1008000","0.0-17.0-1.11","92700","List2B","black","man","","","","null","","","","","","","","",""
"null","is being looked at by","","html-keyboard-response","292","1010003","0.0-17.0-2.11","92700","List2B","black","man","","","","null","","","","","","","","",""
"8554.699999988079","","","survey-text","293","1018563","0.0-17.0-3.11","92700","List2B","black","man","","","","","{""Q0"":""kate is being looked at by jane""}","<img src=""stim_listB/look8.gif""style=""height:400px;""></stim_listB>","is being looked at by","","","","","",""
"null","<div style=""font-size:60px;"">+</div>","","html-keyboard-response","294","1019067","0.0-17.0-0.12","92700","List2B","black","man","","","","null","","","","","","","","",""
"null","<img src=""stim_listB/kiss8.gif""style=""height:400px;""></stim_listB>","","html-keyboard-response","295","1021071","0.0-17.0-1.12","92700","List2B","black","man","","","","null","","","","","","","","",""
"null","is being kissed by","","html-keyboard-response","296","1023073","0.0-17.0-2.12","92700","List2B","black","man","","","","null","","","","","","","","",""
"8324.900000035763","","","survey-text","297","1031402","0.0-17.0-3.12","92700","List2B","black","man","","","","","{""Q0"":""kate is being kissed by jane""}","<img src=""stim_listB/kiss8.gif""style=""height:400px;""></stim_listB>","is being kissed by","","","","","",""
"null","<div style=""font-size:60px;"">+</div>","","html-keyboard-response","298","1031905","0.0-17.0-0.13","92700","List2B","black","man","","","","null","","","","","","","","",""
"null","<img src=""stim_listB/copy4.gif""style=""height:400px;""></stim_listB>","","html-keyboard-response","299","1033909","0.0-17.0-1.13","92700","List2B","black","man","","","","null","","","","","","","","",""
"null","is being copied by","","html-keyboard-response","300","1035912","0.0-17.0-2.13","92700","List2B","black","man","","","","null","","","","","","","","",""
"8099.100000023842","","","survey-text","301","1044022","0.0-17.0-3.13","92700","List2B","black","man","","","","","{""Q0"":""fred is being copied by kate""}","<img src=""stim_listB/copy4.gif""style=""height:400px;""></stim_listB>","is being copied by","","","","","",""
"null","<div style=""font-size:60px;"">+</div>","","html-keyboard-response","302","1044526","0.0-17.0-0.14","92700","List2B","black","man","","","","null","","","","","","","","",""
"null","<img src=""stim_listB/copy3.gif""style=""height:400px;""></stim_listB>","","html-keyboard-response","303","1046529","0.0-17.0-1.14","92700","List2B","black","man","","","","null","","","","","","","","",""
"null","is copying","","html-keyboard-response","304","1048532","0.0-17.0-2.14","92700","List2B","black","man","","","","null","","","","","","","","",""
"6164.199999988079","","","survey-text","305","1054716","0.0-17.0-3.14","92700","List2B","black","man","","","","","{""Q0"":""beth is copying mike""}","<img src=""stim_listB/copy3.gif""style=""height:400px;""></stim_listB>","is copying","","","","","",""
"null","<div style=""font-size:60px;"">+</div>","","html-keyboard-response","306","1055219","0.0-17.0-0.15","92700","List2B","black","man","","","","null","","","","","","","","",""
"null","<img src=""stim_listB/greet2.gif""style=""height:400px;""></stim_listB>","","html-keyboard-response","307","1057222","0.0-17.0-1.15","92700","List2B","black","man","","","","null","","","","","","","","",""
"null","is being greeted by","","html-keyboard-response","308","1059224","0.0-17.0-2.15","92700","List2B","black","man","","","","null","","","","","","","","",""
"7964.199999988079","","","survey-text","309","1067194","0.0-17.0-3.15","92700","List2B","black","man","","","","","{""Q0"":""luke is being greeted by jane""}","<img src=""stim_listB/greet2.gif""style=""height:400px;""></stim_listB>","is being greeted by","","","","","",""
"null","<div style=""font-size:60px;"">+</div>","","html-keyboard-response","310","1067697","0.0-17.0-0.16","92700","List2B","black","man","","","","null","","","","","","","","",""
"null","<img src=""stim_listB/seduce4.gif""style=""height:400px;""></stim_listB>","","html-keyboard-response","311","1069701","0.0-17.0-1.16","92700","List2B","black","man","","","","null","","","","","","","","",""
"null","is being seduced by","","html-keyboard-response","312","1071703","0.0-17.0-2.16","92700","List2B","black","man","","","","null","","","","","","","","",""
"8896.099999964237","","","survey-text","313","1080605","0.0-17.0-3.16","92700","List2B","black","man","","","","","{""Q0"":""beth is being seduced by mike""}","<img src=""stim_listB/seduce4.gif""style=""height:400px;""></stim_listB>","is being seduced by","","","","","",""
"null","<div style=""font-size:60px;"">+</div>","","html-keyboard-response","314","1081108","0.0-17.0-0.17","92700","List2B","black","man","","","","null","","","","","","","","",""
"null","<img src=""stim_listB/copy1.gif""style=""height:400px;""></stim_listB>","","html-keyboard-response","315","1083113","0.0-17.0-1.17","92700","List2B","black","man","","","","null","","","","","","","","",""
"null","is copying","","html-keyboard-response","316","1085115","0.0-17.0-2.17","92700","List2B","black","man","","","","null","","","","","","","","",""
"5859.699999988079","","","survey-text","317","1090980","0.0-17.0-3.17","92700","List2B","black","man","","","","","{""Q0"":""ruth is copying dave""}","<img src=""stim_listB/copy1.gif""style=""height:400px;""></stim_listB>","is copying","","","","","",""
"null","<div style=""font-size:60px;"">+</div>","","html-keyboard-response","318","1091486","0.0-17.0-0.18","92700","List2B","black","man","","","","null","","","","","","","","",""
"null","<img src=""stim_listB/shout5.gif""style=""height:400px;""></stim_listB>","","html-keyboard-response","319","1093488","0.0-17.0-1.18","92700","List2B","black","man","","","","null","","","","","","","","",""
"null","is shouting at","","html-keyboard-response","320","1095489","0.0-17.0-2.18","92700","List2B","black","man","","","","null","","","","","","","","",""
"10564.199999988079","","","survey-text","321","1106057","0.0-17.0-3.18","92700","List2B","black","man","","","","","{""Q0"":""fred is shouting at luke""}","<img src=""stim_listB/shout5.gif""style=""height:400px;""></stim_listB>","is shouting at","","","","","",""
"null","<div style=""font-size:60px;"">+</div>","","html-keyboard-response","322","1106562","0.0-17.0-0.19","92700","List2B","black","man","","","","null","","","","","","","","",""
"null","<img src=""stim_listB/touch7.gif""style=""height:400px;""></stim_listB>","","html-keyboard-response","323","1108565","0.0-17.0-1.19","92700","List2B","black","man","","","","null","","","","","","","","",""
"null","is touching","","html-keyboard-response","324","1110568","0.0-17.0-2.19","92700","List2B","black","man","","","","null","","","","","","","","",""
"6630","","","survey-text","325","1117202","0.0-17.0-3.19","92700","List2B","black","man","","","","","{""Q0"":""kate is touching jane""}","<img src=""stim_listB/touch7.gif""style=""height:400px;""></stim_listB>","is touching","","","","","",""
"179708.10000002384","<img src='img/portrait_matrix_list2.jpg' style='width:900px;height:500px;''></img><p>If you have memorised all the portraits and names and are ready to start, press Continue.</p><p><strong>Please note: Your memory of these faces will be tested 4 times during this experiment.</strong></p>","0","html-button-response","326","1296913","0.0-18.0-0.0","92700","List2B","black","man","","","","","","","","","","","","",""
"1845.5","<img src=""portrait/WM2.jpg""style=""height:400px;""></img>","7","html-button-response","327","1299762","0.0-18.0-1.0","92700","List2B","black","man","","true","7","","","","","","","","","",""
"null","CORRECT","","html-keyboard-response","328","1301264","0.0-18.0-2.0-0.0","92700","List2B","black","man","","","","null","","","","","","","","",""
"1296.5","<img src=""portrait/BM1.jpg""style=""height:400px;""></img>","4","html-button-response","329","1302563","0.0-18.0-4.0","92700","List2B","black","man","","true","4","","","","","","","","","",""
"null","CORRECT","","html-keyboard-response","330","1304068","0.0-18.0-5.0-0.0","92700","List2B","black","man","","","","null","","","","","","","","",""
"1091.5","<img src=""portrait/WW2.jpg""style=""height:400px;""></img>","3","html-button-response","331","1305162","0.0-18.0-7.0","92700","List2B","black","man","","true","3","","","","","","","","","",""
"null","CORRECT","","html-keyboard-response","332","1306666","0.0-18.0-8.0-0.0","92700","List2B","black","man","","","","null","","","","","","","","",""
"2104.199999988079","<img src=""portrait/BW2.jpg""style=""height:400px;""></img>","2","html-button-response","333","1308773","0.0-18.0-10.0","92700","List2B","black","man","","true","2","","","","","","","","","",""
"null","CORRECT","","html-keyboard-response","334","1310278","0.0-18.0-11.0-0.0","92700","List2B","black","man","","","","null","","","","","","","","",""
"1290.6000000238419","<img src=""portrait/BM2.jpg""style=""height:400px;""></img>","5","html-button-response","335","1311572","0.0-18.0-13.0","92700","List2B","black","man","","true","5","","","","","","","","","",""
"null","CORRECT","","html-keyboard-response","336","1313076","0.0-18.0-14.0-0.0","92700","List2B","black","man","","","","null","","","","","","","","",""
"2283.699999988079","<img src=""portrait/WM1.jpg""style=""height:400px;""></img>","6","html-button-response","337","1315363","0.0-18.0-16.0","92700","List2B","black","man","","true","6","","","","","","","","","",""
"null","CORRECT","","html-keyboard-response","338","1316866","0.0-18.0-17.0-0.0","92700","List2B","black","man","","","","null","","","","","","","","",""
"2454.400000035763","<img src=""portrait/WW1.jpg""style=""height:400px;""></img>","1","html-button-response","339","1319323","0.0-18.0-19.0","92700","List2B","black","man","","true","1","","","","","","","","","",""
"null","CORRECT","","html-keyboard-response","340","1320828","0.0-18.0-20.0-0.0","92700","List2B","black","man","","","","null","","","","","","","","",""
"3395.5","<img src=""portrait/BW1.jpg""style=""height:400px;""></img>","0","html-button-response","341","1324226","0.0-18.0-22.0","92700","List2B","black","man","","true","0","","","","","","","","","",""
"null","CORRECT","","html-keyboard-response","342","1325731","0.0-18.0-23.0-0.0","92700","List2B","black","man","","","","null","","","","","","","","",""
"1485","<p>You got 8 out of 8 right first time. Press Continue.</p>","0","html-button-response","343","1327218","0.0-18.0-25.0","92700","List2B","black","man","","","","","","","","","","","","",""
"null","<div style=""font-size:60px;"">+</div>","","html-keyboard-response","344","1328723","0.0-19.0-0.0","92700","List2B","black","man","","","","null","","","","","","","","",""
"null","<img src=""stim_listB/touch6.gif""style=""height:400px;""></stim_listB>","","html-keyboard-response","345","1330726","0.0-19.0-1.0","92700","List2B","black","man","","","","null","","","","","","","","",""
"null","is being touched by","","html-keyboard-response","346","1332729","0.0-19.0-2.0","92700","List2B","black","man","","","","null","","","","","","","","",""
"11844.899999976158","","","survey-text","347","1344579","0.0-19.0-3.0","92700","List2B","black","man","","","","","{""Q0"":""luke is being touched by fred""}","<img src=""stim_listB/touch6.gif""style=""height:400px;""></stim_listB>","is being touched by","","","","","",""
"null","<div style=""font-size:60px;"">+</div>","","html-keyboard-response","348","1345083","0.0-19.0-0.1","92700","List2B","black","man","","","","null","","","","","","","","",""
"null","<img src=""stim_listB/oppose1.gif""style=""height:400px;""></stim_listB>","","html-keyboard-response","349","1347085","0.0-19.0-1.1","92700","List2B","black","man","","","","null","","","","","","","","",""
"null","is opposing","","html-keyboard-response","350","1349089","0.0-19.0-2.1","92700","List2B","black","man","","","","null","","","","","","","","",""
"7359","","","survey-text","351","1356453","0.0-19.0-3.1","92700","List2B","black","man","","","","","{""Q0"":""jane is opposing dave""}","<img src=""stim_listB/oppose1.gif""style=""height:400px;""></stim_listB>","is opposing","","","","","",""
"null","<div style=""font-size:60px;"">+</div>","","html-keyboard-response","352","1356956","0.0-19.0-0.2","92700","List2B","black","man","","","","null","","","","","","","","",""
"null","<img src=""stim_listB/shout6.gif""style=""height:400px;""></stim_listB>","","html-keyboard-response","353","1358960","0.0-19.0-1.2","92700","List2B","black","man","","","","null","","","","","","","","",""
"null","is being shouted at by","","html-keyboard-response","354","1360963","0.0-19.0-2.2","92700","List2B","black","man","","","","null","","","","","","","","",""
"9024","","","survey-text","355","1370005","0.0-19.0-3.2","92700","List2B","black","man","","","","","{""Q0"":""dave is being shouted at by mike""}","<img src=""stim_listB/shout6.gif""style=""height:400px;""></stim_listB>","is being shouted at by","","","","","",""
"null","<div style=""font-size:60px;"">+</div>","","html-keyboard-response","356","1370509","0.0-19.0-0.3","92700","List2B","black","man","","","","null","","","","","","","","",""
"null","<img src=""stim_listB/greet6.gif""style=""height:400px;""></stim_listB>","","html-keyboard-response","357","1372512","0.0-19.0-1.3","92700","List2B","black","man","","","","null","","","","","","","","",""
"null","is being greeted by","","html-keyboard-response","358","1374514","0.0-19.0-2.3","92700","List2B","black","man","","","","null","","","","","","","","",""
"9499.400000035763","","","survey-text","359","1384031","0.0-19.0-3.3","92700","List2B","black","man","","","","","{""Q0"":""luke is being greeted by mike""}","<img src=""stim_listB/greet6.gif""style=""height:400px;""></stim_listB>","is being greeted by","","","","","",""
"null","<div style=""font-size:60px;"">+</div>","","html-keyboard-response","360","1384533","0.0-19.0-0.4","92700","List2B","black","man","","","","null","","","","","","","","",""
"null","<img src=""stim_listB/oppose8.gif""style=""height:400px;""></stim_listB>","","html-keyboard-response","361","1386535","0.0-19.0-1.4","92700","List2B","black","man","","","","null","","","","","","","","",""
"null","is being opposed by","","html-keyboard-response","362","1388537","0.0-19.0-2.4","92700","List2B","black","man","","","","null","","","","","","","","",""
"10628.599999964237","","","survey-text","363","1399170","0.0-19.0-3.4","92700","List2B","black","man","","","","","{""Q0"":""ruth is being opposed by beth""}","<img src=""stim_listB/oppose8.gif""style=""height:400px;""></stim_listB>","is being opposed by","","","","","",""
"null","<div style=""font-size:60px;"">+</div>","","html-keyboard-response","364","1399674","0.0-19.0-0.5","92700","List2B","black","man","","","","null","","","","","","","","",""
"null","<img src=""stim_listB/shout8.gif""style=""height:400px;""></stim_listB>","","html-keyboard-response","365","1401677","0.0-19.0-1.5","92700","List2B","black","man","","","","null","","","","","","","","",""
"null","is being shouted at by","","html-keyboard-response","366","1403679","0.0-19.0-2.5","92700","List2B","black","man","","","","null","","","","","","","","",""
"15119.100000023842","","","survey-text","367","1418802","0.0-19.0-3.5","92700","List2B","black","man","","","","","{""Q0"":""jane is being shouted at by kate""}","<img src=""stim_listB/shout8.gif""style=""height:400px;""></stim_listB>","is being shouted at by","","","","","",""
"null","<div style=""font-size:60px;"">+</div>","","html-keyboard-response","368","1419306","0.0-19.0-0.6","92700","List2B","black","man","","","","null","","","","","","","","",""
"null","<img src=""stim_listB/greet5.gif""style=""height:400px;""></stim_listB>","","html-keyboard-response","369","1421309","0.0-19.0-1.6","92700","List2B","black","man","","","","null","","","","","","","","",""
"null","is greeting","","html-keyboard-response","370","1423312","0.0-19.0-2.6","92700","List2B","black","man","","","","null","","","","","","","","",""
"6444.699999988079","","","survey-text","371","1429762","0.0-19.0-3.6","92700","List2B","black","man","","","","","{""Q0"":""fred is greeting dave""}","<img src=""stim_listB/greet5.gif""style=""height:400px;""></stim_listB>","is greeting","","","","","",""
"null","<div style=""font-size:60px;"">+</div>","","html-keyboard-response","372","1430265","0.0-19.0-0.7","92700","List2B","black","man","","","","null","","","","","","","","",""
"null","<img src=""stim_listB/challenge2.gif""style=""height:400px;""></stim_listB>","","html-keyboard-response","373","1432268","0.0-19.0-1.7","92700","List2B","black","man","","","","null","","","","","","","","",""
"null","is being challenged by","","html-keyboard-response","374","1434270","0.0-19.0-2.7","92700","List2B","black","man","","","","null","","","","","","","","",""
"9938.199999988079","","","survey-text","375","1444214","0.0-19.0-3.7","92700","List2B","black","man","","","","","{""Q0"":""luke is being challenged by jane""}","<img src=""stim_listB/challenge2.gif""style=""height:400px;""></stim_listB>","is being challenged by","","","","","",""
"null","<div style=""font-size:60px;"">+</div>","","html-keyboard-response","376","1444716","0.0-19.0-0.8","92700","List2B","black","man","","","","null","","","","","","","","",""
"null","<img src=""stim_listB/oppose2.gif""style=""height:400px;""></stim_listB>","","html-keyboard-response","377","1446720","0.0-19.0-1.8","92700","List2B","black","man","","","","null","","","","","","","","",""
"null","is being opposed by","","html-keyboard-response","378","1448723","0.0-19.0-2.8","92700","List2B","black","man","","","","null","","","","","","","","",""
"8074.800000011921","","","survey-text","379","1456803","0.0-19.0-3.8","92700","List2B","black","man","","","","","{""Q0"":""luke is being opposed by ruth""}","<img src=""stim_listB/oppose2.gif""style=""height:400px;""></stim_listB>","is being opposed by","","","","","",""
"null","<div style=""font-size:60px;"">+</div>","","html-keyboard-response","380","1457306","0.0-19.0-0.9","92700","List2B","black","man","","","","null","","","","","","","","",""
"null","<img src=""stim_listB/shout4.gif""style=""height:400px;""></stim_listB>","","html-keyboard-response","381","1459309","0.0-19.0-1.9","92700","List2B","black","man","","","","null","","","","","","","","",""
"null","is being shouted at by","","html-keyboard-response","382","1461313","0.0-19.0-2.9","92700","List2B","black","man","","","","null","","","","","","","","",""
"8789","","","survey-text","383","1470107","0.0-19.0-3.9","92700","List2B","black","man","","","","","{""Q0"":""mike is being shouted at by kate""}","<img src=""stim_listB/shout4.gif""style=""height:400px;""></stim_listB>","is being shouted at by","","","","","",""
"null","<div style=""font-size:60px;"">+</div>","","html-keyboard-response","384","1470611","0.0-19.0-0.10","92700","List2B","black","man","","","","null","","","","","","","","",""
"null","<img src=""stim_listB/touch2.gif""style=""height:400px;""></stim_listB>","","html-keyboard-response","385","1472616","0.0-19.0-1.10","92700","List2B","black","man","","","","null","","","","","","","","",""
"null","is being touched by","","html-keyboard-response","386","1474618","0.0-19.0-2.10","92700","List2B","black","man","","","","null","","","","","","","","",""
"7513.799999952316","","","survey-text","387","1482146","0.0-19.0-3.10","92700","List2B","black","man","","","","","{""Q0"":""luke is being touched by ruth""}","<img src=""stim_listB/touch2.gif""style=""height:400px;""></stim_listB>","is being touched by","","","","","",""
"null","<div style=""font-size:60px;"">+</div>","","html-keyboard-response","388","1482651","0.0-19.0-0.11","92700","List2B","black","man","","","","null","","","","","","","","",""
"null","<img src=""stim_listB/hug2.gif""style=""height:400px;""></stim_listB>","","html-keyboard-response","389","1484654","0.0-19.0-1.11","92700","List2B","black","man","","","","null","","","","","","","","",""
"null","is being hugged by","","html-keyboard-response","390","1486656","0.0-19.0-2.11","92700","List2B","black","man","","","","null","","","","","","","","",""
"7716.199999988079","","","survey-text","391","1494379","0.0-19.0-3.11","92700","List2B","black","man","","","","","{""Q0"":""dave is being hugged by jane""}","<img src=""stim_listB/hug2.gif""style=""height:400px;""></stim_listB>","is being hugged by","","","","","",""
"null","<div style=""font-size:60px;"">+</div>","","html-keyboard-response","392","1494883","0.0-19.0-0.12","92700","List2B","black","man","","","","null","","","","","","","","",""
"null","<img src=""stim_listB/seduce6.gif""style=""height:400px;""></stim_listB>","","html-keyboard-response","393","1496887","0.0-19.0-1.12","92700","List2B","black","man","","","","null","","","","","","","","",""
"null","is being seduced by","","html-keyboard-response","394","1498890","0.0-19.0-2.12","92700","List2B","black","man","","","","null","","","","","","","","",""
"9835.199999988079","","","survey-text","395","1508731","0.0-19.0-3.12","92700","List2B","black","man","","","","","{""Q0"":""dave is being seduced by fred""}","<img src=""stim_listB/seduce6.gif""style=""height:400px;""></stim_listB>","is being seduced by","","","","","",""
"null","<div style=""font-size:60px;"">+</div>","","html-keyboard-response","396","1509234","0.0-19.0-0.13","92700","List2B","black","man","","","","null","","","","","","","","",""
"null","<img src=""stim_listB/shout3.gif""style=""height:400px;""></stim_listB>","","html-keyboard-response","397","1511236","0.0-19.0-1.13","92700","List2B","black","man","","","","null","","","","","","","","",""
"null","is shouting at","","html-keyboard-response","398","1513239","0.0-19.0-2.13","92700","List2B","black","man","","","","null","","","","","","","","",""
"6849.300000011921","","","survey-text","399","1520094","0.0-19.0-3.13","92700","List2B","black","man","","","","","{""Q0"":""beth is shouting at fred""}","<img src=""stim_listB/shout3.gif""style=""height:400px;""></stim_listB>","is shouting at","","","","","",""
"null","<div style=""font-size:60px;"">+</div>","","html-keyboard-response","400","1520598","0.0-19.0-0.14","92700","List2B","black","man","","","","null","","","","","","","","",""
"null","<img src=""stim_listB/kiss5.gif""style=""height:400px;""></stim_listB>","","html-keyboard-response","401","1522602","0.0-19.0-1.14","92700","List2B","black","man","","","","null","","","","","","","","",""
"null","is kissing","","html-keyboard-response","402","1524603","0.0-19.0-2.14","92700","List2B","black","man","","","","null","","","","","","","","",""
"7274.700000047684","","","survey-text","403","1531882","0.0-19.0-3.14","92700","List2B","black","man","","","","","{""Q0"":""fred is kissing luke""}","<img src=""stim_listB/kiss5.gif""style=""height:400px;""></stim_listB>","is kissing","","","","","",""
"null","<div style=""font-size:60px;"">+</div>","","html-keyboard-response","404","1532386","0.0-19.0-0.15","92700","List2B","black","man","","","","null","","","","","","","","",""
"null","<img src=""stim_listB/seduce5.gif""style=""height:400px;""></stim_listB>","","html-keyboard-response","405","1534389","0.0-19.0-1.15","92700","List2B","black","man","","","","null","","","","","","","","",""
"null","is seducing","","html-keyboard-response","406","1536392","0.0-19.0-2.15","92700","List2B","black","man","","","","null","","","","","","","","",""
"6965.800000011921","","","survey-text","407","1543362","0.0-19.0-3.15","92700","List2B","black","man","","","","","{""Q0"":""mike is seducing luke""}","<img src=""stim_listB/seduce5.gif""style=""height:400px;""></stim_listB>","is seducing","","","","","",""
"null","<div style=""font-size:60px;"">+</div>","","html-keyboard-response","408","1543865","0.0-19.0-0.16","92700","List2B","black","man","","","","null","","","","","","","","",""
"null","<img src=""stim_listB/seduce3.gif""style=""height:400px;""></stim_listB>","","html-keyboard-response","409","1545869","0.0-19.0-1.16","92700","List2B","black","man","","","","null","","","","","","","","",""
"null","is seducing","","html-keyboard-response","410","1547872","0.0-19.0-2.16","92700","List2B","black","man","","","","null","","","","","","","","",""
"6308.199999988079","","","survey-text","411","1554187","0.0-19.0-3.16","92700","List2B","black","man","","","","","{""Q0"":""kate is seducing fred""}","<img src=""stim_listB/seduce3.gif""style=""height:400px;""></stim_listB>","is seducing","","","","","",""
"null","<div style=""font-size:60px;"">+</div>","","html-keyboard-response","412","1554690","0.0-19.0-0.17","92700","List2B","black","man","","","","null","","","","","","","","",""
"null","<img src=""stim_listB/oppose4.gif""style=""height:400px;""></stim_listB>","","html-keyboard-response","413","1556694","0.0-19.0-1.17","92700","List2B","black","man","","","","null","","","","","","","","",""
"null","is being opposed by","","html-keyboard-response","414","1558695","0.0-19.0-2.17","92700","List2B","black","man","","","","null","","","","","","","","",""
"9063","","","survey-text","415","1567763","0.0-19.0-3.17","92700","List2B","black","man","","","","","{""Q0"":""fred is being opposed by beth""}","<img src=""stim_listB/oppose4.gif""style=""height:400px;""></stim_listB>","is being opposed by","","","","","",""
"null","<div style=""font-size:60px;"">+</div>","","html-keyboard-response","416","1568266","0.0-19.0-0.18","92700","List2B","black","man","","","","null","","","","","","","","",""
"null","<img src=""stim_listB/touch1.gif""style=""height:400px;""></stim_listB>","","html-keyboard-response","417","1570270","0.0-19.0-1.18","92700","List2B","black","man","","","","null","","","","","","","","",""
"null","is touching","","html-keyboard-response","418","1572273","0.0-19.0-2.18","92700","List2B","black","man","","","","null","","","","","","","","",""
"6649.100000023842","","","survey-text","419","1578940","0.0-19.0-3.18","92700","List2B","black","man","","","","","{""Q0"":""jane is touching dave""}","<img src=""stim_listB/touch1.gif""style=""height:400px;""></stim_listB>","is touching","","","","","",""
"null","<div style=""font-size:60px;"">+</div>","","html-keyboard-response","420","1579442","0.0-19.0-0.19","92700","List2B","black","man","","","","null","","","","","","","","",""
"null","<img src=""stim_listB/seduce8.gif""style=""height:400px;""></stim_listB>","","html-keyboard-response","421","1581446","0.0-19.0-1.19","92700","List2B","black","man","","","","null","","","","","","","","",""
"null","is being seduced by","","html-keyboard-response","422","1583448","0.0-19.0-2.19","92700","List2B","black","man","","","","null","","","","","","","","",""
"8001.900000035763","","","survey-text","423","1591454","0.0-19.0-3.19","92700","List2B","black","man","","","","","{""Q0"":""jane is being seduced by beth""}","<img src=""stim_listB/seduce8.gif""style=""height:400px;""></stim_listB>","is being seduced by","","","","","",""
"2723","<p>Thank you for completing that task.</p><p>The final part of this session is a questionnaire that will take about 4 minutes.</p><p>Press Continue.</p>","0","html-button-response","424","1594180","0.0-20.0","92700","List2B","black","man","","","","","","","","","","","","",""
"36144.80000001192","","","survey-text","425","1631358","0.0-21.0","92700","List2B","black","man","","","","","{""Q0"":""34"",""Q1"":""english"",""Q2"":""english"",""Q3"":""United States"",""Q4"":""american"",""Q5"":""black"",""Q6"":""male""}","","","demographics","","","","",""
"1710.2999999523163","<p>Have you lived in the USA for the last 5 years or more?</p>","0","html-button-response","426","1633074","0.0-22.0","92700","List2B","black","man","","","","","","","","fiveyears","","","","",""
"2586.600000023842","<p>Move the slider to show the extent to which you agree with the following statements.</p>","0","html-button-response","427","1636665","0.0-23.0","92700","List2B","black","man","","","","","","","","","","","","",""
"4215.699999988079","","","html-slider-response","428","1641890","0.0-24.0-0.0-0.0","92700","List2B","black","man","","","","","","","","survey_gender","100","","","I feel a bond with my friends.","filler"
"4644.600000023842","","","html-slider-response","429","1646537","0.0-24.0-0.0-0.1","92700","List2B","black","man","","","","","","","","survey_gender","9","","","I often think about the fact that I am my gender.","often"
"3654.2999999523163","","","html-slider-response","430","1650196","0.0-24.0-0.0-0.2","92700","List2B","black","man","","","","","","","","survey_gender","85","","","I have a lot in common with the average person of my gender.","average"
"5850.5","","","html-slider-response","431","1656049","0.0-24.0-0.0-0.3","92700","List2B","black","man","","","","","","","","survey_gender","99","","","Being my gender is an important part of how I see myself.","important"
"4253.800000011921","","","html-slider-response","432","1660307","0.0-24.0-0.0-0.4","92700","List2B","black","man","","","","","","","","survey_gender","94","","","It is not always easy for people to know what I am thinking.","filler"
"2435.599999964237","","","html-slider-response","433","1662746","0.0-24.0-0.0-0.5","92700","List2B","black","man","","","","","","","","survey_gender","81","","","I often think about my actions.","filler"
"3765.100000023842","","","html-slider-response","434","1666514","0.0-24.0-0.0-0.6","92700","List2B","black","man","","","","","","","","survey_gender","74","","","I feel solidarity with my gender.","solidarity"
"4252.599999964237","","","html-slider-response","435","1670770","0.0-24.0-0.0-0.7","92700","List2B","black","man","","","","","","","","survey_gender","63","","","I am similar to the average person of my gender.","similar"
"2612.899999976158","","","html-slider-response","436","1673386","0.0-24.0-0.0-0.8","92700","List2B","black","man","","","","","","","","survey_gender","83","","","I feel a bond with my gender.","bond"
"3853.5","","","html-slider-response","437","1677243","0.0-24.0-0.0-0.9","92700","List2B","black","man","","","","","","","","survey_gender","98","","","Being my gender gives me a good feeling.","feeling"
"4876.300000011921","","","html-slider-response","438","1682122","0.0-24.0-0.0-0.10","92700","List2B","black","man","","","","","","","","survey_gender","100","","","It is pleasant to be my gender.","pleasant"
"2308.599999964237","","","html-slider-response","439","1684434","0.0-24.0-0.0-0.11","92700","List2B","black","man","","","","","","","","survey_gender","100","","","I feel committed to my gender.","committed"
"2357.7000000476837","","","html-slider-response","440","1686794","0.0-24.0-0.0-0.12","92700","List2B","black","man","","","","","","","","survey_gender","74","","","I would say I am an animal person.","filler"
"2732.600000023842","","","html-slider-response","441","1689530","0.0-24.0-0.0-0.13","92700","List2B","black","man","","","","","","","","survey_gender","89","","","I have a lot in common with my friends.","filler"
"2484.5","","","html-slider-response","442","1692018","0.0-24.0-0.0-0.14","92700","List2B","black","man","","","","","","","","survey_gender","84","","","My friends have a lot in common with each other.","filler"
"2262.199999988079","","","html-slider-response","443","1694282","0.0-24.0-0.0-0.15","92700","List2B","black","man","","","","","","","","survey_gender","89","","","I consider myself a highly empathetic person.","filler"
"2557.100000023842","","","html-slider-response","444","1696842","0.0-24.0-0.0-0.16","92700","List2B","black","man","","","","","","","","survey_gender","91","","","Being around my friends gives me a good feeling.","filler"
"5661","","","html-slider-response","445","1702506","0.0-24.0-0.0-0.17","92700","List2B","black","man","","","","","","","","survey_gender","80","","","I think that my gender has a lot to be proud of.","proud"
"4117.699999988079","","","html-slider-response","446","1706627","0.0-24.0-0.0-0.18","92700","List2B","black","man","","","","","","","","survey_gender","33","","","Routine is not important to me.","filler"
"6227.800000011921","","","html-slider-response","447","1712858","0.0-24.0-0.0-0.19","92700","List2B","black","man","","","","","","","","survey_gender","43","","","Family is not more important to me than friendship.","filler"
"3901","","","html-slider-response","448","1716762","0.0-24.0-0.0-0.20","92700","List2B","black","man","","","","","","","","survey_gender","80","","","People of my gender are very similar to each other.","verysimilar"
"2299.899999976158","","","html-slider-response","449","1719066","0.0-24.0-0.0-0.21","92700","List2B","black","man","","","","","","","","survey_gender","70","","","People of my gender have a lot in common with each other.","common"
"3037.399999976158","","","html-slider-response","450","1722106","0.0-24.0-0.0-0.22","92700","List2B","black","man","","","","","","","","survey_gender","80","","","I feel solidarity with my friends.","filler"
"2124.900000035763","","","html-slider-response","451","1724234","0.0-24.0-0.0-0.23","92700","List2B","black","man","","","","","","","","survey_gender","74","","","Most of the friends in my life are very similar to me.","filler"
"2733.5","","","html-slider-response","452","1726970","0.0-24.0-0.0-0.24","92700","List2B","black","man","","","","","","","","survey_gender","98","","","I am glad to have the friends that I have.","filler"
"2029.2000000476837","","","html-slider-response","453","1729002","0.0-24.0-0.0-0.25","92700","List2B","black","man","","","","","","","","survey_gender","93","","","My friends understand me.","filler"
"2765.900000035763","","","html-slider-response","454","1731771","0.0-24.0-0.0-0.26","92700","List2B","black","man","","","","","","","","survey_gender","100","","","I am glad to be my gender.","glad"
"3084.300000011921","","","html-slider-response","455","1734858","0.0-24.0-0.0-0.27","92700","List2B","black","man","","","","","","","","survey_gender","99","","","The fact that I am my gender is an important part of my identity.","identity"
"4981.900000035763","","","html-slider-response","456","1739842","0.0-24.0-1.0-0.0","92700","List2B","black","man","","","","","","","","survey_race","76","","","I have a lot in common with the average person of my race.","average"
"3061.5","","","html-slider-response","457","1742907","0.0-24.0-1.0-0.1","92700","List2B","black","man","","","","","","","","survey_race","42","","","I am glad to be my age.","filler"
"5173.900000035763","","","html-slider-response","458","1748084","0.0-24.0-1.0-0.2","92700","List2B","black","man","","","","","","","","survey_race","52","","","People my age have a lot in common with each other.","filler"
"2803.7000000476837","","","html-slider-response","459","1750890","0.0-24.0-1.0-0.3","92700","List2B","black","man","","","","","","","","survey_race","99","","","I am glad to be my race.","glad"
"2933.5","","","html-slider-response","460","1753826","0.0-24.0-1.0-0.4","92700","List2B","black","man","","","","","","","","survey_race","99","","","I consider myself an introvert.","filler"
"2245","","","html-slider-response","461","1756074","0.0-24.0-1.0-0.5","92700","List2B","black","man","","","","","","","","survey_race","68","","","Being my race gives me a good feeling.","feeling"
"3950.399999976158","","","html-slider-response","462","1760027","0.0-24.0-1.0-0.6","92700","List2B","black","man","","","","","","","","survey_race","59","","","It is pleasant to be my race.","pleasant"
"2787.600000023842","","","html-slider-response","463","1762818","0.0-24.0-1.0-0.7","92700","List2B","black","man","","","","","","","","survey_race","37","","","Getting older does not worry me.","filler"
"3613.5","","","html-slider-response","464","1766434","0.0-24.0-1.0-0.8","92700","List2B","black","man","","","","","","","","survey_race","56","","","I feel a bond with people the same age as me.","filler"
"3541.599999964237","","","html-slider-response","465","1769979","0.0-24.0-1.0-0.9","92700","List2B","black","man","","","","","","","","survey_race","26","","","I am glad to be the age I am.","filler"
"2714.5","","","html-slider-response","466","1772698","0.0-24.0-1.0-0.10","92700","List2B","black","man","","","","","","","","survey_race","58","","","I have a lot in common with people of a similar age to me.","filler"
"3173.2000000476837","","","html-slider-response","467","1775875","0.0-24.0-1.0-0.11","92700","List2B","black","man","","","","","","","","survey_race","6","","","I consider myself an extrovert.","filler"
"2732.800000011921","","","html-slider-response","468","1778611","0.0-24.0-1.0-0.12","92700","List2B","black","man","","","","","","","","survey_race","64","","","I am similar to the average person of my race.","similar"
"3532.5","","","html-slider-response","469","1782146","0.0-24.0-1.0-0.13","92700","List2B","black","man","","","","","","","","survey_race","47","","","I feel solidarity with my race.","solidarity"
"3669.5","","","html-slider-response","470","1785818","0.0-24.0-1.0-0.14","92700","List2B","black","man","","","","","","","","survey_race","57","","","People of my race are very similar to each other.","verysimilar"
"3389.100000023842","","","html-slider-response","471","1789210","0.0-24.0-1.0-0.15","92700","List2B","black","man","","","","","","","","survey_race","53","","","People of my race have a lot in common with each other.","common"
"4461.600000023842","","","html-slider-response","472","1793674","0.0-24.0-1.0-0.16","92700","List2B","black","man","","","","","","","","survey_race","62","","","I think that my race has a lot to be proud of.","proud"
"2261.899999976158","","","html-slider-response","473","1795939","0.0-24.0-1.0-0.17","92700","List2B","black","man","","","","","","","","survey_race","60","","","I feel a bond with my race.","bond"
"3677","","","html-slider-response","474","1799619","0.0-24.0-1.0-0.18","92700","List2B","black","man","","","","","","","","survey_race","20","","","I often think about the fact that I am my race.","often"
"4523.899999976158","","","html-slider-response","475","1804147","0.0-24.0-1.0-0.19","92700","List2B","black","man","","","","","","","","survey_race","70","","","The fact that I am my race is an important part of my identity.","identity"
"2613.5","","","html-slider-response","476","1806763","0.0-24.0-1.0-0.20","92700","List2B","black","man","","","","","","","","survey_race","61","","","I feel committed to my race.","committed"
"3389.199999988079","","","html-slider-response","477","1810155","0.0-24.0-1.0-0.21","92700","List2B","black","man","","","","","","","","survey_race","67","","","I often think about the fact that I am my age.","filler"
"6411.5","","","html-slider-response","478","1816570","0.0-24.0-1.0-0.22","92700","List2B","black","man","","","","","","","","survey_race","50","","","My age is not an important part of who I am.","filler"
"3236.699999988079","","","html-slider-response","479","1819810","0.0-24.0-1.0-0.23","92700","List2B","black","man","","","","","","","","survey_race","55","","","I feel solidarity with people the same age as me.","filler"
"4374.100000023842","","","html-slider-response","480","1824187","0.0-24.0-1.0-0.24","92700","List2B","black","man","","","","","","","","survey_race","48","","","Being my age gives me a good feeling.","filler"
