rt,stimulus,button_pressed,trial_type,trial_index,time_elapsed,internal_node_id,subject,list,ppt_race,ppt_gender,url,first_guess,correct,key_press,responses,image_type,phrase_type,test_part,response,stimulus1,stimulus2,question_type,survey_item
4038,Welcome to the experiment. Press Continue to begin.,0,html-button-response,0,4040,0.0-0.0,93283,List2B,white,woman,,,,,,,,,,,,,
55464,,,external-html,1,60957,0.0-1.0,93283,List2B,white,woman,consent.html,,,,,,,,,,,,
12216.4,"<p>On the next page, you will see portraits of 8 people and their names.</p><p>Your first task is to take a few minutes to memorise the names of these people.</p><p>You will have to recall their names during the rest of the experiment, so it is</p><p>essential that you try to memorise these people and their names as best as you can.</p><br><p><strong>You will then be tested on your memory of these names and portraits.</strong></p><br><p>The experiment will start after you have completed this memory test.</p><br><p>Ready?</p>",0,html-button-response,2,73175,0.0-2.0,93283,List2B,white,woman,,,,,,,,,,,,,
51522.3,"<img src='img/portrait_matrix_list2.jpg' style='width:900px;height:500px;''></img><p>If you have memorised all the portraits and names and are ready to start, press Continue.</p><p><strong>Please note: Your memory of these faces will be tested 4 times during this experiment.</strong></p>",0,html-button-response,3,125704,0.0-3.0-0.0,93283,List2B,white,woman,,,,,,,,,,,,,
14804.4,"<img src=""portrait/WW1.jpg""style=""height:400px;""></img>",2,html-button-response,4,141512,0.0-3.0-1.0,93283,List2B,white,woman,,TRUE,1,,,,,,,,,,
5117.5,"<img src=""portrait/WW1.jpg""style=""height:400px;""></img>",1,html-button-response,5,147632,0.0-3.0-3.0-0.0,93283,List2B,white,woman,,FALSE,1,,,,,,,,,,
null,CORRECT,,html-keyboard-response,6,149136,0.0-3.0-3.0-1.0-0.0,93283,List2B,white,woman,,,,null,,,,,,,,,
3501.5,"<img src=""portrait/WW2.jpg""style=""height:400px;""></img>",2,html-button-response,7,152639,0.0-3.0-4.0,93283,List2B,white,woman,,TRUE,3,,,,,,,,,,
3643.2,"<img src=""portrait/WW2.jpg""style=""height:400px;""></img>",3,html-button-response,8,157285,0.0-3.0-6.0-0.0,93283,List2B,white,woman,,FALSE,3,,,,,,,,,,
null,CORRECT,,html-keyboard-response,9,158790,0.0-3.0-6.0-1.0-0.0,93283,List2B,white,woman,,,,null,,,,,,,,,
5626.5,"<img src=""portrait/WM1.jpg""style=""height:400px;""></img>",6,html-button-response,10,164418,0.0-3.0-7.0,93283,List2B,white,woman,,TRUE,6,,,,,,,,,,
null,CORRECT,,html-keyboard-response,11,165927,0.0-3.0-8.0-0.0,93283,List2B,white,woman,,,,null,,,,,,,,,
5926.4,"<img src=""portrait/BM1.jpg""style=""height:400px;""></img>",4,html-button-response,12,171855,0.0-3.0-10.0,93283,List2B,white,woman,,TRUE,4,,,,,,,,,,
null,CORRECT,,html-keyboard-response,13,173361,0.0-3.0-11.0-0.0,93283,List2B,white,woman,,,,null,,,,,,,,,
2352.3,"<img src=""portrait/BW1.jpg""style=""height:400px;""></img>",0,html-button-response,14,175714,0.0-3.0-13.0,93283,List2B,white,woman,,TRUE,0,,,,,,,,,,
null,CORRECT,,html-keyboard-response,15,177220,0.0-3.0-14.0-0.0,93283,List2B,white,woman,,,,null,,,,,,,,,
3533.3,"<img src=""portrait/BM2.jpg""style=""height:400px;""></img>",5,html-button-response,16,180754,0.0-3.0-16.0,93283,List2B,white,woman,,TRUE,5,,,,,,,,,,
null,CORRECT,,html-keyboard-response,17,182258,0.0-3.0-17.0-0.0,93283,List2B,white,woman,,,,null,,,,,,,,,
4098,"<img src=""portrait/BW2.jpg""style=""height:400px;""></img>",2,html-button-response,18,186357,0.0-3.0-19.0,93283,List2B,white,woman,,TRUE,2,,,,,,,,,,
null,CORRECT,,html-keyboard-response,19,187863,0.0-3.0-20.0-0.0,93283,List2B,white,woman,,,,null,,,,,,,,,
1991.9,"<img src=""portrait/WM2.jpg""style=""height:400px;""></img>",7,html-button-response,20,189856,0.0-3.0-22.0,93283,List2B,white,woman,,TRUE,7,,,,,,,,,,
null,CORRECT,,html-keyboard-response,21,191360,0.0-3.0-23.0-0.0,93283,List2B,white,woman,,,,null,,,,,,,,,
2330.9,<p>You got 6 out of 8 right first time. Press Continue.</p>,0,html-button-response,22,193692,0.0-3.0-25.0,93283,List2B,white,woman,,,,,,,,,,,,,
3768.4,"As you did not score 100%, the memory game will repeat. Press Continue.",0,html-button-response,23,198462,0.0-3.0-26.0-0.0,93283,List2B,white,woman,,,,,,,,,,,,,
12764.2,"<img src='img/portrait_matrix_list2.jpg' style='width:900px;height:500px;''></img><p>If you have memorised all the portraits and names and are ready to start, press Continue.</p><p><strong>Please note: Your memory of these faces will be tested 4 times during this experiment.</strong></p>",0,html-button-response,24,212233,0.0-3.1-0.1,93283,List2B,white,woman,,,,,,,,,,,,,
3486.8,"<img src=""portrait/WW1.jpg""style=""height:400px;""></img>",1,html-button-response,25,216722,0.0-3.1-1.1,93283,List2B,white,woman,,TRUE,1,,,,,,,,,,
null,CORRECT,,html-keyboard-response,26,218228,0.0-3.1-2.1-0.1,93283,List2B,white,woman,,,,null,,,,,,,,,
3589.9,"<img src=""portrait/WW2.jpg""style=""height:400px;""></img>",3,html-button-response,27,221819,0.0-3.1-4.1,93283,List2B,white,woman,,TRUE,3,,,,,,,,,,
null,CORRECT,,html-keyboard-response,28,223323,0.0-3.1-5.1-0.1,93283,List2B,white,woman,,,,null,,,,,,,,,
2443.8,"<img src=""portrait/WM1.jpg""style=""height:400px;""></img>",6,html-button-response,29,225768,0.0-3.1-7.1,93283,List2B,white,woman,,TRUE,6,,,,,,,,,,
null,CORRECT,,html-keyboard-response,30,227276,0.0-3.1-8.1-0.1,93283,List2B,white,woman,,,,null,,,,,,,,,
3858,"<img src=""portrait/BM1.jpg""style=""height:400px;""></img>",4,html-button-response,31,231135,0.0-3.1-10.1,93283,List2B,white,woman,,TRUE,4,,,,,,,,,,
null,CORRECT,,html-keyboard-response,32,232644,0.0-3.1-11.1-0.1,93283,List2B,white,woman,,,,null,,,,,,,,,
1729.9,"<img src=""portrait/BW1.jpg""style=""height:400px;""></img>",0,html-button-response,33,234375,0.0-3.1-13.1,93283,List2B,white,woman,,TRUE,0,,,,,,,,,,
null,CORRECT,,html-keyboard-response,34,235883,0.0-3.1-14.1-0.1,93283,List2B,white,woman,,,,null,,,,,,,,,
4397.4,"<img src=""portrait/BM2.jpg""style=""height:400px;""></img>",5,html-button-response,35,240281,0.0-3.1-16.1,93283,List2B,white,woman,,TRUE,5,,,,,,,,,,
null,CORRECT,,html-keyboard-response,36,241791,0.0-3.1-17.1-0.1,93283,List2B,white,woman,,,,null,,,,,,,,,
4429.7,"<img src=""portrait/BW2.jpg""style=""height:400px;""></img>",2,html-button-response,37,246222,0.0-3.1-19.1,93283,List2B,white,woman,,TRUE,2,,,,,,,,,,
null,CORRECT,,html-keyboard-response,38,247731,0.0-3.1-20.1-0.1,93283,List2B,white,woman,,,,null,,,,,,,,,
1437.3,"<img src=""portrait/WM2.jpg""style=""height:400px;""></img>",7,html-button-response,39,249170,0.0-3.1-22.1,93283,List2B,white,woman,,TRUE,7,,,,,,,,,,
null,CORRECT,,html-keyboard-response,40,250674,0.0-3.1-23.1-0.1,93283,List2B,white,woman,,,,null,,,,,,,,,
1375,<p>You got 8 out of 8 right first time. Press Continue.</p>,0,html-button-response,41,252050,0.0-3.1-25.1,93283,List2B,white,woman,,,,,,,,,,,,,
53267.4,"<p>In this experiment, you will view photographs of the people from the memory game interacting.</p><p>By using the <strong>exact</strong> phrase given <i>after</i> the photograph appears and recalling the correct names of the people in the photographs, form a sentence describing the interaction. You do not need to capitalise names.</p><p>Type your answer in the space provided. Please complete every sentence before moving onto the next trial.</p><p>You will only have a few seconds to memorise each given photograph and phrase before you can respond, so try your best to focus.</p><p>An example is given below. Press 'Continue' when you are ready.</p><img src='img/speaking_example.jpg' style='width:800px;height:460px;''></img>",0,html-button-response,42,306297,0.0-4.0,93283,List2B,white,woman,,,,,,,,,,,,,
3192.1,"<p>Before the experiment starts, you will watch two example trials. Press 'Continue'.</p>",0,html-button-response,43,310492,0.0-5.0,93283,List2B,white,woman,,,,,,,,,,,,,
null,<img src='img/play_eg.gif' style='height:400px;''></img>,,html-keyboard-response,44,313496,0.0-6.0,93283,List2B,white,woman,,,,null,,,,,,,,,
null,<p>is playing with</p>,,html-keyboard-response,45,315497,0.0-7.0,93283,List2B,white,woman,,,,null,,,,,,,,,
3553.7,<p><b>Answer:</b> jane is playing with ruth</p>,0,html-button-response,46,319051,0.0-8.0,93283,List2B,white,woman,,,,,,,,,,,,,
null,<img src='img/dance_eg.gif' style='height:400px;''></img>,,html-keyboard-response,47,322061,0.0-9.0,93283,List2B,white,woman,,,,null,,,,,,,,,
null,<p>is being entertained by</p>,,html-keyboard-response,48,324064,0.0-10.0,93283,List2B,white,woman,,,,null,,,,,,,,,
8396.2,<p><b>Answer:</b> fred is being entertained by mike</p>,0,html-button-response,49,332459,0.0-11.0,93283,List2B,white,woman,,,,,,,,,,,,,
34289,"<p>Ready to start the experiment?</p><br><p><strong>Remember to describe the picture using a full sentence,</strong></p><p><strong>that combines the names of the people with the <i>exact</i> phrase given.</strong></p><p><strong>To receive full payment you must do this correctly.</strong></p><p><strong> You do not need to capitalise names or use punctuation.</strong></p><br><p>Press 'Continue' to begin.</p>",0,html-button-response,50,367750,0.0-12.0,93283,List2B,white,woman,,,,,,,,,,,,,
null,"<div style=""font-size:60px;"">+</div>",,html-keyboard-response,51,369261,0.0-13.0-0.0,93283,List2B,white,woman,,,,null,,,,,,,,,
null,"<img src=""stim_listB/kiss2.gif""style=""height:400px;""></stim_listB>",,html-keyboard-response,52,371263,0.0-13.0-1.0,93283,List2B,white,woman,,,,null,,,,,,,,,
null,is being kissed by,,html-keyboard-response,53,373265,0.0-13.0-2.0,93283,List2B,white,woman,,,,null,,,,,,,,,
19065.8,,,survey-text,54,392333,0.0-13.0-3.0,93283,List2B,white,woman,,,,,"{""Q0"":""jane is being kissed by dave""}","<img src=""stim_listB/kiss2.gif""style=""height:400px;""></stim_listB>",is being kissed by,,,,,,
null,"<div style=""font-size:60px;"">+</div>",,html-keyboard-response,55,392834,0.0-13.0-0.1,93283,List2B,white,woman,,,,null,,,,,,,,,
null,"<img src=""stim_listB/hug2.gif""style=""height:400px;""></stim_listB>",,html-keyboard-response,56,394836,0.0-13.0-1.1,93283,List2B,white,woman,,,,null,,,,,,,,,
null,is being hugged by,,html-keyboard-response,57,396837,0.0-13.0-2.1,93283,List2B,white,woman,,,,null,,,,,,,,,
6125.9,,,survey-text,58,402965,0.0-13.0-3.1,93283,List2B,white,woman,,,,,"{""Q0"":""jane is being hugged by dave""}","<img src=""stim_listB/hug2.gif""style=""height:400px;""></stim_listB>",is being hugged by,,,,,,
null,"<div style=""font-size:60px;"">+</div>",,html-keyboard-response,59,403469,0.0-13.0-0.2,93283,List2B,white,woman,,,,null,,,,,,,,,
null,"<img src=""stim_listB/oppose8.gif""style=""height:400px;""></stim_listB>",,html-keyboard-response,60,405474,0.0-13.0-1.2,93283,List2B,white,woman,,,,null,,,,,,,,,
null,is being opposed by,,html-keyboard-response,61,407480,0.0-13.0-2.2,93283,List2B,white,woman,,,,null,,,,,,,,,
11672.3,,,survey-text,62,419154,0.0-13.0-3.2,93283,List2B,white,woman,,,,,"{""Q0"":""beth is being opposed by ruth""}","<img src=""stim_listB/oppose8.gif""style=""height:400px;""></stim_listB>",is being opposed by,,,,,,
null,"<div style=""font-size:60px;"">+</div>",,html-keyboard-response,63,419657,0.0-13.0-0.3,93283,List2B,white,woman,,,,null,,,,,,,,,
null,"<img src=""stim_listB/touch7.gif""style=""height:400px;""></stim_listB>",,html-keyboard-response,64,421660,0.0-13.0-1.3,93283,List2B,white,woman,,,,null,,,,,,,,,
null,is touching,,html-keyboard-response,65,423663,0.0-13.0-2.3,93283,List2B,white,woman,,,,null,,,,,,,,,
11195.8,,,survey-text,66,434860,0.0-13.0-3.3,93283,List2B,white,woman,,,,,"{""Q0"":""jane is touching kate""}","<img src=""stim_listB/touch7.gif""style=""height:400px;""></stim_listB>",is touching,,,,,,
null,"<div style=""font-size:60px;"">+</div>",,html-keyboard-response,67,435362,0.0-13.0-0.4,93283,List2B,white,woman,,,,null,,,,,,,,,
null,"<img src=""stim_listB/challenge2.gif""style=""height:400px;""></stim_listB>",,html-keyboard-response,68,437363,0.0-13.0-1.4,93283,List2B,white,woman,,,,null,,,,,,,,,
null,is being challenged by,,html-keyboard-response,69,439364,0.0-13.0-2.4,93283,List2B,white,woman,,,,null,,,,,,,,,
14754.8,,,survey-text,70,454120,0.0-13.0-3.4,93283,List2B,white,woman,,,,,"{""Q0"":""luke is being challenged by jane""}","<img src=""stim_listB/challenge2.gif""style=""height:400px;""></stim_listB>",is being challenged by,,,,,,
null,"<div style=""font-size:60px;"">+</div>",,html-keyboard-response,71,454621,0.0-13.0-0.5,93283,List2B,white,woman,,,,null,,,,,,,,,
null,"<img src=""stim_listB/greet7.gif""style=""height:400px;""></stim_listB>",,html-keyboard-response,72,456624,0.0-13.0-1.5,93283,List2B,white,woman,,,,null,,,,,,,,,
null,is greeting,,html-keyboard-response,73,458626,0.0-13.0-2.5,93283,List2B,white,woman,,,,null,,,,,,,,,
5640.1,,,survey-text,74,464268,0.0-13.0-3.5,93283,List2B,white,woman,,,,,"{""Q0"":""beth is greeting jane""}","<img src=""stim_listB/greet7.gif""style=""height:400px;""></stim_listB>",is greeting,,,,,,
null,"<div style=""font-size:60px;"">+</div>",,html-keyboard-response,75,464769,0.0-13.0-0.6,93283,List2B,white,woman,,,,null,,,,,,,,,
null,"<img src=""stim_listB/hug1.gif""style=""height:400px;""></stim_listB>",,html-keyboard-response,76,466772,0.0-13.0-1.6,93283,List2B,white,woman,,,,null,,,,,,,,,
null,is hugging,,html-keyboard-response,77,468774,0.0-13.0-2.6,93283,List2B,white,woman,,,,null,,,,,,,,,
5719.2,,,survey-text,78,474495,0.0-13.0-3.6,93283,List2B,white,woman,,,,,"{""Q0"":""luke is hugging ruth""}","<img src=""stim_listB/hug1.gif""style=""height:400px;""></stim_listB>",is hugging,,,,,,
null,"<div style=""font-size:60px;"">+</div>",,html-keyboard-response,79,474998,0.0-13.0-0.7,93283,List2B,white,woman,,,,null,,,,,,,,,
null,"<img src=""stim_listB/shout6.gif""style=""height:400px;""></stim_listB>",,html-keyboard-response,80,477001,0.0-13.0-1.7,93283,List2B,white,woman,,,,null,,,,,,,,,
null,is being shouted at by,,html-keyboard-response,81,479002,0.0-13.0-2.7,93283,List2B,white,woman,,,,null,,,,,,,,,
9587.8,,,survey-text,82,488592,0.0-13.0-3.7,93283,List2B,white,woman,,,,,"{""Q0"":""dave is being shouted at by mike""}","<img src=""stim_listB/shout6.gif""style=""height:400px;""></stim_listB>",is being shouted at by,,,,,,
null,"<div style=""font-size:60px;"">+</div>",,html-keyboard-response,83,489096,0.0-13.0-0.8,93283,List2B,white,woman,,,,null,,,,,,,,,
null,"<img src=""stim_listB/touch1.gif""style=""height:400px;""></stim_listB>",,html-keyboard-response,84,491101,0.0-13.0-1.8,93283,List2B,white,woman,,,,null,,,,,,,,,
null,is touching,,html-keyboard-response,85,493102,0.0-13.0-2.8,93283,List2B,white,woman,,,,null,,,,,,,,,
8088.5,,,survey-text,86,501192,0.0-13.0-3.8,93283,List2B,white,woman,,,,,"{""Q0"":""dave is touching jane""}","<img src=""stim_listB/touch1.gif""style=""height:400px;""></stim_listB>",is touching,,,,,,
null,"<div style=""font-size:60px;"">+</div>",,html-keyboard-response,87,501696,0.0-13.0-0.9,93283,List2B,white,woman,,,,null,,,,,,,,,
null,"<img src=""stim_listB/challenge7.gif""style=""height:400px;""></stim_listB>",,html-keyboard-response,88,503700,0.0-13.0-1.9,93283,List2B,white,woman,,,,null,,,,,,,,,
null,is challenging,,html-keyboard-response,89,505701,0.0-13.0-2.9,93283,List2B,white,woman,,,,null,,,,,,,,,
8720.3,,,survey-text,90,514423,0.0-13.0-3.9,93283,List2B,white,woman,,,,,"{""Q0"":""jane is challenging beth""}","<img src=""stim_listB/challenge7.gif""style=""height:400px;""></stim_listB>",is challenging,,,,,,
null,"<div style=""font-size:60px;"">+</div>",,html-keyboard-response,91,514926,0.0-13.0-0.10,93283,List2B,white,woman,,,,null,,,,,,,,,
null,"<img src=""stim_listB/touch8.gif""style=""height:400px;""></stim_listB>",,html-keyboard-response,92,516930,0.0-13.0-1.10,93283,List2B,white,woman,,,,null,,,,,,,,,
null,is being touched by,,html-keyboard-response,93,518935,0.0-13.0-2.10,93283,List2B,white,woman,,,,null,,,,,,,,,
8469.4,,,survey-text,94,527406,0.0-13.0-3.10,93283,List2B,white,woman,,,,,"{""Q0"":""beth is being touched by ruth""}","<img src=""stim_listB/touch8.gif""style=""height:400px;""></stim_listB>",is being touched by,,,,,,
null,"<div style=""font-size:60px;"">+</div>",,html-keyboard-response,95,527910,0.0-13.0-0.11,93283,List2B,white,woman,,,,null,,,,,,,,,
null,"<img src=""stim_listB/look5.gif""style=""height:400px;""></stim_listB>",,html-keyboard-response,96,529912,0.0-13.0-1.11,93283,List2B,white,woman,,,,null,,,,,,,,,
null,is looking at,,html-keyboard-response,97,531915,0.0-13.0-2.11,93283,List2B,white,woman,,,,null,,,,,,,,,
6986.8,,,survey-text,98,538904,0.0-13.0-3.11,93283,List2B,white,woman,,,,,"{""Q0"":""fred is looking at luke""}","<img src=""stim_listB/look5.gif""style=""height:400px;""></stim_listB>",is looking at,,,,,,
null,"<div style=""font-size:60px;"">+</div>",,html-keyboard-response,99,539405,0.0-13.0-0.12,93283,List2B,white,woman,,,,null,,,,,,,,,
null,"<img src=""stim_listB/look6.gif""style=""height:400px;""></stim_listB>",,html-keyboard-response,100,541411,0.0-13.0-1.12,93283,List2B,white,woman,,,,null,,,,,,,,,
null,is being looked at by,,html-keyboard-response,101,543415,0.0-13.0-2.12,93283,List2B,white,woman,,,,null,,,,,,,,,
12655.3,,,survey-text,102,556072,0.0-13.0-3.12,93283,List2B,white,woman,,,,,"{""Q0"":""dave is being looked at by mike""}","<img src=""stim_listB/look6.gif""style=""height:400px;""></stim_listB>",is being looked at by,,,,,,
null,"<div style=""font-size:60px;"">+</div>",,html-keyboard-response,103,556575,0.0-13.0-0.13,93283,List2B,white,woman,,,,null,,,,,,,,,
null,"<img src=""stim_listB/touch4.gif""style=""height:400px;""></stim_listB>",,html-keyboard-response,104,558577,0.0-13.0-1.13,93283,List2B,white,woman,,,,null,,,,,,,,,
null,is being touched by,,html-keyboard-response,105,560580,0.0-13.0-2.13,93283,List2B,white,woman,,,,null,,,,,,,,,
12366,,,survey-text,106,572947,0.0-13.0-3.13,93283,List2B,white,woman,,,,,"{""Q0"":""beth is being touched by fred""}","<img src=""stim_listB/touch4.gif""style=""height:400px;""></stim_listB>",is being touched by,,,,,,
null,"<div style=""font-size:60px;"">+</div>",,html-keyboard-response,107,573448,0.0-13.0-0.14,93283,List2B,white,woman,,,,null,,,,,,,,,
null,"<img src=""stim_listB/copy5.gif""style=""height:400px;""></stim_listB>",,html-keyboard-response,108,575453,0.0-13.0-1.14,93283,List2B,white,woman,,,,null,,,,,,,,,
null,is copying,,html-keyboard-response,109,577455,0.0-13.0-2.14,93283,List2B,white,woman,,,,null,,,,,,,,,
4795.2,,,survey-text,110,582252,0.0-13.0-3.14,93283,List2B,white,woman,,,,,"{""Q0"":""fred is copying dave""}","<img src=""stim_listB/copy5.gif""style=""height:400px;""></stim_listB>",is copying,,,,,,
null,"<div style=""font-size:60px;"">+</div>",,html-keyboard-response,111,582755,0.0-13.0-0.15,93283,List2B,white,woman,,,,null,,,,,,,,,
null,"<img src=""stim_listB/greet3.gif""style=""height:400px;""></stim_listB>",,html-keyboard-response,112,584759,0.0-13.0-1.15,93283,List2B,white,woman,,,,null,,,,,,,,,
null,is greeting,,html-keyboard-response,113,586760,0.0-13.0-2.15,93283,List2B,white,woman,,,,null,,,,,,,,,
6965.2,,,survey-text,114,593727,0.0-13.0-3.15,93283,List2B,white,woman,,,,,"{""Q0"":""beth is greeting mike""}","<img src=""stim_listB/greet3.gif""style=""height:400px;""></stim_listB>",is greeting,,,,,,
null,"<div style=""font-size:60px;"">+</div>",,html-keyboard-response,115,594229,0.0-13.0-0.16,93283,List2B,white,woman,,,,null,,,,,,,,,
null,"<img src=""stim_listB/seduce7.gif""style=""height:400px;""></stim_listB>",,html-keyboard-response,116,596232,0.0-13.0-1.16,93283,List2B,white,woman,,,,null,,,,,,,,,
null,is seducing,,html-keyboard-response,117,598234,0.0-13.0-2.16,93283,List2B,white,woman,,,,null,,,,,,,,,
14200.8,,,survey-text,118,612437,0.0-13.0-3.16,93283,List2B,white,woman,,,,,"{""Q0"":""kate is seducing ruth""}","<img src=""stim_listB/seduce7.gif""style=""height:400px;""></stim_listB>",is seducing,,,,,,
null,"<div style=""font-size:60px;"">+</div>",,html-keyboard-response,119,612938,0.0-13.0-0.17,93283,List2B,white,woman,,,,null,,,,,,,,,
null,"<img src=""stim_listB/greet2.gif""style=""height:400px;""></stim_listB>",,html-keyboard-response,120,614943,0.0-13.0-1.17,93283,List2B,white,woman,,,,null,,,,,,,,,
null,is being greeted by,,html-keyboard-response,121,616944,0.0-13.0-2.17,93283,List2B,white,woman,,,,null,,,,,,,,,
10285.3,,,survey-text,122,627231,0.0-13.0-3.17,93283,List2B,white,woman,,,,,"{""Q0"":""jane is being greeted by luke""}","<img src=""stim_listB/greet2.gif""style=""height:400px;""></stim_listB>",is being greeted by,,,,,,
null,"<div style=""font-size:60px;"">+</div>",,html-keyboard-response,123,627733,0.0-13.0-0.18,93283,List2B,white,woman,,,,null,,,,,,,,,
null,"<img src=""stim_listB/oppose3.gif""style=""height:400px;""></stim_listB>",,html-keyboard-response,124,629735,0.0-13.0-1.18,93283,List2B,white,woman,,,,null,,,,,,,,,
null,is opposing,,html-keyboard-response,125,631739,0.0-13.0-2.18,93283,List2B,white,woman,,,,null,,,,,,,,,
10048.2,,,survey-text,126,641789,0.0-13.0-3.18,93283,List2B,white,woman,,,,,"{""Q0"":""mike is opposing kate""}","<img src=""stim_listB/oppose3.gif""style=""height:400px;""></stim_listB>",is opposing,,,,,,
null,"<div style=""font-size:60px;"">+</div>",,html-keyboard-response,127,642294,0.0-13.0-0.19,93283,List2B,white,woman,,,,null,,,,,,,,,
null,"<img src=""stim_listB/hug8.gif""style=""height:400px;""></stim_listB>",,html-keyboard-response,128,644295,0.0-13.0-1.19,93283,List2B,white,woman,,,,null,,,,,,,,,
null,is being hugged by,,html-keyboard-response,129,646298,0.0-13.0-2.19,93283,List2B,white,woman,,,,null,,,,,,,,,
6041.8,,,survey-text,130,652342,0.0-13.0-3.19,93283,List2B,white,woman,,,,,"{""Q0"":""kate is being hugged by jane""}","<img src=""stim_listB/hug8.gif""style=""height:400px;""></stim_listB>",is being hugged by,,,,,,
8852.6,"<img src='img/portrait_matrix_list2.jpg' style='width:900px;height:500px;''></img><p>If you have memorised all the portraits and names and are ready to start, press Continue.</p><p><strong>Please note: Your memory of these faces will be tested 4 times during this experiment.</strong></p>",0,html-button-response,131,661196,0.0-14.0-0.0,93283,List2B,white,woman,,,,,,,,,,,,,
2923.2,"<img src=""portrait/WM1.jpg""style=""height:400px;""></img>",6,html-button-response,132,665122,0.0-14.0-1.0,93283,List2B,white,woman,,TRUE,6,,,,,,,,,,
null,CORRECT,,html-keyboard-response,133,666631,0.0-14.0-2.0-0.0,93283,List2B,white,woman,,,,null,,,,,,,,,
11056.8,"<img src=""portrait/WW1.jpg""style=""height:400px;""></img>",1,html-button-response,134,677689,0.0-14.0-4.0,93283,List2B,white,woman,,TRUE,1,,,,,,,,,,
null,CORRECT,,html-keyboard-response,135,679195,0.0-14.0-5.0-0.0,93283,List2B,white,woman,,,,null,,,,,,,,,
1350.6,"<img src=""portrait/WM2.jpg""style=""height:400px;""></img>",7,html-button-response,136,680547,0.0-14.0-7.0,93283,List2B,white,woman,,TRUE,7,,,,,,,,,,
null,CORRECT,,html-keyboard-response,137,682055,0.0-14.0-8.0-0.0,93283,List2B,white,woman,,,,null,,,,,,,,,
1944.5,"<img src=""portrait/BW1.jpg""style=""height:400px;""></img>",0,html-button-response,138,684001,0.0-14.0-10.0,93283,List2B,white,woman,,TRUE,0,,,,,,,,,,
null,CORRECT,,html-keyboard-response,139,685504,0.0-14.0-11.0-0.0,93283,List2B,white,woman,,,,null,,,,,,,,,
3389.3,"<img src=""portrait/BM1.jpg""style=""height:400px;""></img>",4,html-button-response,140,688895,0.0-14.0-13.0,93283,List2B,white,woman,,TRUE,4,,,,,,,,,,
null,CORRECT,,html-keyboard-response,141,690398,0.0-14.0-14.0-0.0,93283,List2B,white,woman,,,,null,,,,,,,,,
5110.9,"<img src=""portrait/WW2.jpg""style=""height:400px;""></img>",3,html-button-response,142,695510,0.0-14.0-16.0,93283,List2B,white,woman,,TRUE,3,,,,,,,,,,
null,CORRECT,,html-keyboard-response,143,697020,0.0-14.0-17.0-0.0,93283,List2B,white,woman,,,,null,,,,,,,,,
2561.7,"<img src=""portrait/BM2.jpg""style=""height:400px;""></img>",5,html-button-response,144,699582,0.0-14.0-19.0,93283,List2B,white,woman,,TRUE,5,,,,,,,,,,
null,CORRECT,,html-keyboard-response,145,701085,0.0-14.0-20.0-0.0,93283,List2B,white,woman,,,,null,,,,,,,,,
3064.8,"<img src=""portrait/BW2.jpg""style=""height:400px;""></img>",2,html-button-response,146,704150,0.0-14.0-22.0,93283,List2B,white,woman,,TRUE,2,,,,,,,,,,
null,CORRECT,,html-keyboard-response,147,705660,0.0-14.0-23.0-0.0,93283,List2B,white,woman,,,,null,,,,,,,,,
1594.5,<p>You got 8 out of 8 right first time. Press Continue.</p>,0,html-button-response,148,707255,0.0-14.0-25.0,93283,List2B,white,woman,,,,,,,,,,,,,
null,"<div style=""font-size:60px;"">+</div>",,html-keyboard-response,149,708757,0.0-15.0-0.0,93283,List2B,white,woman,,,,null,,,,,,,,,
null,"<img src=""stim_listB/challenge5.gif""style=""height:400px;""></stim_listB>",,html-keyboard-response,150,710759,0.0-15.0-1.0,93283,List2B,white,woman,,,,null,,,,,,,,,
null,is challenging,,html-keyboard-response,151,712760,0.0-15.0-2.0,93283,List2B,white,woman,,,,null,,,,,,,,,
9456.8,,,survey-text,152,722218,0.0-15.0-3.0,93283,List2B,white,woman,,,,,"{""Q0"":""dave is challenging fred""}","<img src=""stim_listB/challenge5.gif""style=""height:400px;""></stim_listB>",is challenging,,,,,,
null,"<div style=""font-size:60px;"">+</div>",,html-keyboard-response,153,722721,0.0-15.0-0.1,93283,List2B,white,woman,,,,null,,,,,,,,,
null,"<img src=""stim_listB/kiss6.gif""style=""height:400px;""></stim_listB>",,html-keyboard-response,154,724726,0.0-15.0-1.1,93283,List2B,white,woman,,,,null,,,,,,,,,
null,is being kissed by,,html-keyboard-response,155,726731,0.0-15.0-2.1,93283,List2B,white,woman,,,,null,,,,,,,,,
5352.5,,,survey-text,156,732085,0.0-15.0-3.1,93283,List2B,white,woman,,,,,"{""Q0"":""mike is being kissed by dave""}","<img src=""stim_listB/kiss6.gif""style=""height:400px;""></stim_listB>",is being kissed by,,,,,,
null,"<div style=""font-size:60px;"">+</div>",,html-keyboard-response,157,732586,0.0-15.0-0.2,93283,List2B,white,woman,,,,null,,,,,,,,,
null,"<img src=""stim_listB/greet6.gif""style=""height:400px;""></stim_listB>",,html-keyboard-response,158,734590,0.0-15.0-1.2,93283,List2B,white,woman,,,,null,,,,,,,,,
null,is being greeted by,,html-keyboard-response,159,736591,0.0-15.0-2.2,93283,List2B,white,woman,,,,null,,,,,,,,,
13785.4,,,survey-text,160,750378,0.0-15.0-3.2,93283,List2B,white,woman,,,,,"{""Q0"":""luke is being greeted by mike""}","<img src=""stim_listB/greet6.gif""style=""height:400px;""></stim_listB>",is being greeted by,,,,,,
null,"<div style=""font-size:60px;"">+</div>",,html-keyboard-response,161,750881,0.0-15.0-0.3,93283,List2B,white,woman,,,,null,,,,,,,,,
null,"<img src=""stim_listB/challenge1.gif""style=""height:400px;""></stim_listB>",,html-keyboard-response,162,752884,0.0-15.0-1.3,93283,List2B,white,woman,,,,null,,,,,,,,,
null,is challenging,,html-keyboard-response,163,754886,0.0-15.0-2.3,93283,List2B,white,woman,,,,null,,,,,,,,,
5717,,,survey-text,164,760605,0.0-15.0-3.3,93283,List2B,white,woman,,,,,"{""Q0"":""dave is challenging ruth""}","<img src=""stim_listB/challenge1.gif""style=""height:400px;""></stim_listB>",is challenging,,,,,,
null,"<div style=""font-size:60px;"">+</div>",,html-keyboard-response,165,761106,0.0-15.0-0.4,93283,List2B,white,woman,,,,null,,,,,,,,,
null,"<img src=""stim_listB/look1.gif""style=""height:400px;""></stim_listB>",,html-keyboard-response,166,763108,0.0-15.0-1.4,93283,List2B,white,woman,,,,null,,,,,,,,,
null,is looking at,,html-keyboard-response,167,765110,0.0-15.0-2.4,93283,List2B,white,woman,,,,null,,,,,,,,,
15789.2,,,survey-text,168,780901,0.0-15.0-3.4,93283,List2B,white,woman,,,,,"{""Q0"":""luke is looking at ruth""}","<img src=""stim_listB/look1.gif""style=""height:400px;""></stim_listB>",is looking at,,,,,,
null,"<div style=""font-size:60px;"">+</div>",,html-keyboard-response,169,781403,0.0-15.0-0.5,93283,List2B,white,woman,,,,null,,,,,,,,,
null,"<img src=""stim_listB/hug5.gif""style=""height:400px;""></stim_listB>",,html-keyboard-response,170,783408,0.0-15.0-1.5,93283,List2B,white,woman,,,,null,,,,,,,,,
null,is hugging,,html-keyboard-response,171,785410,0.0-15.0-2.5,93283,List2B,white,woman,,,,null,,,,,,,,,
5176.1,,,survey-text,172,790588,0.0-15.0-3.5,93283,List2B,white,woman,,,,,"{""Q0"":""luke is hugging fred""}","<img src=""stim_listB/hug5.gif""style=""height:400px;""></stim_listB>",is hugging,,,,,,
null,"<div style=""font-size:60px;"">+</div>",,html-keyboard-response,173,791092,0.0-15.0-0.6,93283,List2B,white,woman,,,,null,,,,,,,,,
null,"<img src=""stim_listB/touch3.gif""style=""height:400px;""></stim_listB>",,html-keyboard-response,174,793095,0.0-15.0-1.6,93283,List2B,white,woman,,,,null,,,,,,,,,
null,is touching,,html-keyboard-response,175,795096,0.0-15.0-2.6,93283,List2B,white,woman,,,,null,,,,,,,,,
5244,,,survey-text,176,800342,0.0-15.0-3.6,93283,List2B,white,woman,,,,,"{""Q0"":""kate is touching mike""}","<img src=""stim_listB/touch3.gif""style=""height:400px;""></stim_listB>",is touching,,,,,,
null,"<div style=""font-size:60px;"">+</div>",,html-keyboard-response,177,800845,0.0-15.0-0.7,93283,List2B,white,woman,,,,null,,,,,,,,,
null,"<img src=""stim_listB/challenge6.gif""style=""height:400px;""></stim_listB>",,html-keyboard-response,178,802847,0.0-15.0-1.7,93283,List2B,white,woman,,,,null,,,,,,,,,
null,is being challenged by,,html-keyboard-response,179,804853,0.0-15.0-2.7,93283,List2B,white,woman,,,,null,,,,,,,,,
17053.9,,,survey-text,180,821909,0.0-15.0-3.7,93283,List2B,white,woman,,,,,"{""Q0"":""luke is being challenged by mike""}","<img src=""stim_listB/challenge6.gif""style=""height:400px;""></stim_listB>",is being challenged by,,,,,,
null,"<div style=""font-size:60px;"">+</div>",,html-keyboard-response,181,822410,0.0-15.0-0.8,93283,List2B,white,woman,,,,null,,,,,,,,,
null,"<img src=""stim_listB/shout2.gif""style=""height:400px;""></stim_listB>",,html-keyboard-response,182,824415,0.0-15.0-1.8,93283,List2B,white,woman,,,,null,,,,,,,,,
null,is being shouted at by,,html-keyboard-response,183,826419,0.0-15.0-2.8,93283,List2B,white,woman,,,,null,,,,,,,,,
11925.4,,,survey-text,184,838346,0.0-15.0-3.8,93283,List2B,white,woman,,,,,"{""Q0"":""dave is being shouted at by jane""}","<img src=""stim_listB/shout2.gif""style=""height:400px;""></stim_listB>",is being shouted at by,,,,,,
null,"<div style=""font-size:60px;"">+</div>",,html-keyboard-response,185,838848,0.0-15.0-0.9,93283,List2B,white,woman,,,,null,,,,,,,,,
null,"<img src=""stim_listB/seduce2.gif""style=""height:400px;""></stim_listB>",,html-keyboard-response,186,840851,0.0-15.0-1.9,93283,List2B,white,woman,,,,null,,,,,,,,,
null,is being seduced by,,html-keyboard-response,187,842852,0.0-15.0-2.9,93283,List2B,white,woman,,,,null,,,,,,,,,
11590.6,,,survey-text,188,854445,0.0-15.0-3.9,93283,List2B,white,woman,,,,,"{""Q0"":""dave is being seduced by ruth""}","<img src=""stim_listB/seduce2.gif""style=""height:400px;""></stim_listB>",is being seduced by,,,,,,
null,"<div style=""font-size:60px;"">+</div>",,html-keyboard-response,189,854950,0.0-15.0-0.10,93283,List2B,white,woman,,,,null,,,,,,,,,
null,"<img src=""stim_listB/shout5.gif""style=""height:400px;""></stim_listB>",,html-keyboard-response,190,856952,0.0-15.0-1.10,93283,List2B,white,woman,,,,null,,,,,,,,,
null,is shouting at,,html-keyboard-response,191,858957,0.0-15.0-2.10,93283,List2B,white,woman,,,,null,,,,,,,,,
8222,,,survey-text,192,867181,0.0-15.0-3.10,93283,List2B,white,woman,,,,,"{""Q0"":""fred is shouting at luke""}","<img src=""stim_listB/shout5.gif""style=""height:400px;""></stim_listB>",is shouting at,,,,,,
null,"<div style=""font-size:60px;"">+</div>",,html-keyboard-response,193,867685,0.0-15.0-0.11,93283,List2B,white,woman,,,,null,,,,,,,,,
null,"<img src=""stim_listB/shout4.gif""style=""height:400px;""></stim_listB>",,html-keyboard-response,194,869688,0.0-15.0-1.11,93283,List2B,white,woman,,,,null,,,,,,,,,
null,is being shouted at by,,html-keyboard-response,195,871689,0.0-15.0-2.11,93283,List2B,white,woman,,,,null,,,,,,,,,
8236.1,,,survey-text,196,879927,0.0-15.0-3.11,93283,List2B,white,woman,,,,,"{""Q0"":""mike is being shouted at by kate""}","<img src=""stim_listB/shout4.gif""style=""height:400px;""></stim_listB>",is being shouted at by,,,,,,
null,"<div style=""font-size:60px;"">+</div>",,html-keyboard-response,197,880429,0.0-15.0-0.12,93283,List2B,white,woman,,,,null,,,,,,,,,
null,"<img src=""stim_listB/oppose5.gif""style=""height:400px;""></stim_listB>",,html-keyboard-response,198,882431,0.0-15.0-1.12,93283,List2B,white,woman,,,,null,,,,,,,,,
null,is opposing,,html-keyboard-response,199,884433,0.0-15.0-2.12,93283,List2B,white,woman,,,,null,,,,,,,,,
4684.1,,,survey-text,200,889119,0.0-15.0-3.12,93283,List2B,white,woman,,,,,"{""Q0"":""dave is opposing mike""}","<img src=""stim_listB/oppose5.gif""style=""height:400px;""></stim_listB>",is opposing,,,,,,
null,"<div style=""font-size:60px;"">+</div>",,html-keyboard-response,201,889620,0.0-15.0-0.13,93283,List2B,white,woman,,,,null,,,,,,,,,
null,"<img src=""stim_listB/seduce4.gif""style=""height:400px;""></stim_listB>",,html-keyboard-response,202,891622,0.0-15.0-1.13,93283,List2B,white,woman,,,,null,,,,,,,,,
null,is being seduced by,,html-keyboard-response,203,893627,0.0-15.0-2.13,93283,List2B,white,woman,,,,null,,,,,,,,,
5244.7,,,survey-text,204,898873,0.0-15.0-3.13,93283,List2B,white,woman,,,,,"{""Q0"":""mike is being seduced by beth""}","<img src=""stim_listB/seduce4.gif""style=""height:400px;""></stim_listB>",is being seduced by,,,,,,
null,"<div style=""font-size:60px;"">+</div>",,html-keyboard-response,205,899377,0.0-15.0-0.14,93283,List2B,white,woman,,,,null,,,,,,,,,
null,"<img src=""stim_listB/greet8.gif""style=""height:400px;""></stim_listB>",,html-keyboard-response,206,901379,0.0-15.0-1.14,93283,List2B,white,woman,,,,null,,,,,,,,,
null,is being greeted by,,html-keyboard-response,207,903381,0.0-15.0-2.14,93283,List2B,white,woman,,,,null,,,,,,,,,
6876.1,,,survey-text,208,910258,0.0-15.0-3.14,93283,List2B,white,woman,,,,,"{""Q0"":""kate is being greeted by ruth""}","<img src=""stim_listB/greet8.gif""style=""height:400px;""></stim_listB>",is being greeted by,,,,,,
null,"<div style=""font-size:60px;"">+</div>",,html-keyboard-response,209,910759,0.0-15.0-0.15,93283,List2B,white,woman,,,,null,,,,,,,,,
null,"<img src=""stim_listB/look8.gif""style=""height:400px;""></stim_listB>",,html-keyboard-response,210,912764,0.0-15.0-1.15,93283,List2B,white,woman,,,,null,,,,,,,,,
null,is being looked at by,,html-keyboard-response,211,914766,0.0-15.0-2.15,93283,List2B,white,woman,,,,null,,,,,,,,,
4907.7,,,survey-text,212,919675,0.0-15.0-3.15,93283,List2B,white,woman,,,,,"{""Q0"":""jane is being looked at by kate""}","<img src=""stim_listB/look8.gif""style=""height:400px;""></stim_listB>",is being looked at by,,,,,,
null,"<div style=""font-size:60px;"">+</div>",,html-keyboard-response,213,920179,0.0-15.0-0.16,93283,List2B,white,woman,,,,null,,,,,,,,,
null,"<img src=""stim_listB/oppose1.gif""style=""height:400px;""></stim_listB>",,html-keyboard-response,214,922180,0.0-15.0-1.16,93283,List2B,white,woman,,,,null,,,,,,,,,
null,is opposing,,html-keyboard-response,215,924183,0.0-15.0-2.16,93283,List2B,white,woman,,,,null,,,,,,,,,
6493.9,,,survey-text,216,930678,0.0-15.0-3.16,93283,List2B,white,woman,,,,,"{""Q0"":""jane is opposing dave""}","<img src=""stim_listB/oppose1.gif""style=""height:400px;""></stim_listB>",is opposing,,,,,,
null,"<div style=""font-size:60px;"">+</div>",,html-keyboard-response,217,931179,0.0-15.0-0.17,93283,List2B,white,woman,,,,null,,,,,,,,,
null,"<img src=""stim_listB/kiss5.gif""style=""height:400px;""></stim_listB>",,html-keyboard-response,218,933181,0.0-15.0-1.17,93283,List2B,white,woman,,,,null,,,,,,,,,
null,is kissing,,html-keyboard-response,219,935182,0.0-15.0-2.17,93283,List2B,white,woman,,,,null,,,,,,,,,
5203.6,,,survey-text,220,940387,0.0-15.0-3.17,93283,List2B,white,woman,,,,,"{""Q0"":""luke is kissing fred""}","<img src=""stim_listB/kiss5.gif""style=""height:400px;""></stim_listB>",is kissing,,,,,,
null,"<div style=""font-size:60px;"">+</div>",,html-keyboard-response,221,940892,0.0-15.0-0.18,93283,List2B,white,woman,,,,null,,,,,,,,,
null,"<img src=""stim_listB/oppose7.gif""style=""height:400px;""></stim_listB>",,html-keyboard-response,222,942897,0.0-15.0-1.18,93283,List2B,white,woman,,,,null,,,,,,,,,
null,is opposing,,html-keyboard-response,223,944901,0.0-15.0-2.18,93283,List2B,white,woman,,,,null,,,,,,,,,
6004.7,,,survey-text,224,950907,0.0-15.0-3.18,93283,List2B,white,woman,,,,,"{""Q0"":""jane is opposing kate""}","<img src=""stim_listB/oppose7.gif""style=""height:400px;""></stim_listB>",is opposing,,,,,,
null,"<div style=""font-size:60px;"">+</div>",,html-keyboard-response,225,951408,0.0-15.0-0.19,93283,List2B,white,woman,,,,null,,,,,,,,,
null,"<img src=""stim_listB/copy7.gif""style=""height:400px;""></stim_listB>",,html-keyboard-response,226,953413,0.0-15.0-1.19,93283,List2B,white,woman,,,,null,,,,,,,,,
null,is copying,,html-keyboard-response,227,955418,0.0-15.0-2.19,93283,List2B,white,woman,,,,null,,,,,,,,,
3700,,,survey-text,228,959119,0.0-15.0-3.19,93283,List2B,white,woman,,,,,"{""Q0"":""beth is copying jane""}","<img src=""stim_listB/copy7.gif""style=""height:400px;""></stim_listB>",is copying,,,,,,
51209.9,"<img src='img/portrait_matrix_list2.jpg' style='width:900px;height:500px;''></img><p>If you have memorised all the portraits and names and are ready to start, press Continue.</p><p><strong>Please note: Your memory of these faces will be tested 4 times during this experiment.</strong></p>",0,html-button-response,229,1010331,0.0-16.0-0.0,93283,List2B,white,woman,,,,,,,,,,,,,
3394.5,"<img src=""portrait/BW2.jpg""style=""height:400px;""></img>",2,html-button-response,230,1014730,0.0-16.0-1.0,93283,List2B,white,woman,,TRUE,2,,,,,,,,,,
null,CORRECT,,html-keyboard-response,231,1016237,0.0-16.0-2.0-0.0,93283,List2B,white,woman,,,,null,,,,,,,,,
1450.3,"<img src=""portrait/WM2.jpg""style=""height:400px;""></img>",7,html-button-response,232,1017689,0.0-16.0-4.0,93283,List2B,white,woman,,TRUE,7,,,,,,,,,,
null,CORRECT,,html-keyboard-response,233,1019196,0.0-16.0-5.0-0.0,93283,List2B,white,woman,,,,null,,,,,,,,,
1540.4,"<img src=""portrait/BW1.jpg""style=""height:400px;""></img>",0,html-button-response,234,1020738,0.0-16.0-7.0,93283,List2B,white,woman,,TRUE,0,,,,,,,,,,
null,CORRECT,,html-keyboard-response,235,1022247,0.0-16.0-8.0-0.0,93283,List2B,white,woman,,,,null,,,,,,,,,
2258.4,"<img src=""portrait/WW1.jpg""style=""height:400px;""></img>",1,html-button-response,236,1024507,0.0-16.0-10.0,93283,List2B,white,woman,,TRUE,1,,,,,,,,,,
null,CORRECT,,html-keyboard-response,237,1026011,0.0-16.0-11.0-0.0,93283,List2B,white,woman,,,,null,,,,,,,,,
1801.6,"<img src=""portrait/BM2.jpg""style=""height:400px;""></img>",5,html-button-response,238,1027814,0.0-16.0-13.0,93283,List2B,white,woman,,TRUE,5,,,,,,,,,,
null,CORRECT,,html-keyboard-response,239,1029318,0.0-16.0-14.0-0.0,93283,List2B,white,woman,,,,null,,,,,,,,,
1644.8,"<img src=""portrait/BM1.jpg""style=""height:400px;""></img>",4,html-button-response,240,1030964,0.0-16.0-16.0,93283,List2B,white,woman,,TRUE,4,,,,,,,,,,
null,CORRECT,,html-keyboard-response,241,1032472,0.0-16.0-17.0-0.0,93283,List2B,white,woman,,,,null,,,,,,,,,
2473.7,"<img src=""portrait/WW2.jpg""style=""height:400px;""></img>",3,html-button-response,242,1034947,0.0-16.0-19.0,93283,List2B,white,woman,,TRUE,3,,,,,,,,,,
null,CORRECT,,html-keyboard-response,243,1036455,0.0-16.0-20.0-0.0,93283,List2B,white,woman,,,,null,,,,,,,,,
3587.9,"<img src=""portrait/WM1.jpg""style=""height:400px;""></img>",6,html-button-response,244,1040044,0.0-16.0-22.0,93283,List2B,white,woman,,TRUE,6,,,,,,,,,,
null,CORRECT,,html-keyboard-response,245,1041551,0.0-16.0-23.0-0.0,93283,List2B,white,woman,,,,null,,,,,,,,,
1112.6,<p>You got 8 out of 8 right first time. Press Continue.</p>,0,html-button-response,246,1042665,0.0-16.0-25.0,93283,List2B,white,woman,,,,,,,,,,,,,
null,"<div style=""font-size:60px;"">+</div>",,html-keyboard-response,247,1044171,0.0-17.0-0.0,93283,List2B,white,woman,,,,null,,,,,,,,,
null,"<img src=""stim_listB/touch5.gif""style=""height:400px;""></stim_listB>",,html-keyboard-response,248,1046174,0.0-17.0-1.0,93283,List2B,white,woman,,,,null,,,,,,,,,
null,is touching,,html-keyboard-response,249,1048178,0.0-17.0-2.0,93283,List2B,white,woman,,,,null,,,,,,,,,
2574.3,,,survey-text,250,1050754,0.0-17.0-3.0,93283,List2B,white,woman,,,,,"{""Q0"":""mike is touching dave""}","<img src=""stim_listB/touch5.gif""style=""height:400px;""></stim_listB>",is touching,,,,,,
null,"<div style=""font-size:60px;"">+</div>",,html-keyboard-response,251,1051258,0.0-17.0-0.1,93283,List2B,white,woman,,,,null,,,,,,,,,
null,"<img src=""stim_listB/look4.gif""style=""height:400px;""></stim_listB>",,html-keyboard-response,252,1053262,0.0-17.0-1.1,93283,List2B,white,woman,,,,null,,,,,,,,,
null,is being looked at by,,html-keyboard-response,253,1055265,0.0-17.0-2.1,93283,List2B,white,woman,,,,null,,,,,,,,,
7862.8,,,survey-text,254,1063130,0.0-17.0-3.1,93283,List2B,white,woman,,,,,"{""Q0"":""mike is being looked at by kate""}","<img src=""stim_listB/look4.gif""style=""height:400px;""></stim_listB>",is being looked at by,,,,,,
null,"<div style=""font-size:60px;"">+</div>",,html-keyboard-response,255,1063631,0.0-17.0-0.2,93283,List2B,white,woman,,,,null,,,,,,,,,
null,"<img src=""stim_listB/copy1.gif""style=""height:400px;""></stim_listB>",,html-keyboard-response,256,1065633,0.0-17.0-1.2,93283,List2B,white,woman,,,,null,,,,,,,,,
null,is copying,,html-keyboard-response,257,1067634,0.0-17.0-2.2,93283,List2B,white,woman,,,,null,,,,,,,,,
4820.2,,,survey-text,258,1072456,0.0-17.0-3.2,93283,List2B,white,woman,,,,,"{""Q0"":""dave is copying ruth""}","<img src=""stim_listB/copy1.gif""style=""height:400px;""></stim_listB>",is copying,,,,,,
null,"<div style=""font-size:60px;"">+</div>",,html-keyboard-response,259,1072958,0.0-17.0-0.3,93283,List2B,white,woman,,,,null,,,,,,,,,
null,"<img src=""stim_listB/kiss4.gif""style=""height:400px;""></stim_listB>",,html-keyboard-response,260,1074961,0.0-17.0-1.3,93283,List2B,white,woman,,,,null,,,,,,,,,
null,is being kissed by,,html-keyboard-response,261,1076962,0.0-17.0-2.3,93283,List2B,white,woman,,,,null,,,,,,,,,
5358.9,,,survey-text,262,1082323,0.0-17.0-3.3,93283,List2B,white,woman,,,,,"{""Q0"":""mike is being kissed by kate""}","<img src=""stim_listB/kiss4.gif""style=""height:400px;""></stim_listB>",is being kissed by,,,,,,
null,"<div style=""font-size:60px;"">+</div>",,html-keyboard-response,263,1082824,0.0-17.0-0.4,93283,List2B,white,woman,,,,null,,,,,,,,,
null,"<img src=""stim_listB/challenge4.gif""style=""height:400px;""></stim_listB>",,html-keyboard-response,264,1084828,0.0-17.0-1.4,93283,List2B,white,woman,,,,null,,,,,,,,,
null,is being challenged by,,html-keyboard-response,265,1086829,0.0-17.0-2.4,93283,List2B,white,woman,,,,null,,,,,,,,,
11659.4,,,survey-text,266,1098490,0.0-17.0-3.4,93283,List2B,white,woman,,,,,"{""Q0"":""fred is being challenged by kate""}","<img src=""stim_listB/challenge4.gif""style=""height:400px;""></stim_listB>",is being challenged by,,,,,,
null,"<div style=""font-size:60px;"">+</div>",,html-keyboard-response,267,1098992,0.0-17.0-0.5,93283,List2B,white,woman,,,,null,,,,,,,,,
null,"<img src=""stim_listB/kiss3.gif""style=""height:400px;""></stim_listB>",,html-keyboard-response,268,1100997,0.0-17.0-1.5,93283,List2B,white,woman,,,,null,,,,,,,,,
null,is kissing,,html-keyboard-response,269,1103000,0.0-17.0-2.5,93283,List2B,white,woman,,,,null,,,,,,,,,
3250.8,,,survey-text,270,1106253,0.0-17.0-3.5,93283,List2B,white,woman,,,,,"{""Q0"":""beth is kissing fred""}","<img src=""stim_listB/kiss3.gif""style=""height:400px;""></stim_listB>",is kissing,,,,,,
null,"<div style=""font-size:60px;"">+</div>",,html-keyboard-response,271,1106757,0.0-17.0-0.6,93283,List2B,white,woman,,,,null,,,,,,,,,
null,"<img src=""stim_listB/seduce8.gif""style=""height:400px;""></stim_listB>",,html-keyboard-response,272,1108759,0.0-17.0-1.6,93283,List2B,white,woman,,,,null,,,,,,,,,
null,is being seduced by,,html-keyboard-response,273,1110765,0.0-17.0-2.6,93283,List2B,white,woman,,,,null,,,,,,,,,
11641.6,,,survey-text,274,1122409,0.0-17.0-3.6,93283,List2B,white,woman,,,,,"{""Q0"":""jane is being seduced by ruth""}","<img src=""stim_listB/seduce8.gif""style=""height:400px;""></stim_listB>",is being seduced by,,,,,,
null,"<div style=""font-size:60px;"">+</div>",,html-keyboard-response,275,1122910,0.0-17.0-0.7,93283,List2B,white,woman,,,,null,,,,,,,,,
null,"<img src=""stim_listB/look7.gif""style=""height:400px;""></stim_listB>",,html-keyboard-response,276,1124912,0.0-17.0-1.7,93283,List2B,white,woman,,,,null,,,,,,,,,
null,is looking at,,html-keyboard-response,277,1126914,0.0-17.0-2.7,93283,List2B,white,woman,,,,null,,,,,,,,,
12391.3,,,survey-text,278,1139307,0.0-17.0-3.7,93283,List2B,white,woman,,,,,"{""Q0"":""beth is looking at ruth""}","<img src=""stim_listB/look7.gif""style=""height:400px;""></stim_listB>",is looking at,,,,,,
null,"<div style=""font-size:60px;"">+</div>",,html-keyboard-response,279,1139811,0.0-17.0-0.8,93283,List2B,white,woman,,,,null,,,,,,,,,
null,"<img src=""stim_listB/kiss7.gif""style=""height:400px;""></stim_listB>",,html-keyboard-response,280,1141814,0.0-17.0-1.8,93283,List2B,white,woman,,,,null,,,,,,,,,
null,is kissing,,html-keyboard-response,281,1143817,0.0-17.0-2.8,93283,List2B,white,woman,,,,null,,,,,,,,,
6007,,,survey-text,282,1149826,0.0-17.0-3.8,93283,List2B,white,woman,,,,,"{""Q0"":""beth is kissing ruth""}","<img src=""stim_listB/kiss7.gif""style=""height:400px;""></stim_listB>",is kissing,,,,,,
null,"<div style=""font-size:60px;"">+</div>",,html-keyboard-response,283,1150328,0.0-17.0-0.9,93283,List2B,white,woman,,,,null,,,,,,,,,
null,"<img src=""stim_listB/copy2.gif""style=""height:400px;""></stim_listB>",,html-keyboard-response,284,1152334,0.0-17.0-1.9,93283,List2B,white,woman,,,,null,,,,,,,,,
null,is being copied by,,html-keyboard-response,285,1154337,0.0-17.0-2.9,93283,List2B,white,woman,,,,null,,,,,,,,,
16053.2,,,survey-text,286,1170392,0.0-17.0-3.9,93283,List2B,white,woman,,,,,"{""Q0"":""luke is being copied by jane""}","<img src=""stim_listB/copy2.gif""style=""height:400px;""></stim_listB>",is being copied by,,,,,,
null,"<div style=""font-size:60px;"">+</div>",,html-keyboard-response,287,1170892,0.0-17.0-0.10,93283,List2B,white,woman,,,,null,,,,,,,,,
null,"<img src=""stim_listB/challenge8.gif""style=""height:400px;""></stim_listB>",,html-keyboard-response,288,1172895,0.0-17.0-1.10,93283,List2B,white,woman,,,,null,,,,,,,,,
null,is being challenged by,,html-keyboard-response,289,1174899,0.0-17.0-2.10,93283,List2B,white,woman,,,,null,,,,,,,,,
6696.3,,,survey-text,290,1181597,0.0-17.0-3.10,93283,List2B,white,woman,,,,,"{""Q0"":""kate is being challenged by ruth""}","<img src=""stim_listB/challenge8.gif""style=""height:400px;""></stim_listB>",is being challenged by,,,,,,
null,"<div style=""font-size:60px;"">+</div>",,html-keyboard-response,291,1182101,0.0-17.0-0.11,93283,List2B,white,woman,,,,null,,,,,,,,,
null,"<img src=""stim_listB/seduce6.gif""style=""height:400px;""></stim_listB>",,html-keyboard-response,292,1184103,0.0-17.0-1.11,93283,List2B,white,woman,,,,null,,,,,,,,,
null,is being seduced by,,html-keyboard-response,293,1186105,0.0-17.0-2.11,93283,List2B,white,woman,,,,null,,,,,,,,,
9316.9,,,survey-text,294,1195424,0.0-17.0-3.11,93283,List2B,white,woman,,,,,"{""Q0"":""dave is being seduced by fred""}","<img src=""stim_listB/seduce6.gif""style=""height:400px;""></stim_listB>",is being seduced by,,,,,,
null,"<div style=""font-size:60px;"">+</div>",,html-keyboard-response,295,1195925,0.0-17.0-0.12,93283,List2B,white,woman,,,,null,,,,,,,,,
null,"<img src=""stim_listB/copy4.gif""style=""height:400px;""></stim_listB>",,html-keyboard-response,296,1197931,0.0-17.0-1.12,93283,List2B,white,woman,,,,null,,,,,,,,,
null,is being copied by,,html-keyboard-response,297,1199932,0.0-17.0-2.12,93283,List2B,white,woman,,,,null,,,,,,,,,
7404.2,,,survey-text,298,1207338,0.0-17.0-3.12,93283,List2B,white,woman,,,,,"{""Q0"":""fred is being copied by kate""}","<img src=""stim_listB/copy4.gif""style=""height:400px;""></stim_listB>",is being copied by,,,,,,
null,"<div style=""font-size:60px;"">+</div>",,html-keyboard-response,299,1207841,0.0-17.0-0.13,93283,List2B,white,woman,,,,null,,,,,,,,,
null,"<img src=""stim_listB/seduce3.gif""style=""height:400px;""></stim_listB>",,html-keyboard-response,300,1209844,0.0-17.0-1.13,93283,List2B,white,woman,,,,null,,,,,,,,,
null,is seducing,,html-keyboard-response,301,1211848,0.0-17.0-2.13,93283,List2B,white,woman,,,,null,,,,,,,,,
6063.5,,,survey-text,302,1217913,0.0-17.0-3.13,93283,List2B,white,woman,,,,,"{""Q0"":""kate is seducing fred""}","<img src=""stim_listB/seduce3.gif""style=""height:400px;""></stim_listB>",is seducing,,,,,,
null,"<div style=""font-size:60px;"">+</div>",,html-keyboard-response,303,1218415,0.0-17.0-0.14,93283,List2B,white,woman,,,,null,,,,,,,,,
null,"<img src=""stim_listB/greet5.gif""style=""height:400px;""></stim_listB>",,html-keyboard-response,304,1220420,0.0-17.0-1.14,93283,List2B,white,woman,,,,null,,,,,,,,,
null,is greeting,,html-keyboard-response,305,1222422,0.0-17.0-2.14,93283,List2B,white,woman,,,,null,,,,,,,,,
5323,,,survey-text,306,1227746,0.0-17.0-3.14,93283,List2B,white,woman,,,,,"{""Q0"":""fred is greeting dave""}","<img src=""stim_listB/greet5.gif""style=""height:400px;""></stim_listB>",is greeting,,,,,,
null,"<div style=""font-size:60px;"">+</div>",,html-keyboard-response,307,1228250,0.0-17.0-0.15,93283,List2B,white,woman,,,,null,,,,,,,,,
null,"<img src=""stim_listB/kiss8.gif""style=""height:400px;""></stim_listB>",,html-keyboard-response,308,1230254,0.0-17.0-1.15,93283,List2B,white,woman,,,,null,,,,,,,,,
null,is being kissed by,,html-keyboard-response,309,1232255,0.0-17.0-2.15,93283,List2B,white,woman,,,,null,,,,,,,,,
6762.1,,,survey-text,310,1239019,0.0-17.0-3.15,93283,List2B,white,woman,,,,,"{""Q0"":""kate is being kissed by jane""}","<img src=""stim_listB/kiss8.gif""style=""height:400px;""></stim_listB>",is being kissed by,,,,,,
null,"<div style=""font-size:60px;"">+</div>",,html-keyboard-response,311,1239522,0.0-17.0-0.16,93283,List2B,white,woman,,,,null,,,,,,,,,
null,"<img src=""stim_listB/seduce1.gif""style=""height:400px;""></stim_listB>",,html-keyboard-response,312,1241524,0.0-17.0-1.16,93283,List2B,white,woman,,,,null,,,,,,,,,
null,is seducing,,html-keyboard-response,313,1243526,0.0-17.0-2.16,93283,List2B,white,woman,,,,null,,,,,,,,,
10319.8,,,survey-text,314,1253847,0.0-17.0-3.16,93283,List2B,white,woman,,,,,"{""Q0"":""luke is seducing jane""}","<img src=""stim_listB/seduce1.gif""style=""height:400px;""></stim_listB>",is seducing,,,,,,
null,"<div style=""font-size:60px;"">+</div>",,html-keyboard-response,315,1254350,0.0-17.0-0.17,93283,List2B,white,woman,,,,null,,,,,,,,,
null,"<img src=""stim_listB/touch6.gif""style=""height:400px;""></stim_listB>",,html-keyboard-response,316,1256352,0.0-17.0-1.17,93283,List2B,white,woman,,,,null,,,,,,,,,
null,is being touched by,,html-keyboard-response,317,1258354,0.0-17.0-2.17,93283,List2B,white,woman,,,,null,,,,,,,,,
6359.2,,,survey-text,318,1264715,0.0-17.0-3.17,93283,List2B,white,woman,,,,,"{""Q0"":""luke is being touched by fred""}","<img src=""stim_listB/touch6.gif""style=""height:400px;""></stim_listB>",is being touched by,,,,,,
null,"<div style=""font-size:60px;"">+</div>",,html-keyboard-response,319,1265218,0.0-17.0-0.18,93283,List2B,white,woman,,,,null,,,,,,,,,
null,"<img src=""stim_listB/oppose4.gif""style=""height:400px;""></stim_listB>",,html-keyboard-response,320,1267220,0.0-17.0-1.18,93283,List2B,white,woman,,,,null,,,,,,,,,
null,is being opposed by,,html-keyboard-response,321,1269221,0.0-17.0-2.18,93283,List2B,white,woman,,,,null,,,,,,,,,
7777.6,,,survey-text,322,1277001,0.0-17.0-3.18,93283,List2B,white,woman,,,,,"{""Q0"":""beth is being opposed by fred""}","<img src=""stim_listB/oppose4.gif""style=""height:400px;""></stim_listB>",is being opposed by,,,,,,
null,"<div style=""font-size:60px;"">+</div>",,html-keyboard-response,323,1277502,0.0-17.0-0.19,93283,List2B,white,woman,,,,null,,,,,,,,,
null,"<img src=""stim_listB/seduce5.gif""style=""height:400px;""></stim_listB>",,html-keyboard-response,324,1279506,0.0-17.0-1.19,93283,List2B,white,woman,,,,null,,,,,,,,,
null,is seducing,,html-keyboard-response,325,1281511,0.0-17.0-2.19,93283,List2B,white,woman,,,,null,,,,,,,,,
8887.3,,,survey-text,326,1290400,0.0-17.0-3.19,93283,List2B,white,woman,,,,,"{""Q0"":""mike is seducing luke""}","<img src=""stim_listB/seduce5.gif""style=""height:400px;""></stim_listB>",is seducing,,,,,,
2338.4,"<img src='img/portrait_matrix_list2.jpg' style='width:900px;height:500px;''></img><p>If you have memorised all the portraits and names and are ready to start, press Continue.</p><p><strong>Please note: Your memory of these faces will be tested 4 times during this experiment.</strong></p>",0,html-button-response,327,1292740,0.0-18.0-0.0,93283,List2B,white,woman,,,,,,,,,,,,,
2710.1,"<img src=""portrait/BM1.jpg""style=""height:400px;""></img>",4,html-button-response,328,1296452,0.0-18.0-1.0,93283,List2B,white,woman,,TRUE,4,,,,,,,,,,
null,CORRECT,,html-keyboard-response,329,1297955,0.0-18.0-2.0-0.0,93283,List2B,white,woman,,,,null,,,,,,,,,
3401.7,"<img src=""portrait/WW1.jpg""style=""height:400px;""></img>",1,html-button-response,330,1301358,0.0-18.0-4.0,93283,List2B,white,woman,,TRUE,1,,,,,,,,,,
null,CORRECT,,html-keyboard-response,331,1302866,0.0-18.0-5.0-0.0,93283,List2B,white,woman,,,,null,,,,,,,,,
3272,"<img src=""portrait/BW2.jpg""style=""height:400px;""></img>",2,html-button-response,332,1306139,0.0-18.0-7.0,93283,List2B,white,woman,,TRUE,2,,,,,,,,,,
null,CORRECT,,html-keyboard-response,333,1307646,0.0-18.0-8.0-0.0,93283,List2B,white,woman,,,,null,,,,,,,,,
2136.8,"<img src=""portrait/WW2.jpg""style=""height:400px;""></img>",3,html-button-response,334,1309784,0.0-18.0-10.0,93283,List2B,white,woman,,TRUE,3,,,,,,,,,,
null,CORRECT,,html-keyboard-response,335,1311289,0.0-18.0-11.0-0.0,93283,List2B,white,woman,,,,null,,,,,,,,,
1734,"<img src=""portrait/BM2.jpg""style=""height:400px;""></img>",5,html-button-response,336,1313024,0.0-18.0-13.0,93283,List2B,white,woman,,TRUE,5,,,,,,,,,,
null,CORRECT,,html-keyboard-response,337,1314529,0.0-18.0-14.0-0.0,93283,List2B,white,woman,,,,null,,,,,,,,,
1284.1,"<img src=""portrait/WM2.jpg""style=""height:400px;""></img>",7,html-button-response,338,1315815,0.0-18.0-16.0,93283,List2B,white,woman,,TRUE,7,,,,,,,,,,
null,CORRECT,,html-keyboard-response,339,1317321,0.0-18.0-17.0-0.0,93283,List2B,white,woman,,,,null,,,,,,,,,
1935,"<img src=""portrait/BW1.jpg""style=""height:400px;""></img>",0,html-button-response,340,1319257,0.0-18.0-19.0,93283,List2B,white,woman,,TRUE,0,,,,,,,,,,
null,CORRECT,,html-keyboard-response,341,1320762,0.0-18.0-20.0-0.0,93283,List2B,white,woman,,,,null,,,,,,,,,
2431.4,"<img src=""portrait/WM1.jpg""style=""height:400px;""></img>",6,html-button-response,342,1323195,0.0-18.0-22.0,93283,List2B,white,woman,,TRUE,6,,,,,,,,,,
null,CORRECT,,html-keyboard-response,343,1324701,0.0-18.0-23.0-0.0,93283,List2B,white,woman,,,,null,,,,,,,,,
1091.3,<p>You got 8 out of 8 right first time. Press Continue.</p>,0,html-button-response,344,1325793,0.0-18.0-25.0,93283,List2B,white,woman,,,,,,,,,,,,,
null,"<div style=""font-size:60px;"">+</div>",,html-keyboard-response,345,1327298,0.0-19.0-0.0,93283,List2B,white,woman,,,,null,,,,,,,,,
null,"<img src=""stim_listB/copy3.gif""style=""height:400px;""></stim_listB>",,html-keyboard-response,346,1329301,0.0-19.0-1.0,93283,List2B,white,woman,,,,null,,,,,,,,,
null,is copying,,html-keyboard-response,347,1331303,0.0-19.0-2.0,93283,List2B,white,woman,,,,null,,,,,,,,,
8585.6,,,survey-text,348,1339891,0.0-19.0-3.0,93283,List2B,white,woman,,,,,"{""Q0"":""beth is copying mike""}","<img src=""stim_listB/copy3.gif""style=""height:400px;""></stim_listB>",is copying,,,,,,
null,"<div style=""font-size:60px;"">+</div>",,html-keyboard-response,349,1340392,0.0-19.0-0.1,93283,List2B,white,woman,,,,null,,,,,,,,,
null,"<img src=""stim_listB/oppose6.gif""style=""height:400px;""></stim_listB>",,html-keyboard-response,350,1342395,0.0-19.0-1.1,93283,List2B,white,woman,,,,null,,,,,,,,,
null,is being opposed by,,html-keyboard-response,351,1344397,0.0-19.0-2.1,93283,List2B,white,woman,,,,null,,,,,,,,,
7001.3,,,survey-text,352,1351400,0.0-19.0-3.1,93283,List2B,white,woman,,,,,"{""Q0"":""luke is being opposed by fred""}","<img src=""stim_listB/oppose6.gif""style=""height:400px;""></stim_listB>",is being opposed by,,,,,,
null,"<div style=""font-size:60px;"">+</div>",,html-keyboard-response,353,1351901,0.0-19.0-0.2,93283,List2B,white,woman,,,,null,,,,,,,,,
null,"<img src=""stim_listB/greet1.gif""style=""height:400px;""></stim_listB>",,html-keyboard-response,354,1353906,0.0-19.0-1.2,93283,List2B,white,woman,,,,null,,,,,,,,,
null,is greeting,,html-keyboard-response,355,1355909,0.0-19.0-2.2,93283,List2B,white,woman,,,,null,,,,,,,,,
3567.4,,,survey-text,356,1359478,0.0-19.0-3.2,93283,List2B,white,woman,,,,,"{""Q0"":""dave is greeting ruth""}","<img src=""stim_listB/greet1.gif""style=""height:400px;""></stim_listB>",is greeting,,,,,,
null,"<div style=""font-size:60px;"">+</div>",,html-keyboard-response,357,1359979,0.0-19.0-0.3,93283,List2B,white,woman,,,,null,,,,,,,,,
null,"<img src=""stim_listB/shout8.gif""style=""height:400px;""></stim_listB>",,html-keyboard-response,358,1361981,0.0-19.0-1.3,93283,List2B,white,woman,,,,null,,,,,,,,,
null,is being shouted at by,,html-keyboard-response,359,1363985,0.0-19.0-2.3,93283,List2B,white,woman,,,,null,,,,,,,,,
5852.2,,,survey-text,360,1369839,0.0-19.0-3.3,93283,List2B,white,woman,,,,,"{""Q0"":""kate is being shouted at by jane""}","<img src=""stim_listB/shout8.gif""style=""height:400px;""></stim_listB>",is being shouted at by,,,,,,
null,"<div style=""font-size:60px;"">+</div>",,html-keyboard-response,361,1370343,0.0-19.0-0.4,93283,List2B,white,woman,,,,null,,,,,,,,,
null,"<img src=""stim_listB/look2.gif""style=""height:400px;""></stim_listB>",,html-keyboard-response,362,1372348,0.0-19.0-1.4,93283,List2B,white,woman,,,,null,,,,,,,,,
null,is being looked at by,,html-keyboard-response,363,1374350,0.0-19.0-2.4,93283,List2B,white,woman,,,,null,,,,,,,,,
5804.6,,,survey-text,364,1380156,0.0-19.0-3.4,93283,List2B,white,woman,,,,,"{""Q0"":""dave is being looked at by jane""}","<img src=""stim_listB/look2.gif""style=""height:400px;""></stim_listB>",is being looked at by,,,,,,
null,"<div style=""font-size:60px;"">+</div>",,html-keyboard-response,365,1380659,0.0-19.0-0.5,93283,List2B,white,woman,,,,null,,,,,,,,,
null,"<img src=""stim_listB/greet4.gif""style=""height:400px;""></stim_listB>",,html-keyboard-response,366,1382660,0.0-19.0-1.5,93283,List2B,white,woman,,,,null,,,,,,,,,
null,is being greeted by,,html-keyboard-response,367,1384661,0.0-19.0-2.5,93283,List2B,white,woman,,,,null,,,,,,,,,
8453.4,,,survey-text,368,1393116,0.0-19.0-3.5,93283,List2B,white,woman,,,,,"{""Q0"":""fred is being greeted by kate""}","<img src=""stim_listB/greet4.gif""style=""height:400px;""></stim_listB>",is being greeted by,,,,,,
null,"<div style=""font-size:60px;"">+</div>",,html-keyboard-response,369,1393617,0.0-19.0-0.6,93283,List2B,white,woman,,,,null,,,,,,,,,
null,"<img src=""stim_listB/copy8.gif""style=""height:400px;""></stim_listB>",,html-keyboard-response,370,1395619,0.0-19.0-1.6,93283,List2B,white,woman,,,,null,,,,,,,,,
null,is being copied by,,html-keyboard-response,371,1397624,0.0-19.0-2.6,93283,List2B,white,woman,,,,null,,,,,,,,,
7078.8,,,survey-text,372,1404704,0.0-19.0-3.6,93283,List2B,white,woman,,,,,"{""Q0"":""kate is being copied by ruth""}","<img src=""stim_listB/copy8.gif""style=""height:400px;""></stim_listB>",is being copied by,,,,,,
null,"<div style=""font-size:60px;"">+</div>",,html-keyboard-response,373,1405208,0.0-19.0-0.7,93283,List2B,white,woman,,,,null,,,,,,,,,
null,"<img src=""stim_listB/shout3.gif""style=""height:400px;""></stim_listB>",,html-keyboard-response,374,1407209,0.0-19.0-1.7,93283,List2B,white,woman,,,,null,,,,,,,,,
null,is shouting at,,html-keyboard-response,375,1409138,0.0-19.0-2.7,93283,List2B,white,woman,,,,null,,,,,,,,,
4702.7,,,survey-text,376,1413841,0.0-19.0-3.7,93283,List2B,white,woman,,,,,"{""Q0"":""beth is shouting at fred""}","<img src=""stim_listB/shout3.gif""style=""height:400px;""></stim_listB>",is shouting at,,,,,,
null,"<div style=""font-size:60px;"">+</div>",,html-keyboard-response,377,1414343,0.0-19.0-0.8,93283,List2B,white,woman,,,,null,,,,,,,,,
null,"<img src=""stim_listB/challenge3.gif""style=""height:400px;""></stim_listB>",,html-keyboard-response,378,1416349,0.0-19.0-1.8,93283,List2B,white,woman,,,,null,,,,,,,,,
null,is challenging,,html-keyboard-response,379,1418354,0.0-19.0-2.8,93283,List2B,white,woman,,,,null,,,,,,,,,
7422.5,,,survey-text,380,1425778,0.0-19.0-3.8,93283,List2B,white,woman,,,,,"{""Q0"":""beth is challenging mike""}","<img src=""stim_listB/challenge3.gif""style=""height:400px;""></stim_listB>",is challenging,,,,,,
null,"<div style=""font-size:60px;"">+</div>",,html-keyboard-response,381,1426280,0.0-19.0-0.9,93283,List2B,white,woman,,,,null,,,,,,,,,
null,"<img src=""stim_listB/oppose2.gif""style=""height:400px;""></stim_listB>",,html-keyboard-response,382,1428283,0.0-19.0-1.9,93283,List2B,white,woman,,,,null,,,,,,,,,
null,is being opposed by,,html-keyboard-response,383,1430284,0.0-19.0-2.9,93283,List2B,white,woman,,,,null,,,,,,,,,
6877.6,,,survey-text,384,1437163,0.0-19.0-3.9,93283,List2B,white,woman,,,,,"{""Q0"":""luke is being opposed by ruth""}","<img src=""stim_listB/oppose2.gif""style=""height:400px;""></stim_listB>",is being opposed by,,,,,,
null,"<div style=""font-size:60px;"">+</div>",,html-keyboard-response,385,1437664,0.0-19.0-0.10,93283,List2B,white,woman,,,,null,,,,,,,,,
null,"<img src=""stim_listB/look3.gif""style=""height:400px;""></stim_listB>",,html-keyboard-response,386,1439668,0.0-19.0-1.10,93283,List2B,white,woman,,,,null,,,,,,,,,
null,is looking at,,html-keyboard-response,387,1441674,0.0-19.0-2.10,93283,List2B,white,woman,,,,null,,,,,,,,,
4139.3,,,survey-text,388,1445814,0.0-19.0-3.10,93283,List2B,white,woman,,,,,"{""Q0"":""fred is looking at beth""}","<img src=""stim_listB/look3.gif""style=""height:400px;""></stim_listB>",is looking at,,,,,,
null,"<div style=""font-size:60px;"">+</div>",,html-keyboard-response,389,1446316,0.0-19.0-0.11,93283,List2B,white,woman,,,,null,,,,,,,,,
null,"<img src=""stim_listB/shout7.gif""style=""height:400px;""></stim_listB>",,html-keyboard-response,390,1448319,0.0-19.0-1.11,93283,List2B,white,woman,,,,null,,,,,,,,,
null,is shouting at,,html-keyboard-response,391,1450320,0.0-19.0-2.11,93283,List2B,white,woman,,,,null,,,,,,,,,
3682.3,,,survey-text,392,1454004,0.0-19.0-3.11,93283,List2B,white,woman,,,,,"{""Q0"":""beth is shouting at ruth""}","<img src=""stim_listB/shout7.gif""style=""height:400px;""></stim_listB>",is shouting at,,,,,,
null,"<div style=""font-size:60px;"">+</div>",,html-keyboard-response,393,1454508,0.0-19.0-0.12,93283,List2B,white,woman,,,,null,,,,,,,,,
null,"<img src=""stim_listB/hug7.gif""style=""height:400px;""></stim_listB>",,html-keyboard-response,394,1456513,0.0-19.0-1.12,93283,List2B,white,woman,,,,null,,,,,,,,,
null,is hugging,,html-keyboard-response,395,1458514,0.0-19.0-2.12,93283,List2B,white,woman,,,,null,,,,,,,,,
3880.9,,,survey-text,396,1462397,0.0-19.0-3.12,93283,List2B,white,woman,,,,,"{""Q0"":""beth is hugging ruth""}","<img src=""stim_listB/hug7.gif""style=""height:400px;""></stim_listB>",is hugging,,,,,,
null,"<div style=""font-size:60px;"">+</div>",,html-keyboard-response,397,1462898,0.0-19.0-0.13,93283,List2B,white,woman,,,,null,,,,,,,,,
null,"<img src=""stim_listB/hug3.gif""style=""height:400px;""></stim_listB>",,html-keyboard-response,398,1464903,0.0-19.0-1.13,93283,List2B,white,woman,,,,null,,,,,,,,,
null,is hugging,,html-keyboard-response,399,1466908,0.0-19.0-2.13,93283,List2B,white,woman,,,,null,,,,,,,,,
3193.4,,,survey-text,400,1470103,0.0-19.0-3.13,93283,List2B,white,woman,,,,,"{""Q0"":""beth is hugging fred""}","<img src=""stim_listB/hug3.gif""style=""height:400px;""></stim_listB>",is hugging,,,,,,
null,"<div style=""font-size:60px;"">+</div>",,html-keyboard-response,401,1470604,0.0-19.0-0.14,93283,List2B,white,woman,,,,null,,,,,,,,,
null,"<img src=""stim_listB/hug4.gif""style=""height:400px;""></stim_listB>",,html-keyboard-response,402,1472605,0.0-19.0-1.14,93283,List2B,white,woman,,,,null,,,,,,,,,
null,is being hugged by,,html-keyboard-response,403,1474608,0.0-19.0-2.14,93283,List2B,white,woman,,,,null,,,,,,,,,
5427.7,,,survey-text,404,1480037,0.0-19.0-3.14,93283,List2B,white,woman,,,,,"{""Q0"":""mike is being hugged by kate""}","<img src=""stim_listB/hug4.gif""style=""height:400px;""></stim_listB>",is being hugged by,,,,,,
null,"<div style=""font-size:60px;"">+</div>",,html-keyboard-response,405,1480541,0.0-19.0-0.15,93283,List2B,white,woman,,,,null,,,,,,,,,
null,"<img src=""stim_listB/kiss1.gif""style=""height:400px;""></stim_listB>",,html-keyboard-response,406,1482545,0.0-19.0-1.15,93283,List2B,white,woman,,,,null,,,,,,,,,
null,is kissing,,html-keyboard-response,407,1484546,0.0-19.0-2.15,93283,List2B,white,woman,,,,null,,,,,,,,,
3487.7,,,survey-text,408,1488036,0.0-19.0-3.15,93283,List2B,white,woman,,,,,"{""Q0"":""ruth is kissing luke""}","<img src=""stim_listB/kiss1.gif""style=""height:400px;""></stim_listB>",is kissing,,,,,,
null,"<div style=""font-size:60px;"">+</div>",,html-keyboard-response,409,1488537,0.0-19.0-0.16,93283,List2B,white,woman,,,,null,,,,,,,,,
null,"<img src=""stim_listB/shout1.gif""style=""height:400px;""></stim_listB>",,html-keyboard-response,410,1490541,0.0-19.0-1.16,93283,List2B,white,woman,,,,null,,,,,,,,,
null,is shouting at,,html-keyboard-response,411,1492543,0.0-19.0-2.16,93283,List2B,white,woman,,,,null,,,,,,,,,
3984.5,,,survey-text,412,1496529,0.0-19.0-3.16,93283,List2B,white,woman,,,,,"{""Q0"":""ruth is shouting at luke""}","<img src=""stim_listB/shout1.gif""style=""height:400px;""></stim_listB>",is shouting at,,,,,,
null,"<div style=""font-size:60px;"">+</div>",,html-keyboard-response,413,1497031,0.0-19.0-0.17,93283,List2B,white,woman,,,,null,,,,,,,,,
null,"<img src=""stim_listB/hug6.gif""style=""height:400px;""></stim_listB>",,html-keyboard-response,414,1499033,0.0-19.0-1.17,93283,List2B,white,woman,,,,null,,,,,,,,,
null,is being hugged by,,html-keyboard-response,415,1501035,0.0-19.0-2.17,93283,List2B,white,woman,,,,null,,,,,,,,,
4369.2,,,survey-text,416,1505406,0.0-19.0-3.17,93283,List2B,white,woman,,,,,"{""Q0"":""dave is being hugged by mike""}","<img src=""stim_listB/hug6.gif""style=""height:400px;""></stim_listB>",is being hugged by,,,,,,
null,"<div style=""font-size:60px;"">+</div>",,html-keyboard-response,417,1505908,0.0-19.0-0.18,93283,List2B,white,woman,,,,null,,,,,,,,,
null,"<img src=""stim_listB/touch2.gif""style=""height:400px;""></stim_listB>",,html-keyboard-response,418,1507911,0.0-19.0-1.18,93283,List2B,white,woman,,,,null,,,,,,,,,
null,is being touched by,,html-keyboard-response,419,1509912,0.0-19.0-2.18,93283,List2B,white,woman,,,,null,,,,,,,,,
5932.3,,,survey-text,420,1515845,0.0-19.0-3.18,93283,List2B,white,woman,,,,,"{""Q0"":""luke is being touched by ruth""}","<img src=""stim_listB/touch2.gif""style=""height:400px;""></stim_listB>",is being touched by,,,,,,
null,"<div style=""font-size:60px;"">+</div>",,html-keyboard-response,421,1516346,0.0-19.0-0.19,93283,List2B,white,woman,,,,null,,,,,,,,,
null,"<img src=""stim_listB/copy6.gif""style=""height:400px;""></stim_listB>",,html-keyboard-response,422,1518351,0.0-19.0-1.19,93283,List2B,white,woman,,,,null,,,,,,,,,
null,is being copied by,,html-keyboard-response,423,1520355,0.0-19.0-2.19,93283,List2B,white,woman,,,,null,,,,,,,,,
3971.4,,,survey-text,424,1524328,0.0-19.0-3.19,93283,List2B,white,woman,,,,,"{""Q0"":""luke is being copied by mike""}","<img src=""stim_listB/copy6.gif""style=""height:400px;""></stim_listB>",is being copied by,,,,,,
2057.2,<p>Thank you for completing that task.</p><p>The final part of this session is a questionnaire that will take about 4 minutes.</p><p>Press Continue.</p>,0,html-button-response,425,1526386,0.0-20.0,93283,List2B,white,woman,,,,,,,,,,,,,
26703.5,,,survey-text,426,1554095,0.0-21.0,93283,List2B,white,woman,,,,,"{""Q0"":""30"",""Q1"":""english"",""Q2"":""english"",""Q3"":""united states of america"",""Q4"":""american"",""Q5"":""white"",""Q6"":""female""}",,,demographics,,,,,
2709.3,<p>Have you lived in the USA for the last 5 years or more?</p>,0,html-button-response,427,1556806,0.0-22.0,93283,List2B,white,woman,,,,,,,,fiveyears,,,,,
5804.7,<p>Move the slider to show the extent to which you agree with the following statements.</p>,0,html-button-response,428,1563613,0.0-23.0,93283,List2B,white,woman,,,,,,,,,,,,,
12909.6,,,html-slider-response,429,1577529,0.0-24.0-0.0-0.0,93283,List2B,white,woman,,,,,,,,survey_gender,100,,,Being my gender gives me a good feeling.,feeling
4149.7,,,html-slider-response,430,1581680,0.0-24.0-0.0-0.1,93283,List2B,white,woman,,,,,,,,survey_gender,100,,,I would say I am an animal person.,filler
5590.5,,,html-slider-response,431,1587271,0.0-24.0-0.0-0.2,93283,List2B,white,woman,,,,,,,,survey_gender,46,,,People of my gender have a lot in common with each other.,common
4757.8,,,html-slider-response,432,1592030,0.0-24.0-0.0-0.3,93283,List2B,white,woman,,,,,,,,survey_gender,33,,,Most of the friends in my life are very similar to me.,filler
4442.6,,,html-slider-response,433,1596474,0.0-24.0-0.0-0.4,93283,List2B,white,woman,,,,,,,,survey_gender,36,,,I have a lot in common with the average person of my gender.,average
9561.6,,,html-slider-response,434,1606036,0.0-24.0-0.0-0.5,93283,List2B,white,woman,,,,,,,,survey_gender,30,,,It is not always easy for people to know what I am thinking.,filler
3846.2,,,html-slider-response,435,1609884,0.0-24.0-0.0-0.6,93283,List2B,white,woman,,,,,,,,survey_gender,100,,,I have a lot in common with my friends.,filler
7030.2,,,html-slider-response,436,1616915,0.0-24.0-0.0-0.7,93283,List2B,white,woman,,,,,,,,survey_gender,100,,,I feel solidarity with my friends.,filler
4498.8,,,html-slider-response,437,1621415,0.0-24.0-0.0-0.8,93283,List2B,white,woman,,,,,,,,survey_gender,31,,,I am similar to the average person of my gender.,similar
3744.9,,,html-slider-response,438,1625161,0.0-24.0-0.0-0.9,93283,List2B,white,woman,,,,,,,,survey_gender,100,,,I am glad to have the friends that I have.,filler
4195.4,,,html-slider-response,439,1629358,0.0-24.0-0.0-0.10,93283,List2B,white,woman,,,,,,,,survey_gender,100,,,I think that my gender has a lot to be proud of.,proud
2439.8,,,html-slider-response,440,1631799,0.0-24.0-0.0-0.11,93283,List2B,white,woman,,,,,,,,survey_gender,100,,,I feel solidarity with my gender.,solidarity
7098,,,html-slider-response,441,1638897,0.0-24.0-0.0-0.12,93283,List2B,white,woman,,,,,,,,survey_gender,82,,,My friends have a lot in common with each other.,filler
3700.4,,,html-slider-response,442,1642599,0.0-24.0-0.0-0.13,93283,List2B,white,woman,,,,,,,,survey_gender,100,,,My friends understand me.,filler
5882.3,,,html-slider-response,443,1648482,0.0-24.0-0.0-0.14,93283,List2B,white,woman,,,,,,,,survey_gender,21,,,Family is not more important to me than friendship.,filler
24761.1,,,html-slider-response,444,1673244,0.0-24.0-0.0-0.15,93283,List2B,white,woman,,,,,,,,survey_gender,100,,,I often think about the fact that I am my gender.,often
4183.6,,,html-slider-response,445,1677429,0.0-24.0-0.0-0.16,93283,List2B,white,woman,,,,,,,,survey_gender,100,,,I consider myself a highly empathetic person.,filler
3531.1,,,html-slider-response,446,1680961,0.0-24.0-0.0-0.17,93283,List2B,white,woman,,,,,,,,survey_gender,100,,,Being around my friends gives me a good feeling.,filler
3981.6,,,html-slider-response,447,1684944,0.0-24.0-0.0-0.18,93283,List2B,white,woman,,,,,,,,survey_gender,24,,,Routine is not important to me.,filler
3981.4,,,html-slider-response,448,1688926,0.0-24.0-0.0-0.19,93283,List2B,white,woman,,,,,,,,survey_gender,100,,,It is pleasant to be my gender.,pleasant
3249.9,,,html-slider-response,449,1692177,0.0-24.0-0.0-0.20,93283,List2B,white,woman,,,,,,,,survey_gender,100,,,I feel a bond with my gender.,bond
4139.2,,,html-slider-response,450,1696318,0.0-24.0-0.0-0.21,93283,List2B,white,woman,,,,,,,,survey_gender,100,,,The fact that I am my gender is an important part of my identity.,identity
2788.7,,,html-slider-response,451,1699108,0.0-24.0-0.0-0.22,93283,List2B,white,woman,,,,,,,,survey_gender,100,,,I feel a bond with my friends.,filler
4240.6,,,html-slider-response,452,1703349,0.0-24.0-0.0-0.23,93283,List2B,white,woman,,,,,,,,survey_gender,30,,,People of my gender are very similar to each other.,verysimilar
2428.7,,,html-slider-response,453,1705779,0.0-24.0-0.0-0.24,93283,List2B,white,woman,,,,,,,,survey_gender,100,,,I am glad to be my gender.,glad
7840.5,,,html-slider-response,454,1713620,0.0-24.0-0.0-0.25,93283,List2B,white,woman,,,,,,,,survey_gender,100,,,I often think about my actions.,filler
4521.1,,,html-slider-response,455,1718143,0.0-24.0-0.0-0.26,93283,List2B,white,woman,,,,,,,,survey_gender,100,,,Being my gender is an important part of how I see myself.,important
4611.3,,,html-slider-response,456,1722755,0.0-24.0-0.0-0.27,93283,List2B,white,woman,,,,,,,,survey_gender,76,,,I feel committed to my gender.,committed
9348,,,html-slider-response,457,1732104,0.0-24.0-1.0-0.0,93283,List2B,white,woman,,,,,,,,survey_race,20,,,I think that my race has a lot to be proud of.,proud
7401.5,,,html-slider-response,458,1739506,0.0-24.0-1.0-0.1,93283,List2B,white,woman,,,,,,,,survey_race,48,,,I feel solidarity with my race.,solidarity
4454,,,html-slider-response,459,1743961,0.0-24.0-1.0-0.2,93283,List2B,white,woman,,,,,,,,survey_race,18,,,I am similar to the average person of my race.,similar
5139.8,,,html-slider-response,460,1749103,0.0-24.0-1.0-0.3,93283,List2B,white,woman,,,,,,,,survey_race,36,,,"The older I get, the wiser I feel.",filler
4386.3,,,html-slider-response,461,1753490,0.0-24.0-1.0-0.4,93283,List2B,white,woman,,,,,,,,survey_race,21,,,I feel a bond with people the same age as me.,filler
7041.2,,,html-slider-response,462,1760533,0.0-24.0-1.0-0.5,93283,List2B,white,woman,,,,,,,,survey_race,25,,,My age is not an important part of who I am.,filler
5027.7,,,html-slider-response,463,1765561,0.0-24.0-1.0-0.6,93283,List2B,white,woman,,,,,,,,survey_race,30,,,People my age have a lot in common with each other.,filler
7840.2,,,html-slider-response,464,1773402,0.0-24.0-1.0-0.7,93283,List2B,white,woman,,,,,,,,survey_race,84,,,Getting older does not worry me.,filler
4026.3,,,html-slider-response,465,1777430,0.0-24.0-1.0-0.8,93283,List2B,white,woman,,,,,,,,survey_race,100,,,Being my age gives me a good feeling.,filler
3351.4,,,html-slider-response,466,1780783,0.0-24.0-1.0-0.9,93283,List2B,white,woman,,,,,,,,survey_race,100,,,I am glad to be the age I am.,filler
5725.6,,,html-slider-response,467,1786509,0.0-24.0-1.0-0.10,93283,List2B,white,woman,,,,,,,,survey_race,69,,,I often think about the fact that I am my race.,often
3677.5,,,html-slider-response,468,1790188,0.0-24.0-1.0-0.11,93283,List2B,white,woman,,,,,,,,survey_race,100,,,I consider myself an extrovert.,filler
6692.6,,,html-slider-response,469,1796882,0.0-24.0-1.0-0.12,93283,List2B,white,woman,,,,,,,,survey_race,40,,,I feel a bond with my race.,bond
5376,,,html-slider-response,470,1802259,0.0-24.0-1.0-0.13,93283,List2B,white,woman,,,,,,,,survey_race,24,,,I feel solidarity with people the same age as me.,filler
3227.7,,,html-slider-response,471,1805488,0.0-24.0-1.0-0.14,93283,List2B,white,woman,,,,,,,,survey_race,100,,,I often think about the fact that I am my age.,filler
2710.2,,,html-slider-response,472,1808199,0.0-24.0-1.0-0.15,93283,List2B,white,woman,,,,,,,,survey_race,100,,,I enjoy being in large groups.,filler
2856.7,,,html-slider-response,473,1811056,0.0-24.0-1.0-0.16,93283,List2B,white,woman,,,,,,,,survey_race,0,,,I consider myself an introvert.,filler
3486.6,,,html-slider-response,474,1814544,0.0-24.0-1.0-0.17,93283,List2B,white,woman,,,,,,,,survey_race,26,,,It is pleasant to be my race.,pleasant
4949.1,,,html-slider-response,475,1819494,0.0-24.0-1.0-0.18,93283,List2B,white,woman,,,,,,,,survey_race,21,,,People of my race are very similar to each other.,verysimilar
2608.7,,,html-slider-response,476,1822104,0.0-24.0-1.0-0.19,93283,List2B,white,woman,,,,,,,,survey_race,100,,,I am glad to be my age.,filler
8661.7,,,html-slider-response,477,1830766,0.0-24.0-1.0-0.20,93283,List2B,white,woman,,,,,,,,survey_race,26,,,I have a lot in common with the average person of my race.,average
5128.8,,,html-slider-response,478,1835896,0.0-24.0-1.0-0.21,93283,List2B,white,woman,,,,,,,,survey_race,18,,,I have a lot in common with people of a similar age to me.,filler
3767.8,,,html-slider-response,479,1839665,0.0-24.0-1.0-0.22,93283,List2B,white,woman,,,,,,,,survey_race,28,,,The fact that I am my race is an important part of my identity.,identity
2079.9,,,html-slider-response,480,1841747,0.0-24.0-1.0-0.23,93283,List2B,white,woman,,,,,,,,survey_race,26,,,I feel committed to my race.,committed
2631.1,,,html-slider-response,481,1844379,0.0-24.0-1.0-0.24,93283,List2B,white,woman,,,,,,,,survey_race,29,,,People of my race have a lot in common with each other.,common
2823.1,,,html-slider-response,482,1847203,0.0-24.0-1.0-0.25,93283,List2B,white,woman,,,,,,,,survey_race,31,,,Being my race gives me a good feeling.,feeling
2935.2,,,html-slider-response,483,1850139,0.0-24.0-1.0-0.26,93283,List2B,white,woman,,,,,,,,survey_race,30,,,I am glad to be my race.,glad
2822.8,,,html-slider-response,484,1852963,0.0-24.0-1.0-0.27,93283,List2B,white,woman,,,,,,,,survey_race,26,,,Being my race is an important part of how I see myself.,important
6242.1,,,survey-text,485,1859207,0.0-25.0,93283,List2B,white,woman,,,,,"{""Q0"":""ccc""}",,,worker_id,,,,,
13876.2,,,external-html,486,1873325,0.0-26.0,93283,List2B,white,woman,debrief.html,,,,,,,,,,,,
