"rt","stimulus","button_pressed","trial_type","trial_index","time_elapsed","internal_node_id","subject","list","ppt_race","ppt_gender","url","first_guess","correct","key_press","responses","image_type","phrase_type","test_part","response","stimulus1","stimulus2","question_type","survey_item"
"20209.299999952316","Welcome to the experiment. Press Continue to begin.","0","html-button-response","0","20215","0.0-0.0","94240","List2A","black","woman","","","","","","","","","","","","",""
"120184.89999985695","","","external-html","1","141903","0.0-1.0","94240","List2A","black","woman","consent.html","","","","","","","","","","","",""
"11174.799999952316","<p>On the next page, you will see portraits of 8 people and their names.</p><p>Your first task is to take a few minutes to memorise the names of these people.</p><p>You will have to recall their names during the rest of the experiment, so it is</p><p>essential that you try to memorise these people and their names as best as you can.</p><br><p><strong>You will then be tested on your memory of these names and portraits.</strong></p><br><p>The experiment will start after you have completed this memory test.</p><br><p>Ready?</p>","0","html-button-response","2","153079","0.0-2.0","94240","List2A","black","woman","","","","","","","","","","","","",""
"350611.5","<img src='img/portrait_matrix_list2.jpg' style='width:900px;height:500px;''></img><p>If you have memorised all the portraits and names and are ready to start, press Continue.</p><p><strong>Please note: Your memory of these faces will be tested 4 times during this experiment.</strong></p>","0","html-button-response","3","504702","0.0-3.0-0.0","94240","List2A","black","woman","","","","","","","","","","","","",""
"3396.5999999046326","<img src=""portrait/BM2.jpg""style=""height:400px;""></img>","5","html-button-response","4","509110","0.0-3.0-1.0","94240","List2A","black","woman","","true","5","","","","","","","","","",""
"null","CORRECT","","html-keyboard-response","5","510621","0.0-3.0-2.0-0.0","94240","List2A","black","woman","","","","null","","","","","","","","",""
"3308.100000143051","<img src=""portrait/WM2.jpg""style=""height:400px;""></img>","7","html-button-response","6","513934","0.0-3.0-4.0","94240","List2A","black","woman","","true","7","","","","","","","","","",""
"null","CORRECT","","html-keyboard-response","7","515441","0.0-3.0-5.0-0.0","94240","List2A","black","woman","","","","null","","","","","","","","",""
"5995.100000143051","<img src=""portrait/BM1.jpg""style=""height:400px;""></img>","4","html-button-response","8","521438","0.0-3.0-7.0","94240","List2A","black","woman","","true","4","","","","","","","","","",""
"null","CORRECT","","html-keyboard-response","9","522947","0.0-3.0-8.0-0.0","94240","List2A","black","woman","","","","null","","","","","","","","",""
"3145.699999809265","<img src=""portrait/WW1.jpg""style=""height:400px;""></img>","1","html-button-response","10","526094","0.0-3.0-10.0","94240","List2A","black","woman","","true","1","","","","","","","","","",""
"null","CORRECT","","html-keyboard-response","11","527613","0.0-3.0-11.0-0.0","94240","List2A","black","woman","","","","null","","","","","","","","",""
"4223.600000143051","<img src=""portrait/BW1.jpg""style=""height:400px;""></img>","0","html-button-response","12","531838","0.0-3.0-13.0","94240","List2A","black","woman","","true","0","","","","","","","","","",""
"null","CORRECT","","html-keyboard-response","13","533361","0.0-3.0-14.0-0.0","94240","List2A","black","woman","","","","null","","","","","","","","",""
"10106.799999952316","<img src=""portrait/WM1.jpg""style=""height:400px;""></img>","6","html-button-response","14","543470","0.0-3.0-16.0","94240","List2A","black","woman","","true","6","","","","","","","","","",""
"null","CORRECT","","html-keyboard-response","15","544986","0.0-3.0-17.0-0.0","94240","List2A","black","woman","","","","null","","","","","","","","",""
"7187","<img src=""portrait/BW2.jpg""style=""height:400px;""></img>","2","html-button-response","16","552174","0.0-3.0-19.0","94240","List2A","black","woman","","true","2","","","","","","","","","",""
"null","CORRECT","","html-keyboard-response","17","553691","0.0-3.0-20.0-0.0","94240","List2A","black","woman","","","","null","","","","","","","","",""
"4497.700000047684","<img src=""portrait/WW2.jpg""style=""height:400px;""></img>","3","html-button-response","18","558190","0.0-3.0-22.0","94240","List2A","black","woman","","true","3","","","","","","","","","",""
"null","CORRECT","","html-keyboard-response","19","559715","0.0-3.0-23.0-0.0","94240","List2A","black","woman","","","","null","","","","","","","","",""
"1416","<p>You got 8 out of 8 right first time. Press Continue.</p>","0","html-button-response","20","561134","0.0-3.0-25.0","94240","List2A","black","woman","","","","","","","","","","","","",""
"69155.5","<p>In this experiment, you will view photographs of the people from the memory game interacting.</p><p>By using the <strong>exact</strong> phrase given <i>after</i> the photograph appears and recalling the correct names of the people in the photographs, form a sentence describing the interaction. You do not need to capitalise names.</p><p>Type your answer in the space provided. Please complete every sentence before moving onto the next trial.</p><p>You will only have a few seconds to memorise each given photograph and phrase before you can respond, so try your best to focus.</p><p>An example is given below. Press 'Continue' when you are ready.</p><img src='img/speaking_example.jpg' style='width:800px;height:460px;''></img>","0","html-button-response","21","631294","0.0-4.0","94240","List2A","black","woman","","","","","","","","","","","","",""
"8311.700000047684","<p>Before the experiment starts, you will watch two example trials. Press 'Continue'.</p>","0","html-button-response","22","640614","0.0-5.0","94240","List2A","black","woman","","","","","","","","","","","","",""
"null","<img src='img/play_eg.gif' style='height:400px;''></img>","","html-keyboard-response","23","643617","0.0-6.0","94240","List2A","black","woman","","","","null","","","","","","","","",""
"null","<p>is playing with</p>","","html-keyboard-response","24","645619","0.0-7.0","94240","List2A","black","woman","","","","null","","","","","","","","",""
"8394.200000047684","<p><b>Answer:</b> jane is playing with ruth</p>","0","html-button-response","25","654014","0.0-8.0","94240","List2A","black","woman","","","","","","","","","","","","",""
"null","<img src='img/dance_eg.gif' style='height:400px;''></img>","","html-keyboard-response","26","657022","0.0-9.0","94240","List2A","black","woman","","","","null","","","","","","","","",""
"null","<p>is being entertained by</p>","","html-keyboard-response","27","659025","0.0-10.0","94240","List2A","black","woman","","","","null","","","","","","","","",""
"26924.900000095367","<p><b>Answer:</b> fred is being entertained by mike</p>","0","html-button-response","28","685950","0.0-11.0","94240","List2A","black","woman","","","","","","","","","","","","",""
"44459.299999952316","<p>Ready to start the experiment?</p><br><p><strong>Remember to describe the picture using a full sentence,</strong></p><p><strong>that combines the names of the people with the <i>exact</i> phrase given.</strong></p><p><strong>To receive full payment you must do this correctly.</strong></p><p><strong> You do not need to capitalise names or use punctuation.</strong></p><br><p>Press 'Continue' to begin.</p>","0","html-button-response","29","731414","0.0-12.0","94240","List2A","black","woman","","","","","","","","","","","","",""
"null","<div style=""font-size:60px;"">+</div>","","html-keyboard-response","30","732930","0.0-13.0-0.0","94240","List2A","black","woman","","","","null","","","","","","","","",""
"null","<img src=""stim_listA/hug1.gif""style=""height:400px;""></stim_listA>","","html-keyboard-response","31","734944","0.0-13.0-1.0","94240","List2A","black","woman","","","","null","","","","","","","","",""
"null","is hugging","","html-keyboard-response","32","736960","0.0-13.0-2.0","94240","List2A","black","woman","","","","null","","","","","","","","",""
"23312.89999985695","","","survey-text","33","760278","0.0-13.0-3.0","94240","List2A","black","woman","","","","","{""Q0"":""Luke is hugging Ruth ""}","<img src=""stim_listA/hug1.gif""style=""height:400px;""></stim_listA>","is hugging","","","","","",""
"null","<div style=""font-size:60px;"">+</div>","","html-keyboard-response","34","760795","0.0-13.0-0.1","94240","List2A","black","woman","","","","null","","","","","","","","",""
"null","<img src=""stim_listA/copy1.gif""style=""height:400px;""></stim_listA>","","html-keyboard-response","35","762807","0.0-13.0-1.1","94240","List2A","black","woman","","","","null","","","","","","","","",""
"null","is copying","","html-keyboard-response","36","764810","0.0-13.0-2.1","94240","List2A","black","woman","","","","null","","","","","","","","",""
"20830.099999904633","","","survey-text","37","785646","0.0-13.0-3.1","94240","List2A","black","woman","","","","","{""Q0"":""Ruth is copying Dave""}","<img src=""stim_listA/copy1.gif""style=""height:400px;""></stim_listA>","is copying","","","","","",""
"null","<div style=""font-size:60px;"">+</div>","","html-keyboard-response","38","786148","0.0-13.0-0.2","94240","List2A","black","woman","","","","null","","","","","","","","",""
"null","<img src=""stim_listA/kiss4.gif""style=""height:400px;""></stim_listA>","","html-keyboard-response","39","788159","0.0-13.0-1.2","94240","List2A","black","woman","","","","null","","","","","","","","",""
"null","is being kissed by","","html-keyboard-response","40","790172","0.0-13.0-2.2","94240","List2A","black","woman","","","","null","","","","","","","","",""
"10968.200000047684","","","survey-text","41","801142","0.0-13.0-3.2","94240","List2A","black","woman","","","","","{""Q0"":""Mike is kissing Jane""}","<img src=""stim_listA/kiss4.gif""style=""height:400px;""></stim_listA>","is being kissed by","","","","","",""
"null","<div style=""font-size:60px;"">+</div>","","html-keyboard-response","42","801643","0.0-13.0-0.3","94240","List2A","black","woman","","","","null","","","","","","","","",""
"null","<img src=""stim_listA/copy6.gif""style=""height:400px;""></stim_listA>","","html-keyboard-response","43","803660","0.0-13.0-1.3","94240","List2A","black","woman","","","","null","","","","","","","","",""
"null","is being copied by","","html-keyboard-response","44","805675","0.0-13.0-2.3","94240","List2A","black","woman","","","","null","","","","","","","","",""
"13457.700000047684","","","survey-text","45","819134","0.0-13.0-3.3","94240","List2A","black","woman","","","","","{""Q0"":""Mike is being copied by Luke""}","<img src=""stim_listA/copy6.gif""style=""height:400px;""></stim_listA>","is being copied by","","","","","",""
"null","<div style=""font-size:60px;"">+</div>","","html-keyboard-response","46","819636","0.0-13.0-0.4","94240","List2A","black","woman","","","","null","","","","","","","","",""
"null","<img src=""stim_listA/seduce7.gif""style=""height:400px;""></stim_listA>","","html-keyboard-response","47","821644","0.0-13.0-1.4","94240","List2A","black","woman","","","","null","","","","","","","","",""
"null","is seducing","","html-keyboard-response","48","823646","0.0-13.0-2.4","94240","List2A","black","woman","","","","null","","","","","","","","",""
"12634.600000143051","","","survey-text","49","836285","0.0-13.0-3.4","94240","List2A","black","woman","","","","","{""Q0"":""Ruth is seducing Kate""}","<img src=""stim_listA/seduce7.gif""style=""height:400px;""></stim_listA>","is seducing","","","","","",""
"null","<div style=""font-size:60px;"">+</div>","","html-keyboard-response","50","836789","0.0-13.0-0.5","94240","List2A","black","woman","","","","null","","","","","","","","",""
"null","<img src=""stim_listA/hug4.gif""style=""height:400px;""></stim_listA>","","html-keyboard-response","51","838806","0.0-13.0-1.5","94240","List2A","black","woman","","","","null","","","","","","","","",""
"null","is being hugged by","","html-keyboard-response","52","840810","0.0-13.0-2.5","94240","List2A","black","woman","","","","null","","","","","","","","",""
"10184.399999856949","","","survey-text","53","850998","0.0-13.0-3.5","94240","List2A","black","woman","","","","","{""Q0"":""Kate is copying Mike""}","<img src=""stim_listA/hug4.gif""style=""height:400px;""></stim_listA>","is being hugged by","","","","","",""
"null","<div style=""font-size:60px;"">+</div>","","html-keyboard-response","54","851510","0.0-13.0-0.6","94240","List2A","black","woman","","","","null","","","","","","","","",""
"null","<img src=""stim_listA/oppose6.gif""style=""height:400px;""></stim_listA>","","html-keyboard-response","55","853524","0.0-13.0-1.6","94240","List2A","black","woman","","","","null","","","","","","","","",""
"null","is being opposed by","","html-keyboard-response","56","855541","0.0-13.0-2.6","94240","List2A","black","woman","","","","null","","","","","","","","",""
"23054.60000014305","","","survey-text","57","878598","0.0-13.0-3.6","94240","List2A","black","woman","","","","","{""Q0"":""Luke is being opposed by Fred""}","<img src=""stim_listA/oppose6.gif""style=""height:400px;""></stim_listA>","is being opposed by","","","","","",""
"null","<div style=""font-size:60px;"">+</div>","","html-keyboard-response","58","879109","0.0-13.0-0.7","94240","List2A","black","woman","","","","null","","","","","","","","",""
"null","<img src=""stim_listA/touch6.gif""style=""height:400px;""></stim_listA>","","html-keyboard-response","59","881117","0.0-13.0-1.7","94240","List2A","black","woman","","","","null","","","","","","","","",""
"null","is being touched by","","html-keyboard-response","60","883120","0.0-13.0-2.7","94240","List2A","black","woman","","","","null","","","","","","","","",""
"10626.700000047684","","","survey-text","61","893750","0.0-13.0-3.7","94240","List2A","black","woman","","","","","{""Q0"":""Luke is being touched by Fred""}","<img src=""stim_listA/touch6.gif""style=""height:400px;""></stim_listA>","is being touched by","","","","","",""
"null","<div style=""font-size:60px;"">+</div>","","html-keyboard-response","62","894251","0.0-13.0-0.8","94240","List2A","black","woman","","","","null","","","","","","","","",""
"null","<img src=""stim_listA/shout6.gif""style=""height:400px;""></stim_listA>","","html-keyboard-response","63","896263","0.0-13.0-1.8","94240","List2A","black","woman","","","","null","","","","","","","","",""
"null","is being shouted at by","","html-keyboard-response","64","898279","0.0-13.0-2.8","94240","List2A","black","woman","","","","null","","","","","","","","",""
"12494.599999904633","","","survey-text","65","910774","0.0-13.0-3.8","94240","List2A","black","woman","","","","","{""Q0"":""Mike is being yelled at by Dave""}","<img src=""stim_listA/shout6.gif""style=""height:400px;""></stim_listA>","is being shouted at by","","","","","",""
"null","<div style=""font-size:60px;"">+</div>","","html-keyboard-response","66","911276","0.0-13.0-0.9","94240","List2A","black","woman","","","","null","","","","","","","","",""
"null","<img src=""stim_listA/kiss2.gif""style=""height:400px;""></stim_listA>","","html-keyboard-response","67","913288","0.0-13.0-1.9","94240","List2A","black","woman","","","","null","","","","","","","","",""
"null","is being kissed by","","html-keyboard-response","68","915300","0.0-13.0-2.9","94240","List2A","black","woman","","","","null","","","","","","","","",""
"12613.700000047684","","","survey-text","69","927917","0.0-13.0-3.9","94240","List2A","black","woman","","","","","{""Q0"":""Dave is being kissed by Jane""}","<img src=""stim_listA/kiss2.gif""style=""height:400px;""></stim_listA>","is being kissed by","","","","","",""
"null","<div style=""font-size:60px;"">+</div>","","html-keyboard-response","70","928423","0.0-13.0-0.10","94240","List2A","black","woman","","","","null","","","","","","","","",""
"null","<img src=""stim_listA/challenge6.gif""style=""height:400px;""></stim_listA>","","html-keyboard-response","71","930440","0.0-13.0-1.10","94240","List2A","black","woman","","","","null","","","","","","","","",""
"null","is being challenged by","","html-keyboard-response","72","932441","0.0-13.0-2.10","94240","List2A","black","woman","","","","null","","","","","","","","",""
"11081.200000047684","","","survey-text","73","943526","0.0-13.0-3.10","94240","List2A","black","woman","","","","","{""Q0"":""Luke is being challenged by Mike""}","<img src=""stim_listA/challenge6.gif""style=""height:400px;""></stim_listA>","is being challenged by","","","","","",""
"null","<div style=""font-size:60px;"">+</div>","","html-keyboard-response","74","944029","0.0-13.0-0.11","94240","List2A","black","woman","","","","null","","","","","","","","",""
"null","<img src=""stim_listA/greet8.gif""style=""height:400px;""></stim_listA>","","html-keyboard-response","75","946037","0.0-13.0-1.11","94240","List2A","black","woman","","","","null","","","","","","","","",""
"null","is being greeted by","","html-keyboard-response","76","948039","0.0-13.0-2.11","94240","List2A","black","woman","","","","null","","","","","","","","",""
"8669.299999952316","","","survey-text","77","956710","0.0-13.0-3.11","94240","List2A","black","woman","","","","","{""Q0"":""Kate is being greeted by Ruth""}","<img src=""stim_listA/greet8.gif""style=""height:400px;""></stim_listA>","is being greeted by","","","","","",""
"null","<div style=""font-size:60px;"">+</div>","","html-keyboard-response","78","957225","0.0-13.0-0.12","94240","List2A","black","woman","","","","null","","","","","","","","",""
"null","<img src=""stim_listA/look7.gif""style=""height:400px;""></stim_listA>","","html-keyboard-response","79","959240","0.0-13.0-1.12","94240","List2A","black","woman","","","","null","","","","","","","","",""
"null","is looking at","","html-keyboard-response","80","961249","0.0-13.0-2.12","94240","List2A","black","woman","","","","null","","","","","","","","",""
"13034.399999856949","","","survey-text","81","974285","0.0-13.0-3.12","94240","List2A","black","woman","","","","","{""Q0"":""Ruth is being looked at by Beth""}","<img src=""stim_listA/look7.gif""style=""height:400px;""></stim_listA>","is looking at","","","","","",""
"null","<div style=""font-size:60px;"">+</div>","","html-keyboard-response","82","974790","0.0-13.0-0.13","94240","List2A","black","woman","","","","null","","","","","","","","",""
"null","<img src=""stim_listA/touch8.gif""style=""height:400px;""></stim_listA>","","html-keyboard-response","83","976803","0.0-13.0-1.13","94240","List2A","black","woman","","","","null","","","","","","","","",""
"null","is being touched by","","html-keyboard-response","84","978804","0.0-13.0-2.13","94240","List2A","black","woman","","","","null","","","","","","","","",""
"12310.599999904633","","","survey-text","85","991118","0.0-13.0-3.13","94240","List2A","black","woman","","","","","{""Q0"":""Beth is being touched by Ruth""}","<img src=""stim_listA/touch8.gif""style=""height:400px;""></stim_listA>","is being touched by","","","","","",""
"null","<div style=""font-size:60px;"">+</div>","","html-keyboard-response","86","991619","0.0-13.0-0.14","94240","List2A","black","woman","","","","null","","","","","","","","",""
"null","<img src=""stim_listA/look8.gif""style=""height:400px;""></stim_listA>","","html-keyboard-response","87","993630","0.0-13.0-1.14","94240","List2A","black","woman","","","","null","","","","","","","","",""
"null","is being looked at by","","html-keyboard-response","88","995632","0.0-13.0-2.14","94240","List2A","black","woman","","","","null","","","","","","","","",""
"14114.5","","","survey-text","89","1009749","0.0-13.0-3.14","94240","List2A","black","woman","","","","","{""Q0"":""Jane is being looked at by Kate""}","<img src=""stim_listA/look8.gif""style=""height:400px;""></stim_listA>","is being looked at by","","","","","",""
"null","<div style=""font-size:60px;"">+</div>","","html-keyboard-response","90","1010259","0.0-13.0-0.15","94240","List2A","black","woman","","","","null","","","","","","","","",""
"null","<img src=""stim_listA/challenge2.gif""style=""height:400px;""></stim_listA>","","html-keyboard-response","91","1012273","0.0-13.0-1.15","94240","List2A","black","woman","","","","null","","","","","","","","",""
"null","is being challenged by","","html-keyboard-response","92","1014286","0.0-13.0-2.15","94240","List2A","black","woman","","","","null","","","","","","","","",""
"16292.899999856949","","","survey-text","93","1030581","0.0-13.0-3.15","94240","List2A","black","woman","","","","","{""Q0"":""Jane is being challenged by Luke""}","<img src=""stim_listA/challenge2.gif""style=""height:400px;""></stim_listA>","is being challenged by","","","","","",""
"null","<div style=""font-size:60px;"">+</div>","","html-keyboard-response","94","1031083","0.0-13.0-0.16","94240","List2A","black","woman","","","","null","","","","","","","","",""
"null","<img src=""stim_listA/oppose4.gif""style=""height:400px;""></stim_listA>","","html-keyboard-response","95","1033100","0.0-13.0-1.16","94240","List2A","black","woman","","","","null","","","","","","","","",""
"null","is being opposed by","","html-keyboard-response","96","1035102","0.0-13.0-2.16","94240","List2A","black","woman","","","","null","","","","","","","","",""
"16909.299999952316","","","survey-text","97","1052013","0.0-13.0-3.16","94240","List2A","black","woman","","","","","{""Q0"":""Beth is being opposed Fred""}","<img src=""stim_listA/oppose4.gif""style=""height:400px;""></stim_listA>","is being opposed by","","","","","",""
"null","<div style=""font-size:60px;"">+</div>","","html-keyboard-response","98","1052525","0.0-13.0-0.17","94240","List2A","black","woman","","","","null","","","","","","","","",""
"null","<img src=""stim_listA/copy5.gif""style=""height:400px;""></stim_listA>","","html-keyboard-response","99","1054532","0.0-13.0-1.17","94240","List2A","black","woman","","","","null","","","","","","","","",""
"null","is copying","","html-keyboard-response","100","1056533","0.0-13.0-2.17","94240","List2A","black","woman","","","","null","","","","","","","","",""
"12270.099999904633","","","survey-text","101","1068805","0.0-13.0-3.17","94240","List2A","black","woman","","","","","{""Q0"":""Dave is copying Fred""}","<img src=""stim_listA/copy5.gif""style=""height:400px;""></stim_listA>","is copying","","","","","",""
"null","<div style=""font-size:60px;"">+</div>","","html-keyboard-response","102","1069318","0.0-13.0-0.18","94240","List2A","black","woman","","","","null","","","","","","","","",""
"null","<img src=""stim_listA/kiss5.gif""style=""height:400px;""></stim_listA>","","html-keyboard-response","103","1071330","0.0-13.0-1.18","94240","List2A","black","woman","","","","null","","","","","","","","",""
"null","is kissing","","html-keyboard-response","104","1073344","0.0-13.0-2.18","94240","List2A","black","woman","","","","null","","","","","","","","",""
"9610.799999952316","","","survey-text","105","1082957","0.0-13.0-3.18","94240","List2A","black","woman","","","","","{""Q0"":""Luke is kissing Fred""}","<img src=""stim_listA/kiss5.gif""style=""height:400px;""></stim_listA>","is kissing","","","","","",""
"null","<div style=""font-size:60px;"">+</div>","","html-keyboard-response","106","1083459","0.0-13.0-0.19","94240","List2A","black","woman","","","","null","","","","","","","","",""
"null","<img src=""stim_listA/greet3.gif""style=""height:400px;""></stim_listA>","","html-keyboard-response","107","1085464","0.0-13.0-1.19","94240","List2A","black","woman","","","","null","","","","","","","","",""
"null","is greeting","","html-keyboard-response","108","1087481","0.0-13.0-2.19","94240","List2A","black","woman","","","","null","","","","","","","","",""
"10901.599999904633","","","survey-text","109","1098386","0.0-13.0-3.19","94240","List2A","black","woman","","","","","{""Q0"":""Beth is greeting Mike""}","<img src=""stim_listA/greet3.gif""style=""height:400px;""></stim_listA>","is greeting","","","","","",""
"3961.399999856949","<img src='img/portrait_matrix_list2.jpg' style='width:900px;height:500px;''></img><p>If you have memorised all the portraits and names and are ready to start, press Continue.</p><p><strong>Please note: Your memory of these faces will be tested 4 times during this experiment.</strong></p>","0","html-button-response","110","1102349","0.0-14.0-0.0","94240","List2A","black","woman","","","","","","","","","","","","",""
"1574.2999999523163","<img src=""portrait/WW1.jpg""style=""height:400px;""></img>","1","html-button-response","111","1104925","0.0-14.0-1.0","94240","List2A","black","woman","","true","1","","","","","","","","","",""
"null","CORRECT","","html-keyboard-response","112","1106436","0.0-14.0-2.0-0.0","94240","List2A","black","woman","","","","null","","","","","","","","",""
"9358.299999952316","<img src=""portrait/BW2.jpg""style=""height:400px;""></img>","2","html-button-response","113","1115797","0.0-14.0-4.0","94240","List2A","black","woman","","true","2","","","","","","","","","",""
"null","CORRECT","","html-keyboard-response","114","1117316","0.0-14.0-5.0-0.0","94240","List2A","black","woman","","","","null","","","","","","","","",""
"6463.400000095367","<img src=""portrait/BW1.jpg""style=""height:400px;""></img>","0","html-button-response","115","1123781","0.0-14.0-7.0","94240","List2A","black","woman","","true","0","","","","","","","","","",""
"null","CORRECT","","html-keyboard-response","116","1125294","0.0-14.0-8.0-0.0","94240","List2A","black","woman","","","","null","","","","","","","","",""
"3261.9000000953674","<img src=""portrait/WM1.jpg""style=""height:400px;""></img>","6","html-button-response","117","1128557","0.0-14.0-10.0","94240","List2A","black","woman","","true","6","","","","","","","","","",""
"null","CORRECT","","html-keyboard-response","118","1130073","0.0-14.0-11.0-0.0","94240","List2A","black","woman","","","","null","","","","","","","","",""
"1562.1000001430511","<img src=""portrait/WW2.jpg""style=""height:400px;""></img>","3","html-button-response","119","1131637","0.0-14.0-13.0","94240","List2A","black","woman","","true","3","","","","","","","","","",""
"null","CORRECT","","html-keyboard-response","120","1133158","0.0-14.0-14.0-0.0","94240","List2A","black","woman","","","","null","","","","","","","","",""
"2902.2999999523163","<img src=""portrait/WM2.jpg""style=""height:400px;""></img>","7","html-button-response","121","1136061","0.0-14.0-16.0","94240","List2A","black","woman","","true","7","","","","","","","","","",""
"null","CORRECT","","html-keyboard-response","122","1137578","0.0-14.0-17.0-0.0","94240","List2A","black","woman","","","","null","","","","","","","","",""
"1730","<img src=""portrait/BM1.jpg""style=""height:400px;""></img>","4","html-button-response","123","1139309","0.0-14.0-19.0","94240","List2A","black","woman","","true","4","","","","","","","","","",""
"null","CORRECT","","html-keyboard-response","124","1140833","0.0-14.0-20.0-0.0","94240","List2A","black","woman","","","","null","","","","","","","","",""
"1475","<img src=""portrait/BM2.jpg""style=""height:400px;""></img>","5","html-button-response","125","1142310","0.0-14.0-22.0","94240","List2A","black","woman","","true","5","","","","","","","","","",""
"null","CORRECT","","html-keyboard-response","126","1143821","0.0-14.0-23.0-0.0","94240","List2A","black","woman","","","","null","","","","","","","","",""
"958.7999999523163","<p>You got 8 out of 8 right first time. Press Continue.</p>","0","html-button-response","127","1144781","0.0-14.0-25.0","94240","List2A","black","woman","","","","","","","","","","","","",""
"null","<div style=""font-size:60px;"">+</div>","","html-keyboard-response","128","1146283","0.0-15.0-0.0","94240","List2A","black","woman","","","","null","","","","","","","","",""
"null","<img src=""stim_listA/challenge5.gif""style=""height:400px;""></stim_listA>","","html-keyboard-response","129","1148290","0.0-15.0-1.0","94240","List2A","black","woman","","","","null","","","","","","","","",""
"null","is challenging","","html-keyboard-response","130","1150302","0.0-15.0-2.0","94240","List2A","black","woman","","","","null","","","","","","","","",""
"11081","","","survey-text","131","1161387","0.0-15.0-3.0","94240","List2A","black","woman","","","","","{""Q0"":""Fred is challenging Dave""}","<img src=""stim_listA/challenge5.gif""style=""height:400px;""></stim_listA>","is challenging","","","","","",""
"null","<div style=""font-size:60px;"">+</div>","","html-keyboard-response","132","1161892","0.0-15.0-0.1","94240","List2A","black","woman","","","","null","","","","","","","","",""
"null","<img src=""stim_listA/copy2.gif""style=""height:400px;""></stim_listA>","","html-keyboard-response","133","1163897","0.0-15.0-1.1","94240","List2A","black","woman","","","","null","","","","","","","","",""
"null","is being copied by","","html-keyboard-response","134","1165903","0.0-15.0-2.1","94240","List2A","black","woman","","","","null","","","","","","","","",""
"4793.100000143051","","","survey-text","135","1170700","0.0-15.0-3.1","94240","List2A","black","woman","","","","","{""Q0"":""Jane is being copied by Luke""}","<img src=""stim_listA/copy2.gif""style=""height:400px;""></stim_listA>","is being copied by","","","","","",""
"null","<div style=""font-size:60px;"">+</div>","","html-keyboard-response","136","1171216","0.0-15.0-0.2","94240","List2A","black","woman","","","","null","","","","","","","","",""
"null","<img src=""stim_listA/look2.gif""style=""height:400px;""></stim_listA>","","html-keyboard-response","137","1173228","0.0-15.0-1.2","94240","List2A","black","woman","","","","null","","","","","","","","",""
"null","is being looked at by","","html-keyboard-response","138","1175234","0.0-15.0-2.2","94240","List2A","black","woman","","","","null","","","","","","","","",""
"5516.400000095367","","","survey-text","139","1180753","0.0-15.0-3.2","94240","List2A","black","woman","","","","","{""Q0"":""Jane is being looked at by Dave""}","<img src=""stim_listA/look2.gif""style=""height:400px;""></stim_listA>","is being looked at by","","","","","",""
"null","<div style=""font-size:60px;"">+</div>","","html-keyboard-response","140","1181260","0.0-15.0-0.3","94240","List2A","black","woman","","","","null","","","","","","","","",""
"null","<img src=""stim_listA/hug6.gif""style=""height:400px;""></stim_listA>","","html-keyboard-response","141","1183272","0.0-15.0-1.3","94240","List2A","black","woman","","","","null","","","","","","","","",""
"null","is being hugged by","","html-keyboard-response","142","1185288","0.0-15.0-2.3","94240","List2A","black","woman","","","","null","","","","","","","","",""
"9605.5","","","survey-text","143","1194897","0.0-15.0-3.3","94240","List2A","black","woman","","","","","{""Q0"":""Mike is being hugged by Dave""}","<img src=""stim_listA/hug6.gif""style=""height:400px;""></stim_listA>","is being hugged by","","","","","",""
"null","<div style=""font-size:60px;"">+</div>","","html-keyboard-response","144","1195412","0.0-15.0-0.4","94240","List2A","black","woman","","","","null","","","","","","","","",""
"null","<img src=""stim_listA/touch7.gif""style=""height:400px;""></stim_listA>","","html-keyboard-response","145","1197427","0.0-15.0-1.4","94240","List2A","black","woman","","","","null","","","","","","","","",""
"null","is touching","","html-keyboard-response","146","1199442","0.0-15.0-2.4","94240","List2A","black","woman","","","","null","","","","","","","","",""
"6286.799999952316","","","survey-text","147","1205732","0.0-15.0-3.4","94240","List2A","black","woman","","","","","{""Q0"":""Jane is touching Kate""}","<img src=""stim_listA/touch7.gif""style=""height:400px;""></stim_listA>","is touching","","","","","",""
"null","<div style=""font-size:60px;"">+</div>","","html-keyboard-response","148","1206244","0.0-15.0-0.5","94240","List2A","black","woman","","","","null","","","","","","","","",""
"null","<img src=""stim_listA/seduce8.gif""style=""height:400px;""></stim_listA>","","html-keyboard-response","149","1208246","0.0-15.0-1.5","94240","List2A","black","woman","","","","null","","","","","","","","",""
"null","is being seduced by","","html-keyboard-response","150","1210253","0.0-15.0-2.5","94240","List2A","black","woman","","","","null","","","","","","","","",""
"7833.099999904633","","","survey-text","151","1218089","0.0-15.0-3.5","94240","List2A","black","woman","","","","","{""Q0"":""Beth is being seduced by Jane""}","<img src=""stim_listA/seduce8.gif""style=""height:400px;""></stim_listA>","is being seduced by","","","","","",""
"null","<div style=""font-size:60px;"">+</div>","","html-keyboard-response","152","1218601","0.0-15.0-0.6","94240","List2A","black","woman","","","","null","","","","","","","","",""
"null","<img src=""stim_listA/hug5.gif""style=""height:400px;""></stim_listA>","","html-keyboard-response","153","1220610","0.0-15.0-1.6","94240","List2A","black","woman","","","","null","","","","","","","","",""
"null","is hugging","","html-keyboard-response","154","1222622","0.0-15.0-2.6","94240","List2A","black","woman","","","","null","","","","","","","","",""
"7975.100000143051","","","survey-text","155","1230601","0.0-15.0-3.6","94240","List2A","black","woman","","","","","{""Q0"":""Fred is hugging Luke""}","<img src=""stim_listA/hug5.gif""style=""height:400px;""></stim_listA>","is hugging","","","","","",""
"null","<div style=""font-size:60px;"">+</div>","","html-keyboard-response","156","1231112","0.0-15.0-0.7","94240","List2A","black","woman","","","","null","","","","","","","","",""
"null","<img src=""stim_listA/shout2.gif""style=""height:400px;""></stim_listA>","","html-keyboard-response","157","1233126","0.0-15.0-1.7","94240","List2A","black","woman","","","","null","","","","","","","","",""
"null","is being shouted at by","","html-keyboard-response","158","1235131","0.0-15.0-2.7","94240","List2A","black","woman","","","","null","","","","","","","","",""
"5858.600000143051","","","survey-text","159","1240993","0.0-15.0-3.7","94240","List2A","black","woman","","","","","{""Q0"":""Jane is being shouted at by Dave""}","<img src=""stim_listA/shout2.gif""style=""height:400px;""></stim_listA>","is being shouted at by","","","","","",""
"null","<div style=""font-size:60px;"">+</div>","","html-keyboard-response","160","1241500","0.0-15.0-0.8","94240","List2A","black","woman","","","","null","","","","","","","","",""
"null","<img src=""stim_listA/hug2.gif""style=""height:400px;""></stim_listA>","","html-keyboard-response","161","1243513","0.0-15.0-1.8","94240","List2A","black","woman","","","","null","","","","","","","","",""
"null","is being hugged by","","html-keyboard-response","162","1245522","0.0-15.0-2.8","94240","List2A","black","woman","","","","null","","","","","","","","",""
"7557.700000047684","","","survey-text","163","1253083","0.0-15.0-3.8","94240","List2A","black","woman","","","","","{""Q0"":""Jane is being hugged by Dave""}","<img src=""stim_listA/hug2.gif""style=""height:400px;""></stim_listA>","is being hugged by","","","","","",""
"null","<div style=""font-size:60px;"">+</div>","","html-keyboard-response","164","1253591","0.0-15.0-0.9","94240","List2A","black","woman","","","","null","","","","","","","","",""
"null","<img src=""stim_listA/hug8.gif""style=""height:400px;""></stim_listA>","","html-keyboard-response","165","1255602","0.0-15.0-1.9","94240","List2A","black","woman","","","","null","","","","","","","","",""
"null","is being hugged by","","html-keyboard-response","166","1257605","0.0-15.0-2.9","94240","List2A","black","woman","","","","null","","","","","","","","",""
"7894.200000047684","","","survey-text","167","1265503","0.0-15.0-3.9","94240","List2A","black","woman","","","","","{""Q0"":""Jane is being hugged by Kate""}","<img src=""stim_listA/hug8.gif""style=""height:400px;""></stim_listA>","is being hugged by","","","","","",""
"null","<div style=""font-size:60px;"">+</div>","","html-keyboard-response","168","1266006","0.0-15.0-0.10","94240","List2A","black","woman","","","","null","","","","","","","","",""
"null","<img src=""stim_listA/touch5.gif""style=""height:400px;""></stim_listA>","","html-keyboard-response","169","1268010","0.0-15.0-1.10","94240","List2A","black","woman","","","","null","","","","","","","","",""
"null","is touching","","html-keyboard-response","170","1270013","0.0-15.0-2.10","94240","List2A","black","woman","","","","null","","","","","","","","",""
"10952.600000143051","","","survey-text","171","1280969","0.0-15.0-3.10","94240","List2A","black","woman","","","","","{""Q0"":""Dave is being hugged by Mike""}","<img src=""stim_listA/touch5.gif""style=""height:400px;""></stim_listA>","is touching","","","","","",""
"null","<div style=""font-size:60px;"">+</div>","","html-keyboard-response","172","1281474","0.0-15.0-0.11","94240","List2A","black","woman","","","","null","","","","","","","","",""
"null","<img src=""stim_listA/challenge8.gif""style=""height:400px;""></stim_listA>","","html-keyboard-response","173","1283491","0.0-15.0-1.11","94240","List2A","black","woman","","","","null","","","","","","","","",""
"null","is being challenged by","","html-keyboard-response","174","1285506","0.0-15.0-2.11","94240","List2A","black","woman","","","","null","","","","","","","","",""
"7253.400000095367","","","survey-text","175","1292763","0.0-15.0-3.11","94240","List2A","black","woman","","","","","{""Q0"":""Ruth is being challenged by Kate""}","<img src=""stim_listA/challenge8.gif""style=""height:400px;""></stim_listA>","is being challenged by","","","","","",""
"null","<div style=""font-size:60px;"">+</div>","","html-keyboard-response","176","1293279","0.0-15.0-0.12","94240","List2A","black","woman","","","","null","","","","","","","","",""
"null","<img src=""stim_listA/oppose1.gif""style=""height:400px;""></stim_listA>","","html-keyboard-response","177","1295280","0.0-15.0-1.12","94240","List2A","black","woman","","","","null","","","","","","","","",""
"null","is opposing","","html-keyboard-response","178","1297288","0.0-15.0-2.12","94240","List2A","black","woman","","","","null","","","","","","","","",""
"5071.799999952316","","","survey-text","179","1302363","0.0-15.0-3.12","94240","List2A","black","woman","","","","","{""Q0"":""Jane is opposing Dave""}","<img src=""stim_listA/oppose1.gif""style=""height:400px;""></stim_listA>","is opposing","","","","","",""
"null","<div style=""font-size:60px;"">+</div>","","html-keyboard-response","180","1302880","0.0-15.0-0.13","94240","List2A","black","woman","","","","null","","","","","","","","",""
"null","<img src=""stim_listA/shout4.gif""style=""height:400px;""></stim_listA>","","html-keyboard-response","181","1304890","0.0-15.0-1.13","94240","List2A","black","woman","","","","null","","","","","","","","",""
"null","is being shouted at by","","html-keyboard-response","182","1306891","0.0-15.0-2.13","94240","List2A","black","woman","","","","null","","","","","","","","",""
"6500.900000095367","","","survey-text","183","1313395","0.0-15.0-3.13","94240","List2A","black","woman","","","","","{""Q0"":""Kate is being shouted at by Mike""}","<img src=""stim_listA/shout4.gif""style=""height:400px;""></stim_listA>","is being shouted at by","","","","","",""
"null","<div style=""font-size:60px;"">+</div>","","html-keyboard-response","184","1313898","0.0-15.0-0.14","94240","List2A","black","woman","","","","null","","","","","","","","",""
"null","<img src=""stim_listA/kiss7.gif""style=""height:400px;""></stim_listA>","","html-keyboard-response","185","1315901","0.0-15.0-1.14","94240","List2A","black","woman","","","","null","","","","","","","","",""
"null","is kissing","","html-keyboard-response","186","1317910","0.0-15.0-2.14","94240","List2A","black","woman","","","","null","","","","","","","","",""
"7042.5","","","survey-text","187","1324955","0.0-15.0-3.14","94240","List2A","black","woman","","","","","{""Q0"":""Beth is kissing Ruth""}","<img src=""stim_listA/kiss7.gif""style=""height:400px;""></stim_listA>","is kissing","","","","","",""
"null","<div style=""font-size:60px;"">+</div>","","html-keyboard-response","188","1325464","0.0-15.0-0.15","94240","List2A","black","woman","","","","null","","","","","","","","",""
"null","<img src=""stim_listA/touch4.gif""style=""height:400px;""></stim_listA>","","html-keyboard-response","189","1327467","0.0-15.0-1.15","94240","List2A","black","woman","","","","null","","","","","","","","",""
"null","is being touched by","","html-keyboard-response","190","1329480","0.0-15.0-2.15","94240","List2A","black","woman","","","","null","","","","","","","","",""
"7671.099999904633","","","survey-text","191","1337156","0.0-15.0-3.15","94240","List2A","black","woman","","","","","{""Q0"":""Beth is being touched by Fred""}","<img src=""stim_listA/touch4.gif""style=""height:400px;""></stim_listA>","is being touched by","","","","","",""
"null","<div style=""font-size:60px;"">+</div>","","html-keyboard-response","192","1337658","0.0-15.0-0.16","94240","List2A","black","woman","","","","null","","","","","","","","",""
"null","<img src=""stim_listA/seduce5.gif""style=""height:400px;""></stim_listA>","","html-keyboard-response","193","1339672","0.0-15.0-1.16","94240","List2A","black","woman","","","","null","","","","","","","","",""
"null","is seducing","","html-keyboard-response","194","1341675","0.0-15.0-2.16","94240","List2A","black","woman","","","","null","","","","","","","","",""
"4248.799999952316","","","survey-text","195","1345927","0.0-15.0-3.16","94240","List2A","black","woman","","","","","{""Q0"":""Mike is seducing Luke""}","<img src=""stim_listA/seduce5.gif""style=""height:400px;""></stim_listA>","is seducing","","","","","",""
"null","<div style=""font-size:60px;"">+</div>","","html-keyboard-response","196","1346433","0.0-15.0-0.17","94240","List2A","black","woman","","","","null","","","","","","","","",""
"null","<img src=""stim_listA/copy7.gif""style=""height:400px;""></stim_listA>","","html-keyboard-response","197","1348436","0.0-15.0-1.17","94240","List2A","black","woman","","","","null","","","","","","","","",""
"null","is copying","","html-keyboard-response","198","1350443","0.0-15.0-2.17","94240","List2A","black","woman","","","","null","","","","","","","","",""
"5280","","","survey-text","199","1355726","0.0-15.0-3.17","94240","List2A","black","woman","","","","","{""Q0"":""Beth is copying Jane""}","<img src=""stim_listA/copy7.gif""style=""height:400px;""></stim_listA>","is copying","","","","","",""
"null","<div style=""font-size:60px;"">+</div>","","html-keyboard-response","200","1356241","0.0-15.0-0.18","94240","List2A","black","woman","","","","null","","","","","","","","",""
"null","<img src=""stim_listA/challenge4.gif""style=""height:400px;""></stim_listA>","","html-keyboard-response","201","1358244","0.0-15.0-1.18","94240","List2A","black","woman","","","","null","","","","","","","","",""
"null","is being challenged by","","html-keyboard-response","202","1360248","0.0-15.0-2.18","94240","List2A","black","woman","","","","null","","","","","","","","",""
"12850.399999856949","","","survey-text","203","1373101","0.0-15.0-3.18","94240","List2A","black","woman","","","","","{""Q0"":""Kate is being challenged by Fred""}","<img src=""stim_listA/challenge4.gif""style=""height:400px;""></stim_listA>","is being challenged by","","","","","",""
"null","<div style=""font-size:60px;"">+</div>","","html-keyboard-response","204","1373608","0.0-15.0-0.19","94240","List2A","black","woman","","","","null","","","","","","","","",""
"null","<img src=""stim_listA/greet7.gif""style=""height:400px;""></stim_listA>","","html-keyboard-response","205","1375620","0.0-15.0-1.19","94240","List2A","black","woman","","","","null","","","","","","","","",""
"null","is greeting","","html-keyboard-response","206","1377625","0.0-15.0-2.19","94240","List2A","black","woman","","","","null","","","","","","","","",""
"4590.5","","","survey-text","207","1382220","0.0-15.0-3.19","94240","List2A","black","woman","","","","","{""Q0"":""Beth is greeting Jane""}","<img src=""stim_listA/greet7.gif""style=""height:400px;""></stim_listA>","is greeting","","","","","",""
"9591.600000143051","<img src='img/portrait_matrix_list2.jpg' style='width:900px;height:500px;''></img><p>If you have memorised all the portraits and names and are ready to start, press Continue.</p><p><strong>Please note: Your memory of these faces will be tested 4 times during this experiment.</strong></p>","0","html-button-response","208","1391814","0.0-16.0-0.0","94240","List2A","black","woman","","","","","","","","","","","","",""
"2150.699999809265","<img src=""portrait/WW2.jpg""style=""height:400px;""></img>","3","html-button-response","209","1394974","0.0-16.0-1.0","94240","List2A","black","woman","","true","3","","","","","","","","","",""
"null","CORRECT","","html-keyboard-response","210","1396490","0.0-16.0-2.0-0.0","94240","List2A","black","woman","","","","null","","","","","","","","",""
"1593.9000000953674","<img src=""portrait/WW1.jpg""style=""height:400px;""></img>","1","html-button-response","211","1398086","0.0-16.0-4.0","94240","List2A","black","woman","","true","1","","","","","","","","","",""
"null","CORRECT","","html-keyboard-response","212","1399593","0.0-16.0-5.0-0.0","94240","List2A","black","woman","","","","null","","","","","","","","",""
"1610.7000000476837","<img src=""portrait/BM1.jpg""style=""height:400px;""></img>","4","html-button-response","213","1401206","0.0-16.0-7.0","94240","List2A","black","woman","","true","4","","","","","","","","","",""
"null","CORRECT","","html-keyboard-response","214","1402725","0.0-16.0-8.0-0.0","94240","List2A","black","woman","","","","null","","","","","","","","",""
"2350.2999999523163","<img src=""portrait/BW1.jpg""style=""height:400px;""></img>","0","html-button-response","215","1405078","0.0-16.0-10.0","94240","List2A","black","woman","","true","0","","","","","","","","","",""
"null","CORRECT","","html-keyboard-response","216","1406591","0.0-16.0-11.0-0.0","94240","List2A","black","woman","","","","null","","","","","","","","",""
"7285.600000143051","<img src=""portrait/WM1.jpg""style=""height:400px;""></img>","6","html-button-response","217","1413878","0.0-16.0-13.0","94240","List2A","black","woman","","true","6","","","","","","","","","",""
"null","CORRECT","","html-keyboard-response","218","1415394","0.0-16.0-14.0-0.0","94240","List2A","black","woman","","","","null","","","","","","","","",""
"2898.899999856949","<img src=""portrait/BM2.jpg""style=""height:400px;""></img>","5","html-button-response","219","1418293","0.0-16.0-16.0","94240","List2A","black","woman","","true","5","","","","","","","","","",""
"null","CORRECT","","html-keyboard-response","220","1419809","0.0-16.0-17.0-0.0","94240","List2A","black","woman","","","","null","","","","","","","","",""
"3259.5999999046326","<img src=""portrait/WM2.jpg""style=""height:400px;""></img>","7","html-button-response","221","1423070","0.0-16.0-19.0","94240","List2A","black","woman","","true","7","","","","","","","","","",""
"null","CORRECT","","html-keyboard-response","222","1424572","0.0-16.0-20.0-0.0","94240","List2A","black","woman","","","","null","","","","","","","","",""
"2343.899999856949","<img src=""portrait/BW2.jpg""style=""height:400px;""></img>","2","html-button-response","223","1426917","0.0-16.0-22.0","94240","List2A","black","woman","","true","2","","","","","","","","","",""
"null","CORRECT","","html-keyboard-response","224","1428431","0.0-16.0-23.0-0.0","94240","List2A","black","woman","","","","null","","","","","","","","",""
"675.5","<p>You got 8 out of 8 right first time. Press Continue.</p>","0","html-button-response","225","1429110","0.0-16.0-25.0","94240","List2A","black","woman","","","","","","","","","","","","",""
"null","<div style=""font-size:60px;"">+</div>","","html-keyboard-response","226","1430634","0.0-17.0-0.0","94240","List2A","black","woman","","","","null","","","","","","","","",""
"null","<img src=""stim_listA/shout7.gif""style=""height:400px;""></stim_listA>","","html-keyboard-response","227","1432647","0.0-17.0-1.0","94240","List2A","black","woman","","","","null","","","","","","","","",""
"null","is shouting at","","html-keyboard-response","228","1434649","0.0-17.0-2.0","94240","List2A","black","woman","","","","null","","","","","","","","",""
"8115.400000095367","","","survey-text","229","1442769","0.0-17.0-3.0","94240","List2A","black","woman","","","","","{""Q0"":""Ruth is shouting at Beth""}","<img src=""stim_listA/shout7.gif""style=""height:400px;""></stim_listA>","is shouting at","","","","","",""
"null","<div style=""font-size:60px;"">+</div>","","html-keyboard-response","230","1443279","0.0-17.0-0.1","94240","List2A","black","woman","","","","null","","","","","","","","",""
"null","<img src=""stim_listA/copy4.gif""style=""height:400px;""></stim_listA>","","html-keyboard-response","231","1445293","0.0-17.0-1.1","94240","List2A","black","woman","","","","null","","","","","","","","",""
"null","is being copied by","","html-keyboard-response","232","1447309","0.0-17.0-2.1","94240","List2A","black","woman","","","","null","","","","","","","","",""
"6922.700000047684","","","survey-text","233","1454234","0.0-17.0-3.1","94240","List2A","black","woman","","","","","{""Q0"":""Fred is being copied by Kate""}","<img src=""stim_listA/copy4.gif""style=""height:400px;""></stim_listA>","is being copied by","","","","","",""
"null","<div style=""font-size:60px;"">+</div>","","html-keyboard-response","234","1454745","0.0-17.0-0.2","94240","List2A","black","woman","","","","null","","","","","","","","",""
"null","<img src=""stim_listA/seduce6.gif""style=""height:400px;""></stim_listA>","","html-keyboard-response","235","1456754","0.0-17.0-1.2","94240","List2A","black","woman","","","","null","","","","","","","","",""
"null","is being seduced by","","html-keyboard-response","236","1458760","0.0-17.0-2.2","94240","List2A","black","woman","","","","null","","","","","","","","",""
"5839.5","","","survey-text","237","1464603","0.0-17.0-3.2","94240","List2A","black","woman","","","","","{""Q0"":""Fred is being seduced by Dave""}","<img src=""stim_listA/seduce6.gif""style=""height:400px;""></stim_listA>","is being seduced by","","","","","",""
"null","<div style=""font-size:60px;"">+</div>","","html-keyboard-response","238","1465109","0.0-17.0-0.3","94240","List2A","black","woman","","","","null","","","","","","","","",""
"null","<img src=""stim_listA/look3.gif""style=""height:400px;""></stim_listA>","","html-keyboard-response","239","1467119","0.0-17.0-1.3","94240","List2A","black","woman","","","","null","","","","","","","","",""
"null","is looking at","","html-keyboard-response","240","1469133","0.0-17.0-2.3","94240","List2A","black","woman","","","","null","","","","","","","","",""
"5709","","","survey-text","241","1474846","0.0-17.0-3.3","94240","List2A","black","woman","","","","","{""Q0"":""Beth is looking at Fred""}","<img src=""stim_listA/look3.gif""style=""height:400px;""></stim_listA>","is looking at","","","","","",""
"null","<div style=""font-size:60px;"">+</div>","","html-keyboard-response","242","1475360","0.0-17.0-0.4","94240","List2A","black","woman","","","","null","","","","","","","","",""
"null","<img src=""stim_listA/hug3.gif""style=""height:400px;""></stim_listA>","","html-keyboard-response","243","1477364","0.0-17.0-1.4","94240","List2A","black","woman","","","","null","","","","","","","","",""
"null","is hugging","","html-keyboard-response","244","1479366","0.0-17.0-2.4","94240","List2A","black","woman","","","","null","","","","","","","","",""
"5124.600000143051","","","survey-text","245","1484493","0.0-17.0-3.4","94240","List2A","black","woman","","","","","{""Q0"":""Beth is hugging Fred""}","<img src=""stim_listA/hug3.gif""style=""height:400px;""></stim_listA>","is hugging","","","","","",""
"null","<div style=""font-size:60px;"">+</div>","","html-keyboard-response","246","1485006","0.0-17.0-0.5","94240","List2A","black","woman","","","","null","","","","","","","","",""
"null","<img src=""stim_listA/greet1.gif""style=""height:400px;""></stim_listA>","","html-keyboard-response","247","1487009","0.0-17.0-1.5","94240","List2A","black","woman","","","","null","","","","","","","","",""
"null","is greeting","","html-keyboard-response","248","1489011","0.0-17.0-2.5","94240","List2A","black","woman","","","","null","","","","","","","","",""
"6109.899999856949","","","survey-text","249","1495125","0.0-17.0-3.5","94240","List2A","black","woman","","","","","{""Q0"":""Ruth is waving at Dave""}","<img src=""stim_listA/greet1.gif""style=""height:400px;""></stim_listA>","is greeting","","","","","",""
"null","<div style=""font-size:60px;"">+</div>","","html-keyboard-response","250","1495637","0.0-17.0-0.6","94240","List2A","black","woman","","","","null","","","","","","","","",""
"null","<img src=""stim_listA/seduce3.gif""style=""height:400px;""></stim_listA>","","html-keyboard-response","251","1497650","0.0-17.0-1.6","94240","List2A","black","woman","","","","null","","","","","","","","",""
"null","is seducing","","html-keyboard-response","252","1499668","0.0-17.0-2.6","94240","List2A","black","woman","","","","null","","","","","","","","",""
"3260.199999809265","","","survey-text","253","1502929","0.0-17.0-3.6","94240","List2A","black","woman","","","","","{""Q0"":""Fred is seducing Kate""}","<img src=""stim_listA/seduce3.gif""style=""height:400px;""></stim_listA>","is seducing","","","","","",""
"null","<div style=""font-size:60px;"">+</div>","","html-keyboard-response","254","1503432","0.0-17.0-0.7","94240","List2A","black","woman","","","","null","","","","","","","","",""
"null","<img src=""stim_listA/seduce1.gif""style=""height:400px;""></stim_listA>","","html-keyboard-response","255","1505448","0.0-17.0-1.7","94240","List2A","black","woman","","","","null","","","","","","","","",""
"null","is seducing","","html-keyboard-response","256","1507451","0.0-17.0-2.7","94240","List2A","black","woman","","","","null","","","","","","","","",""
"5023.399999856949","","","survey-text","257","1512479","0.0-17.0-3.7","94240","List2A","black","woman","","","","","{""Q0"":""Jane is seducing Luke""}","<img src=""stim_listA/seduce1.gif""style=""height:400px;""></stim_listA>","is seducing","","","","","",""
"null","<div style=""font-size:60px;"">+</div>","","html-keyboard-response","258","1512986","0.0-17.0-0.8","94240","List2A","black","woman","","","","null","","","","","","","","",""
"null","<img src=""stim_listA/copy3.gif""style=""height:400px;""></stim_listA>","","html-keyboard-response","259","1514990","0.0-17.0-1.8","94240","List2A","black","woman","","","","null","","","","","","","","",""
"null","is copying","","html-keyboard-response","260","1517007","0.0-17.0-2.8","94240","List2A","black","woman","","","","null","","","","","","","","",""
"12277.400000095367","","","survey-text","261","1529288","0.0-17.0-3.8","94240","List2A","black","woman","","","","","{""Q0"":""Beth is copying Mike""}","<img src=""stim_listA/copy3.gif""style=""height:400px;""></stim_listA>","is copying","","","","","",""
"null","<div style=""font-size:60px;"">+</div>","","html-keyboard-response","262","1529799","0.0-17.0-0.9","94240","List2A","black","woman","","","","null","","","","","","","","",""
"null","<img src=""stim_listA/greet6.gif""style=""height:400px;""></stim_listA>","","html-keyboard-response","263","1531802","0.0-17.0-1.9","94240","List2A","black","woman","","","","null","","","","","","","","",""
"null","is being greeted by","","html-keyboard-response","264","1533815","0.0-17.0-2.9","94240","List2A","black","woman","","","","null","","","","","","","","",""
"7107","","","survey-text","265","1540924","0.0-17.0-3.9","94240","List2A","black","woman","","","","","{""Q0"":""Luke is being greeted by Mike""}","<img src=""stim_listA/greet6.gif""style=""height:400px;""></stim_listA>","is being greeted by","","","","","",""
"null","<div style=""font-size:60px;"">+</div>","","html-keyboard-response","266","1541433","0.0-17.0-0.10","94240","List2A","black","woman","","","","null","","","","","","","","",""
"null","<img src=""stim_listA/oppose2.gif""style=""height:400px;""></stim_listA>","","html-keyboard-response","267","1543437","0.0-17.0-1.10","94240","List2A","black","woman","","","","null","","","","","","","","",""
"null","is being opposed by","","html-keyboard-response","268","1545446","0.0-17.0-2.10","94240","List2A","black","woman","","","","null","","","","","","","","",""
"8179","","","survey-text","269","1553629","0.0-17.0-3.10","94240","List2A","black","woman","","","","","{""Q0"":""Luke is being opposed by Ruth""}","<img src=""stim_listA/oppose2.gif""style=""height:400px;""></stim_listA>","is being opposed by","","","","","",""
"null","<div style=""font-size:60px;"">+</div>","","html-keyboard-response","270","1554141","0.0-17.0-0.11","94240","List2A","black","woman","","","","null","","","","","","","","",""
"null","<img src=""stim_listA/challenge7.gif""style=""height:400px;""></stim_listA>","","html-keyboard-response","271","1556156","0.0-17.0-1.11","94240","List2A","black","woman","","","","null","","","","","","","","",""
"null","is challenging","","html-keyboard-response","272","1558171","0.0-17.0-2.11","94240","List2A","black","woman","","","","null","","","","","","","","",""
"25430.60000014305","","","survey-text","273","1583605","0.0-17.0-3.11","94240","List2A","black","woman","","","","","{""Q0"":"" Jane is challenging Beth""}","<img src=""stim_listA/challenge7.gif""style=""height:400px;""></stim_listA>","is challenging","","","","","",""
"null","<div style=""font-size:60px;"">+</div>","","html-keyboard-response","274","1584110","0.0-17.0-0.12","94240","List2A","black","woman","","","","null","","","","","","","","",""
"null","<img src=""stim_listA/kiss3.gif""style=""height:400px;""></stim_listA>","","html-keyboard-response","275","1586120","0.0-17.0-1.12","94240","List2A","black","woman","","","","null","","","","","","","","",""
"null","is kissing","","html-keyboard-response","276","1588128","0.0-17.0-2.12","94240","List2A","black","woman","","","","null","","","","","","","","",""
"7842.099999904633","","","survey-text","277","1595974","0.0-17.0-3.12","94240","List2A","black","woman","","","","","{""Q0"":""Beth is kissing Fred""}","<img src=""stim_listA/kiss3.gif""style=""height:400px;""></stim_listA>","is kissing","","","","","",""
"null","<div style=""font-size:60px;"">+</div>","","html-keyboard-response","278","1596488","0.0-17.0-0.13","94240","List2A","black","woman","","","","null","","","","","","","","",""
"null","<img src=""stim_listA/seduce2.gif""style=""height:400px;""></stim_listA>","","html-keyboard-response","279","1598504","0.0-17.0-1.13","94240","List2A","black","woman","","","","null","","","","","","","","",""
"null","is being seduced by","","html-keyboard-response","280","1600515","0.0-17.0-2.13","94240","List2A","black","woman","","","","null","","","","","","","","",""
"8245.599999904633","","","survey-text","281","1608766","0.0-17.0-3.13","94240","List2A","black","woman","","","","","{""Q0"":""Ruth is being seduced by Dave""}","<img src=""stim_listA/seduce2.gif""style=""height:400px;""></stim_listA>","is being seduced by","","","","","",""
"null","<div style=""font-size:60px;"">+</div>","","html-keyboard-response","282","1609273","0.0-17.0-0.14","94240","List2A","black","woman","","","","null","","","","","","","","",""
"null","<img src=""stim_listA/look5.gif""style=""height:400px;""></stim_listA>","","html-keyboard-response","283","1611290","0.0-17.0-1.14","94240","List2A","black","woman","","","","null","","","","","","","","",""
"null","is looking at","","html-keyboard-response","284","1613294","0.0-17.0-2.14","94240","List2A","black","woman","","","","null","","","","","","","","",""
"5252.900000095367","","","survey-text","285","1618550","0.0-17.0-3.14","94240","List2A","black","woman","","","","","{""Q0"":""Fred is looking at Luke""}","<img src=""stim_listA/look5.gif""style=""height:400px;""></stim_listA>","is looking at","","","","","",""
"null","<div style=""font-size:60px;"">+</div>","","html-keyboard-response","286","1619052","0.0-17.0-0.15","94240","List2A","black","woman","","","","null","","","","","","","","",""
"null","<img src=""stim_listA/look4.gif""style=""height:400px;""></stim_listA>","","html-keyboard-response","287","1621057","0.0-17.0-1.15","94240","List2A","black","woman","","","","null","","","","","","","","",""
"null","is being looked at by","","html-keyboard-response","288","1623071","0.0-17.0-2.15","94240","List2A","black","woman","","","","null","","","","","","","","",""
"5736.899999856949","","","survey-text","289","1628814","0.0-17.0-3.15","94240","List2A","black","woman","","","","","{""Q0"":""Kate is looking at Mike""}","<img src=""stim_listA/look4.gif""style=""height:400px;""></stim_listA>","is being looked at by","","","","","",""
"null","<div style=""font-size:60px;"">+</div>","","html-keyboard-response","290","1629327","0.0-17.0-0.16","94240","List2A","black","woman","","","","null","","","","","","","","",""
"null","<img src=""stim_listA/hug7.gif""style=""height:400px;""></stim_listA>","","html-keyboard-response","291","1631328","0.0-17.0-1.16","94240","List2A","black","woman","","","","null","","","","","","","","",""
"null","is hugging","","html-keyboard-response","292","1633343","0.0-17.0-2.16","94240","List2A","black","woman","","","","null","","","","","","","","",""
"8801.800000190735","","","survey-text","293","1642148","0.0-17.0-3.16","94240","List2A","black","woman","","","","","{""Q0"":""Beth is hugging Ruth""}","<img src=""stim_listA/hug7.gif""style=""height:400px;""></stim_listA>","is hugging","","","","","",""
"null","<div style=""font-size:60px;"">+</div>","","html-keyboard-response","294","1642653","0.0-17.0-0.17","94240","List2A","black","woman","","","","null","","","","","","","","",""
"null","<img src=""stim_listA/shout5.gif""style=""height:400px;""></stim_listA>","","html-keyboard-response","295","1644665","0.0-17.0-1.17","94240","List2A","black","woman","","","","null","","","","","","","","",""
"null","is shouting at","","html-keyboard-response","296","1646676","0.0-17.0-2.17","94240","List2A","black","woman","","","","null","","","","","","","","",""
"5460","","","survey-text","297","1652139","0.0-17.0-3.17","94240","List2A","black","woman","","","","","{""Q0"":""Fred is shouting at Luke""}","<img src=""stim_listA/shout5.gif""style=""height:400px;""></stim_listA>","is shouting at","","","","","",""
"null","<div style=""font-size:60px;"">+</div>","","html-keyboard-response","298","1652655","0.0-17.0-0.18","94240","List2A","black","woman","","","","null","","","","","","","","",""
"null","<img src=""stim_listA/greet2.gif""style=""height:400px;""></stim_listA>","","html-keyboard-response","299","1654668","0.0-17.0-1.18","94240","List2A","black","woman","","","","null","","","","","","","","",""
"null","is being greeted by","","html-keyboard-response","300","1656683","0.0-17.0-2.18","94240","List2A","black","woman","","","","null","","","","","","","","",""
"6124.700000047684","","","survey-text","301","1662811","0.0-17.0-3.18","94240","List2A","black","woman","","","","","{""Q0"":""Luke is being greeted by Jane""}","<img src=""stim_listA/greet2.gif""style=""height:400px;""></stim_listA>","is being greeted by","","","","","",""
"null","<div style=""font-size:60px;"">+</div>","","html-keyboard-response","302","1663314","0.0-17.0-0.19","94240","List2A","black","woman","","","","null","","","","","","","","",""
"null","<img src=""stim_listA/seduce4.gif""style=""height:400px;""></stim_listA>","","html-keyboard-response","303","1665323","0.0-17.0-1.19","94240","List2A","black","woman","","","","null","","","","","","","","",""
"null","is being seduced by","","html-keyboard-response","304","1667337","0.0-17.0-2.19","94240","List2A","black","woman","","","","null","","","","","","","","",""
"6980.399999856949","","","survey-text","305","1674322","0.0-17.0-3.19","94240","List2A","black","woman","","","","","{""Q0"":""Beth is being seduced by Mike""}","<img src=""stim_listA/seduce4.gif""style=""height:400px;""></stim_listA>","is being seduced by","","","","","",""
"16225.5","<img src='img/portrait_matrix_list2.jpg' style='width:900px;height:500px;''></img><p>If you have memorised all the portraits and names and are ready to start, press Continue.</p><p><strong>Please note: Your memory of these faces will be tested 4 times during this experiment.</strong></p>","0","html-button-response","306","1690549","0.0-18.0-0.0","94240","List2A","black","woman","","","","","","","","","","","","",""
"2385.7000000476837","<img src=""portrait/BM2.jpg""style=""height:400px;""></img>","5","html-button-response","307","1693941","0.0-18.0-1.0","94240","List2A","black","woman","","true","5","","","","","","","","","",""
"null","CORRECT","","html-keyboard-response","308","1695458","0.0-18.0-2.0-0.0","94240","List2A","black","woman","","","","null","","","","","","","","",""
"3025.7000000476837","<img src=""portrait/WM1.jpg""style=""height:400px;""></img>","6","html-button-response","309","1698485","0.0-18.0-4.0","94240","List2A","black","woman","","true","6","","","","","","","","","",""
"null","CORRECT","","html-keyboard-response","310","1699989","0.0-18.0-5.0-0.0","94240","List2A","black","woman","","","","null","","","","","","","","",""
"3206.5","<img src=""portrait/WW1.jpg""style=""height:400px;""></img>","1","html-button-response","311","1703197","0.0-18.0-7.0","94240","List2A","black","woman","","true","1","","","","","","","","","",""
"null","CORRECT","","html-keyboard-response","312","1704714","0.0-18.0-8.0-0.0","94240","List2A","black","woman","","","","null","","","","","","","","",""
"1970.7000000476837","<img src=""portrait/BW2.jpg""style=""height:400px;""></img>","2","html-button-response","313","1706685","0.0-18.0-10.0","94240","List2A","black","woman","","true","2","","","","","","","","","",""
"null","CORRECT","","html-keyboard-response","314","1708199","0.0-18.0-11.0-0.0","94240","List2A","black","woman","","","","null","","","","","","","","",""
"1485.0999999046326","<img src=""portrait/WW2.jpg""style=""height:400px;""></img>","3","html-button-response","315","1709685","0.0-18.0-13.0","94240","List2A","black","woman","","true","3","","","","","","","","","",""
"null","CORRECT","","html-keyboard-response","316","1711192","0.0-18.0-14.0-0.0","94240","List2A","black","woman","","","","null","","","","","","","","",""
"4371.700000047684","<img src=""portrait/BW1.jpg""style=""height:400px;""></img>","0","html-button-response","317","1715565","0.0-18.0-16.0","94240","List2A","black","woman","","true","0","","","","","","","","","",""
"null","CORRECT","","html-keyboard-response","318","1717080","0.0-18.0-17.0-0.0","94240","List2A","black","woman","","","","null","","","","","","","","",""
"1508.5999999046326","<img src=""portrait/BM1.jpg""style=""height:400px;""></img>","4","html-button-response","319","1718589","0.0-18.0-19.0","94240","List2A","black","woman","","true","4","","","","","","","","","",""
"null","CORRECT","","html-keyboard-response","320","1720098","0.0-18.0-20.0-0.0","94240","List2A","black","woman","","","","null","","","","","","","","",""
"2162.300000190735","<img src=""portrait/WM2.jpg""style=""height:400px;""></img>","7","html-button-response","321","1722261","0.0-18.0-22.0","94240","List2A","black","woman","","true","7","","","","","","","","","",""
"null","CORRECT","","html-keyboard-response","322","1723766","0.0-18.0-23.0-0.0","94240","List2A","black","woman","","","","null","","","","","","","","",""
"693","<p>You got 8 out of 8 right first time. Press Continue.</p>","0","html-button-response","323","1724461","0.0-18.0-25.0","94240","List2A","black","woman","","","","","","","","","","","","",""
"null","<div style=""font-size:60px;"">+</div>","","html-keyboard-response","324","1725982","0.0-19.0-0.0","94240","List2A","black","woman","","","","null","","","","","","","","",""
"null","<img src=""stim_listA/oppose3.gif""style=""height:400px;""></stim_listA>","","html-keyboard-response","325","1727993","0.0-19.0-1.0","94240","List2A","black","woman","","","","null","","","","","","","","",""
"null","is opposing","","html-keyboard-response","326","1730006","0.0-19.0-2.0","94240","List2A","black","woman","","","","null","","","","","","","","",""
"4902.300000190735","","","survey-text","327","1734911","0.0-19.0-3.0","94240","List2A","black","woman","","","","","{""Q0"":""Kate is opposing Mike""}","<img src=""stim_listA/oppose3.gif""style=""height:400px;""></stim_listA>","is opposing","","","","","",""
"null","<div style=""font-size:60px;"">+</div>","","html-keyboard-response","328","1735416","0.0-19.0-0.1","94240","List2A","black","woman","","","","null","","","","","","","","",""
"null","<img src=""stim_listA/shout1.gif""style=""height:400px;""></stim_listA>","","html-keyboard-response","329","1737425","0.0-19.0-1.1","94240","List2A","black","woman","","","","null","","","","","","","","",""
"null","is shouting at","","html-keyboard-response","330","1739427","0.0-19.0-2.1","94240","List2A","black","woman","","","","null","","","","","","","","",""
"4521.099999904633","","","survey-text","331","1743951","0.0-19.0-3.1","94240","List2A","black","woman","","","","","{""Q0"":""Ruth is shouting at Luke""}","<img src=""stim_listA/shout1.gif""style=""height:400px;""></stim_listA>","is shouting at","","","","","",""
"null","<div style=""font-size:60px;"">+</div>","","html-keyboard-response","332","1744453","0.0-19.0-0.2","94240","List2A","black","woman","","","","null","","","","","","","","",""
"null","<img src=""stim_listA/copy8.gif""style=""height:400px;""></stim_listA>","","html-keyboard-response","333","1746470","0.0-19.0-1.2","94240","List2A","black","woman","","","","null","","","","","","","","",""
"null","is being copied by","","html-keyboard-response","334","1748478","0.0-19.0-2.2","94240","List2A","black","woman","","","","null","","","","","","","","",""
"6774.400000095367","","","survey-text","335","1755256","0.0-19.0-3.2","94240","List2A","black","woman","","","","","{""Q0"":""Kate is being copied by Ruth""}","<img src=""stim_listA/copy8.gif""style=""height:400px;""></stim_listA>","is being copied by","","","","","",""
"null","<div style=""font-size:60px;"">+</div>","","html-keyboard-response","336","1755761","0.0-19.0-0.3","94240","List2A","black","woman","","","","null","","","","","","","","",""
"null","<img src=""stim_listA/touch3.gif""style=""height:400px;""></stim_listA>","","html-keyboard-response","337","1757766","0.0-19.0-1.3","94240","List2A","black","woman","","","","null","","","","","","","","",""
"null","is touching","","html-keyboard-response","338","1759782","0.0-19.0-2.3","94240","List2A","black","woman","","","","null","","","","","","","","",""
"3937.5999999046326","","","survey-text","339","1763724","0.0-19.0-3.3","94240","List2A","black","woman","","","","","{""Q0"":""Kate is touching Mike""}","<img src=""stim_listA/touch3.gif""style=""height:400px;""></stim_listA>","is touching","","","","","",""
"null","<div style=""font-size:60px;"">+</div>","","html-keyboard-response","340","1764226","0.0-19.0-0.4","94240","List2A","black","woman","","","","null","","","","","","","","",""
"null","<img src=""stim_listA/greet5.gif""style=""height:400px;""></stim_listA>","","html-keyboard-response","341","1766238","0.0-19.0-1.4","94240","List2A","black","woman","","","","null","","","","","","","","",""
"null","is greeting","","html-keyboard-response","342","1768250","0.0-19.0-2.4","94240","List2A","black","woman","","","","null","","","","","","","","",""
"5283.299999952316","","","survey-text","343","1773541","0.0-19.0-3.4","94240","List2A","black","woman","","","","","{""Q0"":""Dave is greeting Fred""}","<img src=""stim_listA/greet5.gif""style=""height:400px;""></stim_listA>","is greeting","","","","","",""
"null","<div style=""font-size:60px;"">+</div>","","html-keyboard-response","344","1774056","0.0-19.0-0.5","94240","List2A","black","woman","","","","null","","","","","","","","",""
"null","<img src=""stim_listA/look1.gif""style=""height:400px;""></stim_listA>","","html-keyboard-response","345","1776075","0.0-19.0-1.5","94240","List2A","black","woman","","","","null","","","","","","","","",""
"null","is looking at","","html-keyboard-response","346","1778084","0.0-19.0-2.5","94240","List2A","black","woman","","","","null","","","","","","","","",""
"5466.199999809265","","","survey-text","347","1783552","0.0-19.0-3.5","94240","List2A","black","woman","","","","","{""Q0"":""Ruth is looking at Luke""}","<img src=""stim_listA/look1.gif""style=""height:400px;""></stim_listA>","is looking at","","","","","",""
"null","<div style=""font-size:60px;"">+</div>","","html-keyboard-response","348","1784057","0.0-19.0-0.6","94240","List2A","black","woman","","","","null","","","","","","","","",""
"null","<img src=""stim_listA/kiss8.gif""style=""height:400px;""></stim_listA>","","html-keyboard-response","349","1786075","0.0-19.0-1.6","94240","List2A","black","woman","","","","null","","","","","","","","",""
"null","is being kissed by","","html-keyboard-response","350","1788092","0.0-19.0-2.6","94240","List2A","black","woman","","","","null","","","","","","","","",""
"6963.100000143051","","","survey-text","351","1795059","0.0-19.0-3.6","94240","List2A","black","woman","","","","","{""Q0"":""Kate is being kissed by Jane""}","<img src=""stim_listA/kiss8.gif""style=""height:400px;""></stim_listA>","is being kissed by","","","","","",""
"null","<div style=""font-size:60px;"">+</div>","","html-keyboard-response","352","1795560","0.0-19.0-0.7","94240","List2A","black","woman","","","","null","","","","","","","","",""
"null","<img src=""stim_listA/shout3.gif""style=""height:400px;""></stim_listA>","","html-keyboard-response","353","1797577","0.0-19.0-1.7","94240","List2A","black","woman","","","","null","","","","","","","","",""
"null","is shouting at","","html-keyboard-response","354","1799579","0.0-19.0-2.7","94240","List2A","black","woman","","","","null","","","","","","","","",""
"5347.900000095367","","","survey-text","355","1804930","0.0-19.0-3.7","94240","List2A","black","woman","","","","","{""Q0"":""Fred is shouting at Beth""}","<img src=""stim_listA/shout3.gif""style=""height:400px;""></stim_listA>","is shouting at","","","","","",""
"null","<div style=""font-size:60px;"">+</div>","","html-keyboard-response","356","1805432","0.0-19.0-0.8","94240","List2A","black","woman","","","","null","","","","","","","","",""
"null","<img src=""stim_listA/kiss1.gif""style=""height:400px;""></stim_listA>","","html-keyboard-response","357","1807450","0.0-19.0-1.8","94240","List2A","black","woman","","","","null","","","","","","","","",""
"null","is kissing","","html-keyboard-response","358","1809452","0.0-19.0-2.8","94240","List2A","black","woman","","","","null","","","","","","","","",""
"7825.100000143051","","","survey-text","359","1817279","0.0-19.0-3.8","94240","List2A","black","woman","","","","","{""Q0"":""Luke is kissing Ruth""}","<img src=""stim_listA/kiss1.gif""style=""height:400px;""></stim_listA>","is kissing","","","","","",""
"null","<div style=""font-size:60px;"">+</div>","","html-keyboard-response","360","1817793","0.0-19.0-0.9","94240","List2A","black","woman","","","","null","","","","","","","","",""
"null","<img src=""stim_listA/touch2.gif""style=""height:400px;""></stim_listA>","","html-keyboard-response","361","1819809","0.0-19.0-1.9","94240","List2A","black","woman","","","","null","","","","","","","","",""
"null","is being touched by","","html-keyboard-response","362","1821816","0.0-19.0-2.9","94240","List2A","black","woman","","","","null","","","","","","","","",""
"4402","","","survey-text","363","1826221","0.0-19.0-3.9","94240","List2A","black","woman","","","","","{""Q0"":""Ruth is being touched by Luke""}","<img src=""stim_listA/touch2.gif""style=""height:400px;""></stim_listA>","is being touched by","","","","","",""
"null","<div style=""font-size:60px;"">+</div>","","html-keyboard-response","364","1826732","0.0-19.0-0.10","94240","List2A","black","woman","","","","null","","","","","","","","",""
"null","<img src=""stim_listA/shout8.gif""style=""height:400px;""></stim_listA>","","html-keyboard-response","365","1828735","0.0-19.0-1.10","94240","List2A","black","woman","","","","null","","","","","","","","",""
"null","is being shouted at by","","html-keyboard-response","366","1830744","0.0-19.0-2.10","94240","List2A","black","woman","","","","null","","","","","","","","",""
"5409.900000095367","","","survey-text","367","1836157","0.0-19.0-3.10","94240","List2A","black","woman","","","","","{""Q0"":""Kate is being shouted at by Jane""}","<img src=""stim_listA/shout8.gif""style=""height:400px;""></stim_listA>","is being shouted at by","","","","","",""
"null","<div style=""font-size:60px;"">+</div>","","html-keyboard-response","368","1836662","0.0-19.0-0.11","94240","List2A","black","woman","","","","null","","","","","","","","",""
"null","<img src=""stim_listA/touch1.gif""style=""height:400px;""></stim_listA>","","html-keyboard-response","369","1838677","0.0-19.0-1.11","94240","List2A","black","woman","","","","null","","","","","","","","",""
"null","is touching","","html-keyboard-response","370","1840688","0.0-19.0-2.11","94240","List2A","black","woman","","","","null","","","","","","","","",""
"5184.5","","","survey-text","371","1845876","0.0-19.0-3.11","94240","List2A","black","woman","","","","","{""Q0"":""Dave is touching Jane""}","<img src=""stim_listA/touch1.gif""style=""height:400px;""></stim_listA>","is touching","","","","","",""
"null","<div style=""font-size:60px;"">+</div>","","html-keyboard-response","372","1846378","0.0-19.0-0.12","94240","List2A","black","woman","","","","null","","","","","","","","",""
"null","<img src=""stim_listA/kiss6.gif""style=""height:400px;""></stim_listA>","","html-keyboard-response","373","1848387","0.0-19.0-1.12","94240","List2A","black","woman","","","","null","","","","","","","","",""
"null","is being kissed by","","html-keyboard-response","374","1850391","0.0-19.0-2.12","94240","List2A","black","woman","","","","null","","","","","","","","",""
"4846.299999952316","","","survey-text","375","1855240","0.0-19.0-3.12","94240","List2A","black","woman","","","","","{""Q0"":""Mike is being kissed by Dave""}","<img src=""stim_listA/kiss6.gif""style=""height:400px;""></stim_listA>","is being kissed by","","","","","",""
"null","<div style=""font-size:60px;"">+</div>","","html-keyboard-response","376","1855747","0.0-19.0-0.13","94240","List2A","black","woman","","","","null","","","","","","","","",""
"null","<img src=""stim_listA/oppose8.gif""style=""height:400px;""></stim_listA>","","html-keyboard-response","377","1857753","0.0-19.0-1.13","94240","List2A","black","woman","","","","null","","","","","","","","",""
"null","is being opposed by","","html-keyboard-response","378","1859765","0.0-19.0-2.13","94240","List2A","black","woman","","","","null","","","","","","","","",""
"6208.400000095367","","","survey-text","379","1865976","0.0-19.0-3.13","94240","List2A","black","woman","","","","","{""Q0"":""Beth is being opposed by Ruth""}","<img src=""stim_listA/oppose8.gif""style=""height:400px;""></stim_listA>","is being opposed by","","","","","",""
"null","<div style=""font-size:60px;"">+</div>","","html-keyboard-response","380","1866491","0.0-19.0-0.14","94240","List2A","black","woman","","","","null","","","","","","","","",""
"null","<img src=""stim_listA/look6.gif""style=""height:400px;""></stim_listA>","","html-keyboard-response","381","1868494","0.0-19.0-1.14","94240","List2A","black","woman","","","","null","","","","","","","","",""
"null","is being looked at by","","html-keyboard-response","382","1870503","0.0-19.0-2.14","94240","List2A","black","woman","","","","null","","","","","","","","",""
"6603.299999952316","","","survey-text","383","1877108","0.0-19.0-3.14","94240","List2A","black","woman","","","","","{""Q0"":""Mike is being looked at by Dave""}","<img src=""stim_listA/look6.gif""style=""height:400px;""></stim_listA>","is being looked at by","","","","","",""
"null","<div style=""font-size:60px;"">+</div>","","html-keyboard-response","384","1877615","0.0-19.0-0.15","94240","List2A","black","woman","","","","null","","","","","","","","",""
"null","<img src=""stim_listA/greet4.gif""style=""height:400px;""></stim_listA>","","html-keyboard-response","385","1879622","0.0-19.0-1.15","94240","List2A","black","woman","","","","null","","","","","","","","",""
"null","is being greeted by","","html-keyboard-response","386","1881634","0.0-19.0-2.15","94240","List2A","black","woman","","","","null","","","","","","","","",""
"6627.600000143051","","","survey-text","387","1888266","0.0-19.0-3.15","94240","List2A","black","woman","","","","","{""Q0"":""Kate is being greeted by Fred""}","<img src=""stim_listA/greet4.gif""style=""height:400px;""></stim_listA>","is being greeted by","","","","","",""
"null","<div style=""font-size:60px;"">+</div>","","html-keyboard-response","388","1888777","0.0-19.0-0.16","94240","List2A","black","woman","","","","null","","","","","","","","",""
"null","<img src=""stim_listA/oppose5.gif""style=""height:400px;""></stim_listA>","","html-keyboard-response","389","1890794","0.0-19.0-1.16","94240","List2A","black","woman","","","","null","","","","","","","","",""
"null","is opposing","","html-keyboard-response","390","1892799","0.0-19.0-2.16","94240","List2A","black","woman","","","","null","","","","","","","","",""
"145361.69999980927","","","survey-text","391","2038170","0.0-19.0-3.16","94240","List2A","black","woman","","","","","{""Q0"":""Wasnt paying attention""}","<img src=""stim_listA/oppose5.gif""style=""height:400px;""></stim_listA>","is opposing","","","","","",""
"null","<div style=""font-size:60px;"">+</div>","","html-keyboard-response","392","2038680","0.0-19.0-0.17","94240","List2A","black","woman","","","","null","","","","","","","","",""
"null","<img src=""stim_listA/challenge3.gif""style=""height:400px;""></stim_listA>","","html-keyboard-response","393","2040698","0.0-19.0-1.17","94240","List2A","black","woman","","","","null","","","","","","","","",""
"null","is challenging","","html-keyboard-response","394","2042701","0.0-19.0-2.17","94240","List2A","black","woman","","","","null","","","","","","","","",""
"4867","","","survey-text","395","2047571","0.0-19.0-3.17","94240","List2A","black","woman","","","","","{""Q0"":""Mike is challenging Beth""}","<img src=""stim_listA/challenge3.gif""style=""height:400px;""></stim_listA>","is challenging","","","","","",""
"null","<div style=""font-size:60px;"">+</div>","","html-keyboard-response","396","2048075","0.0-19.0-0.18","94240","List2A","black","woman","","","","null","","","","","","","","",""
"null","<img src=""stim_listA/oppose7.gif""style=""height:400px;""></stim_listA>","","html-keyboard-response","397","2050077","0.0-19.0-1.18","94240","List2A","black","woman","","","","null","","","","","","","","",""
"null","is opposing","","html-keyboard-response","398","2052092","0.0-19.0-2.18","94240","List2A","black","woman","","","","null","","","","","","","","",""
"4450","","","survey-text","399","2056549","0.0-19.0-3.18","94240","List2A","black","woman","","","","","{""Q0"":""Kate is opposing Jane""}","<img src=""stim_listA/oppose7.gif""style=""height:400px;""></stim_listA>","is opposing","","","","","",""
"null","<div style=""font-size:60px;"">+</div>","","html-keyboard-response","400","2057053","0.0-19.0-0.19","94240","List2A","black","woman","","","","null","","","","","","","","",""
"null","<img src=""stim_listA/challenge1.gif""style=""height:400px;""></stim_listA>","","html-keyboard-response","401","2059056","0.0-19.0-1.19","94240","List2A","black","woman","","","","null","","","","","","","","",""
"null","is challenging","","html-keyboard-response","402","2061057","0.0-19.0-2.19","94240","List2A","black","woman","","","","null","","","","","","","","",""
"5929.599999904633","","","survey-text","403","2066989","0.0-19.0-3.19","94240","List2A","black","woman","","","","","{""Q0"":""Dave is challenging Ruth ""}","<img src=""stim_listA/challenge1.gif""style=""height:400px;""></stim_listA>","is challenging","","","","","",""
"3118.300000190735","<p>Thank you for completing that task.</p><p>The final part of this session is a questionnaire that will take about 4 minutes.</p><p>Press Continue.</p>","0","html-button-response","404","2070108","0.0-20.0","94240","List2A","black","woman","","","","","","","","","","","","",""
"34384.5","","","survey-text","405","2105500","0.0-21.0","94240","List2A","black","woman","","","","","{""Q0"":""18"",""Q1"":""English"",""Q2"":""English"",""Q3"":""United States"",""Q4"":""American"",""Q5"":""Black"",""Q6"":""Female""}","","","demographics","","","","",""
"1645.9000000953674","<p>Have you lived in the USA for the last 5 years or more?</p>","0","html-button-response","406","2107148","0.0-22.0","94240","List2A","black","woman","","","","","","","","fiveyears","","","","",""
"2125.9000000953674","<p>Move the slider to show the extent to which you agree with the following statements.</p>","0","html-button-response","407","2110276","0.0-23.0","94240","List2A","black","woman","","","","","","","","","","","","",""
"7774.100000143051","","","html-slider-response","408","2119060","0.0-24.0-0.0-0.0","94240","List2A","black","woman","","","","","","","","survey_gender","75","","","I am glad to be my gender.","glad"
"12886.799999952316","","","html-slider-response","409","2131948","0.0-24.0-0.0-0.1","94240","List2A","black","woman","","","","","","","","survey_gender","83","","","People of my gender have a lot in common with each other.","common"
"7737.299999952316","","","html-slider-response","410","2139687","0.0-24.0-0.0-0.2","94240","List2A","black","woman","","","","","","","","survey_gender","0","","","The fact that I am my gender is an important part of my identity.","identity"
"2354.0999999046326","","","html-slider-response","411","2142044","0.0-24.0-0.0-0.3","94240","List2A","black","woman","","","","","","","","survey_gender","0","","","I feel committed to my gender.","committed"
"4438.700000047684","","","html-slider-response","412","2146485","0.0-24.0-0.0-0.4","94240","List2A","black","woman","","","","","","","","survey_gender","25","","","I am similar to the average person of my gender.","similar"
"18094.60000014305","","","html-slider-response","413","2164580","0.0-24.0-0.0-0.5","94240","List2A","black","woman","","","","","","","","survey_gender","34","","","Family is not more important to me than friendship.","filler"
"2462.5999999046326","","","html-slider-response","414","2167044","0.0-24.0-0.0-0.6","94240","List2A","black","woman","","","","","","","","survey_gender","61","","","My friends understand me.","filler"
"8431","","","html-slider-response","415","2175477","0.0-24.0-0.0-0.7","94240","List2A","black","woman","","","","","","","","survey_gender","51","","","Being my gender gives me a good feeling.","feeling"
"22391","","","html-slider-response","416","2197869","0.0-24.0-0.0-0.8","94240","List2A","black","woman","","","","","","","","survey_gender","74","","","It is not always easy for people to know what I am thinking.","filler"
"19198.60000014305","","","html-slider-response","417","2217068","0.0-24.0-0.0-0.9","94240","List2A","black","woman","","","","","","","","survey_gender","20","","","It is pleasant to be my gender.","pleasant"
"4255.299999952316","","","html-slider-response","418","2221325","0.0-24.0-0.0-0.10","94240","List2A","black","woman","","","","","","","","survey_gender","63","","","I am glad to have the friends that I have.","filler"
"2326.0999999046326","","","html-slider-response","419","2223652","0.0-24.0-0.0-0.11","94240","List2A","black","woman","","","","","","","","survey_gender","70","","","I feel a bond with my friends.","filler"
"1815.2000000476837","","","html-slider-response","420","2225468","0.0-24.0-0.0-0.12","94240","List2A","black","woman","","","","","","","","survey_gender","28","","","I feel solidarity with my gender.","solidarity"
"4447.399999856949","","","html-slider-response","421","2229917","0.0-24.0-0.0-0.13","94240","List2A","black","woman","","","","","","","","survey_gender","17","","","I have a lot in common with the average person of my gender.","average"
"15510.799999952316","","","html-slider-response","422","2245429","0.0-24.0-0.0-0.14","94240","List2A","black","woman","","","","","","","","survey_gender","88","","","I have a lot in common with my friends.","filler"
"2238.5","","","html-slider-response","423","2247669","0.0-24.0-0.0-0.15","94240","List2A","black","woman","","","","","","","","survey_gender","87","","","Being around my friends gives me a good feeling.","filler"
"3245.7000000476837","","","html-slider-response","424","2250916","0.0-24.0-0.0-0.16","94240","List2A","black","woman","","","","","","","","survey_gender","27","","","My friends have a lot in common with each other.","filler"
"7582.799999952316","","","html-slider-response","425","2258500","0.0-24.0-0.0-0.17","94240","List2A","black","woman","","","","","","","","survey_gender","86","","","Routine is not important to me.","filler"
"3038.7999999523163","","","html-slider-response","426","2261540","0.0-24.0-0.0-0.18","94240","List2A","black","woman","","","","","","","","survey_gender","8","","","People of my gender are very similar to each other.","verysimilar"
"4103.099999904633","","","html-slider-response","427","2265644","0.0-24.0-0.0-0.19","94240","List2A","black","woman","","","","","","","","survey_gender","0","","","Being my gender is an important part of how I see myself.","important"
"3375.5","","","html-slider-response","428","2269020","0.0-24.0-0.0-0.20","94240","List2A","black","woman","","","","","","","","survey_gender","97","","","I think that my gender has a lot to be proud of.","proud"
"2439.2000000476837","","","html-slider-response","429","2271461","0.0-24.0-0.0-0.21","94240","List2A","black","woman","","","","","","","","survey_gender","57","","","I feel a bond with my gender.","bond"
"3046.199999809265","","","html-slider-response","430","2274508","0.0-24.0-0.0-0.22","94240","List2A","black","woman","","","","","","","","survey_gender","96","","","I often think about my actions.","filler"
"10063.599999904633","","","html-slider-response","431","2284572","0.0-24.0-0.0-0.23","94240","List2A","black","woman","","","","","","","","survey_gender","0","","","I often think about the fact that I am my gender.","often"
"20302.099999904633","","","html-slider-response","432","2304876","0.0-24.0-0.0-0.24","94240","List2A","black","woman","","","","","","","","survey_gender","90","","","I consider myself a highly empathetic person.","filler"
"3238.7999999523163","","","html-slider-response","433","2308116","0.0-24.0-0.0-0.25","94240","List2A","black","woman","","","","","","","","survey_gender","59","","","Most of the friends in my life are very similar to me.","filler"
"1647.4000000953674","","","html-slider-response","434","2309764","0.0-24.0-0.0-0.26","94240","List2A","black","woman","","","","","","","","survey_gender","72","","","I feel solidarity with my friends.","filler"
"2886.5999999046326","","","html-slider-response","435","2312652","0.0-24.0-0.0-0.27","94240","List2A","black","woman","","","","","","","","survey_gender","83","","","I would say I am an animal person.","filler"
"25079","","","html-slider-response","436","2337732","0.0-24.0-1.0-0.0","94240","List2A","black","woman","","","","","","","","survey_race","81","","","People my age have a lot in common with each other.","filler"
"3718.699999809265","","","html-slider-response","437","2341452","0.0-24.0-1.0-0.1","94240","List2A","black","woman","","","","","","","","survey_race","36","","","People of my race are very similar to each other.","verysimilar"
"3607.199999809265","","","html-slider-response","438","2345060","0.0-24.0-1.0-0.2","94240","List2A","black","woman","","","","","","","","survey_race","59","","","I feel solidarity with people the same age as me.","filler"
"2511.2000000476837","","","html-slider-response","439","2347572","0.0-24.0-1.0-0.3","94240","List2A","black","woman","","","","","","","","survey_race","36","","","I enjoy being in large groups.","filler"
"12518.600000143051","","","html-slider-response","440","2360092","0.0-24.0-1.0-0.4","94240","List2A","black","woman","","","","","","","","survey_race","0","","","Getting older does not worry me.","filler"
"1798.5","","","html-slider-response","441","2361892","0.0-24.0-1.0-0.5","94240","List2A","black","woman","","","","","","","","survey_race","73","","","I am glad to be my race.","glad"
"2503.2999999523163","","","html-slider-response","442","2364396","0.0-24.0-1.0-0.6","94240","List2A","black","woman","","","","","","","","survey_race","20","","","Being my race is an important part of how I see myself.","important"
"5487.200000047684","","","html-slider-response","443","2369884","0.0-24.0-1.0-0.7","94240","List2A","black","woman","","","","","","","","survey_race","59","","","The fact that I am my race is an important part of my identity.","identity"
"15294.700000047684","","","html-slider-response","444","2385180","0.0-24.0-1.0-0.8","94240","List2A","black","woman","","","","","","","","survey_race","83","","","The older I get, the wiser I feel.","filler"
"2110.7999999523163","","","html-slider-response","445","2387292","0.0-24.0-1.0-0.9","94240","List2A","black","woman","","","","","","","","survey_race","80","","","I often think about the fact that I am my age.","filler"
"3143.4000000953674","","","html-slider-response","446","2390436","0.0-24.0-1.0-0.10","94240","List2A","black","woman","","","","","","","","survey_race","0","","","I consider myself an extrovert.","filler"
"1982.6999998092651","","","html-slider-response","447","2392420","0.0-24.0-1.0-0.11","94240","List2A","black","woman","","","","","","","","survey_race","20","","","I feel committed to my race.","committed"
"4415.599999904633","","","html-slider-response","448","2396836","0.0-24.0-1.0-0.12","94240","List2A","black","woman","","","","","","","","survey_race","49","","","I am glad to be the age I am.","filler"
"6718.199999809265","","","html-slider-response","449","2403556","0.0-24.0-1.0-0.13","94240","List2A","black","woman","","","","","","","","survey_race","61","","","People of my race have a lot in common with each other.","common"
"3414.7000000476837","","","html-slider-response","450","2406972","0.0-24.0-1.0-0.14","94240","List2A","black","woman","","","","","","","","survey_race","46","","","Being my age gives me a good feeling.","filler"
"3455.199999809265","","","html-slider-response","451","2410428","0.0-24.0-1.0-0.15","94240","List2A","black","woman","","","","","","","","survey_race","62","","","My age is not an important part of who I am.","filler"
"2071.100000143051","","","html-slider-response","452","2412500","0.0-24.0-1.0-0.16","94240","List2A","black","woman","","","","","","","","survey_race","94","","","I consider myself an introvert.","filler"
"4494.399999856949","","","html-slider-response","453","2416997","0.0-24.0-1.0-0.17","94240","List2A","black","woman","","","","","","","","survey_race","99","","","I think that my race has a lot to be proud of.","proud"
"9151.300000190735","","","html-slider-response","454","2426149","0.0-24.0-1.0-0.18","94240","List2A","black","woman","","","","","","","","survey_race","24","","","I have a lot in common with the average person of my race.","average"
"6789.900000095367","","","html-slider-response","455","2432940","0.0-24.0-1.0-0.19","94240","List2A","black","woman","","","","","","","","survey_race","66","","","I have a lot in common with people of a similar age to me.","filler"
"2359.2999999523163","","","html-slider-response","456","2435301","0.0-24.0-1.0-0.20","94240","List2A","black","woman","","","","","","","","survey_race","61","","","I often think about the fact that I am my race.","often"
"5039","","","html-slider-response","457","2440340","0.0-24.0-1.0-0.21","94240","List2A","black","woman","","","","","","","","survey_race","45","","","Being my race gives me a good feeling.","feeling"
"12175.299999952316","","","html-slider-response","458","2452517","0.0-24.0-1.0-0.22","94240","List2A","black","woman","","","","","","","","survey_race","54","","","I feel a bond with people the same age as me.","filler"
"2454.0999999046326","","","html-slider-response","459","2454972","0.0-24.0-1.0-0.23","94240","List2A","black","woman","","","","","","","","survey_race","41","","","It is pleasant to be my race.","pleasant"
"2183.2999999523163","","","html-slider-response","460","2457156","0.0-24.0-1.0-0.24","94240","List2A","black","woman","","","","","","","","survey_race","66","","","I feel solidarity with my race.","solidarity"
"3927.600000143051","","","html-slider-response","461","2461084","0.0-24.0-1.0-0.25","94240","List2A","black","woman","","","","","","","","survey_race","26","","","I am similar to the average person of my race.","similar"
"4350.700000047684","","","html-slider-response","462","2465436","0.0-24.0-1.0-0.26","94240","List2A","black","woman","","","","","","","","survey_race","29","","","I am glad to be my age.","filler"
"2142.9000000953674","","","html-slider-response","463","2467580","0.0-24.0-1.0-0.27","94240","List2A","black","woman","","","","","","","","survey_race","55","","","I feel a bond with my race.","bond"
"9910.799999952316","","","survey-text","464","2477492","0.0-25.0","94240","List2A","black","woman","","","","","{""Q0"":""6112954514d26b8900c497b8""}","","","worker_id","","","","",""
"4542.099999904633","","","external-html","465","2482436","0.0-26.0","94240","List2A","black","woman","debrief.html","","","","","","","","","","","",""
