"rt","stimulus","button_pressed","trial_type","trial_index","time_elapsed","internal_node_id","subject","list","ppt_race","ppt_gender","url","first_guess","correct","key_press","responses","image_type","phrase_type","test_part","response","stimulus1","stimulus2","question_type","survey_item"
"2740.8999996185303","Welcome to the experiment. Press Continue to begin.","0","html-button-response","0","2746","0.0-0.0","94990","List1A","black","woman","","","","","","","","","","","","",""
"26098.299999713898","","","external-html","1","29972","0.0-1.0","94990","List1A","black","woman","consent.html","","","","","","","","","","","",""
"12472.800000190735","<p>On the next page, you will see portraits of 8 people and their names.</p><p>Your first task is to take a few minutes to memorise the names of these people.</p><p>You will have to recall their names during the rest of the experiment, so it is</p><p>essential that you try to memorise these people and their names as best as you can.</p><br><p><strong>You will then be tested on your memory of these names and portraits.</strong></p><br><p>The experiment will start after you have completed this memory test.</p><br><p>Ready?</p>","0","html-button-response","2","42446","0.0-2.0","94990","List1A","black","woman","","","","","","","","","","","","",""
"142619.2999997139","<img src='img/portrait_matrix_list1.jpg' style='width:900px;height:500px;''></img><p>If you have memorised all the portraits and names and are ready to start, press Continue.</p><p><strong>Please note: Your memory of these faces will be tested 4 times during this experiment.</strong></p>","0","html-button-response","3","186082","0.0-3.0-0.0","94990","List1A","black","woman","","","","","","","","","","","","",""
"7846.599999904633","<img src=""portrait/BM1.jpg""style=""height:400px;""></img>","4","html-button-response","4","194931","0.0-3.0-1.0","94990","List1A","black","woman","","true","4","","","","","","","","","",""
"null","CORRECT","","html-keyboard-response","5","196442","0.0-3.0-2.0-0.0","94990","List1A","black","woman","","","","null","","","","","","","","",""
"12329.699999809265","<img src=""portrait/WW1.jpg""style=""height:400px;""></img>","1","html-button-response","6","208773","0.0-3.0-4.0","94990","List1A","black","woman","","true","1","","","","","","","","","",""
"null","CORRECT","","html-keyboard-response","7","210285","0.0-3.0-5.0-0.0","94990","List1A","black","woman","","","","null","","","","","","","","",""
"4231.400000095367","<img src=""portrait/BM2.jpg""style=""height:400px;""></img>","5","html-button-response","8","214518","0.0-3.0-7.0","94990","List1A","black","woman","","true","5","","","","","","","","","",""
"null","CORRECT","","html-keyboard-response","9","216026","0.0-3.0-8.0-0.0","94990","List1A","black","woman","","","","null","","","","","","","","",""
"5396.700000286102","<img src=""portrait/BW1.jpg""style=""height:400px;""></img>","0","html-button-response","10","221424","0.0-3.0-10.0","94990","List1A","black","woman","","true","0","","","","","","","","","",""
"null","CORRECT","","html-keyboard-response","11","222927","0.0-3.0-11.0-0.0","94990","List1A","black","woman","","","","null","","","","","","","","",""
"11722.199999809265","<img src=""portrait/WM2.jpg""style=""height:400px;""></img>","7","html-button-response","12","234650","0.0-3.0-13.0","94990","List1A","black","woman","","true","7","","","","","","","","","",""
"null","CORRECT","","html-keyboard-response","13","236165","0.0-3.0-14.0-0.0","94990","List1A","black","woman","","","","null","","","","","","","","",""
"6040.89999961853","<img src=""portrait/WW2.jpg""style=""height:400px;""></img>","3","html-button-response","14","242206","0.0-3.0-16.0","94990","List1A","black","woman","","true","3","","","","","","","","","",""
"null","CORRECT","","html-keyboard-response","15","243720","0.0-3.0-17.0-0.0","94990","List1A","black","woman","","","","null","","","","","","","","",""
"19700.700000286102","<img src=""portrait/BW2.jpg""style=""height:400px;""></img>","2","html-button-response","16","263422","0.0-3.0-19.0","94990","List1A","black","woman","","true","2","","","","","","","","","",""
"null","CORRECT","","html-keyboard-response","17","264930","0.0-3.0-20.0-0.0","94990","List1A","black","woman","","","","null","","","","","","","","",""
"2340","<img src=""portrait/WM1.jpg""style=""height:400px;""></img>","6","html-button-response","18","267271","0.0-3.0-22.0","94990","List1A","black","woman","","true","6","","","","","","","","","",""
"null","CORRECT","","html-keyboard-response","19","268777","0.0-3.0-23.0-0.0","94990","List1A","black","woman","","","","null","","","","","","","","",""
"1847.5999999046326","<p>You got 8 out of 8 right first time. Press Continue.</p>","0","html-button-response","20","270626","0.0-3.0-25.0","94990","List1A","black","woman","","","","","","","","","","","","",""
"57126.90000009537","<p>In this experiment, you will view photographs of the people from the memory game interacting.</p><p>By using the <strong>exact</strong> phrase given <i>after</i> the photograph appears and recalling the correct names of the people in the photographs, form a sentence describing the interaction. You do not need to capitalise names.</p><p>Type your answer in the space provided. Please complete every sentence before moving onto the next trial.</p><p>You will only have a few seconds to memorise each given photograph and phrase before you can respond, so try your best to focus.</p><p>An example is given below. Press 'Continue' when you are ready.</p><img src='img/speaking_example.jpg' style='width:800px;height:460px;''></img>","0","html-button-response","21","328764","0.0-4.0","94990","List1A","black","woman","","","","","","","","","","","","",""
"3033.0999999046326","<p>Before the experiment starts, you will watch two example trials. Press 'Continue'.</p>","0","html-button-response","22","332806","0.0-5.0","94990","List1A","black","woman","","","","","","","","","","","","",""
"null","<img src='img/play_eg.gif' style='height:400px;''></img>","","html-keyboard-response","23","335823","0.0-6.0","94990","List1A","black","woman","","","","null","","","","","","","","",""
"null","<p>is playing with</p>","","html-keyboard-response","24","337834","0.0-7.0","94990","List1A","black","woman","","","","null","","","","","","","","",""
"4481.89999961853","<p><b>Answer:</b> kate is playing with beth</p>","0","html-button-response","25","342316","0.0-8.0","94990","List1A","black","woman","","","","","","","","","","","","",""
"null","<img src='img/dance_eg.gif' style='height:400px;''></img>","","html-keyboard-response","26","345320","0.0-9.0","94990","List1A","black","woman","","","","null","","","","","","","","",""
"null","<p>is being entertained by</p>","","html-keyboard-response","27","347327","0.0-10.0","94990","List1A","black","woman","","","","null","","","","","","","","",""
"3641","<p><b>Answer:</b> luke is being entertained by dave</p>","0","html-button-response","28","350969","0.0-11.0","94990","List1A","black","woman","","","","","","","","","","","","",""
"12787.599999904633","<p>Ready to start the experiment?</p><br><p><strong>Remember to describe the picture using a full sentence,</strong></p><p><strong>that combines the names of the people with the <i>exact</i> phrase given.</strong></p><p><strong>To receive full payment you must do this correctly.</strong></p><p><strong> You do not need to capitalise names or use punctuation.</strong></p><br><p>Press 'Continue' to begin.</p>","0","html-button-response","29","364773","0.0-12.0","94990","List1A","black","woman","","","","","","","","","","","","",""
"null","<div style=""font-size:60px;"">+</div>","","html-keyboard-response","30","366289","0.0-13.0-0.0","94990","List1A","black","woman","","","","null","","","","","","","","",""
"null","<img src=""stim_listA/copy8.gif""style=""height:400px;""></stim_listA>","","html-keyboard-response","31","368295","0.0-13.0-1.0","94990","List1A","black","woman","","","","null","","","","","","","","",""
"null","is being copied by","","html-keyboard-response","32","370300","0.0-13.0-2.0","94990","List1A","black","woman","","","","null","","","","","","","","",""
"22604.5","","","survey-text","33","392908","0.0-13.0-3.0","94990","List1A","black","woman","","","","","{""Q0"":""beth is being copied by jane""}","<img src=""stim_listA/copy8.gif""style=""height:400px;""></stim_listA>","is being copied by","","","","","",""
"null","<div style=""font-size:60px;"">+</div>","","html-keyboard-response","34","393410","0.0-13.0-0.1","94990","List1A","black","woman","","","","null","","","","","","","","",""
"null","<img src=""stim_listA/greet7.gif""style=""height:400px;""></stim_listA>","","html-keyboard-response","35","395411","0.0-13.0-1.1","94990","List1A","black","woman","","","","null","","","","","","","","",""
"null","is greeting","","html-keyboard-response","36","397427","0.0-13.0-2.1","94990","List1A","black","woman","","","","null","","","","","","","","",""
"18528.39999961853","","","survey-text","37","415957","0.0-13.0-3.1","94990","List1A","black","woman","","","","","{""Q0"":""ruth is greeting kate""}","<img src=""stim_listA/greet7.gif""style=""height:400px;""></stim_listA>","is greeting","","","","","",""
"null","<div style=""font-size:60px;"">+</div>","","html-keyboard-response","38","416463","0.0-13.0-0.2","94990","List1A","black","woman","","","","null","","","","","","","","",""
"null","<img src=""stim_listA/copy7.gif""style=""height:400px;""></stim_listA>","","html-keyboard-response","39","418469","0.0-13.0-1.2","94990","List1A","black","woman","","","","null","","","","","","","","",""
"null","is copying","","html-keyboard-response","40","420474","0.0-13.0-2.2","94990","List1A","black","woman","","","","null","","","","","","","","",""
"24008.900000095367","","","survey-text","41","444484","0.0-13.0-3.2","94990","List1A","black","woman","","","","","{""Q0"":""jane is copying ruth""}","<img src=""stim_listA/copy7.gif""style=""height:400px;""></stim_listA>","is copying","","","","","",""
"null","<div style=""font-size:60px;"">+</div>","","html-keyboard-response","42","444990","0.0-13.0-0.3","94990","List1A","black","woman","","","","null","","","","","","","","",""
"null","<img src=""stim_listA/touch1.gif""style=""height:400px;""></stim_listA>","","html-keyboard-response","43","447006","0.0-13.0-1.3","94990","List1A","black","woman","","","","null","","","","","","","","",""
"null","is touching","","html-keyboard-response","44","449018","0.0-13.0-2.3","94990","List1A","black","woman","","","","null","","","","","","","","",""
"17620","","","survey-text","45","466640","0.0-13.0-3.3","94990","List1A","black","woman","","","","","{""Q0"":""mike is touching jane""}","<img src=""stim_listA/touch1.gif""style=""height:400px;""></stim_listA>","is touching","","","","","",""
"null","<div style=""font-size:60px;"">+</div>","","html-keyboard-response","46","467143","0.0-13.0-0.4","94990","List1A","black","woman","","","","null","","","","","","","","",""
"null","<img src=""stim_listA/look7.gif""style=""height:400px;""></stim_listA>","","html-keyboard-response","47","469150","0.0-13.0-1.4","94990","List1A","black","woman","","","","null","","","","","","","","",""
"null","is looking at","","html-keyboard-response","48","471173","0.0-13.0-2.4","94990","List1A","black","woman","","","","null","","","","","","","","",""
"9297.699999809265","","","survey-text","49","480473","0.0-13.0-3.4","94990","List1A","black","woman","","","","","{""Q0"":""Beth is looking at ruth""}","<img src=""stim_listA/look7.gif""style=""height:400px;""></stim_listA>","is looking at","","","","","",""
"null","<div style=""font-size:60px;"">+</div>","","html-keyboard-response","50","480998","0.0-13.0-0.5","94990","List1A","black","woman","","","","null","","","","","","","","",""
"null","<img src=""stim_listA/seduce8.gif""style=""height:400px;""></stim_listA>","","html-keyboard-response","51","483002","0.0-13.0-1.5","94990","List1A","black","woman","","","","null","","","","","","","","",""
"null","is being seduced by","","html-keyboard-response","52","485006","0.0-13.0-2.5","94990","List1A","black","woman","","","","null","","","","","","","","",""
"14935.299999713898","","","survey-text","53","499944","0.0-13.0-3.5","94990","List1A","black","woman","","","","","{""Q0"":""ruth is being seduced by Beth""}","<img src=""stim_listA/seduce8.gif""style=""height:400px;""></stim_listA>","is being seduced by","","","","","",""
"null","<div style=""font-size:60px;"">+</div>","","html-keyboard-response","54","500458","0.0-13.0-0.6","94990","List1A","black","woman","","","","null","","","","","","","","",""
"null","<img src=""stim_listA/look2.gif""style=""height:400px;""></stim_listA>","","html-keyboard-response","55","502462","0.0-13.0-1.6","94990","List1A","black","woman","","","","null","","","","","","","","",""
"null","is being looked at by","","html-keyboard-response","56","504479","0.0-13.0-2.6","94990","List1A","black","woman","","","","null","","","","","","","","",""
"61207.10000038147","","","survey-text","57","565688","0.0-13.0-3.6","94990","List1A","black","woman","","","","","{""Q0"":""mike is being looked at by jane""}","<img src=""stim_listA/look2.gif""style=""height:400px;""></stim_listA>","is being looked at by","","","","","",""
"null","<div style=""font-size:60px;"">+</div>","","html-keyboard-response","58","566204","0.0-13.0-0.7","94990","List1A","black","woman","","","","null","","","","","","","","",""
"null","<img src=""stim_listA/oppose8.gif""style=""height:400px;""></stim_listA>","","html-keyboard-response","59","568220","0.0-13.0-1.7","94990","List1A","black","woman","","","","null","","","","","","","","",""
"null","is being opposed by","","html-keyboard-response","60","570235","0.0-13.0-2.7","94990","List1A","black","woman","","","","null","","","","","","","","",""
"7187.200000286102","","","survey-text","61","577423","0.0-13.0-3.7","94990","List1A","black","woman","","","","","{""Q0"":""beth is being opposed by ruth""}","<img src=""stim_listA/oppose8.gif""style=""height:400px;""></stim_listA>","is being opposed by","","","","","",""
"null","<div style=""font-size:60px;"">+</div>","","html-keyboard-response","62","577930","0.0-13.0-0.8","94990","List1A","black","woman","","","","null","","","","","","","","",""
"null","<img src=""stim_listA/shout1.gif""style=""height:400px;""></stim_listA>","","html-keyboard-response","63","579931","0.0-13.0-1.8","94990","List1A","black","woman","","","","null","","","","","","","","",""
"null","is shouting at","","html-keyboard-response","64","581947","0.0-13.0-2.8","94990","List1A","black","woman","","","","null","","","","","","","","",""
"10759.900000095367","","","survey-text","65","592709","0.0-13.0-3.8","94990","List1A","black","woman","","","","","{""Q0"":""fred is shouting at ruth""}","<img src=""stim_listA/shout1.gif""style=""height:400px;""></stim_listA>","is shouting at","","","","","",""
"null","<div style=""font-size:60px;"">+</div>","","html-keyboard-response","66","593219","0.0-13.0-0.9","94990","List1A","black","woman","","","","null","","","","","","","","",""
"null","<img src=""stim_listA/look3.gif""style=""height:400px;""></stim_listA>","","html-keyboard-response","67","595221","0.0-13.0-1.9","94990","List1A","black","woman","","","","null","","","","","","","","",""
"null","is looking at","","html-keyboard-response","68","597239","0.0-13.0-2.9","94990","List1A","black","woman","","","","null","","","","","","","","",""
"7273.299999713898","","","survey-text","69","604514","0.0-13.0-3.9","94990","List1A","black","woman","","","","","{""Q0"":""ruth is looking at luke""}","<img src=""stim_listA/look3.gif""style=""height:400px;""></stim_listA>","is looking at","","","","","",""
"null","<div style=""font-size:60px;"">+</div>","","html-keyboard-response","70","605023","0.0-13.0-0.10","94990","List1A","black","woman","","","","null","","","","","","","","",""
"null","<img src=""stim_listA/hug2.gif""style=""height:400px;""></stim_listA>","","html-keyboard-response","71","607028","0.0-13.0-1.10","94990","List1A","black","woman","","","","null","","","","","","","","",""
"null","is being hugged by","","html-keyboard-response","72","609033","0.0-13.0-2.10","94990","List1A","black","woman","","","","null","","","","","","","","",""
"20382.200000286102","","","survey-text","73","629416","0.0-13.0-3.10","94990","List1A","black","woman","","","","","{""Q0"":""mike is being hugged by jane""}","<img src=""stim_listA/hug2.gif""style=""height:400px;""></stim_listA>","is being hugged by","","","","","",""
"null","<div style=""font-size:60px;"">+</div>","","html-keyboard-response","74","629921","0.0-13.0-0.11","94990","List1A","black","woman","","","","null","","","","","","","","",""
"null","<img src=""stim_listA/challenge3.gif""style=""height:400px;""></stim_listA>","","html-keyboard-response","75","631923","0.0-13.0-1.11","94990","List1A","black","woman","","","","null","","","","","","","","",""
"null","is challenging","","html-keyboard-response","76","633939","0.0-13.0-2.11","94990","List1A","black","woman","","","","null","","","","","","","","",""
"17757.60000038147","","","survey-text","77","651698","0.0-13.0-3.11","94990","List1A","black","woman","","","","","{""Q0"":""ruth is challenging dave""}","<img src=""stim_listA/challenge3.gif""style=""height:400px;""></stim_listA>","is challenging","","","","","",""
"null","<div style=""font-size:60px;"">+</div>","","html-keyboard-response","78","652203","0.0-13.0-0.12","94990","List1A","black","woman","","","","null","","","","","","","","",""
"null","<img src=""stim_listA/copy2.gif""style=""height:400px;""></stim_listA>","","html-keyboard-response","79","654207","0.0-13.0-1.12","94990","List1A","black","woman","","","","null","","","","","","","","",""
"null","is being copied by","","html-keyboard-response","80","656212","0.0-13.0-2.12","94990","List1A","black","woman","","","","null","","","","","","","","",""
"9727.699999809265","","","survey-text","81","665941","0.0-13.0-3.12","94990","List1A","black","woman","","","","","{""Q0"":""fred is being copied by jane""}","<img src=""stim_listA/copy2.gif""style=""height:400px;""></stim_listA>","is being copied by","","","","","",""
"null","<div style=""font-size:60px;"">+</div>","","html-keyboard-response","82","666448","0.0-13.0-0.13","94990","List1A","black","woman","","","","null","","","","","","","","",""
"null","<img src=""stim_listA/touch2.gif""style=""height:400px;""></stim_listA>","","html-keyboard-response","83","668453","0.0-13.0-1.13","94990","List1A","black","woman","","","","null","","","","","","","","",""
"null","is being touched by","","html-keyboard-response","84","670458","0.0-13.0-2.13","94990","List1A","black","woman","","","","null","","","","","","","","",""
"19227.400000095367","","","survey-text","85","689687","0.0-13.0-3.13","94990","List1A","black","woman","","","","","{""Q0"":""fred is being touched by beth""}","<img src=""stim_listA/touch2.gif""style=""height:400px;""></stim_listA>","is being touched by","","","","","",""
"null","<div style=""font-size:60px;"">+</div>","","html-keyboard-response","86","690194","0.0-13.0-0.14","94990","List1A","black","woman","","","","null","","","","","","","","",""
"null","<img src=""stim_listA/look1.gif""style=""height:400px;""></stim_listA>","","html-keyboard-response","87","692196","0.0-13.0-1.14","94990","List1A","black","woman","","","","null","","","","","","","","",""
"null","is looking at","","html-keyboard-response","88","694197","0.0-13.0-2.14","94990","List1A","black","woman","","","","null","","","","","","","","",""
"5281.900000095367","","","survey-text","89","699481","0.0-13.0-3.14","94990","List1A","black","woman","","","","","{""Q0"":""eth is looking at fred""}","<img src=""stim_listA/look1.gif""style=""height:400px;""></stim_listA>","is looking at","","","","","",""
"null","<div style=""font-size:60px;"">+</div>","","html-keyboard-response","90","699989","0.0-13.0-0.15","94990","List1A","black","woman","","","","null","","","","","","","","",""
"null","<img src=""stim_listA/seduce4.gif""style=""height:400px;""></stim_listA>","","html-keyboard-response","91","701991","0.0-13.0-1.15","94990","List1A","black","woman","","","","null","","","","","","","","",""
"null","is being seduced by","","html-keyboard-response","92","704002","0.0-13.0-2.15","94990","List1A","black","woman","","","","null","","","","","","","","",""
"8065.700000286102","","","survey-text","93","712069","0.0-13.0-3.15","94990","List1A","black","woman","","","","","{""Q0"":""dave is being seduced by ruth""}","<img src=""stim_listA/seduce4.gif""style=""height:400px;""></stim_listA>","is being seduced by","","","","","",""
"null","<div style=""font-size:60px;"">+</div>","","html-keyboard-response","94","712589","0.0-13.0-0.16","94990","List1A","black","woman","","","","null","","","","","","","","",""
"null","<img src=""stim_listA/shout5.gif""style=""height:400px;""></stim_listA>","","html-keyboard-response","95","714594","0.0-13.0-1.16","94990","List1A","black","woman","","","","null","","","","","","","","",""
"null","is shouting at","","html-keyboard-response","96","716604","0.0-13.0-2.16","94990","List1A","black","woman","","","","null","","","","","","","","",""
"17185.300000190735","","","survey-text","97","733791","0.0-13.0-3.16","94990","List1A","black","woman","","","","","{""Q0"":""luke is shouting at fred""}","<img src=""stim_listA/shout5.gif""style=""height:400px;""></stim_listA>","is shouting at","","","","","",""
"null","<div style=""font-size:60px;"">+</div>","","html-keyboard-response","98","734299","0.0-13.0-0.17","94990","List1A","black","woman","","","","null","","","","","","","","",""
"null","<img src=""stim_listA/seduce3.gif""style=""height:400px;""></stim_listA>","","html-keyboard-response","99","736301","0.0-13.0-1.17","94990","List1A","black","woman","","","","null","","","","","","","","",""
"null","is seducing","","html-keyboard-response","100","738309","0.0-13.0-2.17","94990","List1A","black","woman","","","","null","","","","","","","","",""
"29522.699999809265","","","survey-text","101","767833","0.0-13.0-3.17","94990","List1A","black","woman","","","","","{""Q0"":""luke is seducing jane""}","<img src=""stim_listA/seduce3.gif""style=""height:400px;""></stim_listA>","is seducing","","","","","",""
"null","<div style=""font-size:60px;"">+</div>","","html-keyboard-response","102","768350","0.0-13.0-0.18","94990","List1A","black","woman","","","","null","","","","","","","","",""
"null","<img src=""stim_listA/seduce6.gif""style=""height:400px;""></stim_listA>","","html-keyboard-response","103","770356","0.0-13.0-1.18","94990","List1A","black","woman","","","","null","","","","","","","","",""
"null","is being seduced by","","html-keyboard-response","104","772361","0.0-13.0-2.18","94990","List1A","black","woman","","","","null","","","","","","","","",""
"9487.199999809265","","","survey-text","105","781850","0.0-13.0-3.18","94990","List1A","black","woman","","","","","{""Q0"":""luke is being seduced by mike""}","<img src=""stim_listA/seduce6.gif""style=""height:400px;""></stim_listA>","is being seduced by","","","","","",""
"null","<div style=""font-size:60px;"">+</div>","","html-keyboard-response","106","782369","0.0-13.0-0.19","94990","List1A","black","woman","","","","null","","","","","","","","",""
"null","<img src=""stim_listA/seduce2.gif""style=""height:400px;""></stim_listA>","","html-keyboard-response","107","784374","0.0-13.0-1.19","94990","List1A","black","woman","","","","null","","","","","","","","",""
"null","is being seduced by","","html-keyboard-response","108","786379","0.0-13.0-2.19","94990","List1A","black","woman","","","","null","","","","","","","","",""
"10904","","","survey-text","109","797285","0.0-13.0-3.19","94990","List1A","black","woman","","","","","{""Q0"":""mike is being seduced by beth""}","<img src=""stim_listA/seduce2.gif""style=""height:400px;""></stim_listA>","is being seduced by","","","","","",""
"31473.39999961853","<img src='img/portrait_matrix_list1.jpg' style='width:900px;height:500px;''></img><p>If you have memorised all the portraits and names and are ready to start, press Continue.</p><p><strong>Please note: Your memory of these faces will be tested 4 times during this experiment.</strong></p>","0","html-button-response","110","828759","0.0-14.0-0.0","94990","List1A","black","woman","","","","","","","","","","","","",""
"4190.400000095367","<img src=""portrait/WW2.jpg""style=""height:400px;""></img>","3","html-button-response","111","833958","0.0-14.0-1.0","94990","List1A","black","woman","","true","3","","","","","","","","","",""
"null","CORRECT","","html-keyboard-response","112","835480","0.0-14.0-2.0-0.0","94990","List1A","black","woman","","","","null","","","","","","","","",""
"2741.7000002861023","<img src=""portrait/BW2.jpg""style=""height:400px;""></img>","2","html-button-response","113","838223","0.0-14.0-4.0","94990","List1A","black","woman","","true","2","","","","","","","","","",""
"null","CORRECT","","html-keyboard-response","114","839743","0.0-14.0-5.0-0.0","94990","List1A","black","woman","","","","null","","","","","","","","",""
"5183.799999713898","<img src=""portrait/BM1.jpg""style=""height:400px;""></img>","4","html-button-response","115","844929","0.0-14.0-7.0","94990","List1A","black","woman","","true","4","","","","","","","","","",""
"null","CORRECT","","html-keyboard-response","116","846433","0.0-14.0-8.0-0.0","94990","List1A","black","woman","","","","null","","","","","","","","",""
"2174.5","<img src=""portrait/WW1.jpg""style=""height:400px;""></img>","1","html-button-response","117","848609","0.0-14.0-10.0","94990","List1A","black","woman","","true","1","","","","","","","","","",""
"null","CORRECT","","html-keyboard-response","118","850130","0.0-14.0-11.0-0.0","94990","List1A","black","woman","","","","null","","","","","","","","",""
"2454.7999997138977","<img src=""portrait/WM2.jpg""style=""height:400px;""></img>","7","html-button-response","119","852586","0.0-14.0-13.0","94990","List1A","black","woman","","true","7","","","","","","","","","",""
"null","CORRECT","","html-keyboard-response","120","854089","0.0-14.0-14.0-0.0","94990","List1A","black","woman","","","","null","","","","","","","","",""
"2978.199999809265","<img src=""portrait/WM1.jpg""style=""height:400px;""></img>","6","html-button-response","121","857069","0.0-14.0-16.0","94990","List1A","black","woman","","true","6","","","","","","","","","",""
"null","CORRECT","","html-keyboard-response","122","858583","0.0-14.0-17.0-0.0","94990","List1A","black","woman","","","","null","","","","","","","","",""
"2212.300000190735","<img src=""portrait/BM2.jpg""style=""height:400px;""></img>","5","html-button-response","123","860797","0.0-14.0-19.0","94990","List1A","black","woman","","true","5","","","","","","","","","",""
"null","CORRECT","","html-keyboard-response","124","862318","0.0-14.0-20.0-0.0","94990","List1A","black","woman","","","","null","","","","","","","","",""
"6614.400000095367","<img src=""portrait/BW1.jpg""style=""height:400px;""></img>","0","html-button-response","125","868934","0.0-14.0-22.0","94990","List1A","black","woman","","true","0","","","","","","","","","",""
"null","CORRECT","","html-keyboard-response","126","870447","0.0-14.0-23.0-0.0","94990","List1A","black","woman","","","","null","","","","","","","","",""
"1222","<p>You got 8 out of 8 right first time. Press Continue.</p>","0","html-button-response","127","871670","0.0-14.0-25.0","94990","List1A","black","woman","","","","","","","","","","","","",""
"null","<div style=""font-size:60px;"">+</div>","","html-keyboard-response","128","873180","0.0-15.0-0.0","94990","List1A","black","woman","","","","null","","","","","","","","",""
"null","<img src=""stim_listA/hug8.gif""style=""height:400px;""></stim_listA>","","html-keyboard-response","129","875194","0.0-15.0-1.0","94990","List1A","black","woman","","","","null","","","","","","","","",""
"null","is being hugged by","","html-keyboard-response","130","877207","0.0-15.0-2.0","94990","List1A","black","woman","","","","null","","","","","","","","",""
"13315.400000095367","","","survey-text","131","890524","0.0-15.0-3.0","94990","List1A","black","woman","","","","","{""Q0"":""kate is being hugged by jane""}","<img src=""stim_listA/hug8.gif""style=""height:400px;""></stim_listA>","is being hugged by","","","","","",""
"null","<div style=""font-size:60px;"">+</div>","","html-keyboard-response","132","891040","0.0-15.0-0.1","94990","List1A","black","woman","","","","null","","","","","","","","",""
"null","<img src=""stim_listA/touch6.gif""style=""height:400px;""></stim_listA>","","html-keyboard-response","133","893047","0.0-15.0-1.1","94990","List1A","black","woman","","","","null","","","","","","","","",""
"null","is being touched by","","html-keyboard-response","134","895049","0.0-15.0-2.1","94990","List1A","black","woman","","","","null","","","","","","","","",""
"9006.799999713898","","","survey-text","135","904057","0.0-15.0-3.1","94990","List1A","black","woman","","","","","{""Q0"":""luke is being touched by fred""}","<img src=""stim_listA/touch6.gif""style=""height:400px;""></stim_listA>","is being touched by","","","","","",""
"null","<div style=""font-size:60px;"">+</div>","","html-keyboard-response","136","904571","0.0-15.0-0.2","94990","List1A","black","woman","","","","null","","","","","","","","",""
"null","<img src=""stim_listA/challenge1.gif""style=""height:400px;""></stim_listA>","","html-keyboard-response","137","906573","0.0-15.0-1.2","94990","List1A","black","woman","","","","null","","","","","","","","",""
"null","is challenging","","html-keyboard-response","138","908578","0.0-15.0-2.2","94990","List1A","black","woman","","","","null","","","","","","","","",""
"12265.800000190735","","","survey-text","139","920845","0.0-15.0-3.2","94990","List1A","black","woman","","","","","{""Q0"":""mike is challenging beth""}","<img src=""stim_listA/challenge1.gif""style=""height:400px;""></stim_listA>","is challenging","","","","","",""
"null","<div style=""font-size:60px;"">+</div>","","html-keyboard-response","140","921359","0.0-15.0-0.3","94990","List1A","black","woman","","","","null","","","","","","","","",""
"null","<img src=""stim_listA/kiss3.gif""style=""height:400px;""></stim_listA>","","html-keyboard-response","141","923365","0.0-15.0-1.3","94990","List1A","black","woman","","","","null","","","","","","","","",""
"null","is kissing","","html-keyboard-response","142","925371","0.0-15.0-2.3","94990","List1A","black","woman","","","","null","","","","","","","","",""
"5513.299999713898","","","survey-text","143","930885","0.0-15.0-3.3","94990","List1A","black","woman","","","","","{""Q0"":""ruth is kissing luke""}","<img src=""stim_listA/kiss3.gif""style=""height:400px;""></stim_listA>","is kissing","","","","","",""
"null","<div style=""font-size:60px;"">+</div>","","html-keyboard-response","144","931401","0.0-15.0-0.4","94990","List1A","black","woman","","","","null","","","","","","","","",""
"null","<img src=""stim_listA/copy1.gif""style=""height:400px;""></stim_listA>","","html-keyboard-response","145","933408","0.0-15.0-1.4","94990","List1A","black","woman","","","","null","","","","","","","","",""
"null","is copying","","html-keyboard-response","146","935413","0.0-15.0-2.4","94990","List1A","black","woman","","","","null","","","","","","","","",""
"8195.800000190735","","","survey-text","147","943611","0.0-15.0-3.4","94990","List1A","black","woman","","","","","{""Q0"":""beth is copying  mike""}","<img src=""stim_listA/copy1.gif""style=""height:400px;""></stim_listA>","is copying","","","","","",""
"null","<div style=""font-size:60px;"">+</div>","","html-keyboard-response","148","944115","0.0-15.0-0.5","94990","List1A","black","woman","","","","null","","","","","","","","",""
"null","<img src=""stim_listA/greet2.gif""style=""height:400px;""></stim_listA>","","html-keyboard-response","149","946123","0.0-15.0-1.5","94990","List1A","black","woman","","","","null","","","","","","","","",""
"null","is being greeted by","","html-keyboard-response","150","948124","0.0-15.0-2.5","94990","List1A","black","woman","","","","null","","","","","","","","",""
"7860.700000286102","","","survey-text","151","955986","0.0-15.0-3.5","94990","List1A","black","woman","","","","","{""Q0"":""fred is being greeted by kate""}","<img src=""stim_listA/greet2.gif""style=""height:400px;""></stim_listA>","is being greeted by","","","","","",""
"null","<div style=""font-size:60px;"">+</div>","","html-keyboard-response","152","956503","0.0-15.0-0.6","94990","List1A","black","woman","","","","null","","","","","","","","",""
"null","<img src=""stim_listA/seduce7.gif""style=""height:400px;""></stim_listA>","","html-keyboard-response","153","958508","0.0-15.0-1.6","94990","List1A","black","woman","","","","null","","","","","","","","",""
"null","is seducing","","html-keyboard-response","154","960513","0.0-15.0-2.6","94990","List1A","black","woman","","","","null","","","","","","","","",""
"7249.200000286102","","","survey-text","155","967763","0.0-15.0-3.6","94990","List1A","black","woman","","","","","{""Q0"":""jane is seducing beth""}","<img src=""stim_listA/seduce7.gif""style=""height:400px;""></stim_listA>","is seducing","","","","","",""
"null","<div style=""font-size:60px;"">+</div>","","html-keyboard-response","156","968276","0.0-15.0-0.7","94990","List1A","black","woman","","","","null","","","","","","","","",""
"null","<img src=""stim_listA/kiss5.gif""style=""height:400px;""></stim_listA>","","html-keyboard-response","157","970282","0.0-15.0-1.7","94990","List1A","black","woman","","","","null","","","","","","","","",""
"null","is kissing","","html-keyboard-response","158","972287","0.0-15.0-2.7","94990","List1A","black","woman","","","","null","","","","","","","","",""
"4958.599999904633","","","survey-text","159","977247","0.0-15.0-3.7","94990","List1A","black","woman","","","","","{""Q0"":""luke is kissing fred""}","<img src=""stim_listA/kiss5.gif""style=""height:400px;""></stim_listA>","is kissing","","","","","",""
"null","<div style=""font-size:60px;"">+</div>","","html-keyboard-response","160","977756","0.0-15.0-0.8","94990","List1A","black","woman","","","","null","","","","","","","","",""
"null","<img src=""stim_listA/copy3.gif""style=""height:400px;""></stim_listA>","","html-keyboard-response","161","979769","0.0-15.0-1.8","94990","List1A","black","woman","","","","null","","","","","","","","",""
"null","is copying","","html-keyboard-response","162","981771","0.0-15.0-2.8","94990","List1A","black","woman","","","","null","","","","","","","","",""
"9444","","","survey-text","163","991216","0.0-15.0-3.8","94990","List1A","black","woman","","","","","{""Q0"":""dave is copying ruth""}","<img src=""stim_listA/copy3.gif""style=""height:400px;""></stim_listA>","is copying","","","","","",""
"null","<div style=""font-size:60px;"">+</div>","","html-keyboard-response","164","991727","0.0-15.0-0.9","94990","List1A","black","woman","","","","null","","","","","","","","",""
"null","<img src=""stim_listA/shout3.gif""style=""height:400px;""></stim_listA>","","html-keyboard-response","165","993729","0.0-15.0-1.9","94990","List1A","black","woman","","","","null","","","","","","","","",""
"null","is shouting at","","html-keyboard-response","166","995736","0.0-15.0-2.9","94990","List1A","black","woman","","","","null","","","","","","","","",""
"15423.5","","","survey-text","167","1011161","0.0-15.0-3.9","94990","List1A","black","woman","","","","","{""Q0"":""luke is shouting at ruth""}","<img src=""stim_listA/shout3.gif""style=""height:400px;""></stim_listA>","is shouting at","","","","","",""
"null","<div style=""font-size:60px;"">+</div>","","html-keyboard-response","168","1011663","0.0-15.0-0.10","94990","List1A","black","woman","","","","null","","","","","","","","",""
"null","<img src=""stim_listA/kiss2.gif""style=""height:400px;""></stim_listA>","","html-keyboard-response","169","1013668","0.0-15.0-1.10","94990","List1A","black","woman","","","","null","","","","","","","","",""
"null","is being kissed by","","html-keyboard-response","170","1015674","0.0-15.0-2.10","94990","List1A","black","woman","","","","null","","","","","","","","",""
"7061.300000190735","","","survey-text","171","1022737","0.0-15.0-3.10","94990","List1A","black","woman","","","","","{""Q0"":""mike is being kissed by kate""}","<img src=""stim_listA/kiss2.gif""style=""height:400px;""></stim_listA>","is being kissed by","","","","","",""
"null","<div style=""font-size:60px;"">+</div>","","html-keyboard-response","172","1023241","0.0-15.0-0.11","94990","List1A","black","woman","","","","null","","","","","","","","",""
"null","<img src=""stim_listA/oppose1.gif""style=""height:400px;""></stim_listA>","","html-keyboard-response","173","1025247","0.0-15.0-1.11","94990","List1A","black","woman","","","","null","","","","","","","","",""
"null","is opposing","","html-keyboard-response","174","1027253","0.0-15.0-2.11","94990","List1A","black","woman","","","","null","","","","","","","","",""
"6784.199999809265","","","survey-text","175","1034038","0.0-15.0-3.11","94990","List1A","black","woman","","","","","{""Q0"":""mike is opposing kate""}","<img src=""stim_listA/oppose1.gif""style=""height:400px;""></stim_listA>","is opposing","","","","","",""
"null","<div style=""font-size:60px;"">+</div>","","html-keyboard-response","176","1034548","0.0-15.0-0.12","94990","List1A","black","woman","","","","null","","","","","","","","",""
"null","<img src=""stim_listA/kiss4.gif""style=""height:400px;""></stim_listA>","","html-keyboard-response","177","1036564","0.0-15.0-1.12","94990","List1A","black","woman","","","","null","","","","","","","","",""
"null","is being kissed by","","html-keyboard-response","178","1038570","0.0-15.0-2.12","94990","List1A","black","woman","","","","null","","","","","","","","",""
"8374.199999809265","","","survey-text","179","1046946","0.0-15.0-3.12","94990","List1A","black","woman","","","","","{""Q0"":""dave is being kissed by jane""}","<img src=""stim_listA/kiss4.gif""style=""height:400px;""></stim_listA>","is being kissed by","","","","","",""
"null","<div style=""font-size:60px;"">+</div>","","html-keyboard-response","180","1047456","0.0-15.0-0.13","94990","List1A","black","woman","","","","null","","","","","","","","",""
"null","<img src=""stim_listA/shout6.gif""style=""height:400px;""></stim_listA>","","html-keyboard-response","181","1049462","0.0-15.0-1.13","94990","List1A","black","woman","","","","null","","","","","","","","",""
"null","is being shouted at by","","html-keyboard-response","182","1051468","0.0-15.0-2.13","94990","List1A","black","woman","","","","null","","","","","","","","",""
"12746.200000286102","","","survey-text","183","1064216","0.0-15.0-3.13","94990","List1A","black","woman","","","","","{""Q0"":""dave is being shouted at by mike""}","<img src=""stim_listA/shout6.gif""style=""height:400px;""></stim_listA>","is being shouted at by","","","","","",""
"null","<div style=""font-size:60px;"">+</div>","","html-keyboard-response","184","1064728","0.0-15.0-0.14","94990","List1A","black","woman","","","","null","","","","","","","","",""
"null","<img src=""stim_listA/greet5.gif""style=""height:400px;""></stim_listA>","","html-keyboard-response","185","1066732","0.0-15.0-1.14","94990","List1A","black","woman","","","","null","","","","","","","","",""
"null","is greeting","","html-keyboard-response","186","1068738","0.0-15.0-2.14","94990","List1A","black","woman","","","","null","","","","","","","","",""
"5128.800000190735","","","survey-text","187","1073868","0.0-15.0-3.14","94990","List1A","black","woman","","","","","{""Q0"":""luke is greeting mike""}","<img src=""stim_listA/greet5.gif""style=""height:400px;""></stim_listA>","is greeting","","","","","",""
"null","<div style=""font-size:60px;"">+</div>","","html-keyboard-response","188","1074384","0.0-15.0-0.15","94990","List1A","black","woman","","","","null","","","","","","","","",""
"null","<img src=""stim_listA/greet6.gif""style=""height:400px;""></stim_listA>","","html-keyboard-response","189","1076388","0.0-15.0-1.15","94990","List1A","black","woman","","","","null","","","","","","","","",""
"null","is being greeted by","","html-keyboard-response","190","1078393","0.0-15.0-2.15","94990","List1A","black","woman","","","","null","","","","","","","","",""
"8164.800000190735","","","survey-text","191","1086560","0.0-15.0-3.15","94990","List1A","black","woman","","","","","{""Q0"":""dave is beeing greeted by fred""}","<img src=""stim_listA/greet6.gif""style=""height:400px;""></stim_listA>","is being greeted by","","","","","",""
"null","<div style=""font-size:60px;"">+</div>","","html-keyboard-response","192","1087072","0.0-15.0-0.16","94990","List1A","black","woman","","","","null","","","","","","","","",""
"null","<img src=""stim_listA/kiss1.gif""style=""height:400px;""></stim_listA>","","html-keyboard-response","193","1089078","0.0-15.0-1.16","94990","List1A","black","woman","","","","null","","","","","","","","",""
"null","is kissing","","html-keyboard-response","194","1091083","0.0-15.0-2.16","94990","List1A","black","woman","","","","null","","","","","","","","",""
"9906.599999904633","","","survey-text","195","1100991","0.0-15.0-3.16","94990","List1A","black","woman","","","","","{""Q0"":""fred is kissing beth""}","<img src=""stim_listA/kiss1.gif""style=""height:400px;""></stim_listA>","is kissing","","","","","",""
"null","<div style=""font-size:60px;"">+</div>","","html-keyboard-response","196","1101507","0.0-15.0-0.17","94990","List1A","black","woman","","","","null","","","","","","","","",""
"null","<img src=""stim_listA/oppose5.gif""style=""height:400px;""></stim_listA>","","html-keyboard-response","197","1103511","0.0-15.0-1.17","94990","List1A","black","woman","","","","null","","","","","","","","",""
"null","is opposing","","html-keyboard-response","198","1105527","0.0-15.0-2.17","94990","List1A","black","woman","","","","null","","","","","","","","",""
"10731.300000190735","","","survey-text","199","1116260","0.0-15.0-3.17","94990","List1A","black","woman","","","","","{""Q0"":""dave is opposing mike""}","<img src=""stim_listA/oppose5.gif""style=""height:400px;""></stim_listA>","is opposing","","","","","",""
"null","<div style=""font-size:60px;"">+</div>","","html-keyboard-response","200","1116768","0.0-15.0-0.18","94990","List1A","black","woman","","","","null","","","","","","","","",""
"null","<img src=""stim_listA/challenge4.gif""style=""height:400px;""></stim_listA>","","html-keyboard-response","201","1118784","0.0-15.0-1.18","94990","List1A","black","woman","","","","null","","","","","","","","",""
"null","is being challenged by","","html-keyboard-response","202","1120799","0.0-15.0-2.18","94990","List1A","black","woman","","","","null","","","","","","","","",""
"11330.10000038147","","","survey-text","203","1132131","0.0-15.0-3.18","94990","List1A","black","woman","","","","","{""Q0"":""jane is being challenged by luke""}","<img src=""stim_listA/challenge4.gif""style=""height:400px;""></stim_listA>","is being challenged by","","","","","",""
"null","<div style=""font-size:60px;"">+</div>","","html-keyboard-response","204","1132638","0.0-15.0-0.19","94990","List1A","black","woman","","","","null","","","","","","","","",""
"null","<img src=""stim_listA/challenge8.gif""style=""height:400px;""></stim_listA>","","html-keyboard-response","205","1134644","0.0-15.0-1.19","94990","List1A","black","woman","","","","null","","","","","","","","",""
"null","is being challenged by","","html-keyboard-response","206","1136649","0.0-15.0-2.19","94990","List1A","black","woman","","","","null","","","","","","","","",""
"11569","","","survey-text","207","1148220","0.0-15.0-3.19","94990","List1A","black","woman","","","","","{""Q0"":""jane is being challenged by beth""}","<img src=""stim_listA/challenge8.gif""style=""height:400px;""></stim_listA>","is being challenged by","","","","","",""
"4096.099999904633","<img src='img/portrait_matrix_list1.jpg' style='width:900px;height:500px;''></img><p>If you have memorised all the portraits and names and are ready to start, press Continue.</p><p><strong>Please note: Your memory of these faces will be tested 4 times during this experiment.</strong></p>","0","html-button-response","208","1152317","0.0-16.0-0.0","94990","List1A","black","woman","","","","","","","","","","","","",""
"2598","<img src=""portrait/BM2.jpg""style=""height:400px;""></img>","5","html-button-response","209","1155920","0.0-16.0-1.0","94990","List1A","black","woman","","true","5","","","","","","","","","",""
"null","CORRECT","","html-keyboard-response","210","1157424","0.0-16.0-2.0-0.0","94990","List1A","black","woman","","","","null","","","","","","","","",""
"2429.699999809265","<img src=""portrait/WM2.jpg""style=""height:400px;""></img>","7","html-button-response","211","1159856","0.0-16.0-4.0","94990","List1A","black","woman","","true","7","","","","","","","","","",""
"null","CORRECT","","html-keyboard-response","212","1161366","0.0-16.0-5.0-0.0","94990","List1A","black","woman","","","","null","","","","","","","","",""
"2773.0999999046326","<img src=""portrait/WW2.jpg""style=""height:400px;""></img>","3","html-button-response","213","1164141","0.0-16.0-7.0","94990","List1A","black","woman","","true","3","","","","","","","","","",""
"null","CORRECT","","html-keyboard-response","214","1165649","0.0-16.0-8.0-0.0","94990","List1A","black","woman","","","","null","","","","","","","","",""
"5356.199999809265","<img src=""portrait/BW1.jpg""style=""height:400px;""></img>","0","html-button-response","215","1171007","0.0-16.0-10.0","94990","List1A","black","woman","","true","0","","","","","","","","","",""
"null","CORRECT","","html-keyboard-response","216","1172514","0.0-16.0-11.0-0.0","94990","List1A","black","woman","","","","null","","","","","","","","",""
"2498.699999809265","<img src=""portrait/BW2.jpg""style=""height:400px;""></img>","2","html-button-response","217","1175014","0.0-16.0-13.0","94990","List1A","black","woman","","true","2","","","","","","","","","",""
"null","CORRECT","","html-keyboard-response","218","1176534","0.0-16.0-14.0-0.0","94990","List1A","black","woman","","","","null","","","","","","","","",""
"2000.3000001907349","<img src=""portrait/WW1.jpg""style=""height:400px;""></img>","1","html-button-response","219","1178536","0.0-16.0-16.0","94990","List1A","black","woman","","true","1","","","","","","","","","",""
"null","CORRECT","","html-keyboard-response","220","1180051","0.0-16.0-17.0-0.0","94990","List1A","black","woman","","","","null","","","","","","","","",""
"2461.300000190735","<img src=""portrait/WM1.jpg""style=""height:400px;""></img>","6","html-button-response","221","1182514","0.0-16.0-19.0","94990","List1A","black","woman","","true","6","","","","","","","","","",""
"null","CORRECT","","html-keyboard-response","222","1184034","0.0-16.0-20.0-0.0","94990","List1A","black","woman","","","","null","","","","","","","","",""
"1632.6000003814697","<img src=""portrait/BM1.jpg""style=""height:400px;""></img>","4","html-button-response","223","1185668","0.0-16.0-22.0","94990","List1A","black","woman","","true","4","","","","","","","","","",""
"null","CORRECT","","html-keyboard-response","224","1187181","0.0-16.0-23.0-0.0","94990","List1A","black","woman","","","","null","","","","","","","","",""
"3227.699999809265","<p>You got 8 out of 8 right first time. Press Continue.</p>","0","html-button-response","225","1190410","0.0-16.0-25.0","94990","List1A","black","woman","","","","","","","","","","","","",""
"null","<div style=""font-size:60px;"">+</div>","","html-keyboard-response","226","1191927","0.0-17.0-0.0","94990","List1A","black","woman","","","","null","","","","","","","","",""
"null","<img src=""stim_listA/kiss7.gif""style=""height:400px;""></stim_listA>","","html-keyboard-response","227","1193943","0.0-17.0-1.0","94990","List1A","black","woman","","","","null","","","","","","","","",""
"null","is kissing","","html-keyboard-response","228","1195948","0.0-17.0-2.0","94990","List1A","black","woman","","","","null","","","","","","","","",""
"7307.599999904633","","","survey-text","229","1203258","0.0-17.0-3.0","94990","List1A","black","woman","","","","","{""Q0"":""ruth is kissing beth""}","<img src=""stim_listA/kiss7.gif""style=""height:400px;""></stim_listA>","is kissing","","","","","",""
"null","<div style=""font-size:60px;"">+</div>","","html-keyboard-response","230","1203764","0.0-17.0-0.1","94990","List1A","black","woman","","","","null","","","","","","","","",""
"null","<img src=""stim_listA/copy5.gif""style=""height:400px;""></stim_listA>","","html-keyboard-response","231","1205767","0.0-17.0-1.1","94990","List1A","black","woman","","","","null","","","","","","","","",""
"null","is copying","","html-keyboard-response","232","1207778","0.0-17.0-2.1","94990","List1A","black","woman","","","","null","","","","","","","","",""
"11477.700000286102","","","survey-text","233","1219257","0.0-17.0-3.1","94990","List1A","black","woman","","","","","{""Q0"":""luke is copying mike""}","<img src=""stim_listA/copy5.gif""style=""height:400px;""></stim_listA>","is copying","","","","","",""
"null","<div style=""font-size:60px;"">+</div>","","html-keyboard-response","234","1219771","0.0-17.0-0.2","94990","List1A","black","woman","","","","null","","","","","","","","",""
"null","<img src=""stim_listA/oppose7.gif""style=""height:400px;""></stim_listA>","","html-keyboard-response","235","1221772","0.0-17.0-1.2","94990","List1A","black","woman","","","","null","","","","","","","","",""
"null","is opposing","","html-keyboard-response","236","1223787","0.0-17.0-2.2","94990","List1A","black","woman","","","","null","","","","","","","","",""
"9724.199999809265","","","survey-text","237","1233513","0.0-17.0-3.2","94990","List1A","black","woman","","","","","{""Q0"":""jane is opposing kate""}","<img src=""stim_listA/oppose7.gif""style=""height:400px;""></stim_listA>","is opposing","","","","","",""
"null","<div style=""font-size:60px;"">+</div>","","html-keyboard-response","238","1234028","0.0-17.0-0.3","94990","List1A","black","woman","","","","null","","","","","","","","",""
"null","<img src=""stim_listA/hug5.gif""style=""height:400px;""></stim_listA>","","html-keyboard-response","239","1236039","0.0-17.0-1.3","94990","List1A","black","woman","","","","null","","","","","","","","",""
"null","is hugging","","html-keyboard-response","240","1238050","0.0-17.0-2.3","94990","List1A","black","woman","","","","null","","","","","","","","",""
"8954.199999809265","","","survey-text","241","1247005","0.0-17.0-3.3","94990","List1A","black","woman","","","","","{""Q0"":""fred is hugging luke""}","<img src=""stim_listA/hug5.gif""style=""height:400px;""></stim_listA>","is hugging","","","","","",""
"null","<div style=""font-size:60px;"">+</div>","","html-keyboard-response","242","1247512","0.0-17.0-0.4","94990","List1A","black","woman","","","","null","","","","","","","","",""
"null","<img src=""stim_listA/challenge7.gif""style=""height:400px;""></stim_listA>","","html-keyboard-response","243","1249530","0.0-17.0-1.4","94990","List1A","black","woman","","","","null","","","","","","","","",""
"null","is challenging","","html-keyboard-response","244","1251535","0.0-17.0-2.4","94990","List1A","black","woman","","","","null","","","","","","","","",""
"9160.5","","","survey-text","245","1260697","0.0-17.0-3.4","94990","List1A","black","woman","","","","","{""Q0"":""kate is challenging ruth""}","<img src=""stim_listA/challenge7.gif""style=""height:400px;""></stim_listA>","is challenging","","","","","",""
"null","<div style=""font-size:60px;"">+</div>","","html-keyboard-response","246","1261210","0.0-17.0-0.5","94990","List1A","black","woman","","","","null","","","","","","","","",""
"null","<img src=""stim_listA/shout7.gif""style=""height:400px;""></stim_listA>","","html-keyboard-response","247","1263211","0.0-17.0-1.5","94990","List1A","black","woman","","","","null","","","","","","","","",""
"null","is shouting at","","html-keyboard-response","248","1265222","0.0-17.0-2.5","94990","List1A","black","woman","","","","null","","","","","","","","",""
"12414.799999713898","","","survey-text","249","1277638","0.0-17.0-3.5","94990","List1A","black","woman","","","","","{""Q0"":""beth is shouting at ruth""}","<img src=""stim_listA/shout7.gif""style=""height:400px;""></stim_listA>","is shouting at","","","","","",""
"null","<div style=""font-size:60px;"">+</div>","","html-keyboard-response","250","1278151","0.0-17.0-0.6","94990","List1A","black","woman","","","","null","","","","","","","","",""
"null","<img src=""stim_listA/seduce5.gif""style=""height:400px;""></stim_listA>","","html-keyboard-response","251","1280153","0.0-17.0-1.6","94990","List1A","black","woman","","","","null","","","","","","","","",""
"null","is seducing","","html-keyboard-response","252","1282166","0.0-17.0-2.6","94990","List1A","black","woman","","","","null","","","","","","","","",""
"6213.700000286102","","","survey-text","253","1288381","0.0-17.0-3.6","94990","List1A","black","woman","","","","","{""Q0"":""fred is seducing dave""}","<img src=""stim_listA/seduce5.gif""style=""height:400px;""></stim_listA>","is seducing","","","","","",""
"null","<div style=""font-size:60px;"">+</div>","","html-keyboard-response","254","1288895","0.0-17.0-0.7","94990","List1A","black","woman","","","","null","","","","","","","","",""
"null","<img src=""stim_listA/challenge5.gif""style=""height:400px;""></stim_listA>","","html-keyboard-response","255","1290896","0.0-17.0-1.7","94990","List1A","black","woman","","","","null","","","","","","","","",""
"null","is challenging","","html-keyboard-response","256","1292908","0.0-17.0-2.7","94990","List1A","black","woman","","","","null","","","","","","","","",""
"9329.39999961853","","","survey-text","257","1302238","0.0-17.0-3.7","94990","List1A","black","woman","","","","","{""Q0"":""mike is challenging luke""}","<img src=""stim_listA/challenge5.gif""style=""height:400px;""></stim_listA>","is challenging","","","","","",""
"null","<div style=""font-size:60px;"">+</div>","","html-keyboard-response","258","1302754","0.0-17.0-0.8","94990","List1A","black","woman","","","","null","","","","","","","","",""
"null","<img src=""stim_listA/hug1.gif""style=""height:400px;""></stim_listA>","","html-keyboard-response","259","1304756","0.0-17.0-1.8","94990","List1A","black","woman","","","","null","","","","","","","","",""
"null","is hugging","","html-keyboard-response","260","1306759","0.0-17.0-2.8","94990","List1A","black","woman","","","","null","","","","","","","","",""
"7798.800000190735","","","survey-text","261","1314559","0.0-17.0-3.8","94990","List1A","black","woman","","","","","{""Q0"":""fred is hugging beth""}","<img src=""stim_listA/hug1.gif""style=""height:400px;""></stim_listA>","is hugging","","","","","",""
"null","<div style=""font-size:60px;"">+</div>","","html-keyboard-response","262","1315071","0.0-17.0-0.9","94990","List1A","black","woman","","","","null","","","","","","","","",""
"null","<img src=""stim_listA/kiss8.gif""style=""height:400px;""></stim_listA>","","html-keyboard-response","263","1317088","0.0-17.0-1.9","94990","List1A","black","woman","","","","null","","","","","","","","",""
"null","is being kissed by","","html-keyboard-response","264","1319100","0.0-17.0-2.9","94990","List1A","black","woman","","","","null","","","","","","","","",""
"7283.10000038147","","","survey-text","265","1326385","0.0-17.0-3.9","94990","List1A","black","woman","","","","","{""Q0"":""kate is being kissed by jane""}","<img src=""stim_listA/kiss8.gif""style=""height:400px;""></stim_listA>","is being kissed by","","","","","",""
"null","<div style=""font-size:60px;"">+</div>","","html-keyboard-response","266","1326892","0.0-17.0-0.10","94990","List1A","black","woman","","","","null","","","","","","","","",""
"null","<img src=""stim_listA/touch8.gif""style=""height:400px;""></stim_listA>","","html-keyboard-response","267","1328896","0.0-17.0-1.10","94990","List1A","black","woman","","","","null","","","","","","","","",""
"null","is being touched by","","html-keyboard-response","268","1330901","0.0-17.0-2.10","94990","List1A","black","woman","","","","null","","","","","","","","",""
"9442","","","survey-text","269","1340344","0.0-17.0-3.10","94990","List1A","black","woman","","","","","{""Q0"":""ruth is being touched by beth""}","<img src=""stim_listA/touch8.gif""style=""height:400px;""></stim_listA>","is being touched by","","","","","",""
"null","<div style=""font-size:60px;"">+</div>","","html-keyboard-response","270","1340846","0.0-17.0-0.11","94990","List1A","black","woman","","","","null","","","","","","","","",""
"null","<img src=""stim_listA/look5.gif""style=""height:400px;""></stim_listA>","","html-keyboard-response","271","1342861","0.0-17.0-1.11","94990","List1A","black","woman","","","","null","","","","","","","","",""
"null","is looking at","","html-keyboard-response","272","1344872","0.0-17.0-2.11","94990","List1A","black","woman","","","","null","","","","","","","","",""
"10054.799999713898","","","survey-text","273","1354929","0.0-17.0-3.11","94990","List1A","black","woman","","","","","{""Q0"":""luke is looking at fred""}","<img src=""stim_listA/look5.gif""style=""height:400px;""></stim_listA>","is looking at","","","","","",""
"null","<div style=""font-size:60px;"">+</div>","","html-keyboard-response","274","1355431","0.0-17.0-0.12","94990","List1A","black","woman","","","","null","","","","","","","","",""
"null","<img src=""stim_listA/shout2.gif""style=""height:400px;""></stim_listA>","","html-keyboard-response","275","1357433","0.0-17.0-1.12","94990","List1A","black","woman","","","","null","","","","","","","","",""
"null","is being shouted at by","","html-keyboard-response","276","1359446","0.0-17.0-2.12","94990","List1A","black","woman","","","","null","","","","","","","","",""
"12925","","","survey-text","277","1372372","0.0-17.0-3.12","94990","List1A","black","woman","","","","","{""Q0"":""mike is being shouted at by kate""}","<img src=""stim_listA/shout2.gif""style=""height:400px;""></stim_listA>","is being shouted at by","","","","","",""
"null","<div style=""font-size:60px;"">+</div>","","html-keyboard-response","278","1372888","0.0-17.0-0.13","94990","List1A","black","woman","","","","null","","","","","","","","",""
"null","<img src=""stim_listA/greet3.gif""style=""height:400px;""></stim_listA>","","html-keyboard-response","279","1374893","0.0-17.0-1.13","94990","List1A","black","woman","","","","null","","","","","","","","",""
"null","is greeting","","html-keyboard-response","280","1376898","0.0-17.0-2.13","94990","List1A","black","woman","","","","null","","","","","","","","",""
"10059.5","","","survey-text","281","1386959","0.0-17.0-3.13","94990","List1A","black","woman","","","","","{""Q0"":""dave is greeting ruth""}","<img src=""stim_listA/greet3.gif""style=""height:400px;""></stim_listA>","is greeting","","","","","",""
"null","<div style=""font-size:60px;"">+</div>","","html-keyboard-response","282","1387482","0.0-17.0-0.14","94990","List1A","black","woman","","","","null","","","","","","","","",""
"null","<img src=""stim_listA/challenge2.gif""style=""height:400px;""></stim_listA>","","html-keyboard-response","283","1389488","0.0-17.0-1.14","94990","List1A","black","woman","","","","null","","","","","","","","",""
"null","is being challenged by","","html-keyboard-response","284","1391493","0.0-17.0-2.14","94990","List1A","black","woman","","","","null","","","","","","","","",""
"8927","","","survey-text","285","1400421","0.0-17.0-3.14","94990","List1A","black","woman","","","","","{""Q0"":""fred is challenging kate""}","<img src=""stim_listA/challenge2.gif""style=""height:400px;""></stim_listA>","is being challenged by","","","","","",""
"null","<div style=""font-size:60px;"">+</div>","","html-keyboard-response","286","1400935","0.0-17.0-0.15","94990","List1A","black","woman","","","","null","","","","","","","","",""
"null","<img src=""stim_listA/greet8.gif""style=""height:400px;""></stim_listA>","","html-keyboard-response","287","1402950","0.0-17.0-1.15","94990","List1A","black","woman","","","","null","","","","","","","","",""
"null","is being greeted by","","html-keyboard-response","288","1404967","0.0-17.0-2.15","94990","List1A","black","woman","","","","null","","","","","","","","",""
"9084.5","","","survey-text","289","1414053","0.0-17.0-3.15","94990","List1A","black","woman","","","","","{""Q0"":""beth is being greeted by jane""}","<img src=""stim_listA/greet8.gif""style=""height:400px;""></stim_listA>","is being greeted by","","","","","",""
"null","<div style=""font-size:60px;"">+</div>","","html-keyboard-response","290","1414570","0.0-17.0-0.16","94990","List1A","black","woman","","","","null","","","","","","","","",""
"null","<img src=""stim_listA/copy4.gif""style=""height:400px;""></stim_listA>","","html-keyboard-response","291","1416571","0.0-17.0-1.16","94990","List1A","black","woman","","","","null","","","","","","","","",""
"null","is being copied by","","html-keyboard-response","292","1418578","0.0-17.0-2.16","94990","List1A","black","woman","","","","null","","","","","","","","",""
"7725.699999809265","","","survey-text","293","1426305","0.0-17.0-3.16","94990","List1A","black","woman","","","","","{""Q0"":""luke is being copied by jane""}","<img src=""stim_listA/copy4.gif""style=""height:400px;""></stim_listA>","is being copied by","","","","","",""
"null","<div style=""font-size:60px;"">+</div>","","html-keyboard-response","294","1426819","0.0-17.0-0.17","94990","List1A","black","woman","","","","null","","","","","","","","",""
"null","<img src=""stim_listA/copy6.gif""style=""height:400px;""></stim_listA>","","html-keyboard-response","295","1428834","0.0-17.0-1.17","94990","List1A","black","woman","","","","null","","","","","","","","",""
"null","is being copied by","","html-keyboard-response","296","1430840","0.0-17.0-2.17","94990","List1A","black","woman","","","","null","","","","","","","","",""
"8241.60000038147","","","survey-text","297","1439083","0.0-17.0-3.17","94990","List1A","black","woman","","","","","{""Q0"":""dave is being copied by fred""}","<img src=""stim_listA/copy6.gif""style=""height:400px;""></stim_listA>","is being copied by","","","","","",""
"null","<div style=""font-size:60px;"">+</div>","","html-keyboard-response","298","1439590","0.0-17.0-0.18","94990","List1A","black","woman","","","","null","","","","","","","","",""
"null","<img src=""stim_listA/shout8.gif""style=""height:400px;""></stim_listA>","","html-keyboard-response","299","1441602","0.0-17.0-1.18","94990","List1A","black","woman","","","","null","","","","","","","","",""
"null","is being shouted at by","","html-keyboard-response","300","1443616","0.0-17.0-2.18","94990","List1A","black","woman","","","","null","","","","","","","","",""
"10377.599999904633","","","survey-text","301","1453996","0.0-17.0-3.18","94990","List1A","black","woman","","","","","{""Q0"":""kate is being shouted at by jane""}","<img src=""stim_listA/shout8.gif""style=""height:400px;""></stim_listA>","is being shouted at by","","","","","",""
"null","<div style=""font-size:60px;"">+</div>","","html-keyboard-response","302","1454513","0.0-17.0-0.19","94990","List1A","black","woman","","","","null","","","","","","","","",""
"null","<img src=""stim_listA/look4.gif""style=""height:400px;""></stim_listA>","","html-keyboard-response","303","1456515","0.0-17.0-1.19","94990","List1A","black","woman","","","","null","","","","","","","","",""
"null","is being looked at by","","html-keyboard-response","304","1458528","0.0-17.0-2.19","94990","List1A","black","woman","","","","null","","","","","","","","",""
"13562.799999713898","","","survey-text","305","1472093","0.0-17.0-3.19","94990","List1A","black","woman","","","","","{""Q0"":""jane is being looked at by dave""}","<img src=""stim_listA/look4.gif""style=""height:400px;""></stim_listA>","is being looked at by","","","","","",""
"2798.300000190735","<img src='img/portrait_matrix_list1.jpg' style='width:900px;height:500px;''></img><p>If you have memorised all the portraits and names and are ready to start, press Continue.</p><p><strong>Please note: Your memory of these faces will be tested 4 times during this experiment.</strong></p>","0","html-button-response","306","1474893","0.0-18.0-0.0","94990","List1A","black","woman","","","","","","","","","","","","",""
"2093.9000000953674","<img src=""portrait/BM2.jpg""style=""height:400px;""></img>","5","html-button-response","307","1477999","0.0-18.0-1.0","94990","List1A","black","woman","","true","5","","","","","","","","","",""
"null","CORRECT","","html-keyboard-response","308","1479515","0.0-18.0-2.0-0.0","94990","List1A","black","woman","","","","null","","","","","","","","",""
"1586.9000000953674","<img src=""portrait/BW2.jpg""style=""height:400px;""></img>","2","html-button-response","309","1481103","0.0-18.0-4.0","94990","List1A","black","woman","","true","2","","","","","","","","","",""
"null","CORRECT","","html-keyboard-response","310","1482639","0.0-18.0-5.0-0.0","94990","List1A","black","woman","","","","null","","","","","","","","",""
"1538.9000000953674","<img src=""portrait/WM1.jpg""style=""height:400px;""></img>","6","html-button-response","311","1484179","0.0-18.0-7.0","94990","List1A","black","woman","","true","6","","","","","","","","","",""
"null","CORRECT","","html-keyboard-response","312","1485701","0.0-18.0-8.0-0.0","94990","List1A","black","woman","","","","null","","","","","","","","",""
"2029.7000002861023","<img src=""portrait/BW1.jpg""style=""height:400px;""></img>","0","html-button-response","313","1487732","0.0-18.0-10.0","94990","List1A","black","woman","","true","0","","","","","","","","","",""
"null","CORRECT","","html-keyboard-response","314","1489268","0.0-18.0-11.0-0.0","94990","List1A","black","woman","","","","null","","","","","","","","",""
"1481.2999997138977","<img src=""portrait/WM2.jpg""style=""height:400px;""></img>","7","html-button-response","315","1490751","0.0-18.0-13.0","94990","List1A","black","woman","","true","7","","","","","","","","","",""
"null","CORRECT","","html-keyboard-response","316","1492282","0.0-18.0-14.0-0.0","94990","List1A","black","woman","","","","null","","","","","","","","",""
"2633.800000190735","<img src=""portrait/BM1.jpg""style=""height:400px;""></img>","4","html-button-response","317","1494917","0.0-18.0-16.0","94990","List1A","black","woman","","true","4","","","","","","","","","",""
"null","CORRECT","","html-keyboard-response","318","1496443","0.0-18.0-17.0-0.0","94990","List1A","black","woman","","","","null","","","","","","","","",""
"2553.9000000953674","<img src=""portrait/WW2.jpg""style=""height:400px;""></img>","3","html-button-response","319","1498998","0.0-18.0-19.0","94990","List1A","black","woman","","true","3","","","","","","","","","",""
"null","CORRECT","","html-keyboard-response","320","1500527","0.0-18.0-20.0-0.0","94990","List1A","black","woman","","","","null","","","","","","","","",""
"2232.199999809265","<img src=""portrait/WW1.jpg""style=""height:400px;""></img>","1","html-button-response","321","1502761","0.0-18.0-22.0","94990","List1A","black","woman","","true","1","","","","","","","","","",""
"null","CORRECT","","html-keyboard-response","322","1504269","0.0-18.0-23.0-0.0","94990","List1A","black","woman","","","","null","","","","","","","","",""
"1278.2999997138977","<p>You got 8 out of 8 right first time. Press Continue.</p>","0","html-button-response","323","1505549","0.0-18.0-25.0","94990","List1A","black","woman","","","","","","","","","","","","",""
"null","<div style=""font-size:60px;"">+</div>","","html-keyboard-response","324","1507063","0.0-19.0-0.0","94990","List1A","black","woman","","","","null","","","","","","","","",""
"null","<img src=""stim_listA/greet1.gif""style=""height:400px;""></stim_listA>","","html-keyboard-response","325","1509067","0.0-19.0-1.0","94990","List1A","black","woman","","","","null","","","","","","","","",""
"null","is greeting","","html-keyboard-response","326","1511071","0.0-19.0-2.0","94990","List1A","black","woman","","","","null","","","","","","","","",""
"10568.400000095367","","","survey-text","327","1521642","0.0-19.0-3.0","94990","List1A","black","woman","","","","","{""Q0"":""mike is greeting beth""}","<img src=""stim_listA/greet1.gif""style=""height:400px;""></stim_listA>","is greeting","","","","","",""
"null","<div style=""font-size:60px;"">+</div>","","html-keyboard-response","328","1522158","0.0-19.0-0.1","94990","List1A","black","woman","","","","null","","","","","","","","",""
"null","<img src=""stim_listA/hug3.gif""style=""height:400px;""></stim_listA>","","html-keyboard-response","329","1524163","0.0-19.0-1.1","94990","List1A","black","woman","","","","null","","","","","","","","",""
"null","is hugging","","html-keyboard-response","330","1526177","0.0-19.0-2.1","94990","List1A","black","woman","","","","null","","","","","","","","",""
"8247.199999809265","","","survey-text","331","1534426","0.0-19.0-3.1","94990","List1A","black","woman","","","","","{""Q0"":""ruth is hugging luke""}","<img src=""stim_listA/hug3.gif""style=""height:400px;""></stim_listA>","is hugging","","","","","",""
"null","<div style=""font-size:60px;"">+</div>","","html-keyboard-response","332","1534931","0.0-19.0-0.2","94990","List1A","black","woman","","","","null","","","","","","","","",""
"null","<img src=""stim_listA/oppose3.gif""style=""height:400px;""></stim_listA>","","html-keyboard-response","333","1536945","0.0-19.0-1.2","94990","List1A","black","woman","","","","null","","","","","","","","",""
"null","is opposing","","html-keyboard-response","334","1538957","0.0-19.0-2.2","94990","List1A","black","woman","","","","null","","","","","","","","",""
"6796.700000286102","","","survey-text","335","1545756","0.0-19.0-3.2","94990","List1A","black","woman","","","","","{""Q0"":""dave is opposing jane""}","<img src=""stim_listA/oppose3.gif""style=""height:400px;""></stim_listA>","is opposing","","","","","",""
"null","<div style=""font-size:60px;"">+</div>","","html-keyboard-response","336","1546261","0.0-19.0-0.3","94990","List1A","black","woman","","","","null","","","","","","","","",""
"null","<img src=""stim_listA/look6.gif""style=""height:400px;""></stim_listA>","","html-keyboard-response","337","1548267","0.0-19.0-1.3","94990","List1A","black","woman","","","","null","","","","","","","","",""
"null","is being looked at by","","html-keyboard-response","338","1550272","0.0-19.0-2.3","94990","List1A","black","woman","","","","null","","","","","","","","",""
"16880.700000286102","","","survey-text","339","1567154","0.0-19.0-3.3","94990","List1A","black","woman","","","","","{""Q0"":""dave is being looked at by mike""}","<img src=""stim_listA/look6.gif""style=""height:400px;""></stim_listA>","is being looked at by","","","","","",""
"null","<div style=""font-size:60px;"">+</div>","","html-keyboard-response","340","1567670","0.0-19.0-0.4","94990","List1A","black","woman","","","","null","","","","","","","","",""
"null","<img src=""stim_listA/challenge6.gif""style=""height:400px;""></stim_listA>","","html-keyboard-response","341","1569678","0.0-19.0-1.4","94990","List1A","black","woman","","","","null","","","","","","","","",""
"null","is being challenged by","","html-keyboard-response","342","1571691","0.0-19.0-2.4","94990","List1A","black","woman","","","","null","","","","","","","","",""
"15329.599999904633","","","survey-text","343","1587022","0.0-19.0-3.4","94990","List1A","black","woman","","","","","{""Q0"":""dave is being challenged by fred""}","<img src=""stim_listA/challenge6.gif""style=""height:400px;""></stim_listA>","is being challenged by","","","","","",""
"null","<div style=""font-size:60px;"">+</div>","","html-keyboard-response","344","1587532","0.0-19.0-0.5","94990","List1A","black","woman","","","","null","","","","","","","","",""
"null","<img src=""stim_listA/touch7.gif""style=""height:400px;""></stim_listA>","","html-keyboard-response","345","1589542","0.0-19.0-1.5","94990","List1A","black","woman","","","","null","","","","","","","","",""
"null","is touching","","html-keyboard-response","346","1591549","0.0-19.0-2.5","94990","List1A","black","woman","","","","null","","","","","","","","",""
"24638.200000286102","","","survey-text","347","1616189","0.0-19.0-3.5","94990","List1A","black","woman","","","","","{""Q0"":""jane is touching kate""}","<img src=""stim_listA/touch7.gif""style=""height:400px;""></stim_listA>","is touching","","","","","",""
"null","<div style=""font-size:60px;"">+</div>","","html-keyboard-response","348","1616701","0.0-19.0-0.6","94990","List1A","black","woman","","","","null","","","","","","","","",""
"null","<img src=""stim_listA/touch3.gif""style=""height:400px;""></stim_listA>","","html-keyboard-response","349","1618711","0.0-19.0-1.6","94990","List1A","black","woman","","","","null","","","","","","","","",""
"null","is touching","","html-keyboard-response","350","1620725","0.0-19.0-2.6","94990","List1A","black","woman","","","","null","","","","","","","","",""
"350519.5","","","survey-text","351","1971246","0.0-19.0-3.6","94990","List1A","black","woman","","","","","{""Q0"":""dave is touching jane""}","<img src=""stim_listA/touch3.gif""style=""height:400px;""></stim_listA>","is touching","","","","","",""
"null","<div style=""font-size:60px;"">+</div>","","html-keyboard-response","352","1971761","0.0-19.0-0.7","94990","List1A","black","woman","","","","null","","","","","","","","",""
"null","<img src=""stim_listA/touch5.gif""style=""height:400px;""></stim_listA>","","html-keyboard-response","353","1973768","0.0-19.0-1.7","94990","List1A","black","woman","","","","null","","","","","","","","",""
"null","is touching","","html-keyboard-response","354","1975779","0.0-19.0-2.7","94990","List1A","black","woman","","","","null","","","","","","","","",""
"150535.90000009537","","","survey-text","355","2126317","0.0-19.0-3.7","94990","List1A","black","woman","","","","","{""Q0"":""dave is touching mike ""}","<img src=""stim_listA/touch5.gif""style=""height:400px;""></stim_listA>","is touching","","","","","",""
"null","<div style=""font-size:60px;"">+</div>","","html-keyboard-response","356","2126822","0.0-19.0-0.8","94990","List1A","black","woman","","","","null","","","","","","","","",""
"null","<img src=""stim_listA/hug4.gif""style=""height:400px;""></stim_listA>","","html-keyboard-response","357","2128834","0.0-19.0-1.8","94990","List1A","black","woman","","","","null","","","","","","","","",""
"null","is being hugged by","","html-keyboard-response","358","2130848","0.0-19.0-2.8","94990","List1A","black","woman","","","","null","","","","","","","","",""
"15179","","","survey-text","359","2146029","0.0-19.0-3.8","94990","List1A","black","woman","","","","","{""Q0"":""dave is being hugged by jane""}","<img src=""stim_listA/hug4.gif""style=""height:400px;""></stim_listA>","is being hugged by","","","","","",""
"null","<div style=""font-size:60px;"">+</div>","","html-keyboard-response","360","2146532","0.0-19.0-0.9","94990","List1A","black","woman","","","","null","","","","","","","","",""
"null","<img src=""stim_listA/greet4.gif""style=""height:400px;""></stim_listA>","","html-keyboard-response","361","2148534","0.0-19.0-1.9","94990","List1A","black","woman","","","","null","","","","","","","","",""
"null","is being greeted by","","html-keyboard-response","362","2150547","0.0-19.0-2.9","94990","List1A","black","woman","","","","null","","","","","","","","",""
"11871.199999809265","","","survey-text","363","2162421","0.0-19.0-3.9","94990","List1A","black","woman","","","","","{""Q0"":""luke is being greeted by jane""}","<img src=""stim_listA/greet4.gif""style=""height:400px;""></stim_listA>","is being greeted by","","","","","",""
"null","<div style=""font-size:60px;"">+</div>","","html-keyboard-response","364","2162925","0.0-19.0-0.10","94990","List1A","black","woman","","","","null","","","","","","","","",""
"null","<img src=""stim_listA/oppose4.gif""style=""height:400px;""></stim_listA>","","html-keyboard-response","365","2164939","0.0-19.0-1.10","94990","List1A","black","woman","","","","null","","","","","","","","",""
"null","is being opposed by","","html-keyboard-response","366","2166950","0.0-19.0-2.10","94990","List1A","black","woman","","","","null","","","","","","","","",""
"35537.40000009537","","","survey-text","367","2202489","0.0-19.0-3.10","94990","List1A","black","woman","","","","","{""Q0"":""luke is being opposed ruth""}","<img src=""stim_listA/oppose4.gif""style=""height:400px;""></stim_listA>","is being opposed by","","","","","",""
"null","<div style=""font-size:60px;"">+</div>","","html-keyboard-response","368","2203004","0.0-19.0-0.11","94990","List1A","black","woman","","","","null","","","","","","","","",""
"null","<img src=""stim_listA/kiss6.gif""style=""height:400px;""></stim_listA>","","html-keyboard-response","369","2205006","0.0-19.0-1.11","94990","List1A","black","woman","","","","null","","","","","","","","",""
"null","is being kissed by","","html-keyboard-response","370","2207017","0.0-19.0-2.11","94990","List1A","black","woman","","","","null","","","","","","","","",""
"19582.599999904633","","","survey-text","371","2226602","0.0-19.0-3.11","94990","List1A","black","woman","","","","","{""Q0"":""mike is being kissed by luke""}","<img src=""stim_listA/kiss6.gif""style=""height:400px;""></stim_listA>","is being kissed by","","","","","",""
"null","<div style=""font-size:60px;"">+</div>","","html-keyboard-response","372","2227119","0.0-19.0-0.12","94990","List1A","black","woman","","","","null","","","","","","","","",""
"null","<img src=""stim_listA/hug7.gif""style=""height:400px;""></stim_listA>","","html-keyboard-response","373","2229121","0.0-19.0-1.12","94990","List1A","black","woman","","","","null","","","","","","","","",""
"null","is hugging","","html-keyboard-response","374","2231136","0.0-19.0-2.12","94990","List1A","black","woman","","","","null","","","","","","","","",""
"49031.90000009537","","","survey-text","375","2280169","0.0-19.0-3.12","94990","List1A","black","woman","","","","","{""Q0"":""beth is hugging ruth""}","<img src=""stim_listA/hug7.gif""style=""height:400px;""></stim_listA>","is hugging","","","","","",""
"null","<div style=""font-size:60px;"">+</div>","","html-keyboard-response","376","2280681","0.0-19.0-0.13","94990","List1A","black","woman","","","","null","","","","","","","","",""
"null","<img src=""stim_listA/hug6.gif""style=""height:400px;""></stim_listA>","","html-keyboard-response","377","2282697","0.0-19.0-1.13","94990","List1A","black","woman","","","","null","","","","","","","","",""
"null","is being hugged by","","html-keyboard-response","378","2284707","0.0-19.0-2.13","94990","List1A","black","woman","","","","null","","","","","","","","",""
"14255.400000095367","","","survey-text","379","2298965","0.0-19.0-3.13","94990","List1A","black","woman","","","","","{""Q0"":""dave is being hugged by mike""}","<img src=""stim_listA/hug6.gif""style=""height:400px;""></stim_listA>","is being hugged by","","","","","",""
"null","<div style=""font-size:60px;"">+</div>","","html-keyboard-response","380","2299468","0.0-19.0-0.14","94990","List1A","black","woman","","","","null","","","","","","","","",""
"null","<img src=""stim_listA/oppose2.gif""style=""height:400px;""></stim_listA>","","html-keyboard-response","381","2301469","0.0-19.0-1.14","94990","List1A","black","woman","","","","null","","","","","","","","",""
"null","is being opposed by","","html-keyboard-response","382","2303474","0.0-19.0-2.14","94990","List1A","black","woman","","","","null","","","","","","","","",""
"13662","","","survey-text","383","2317138","0.0-19.0-3.14","94990","List1A","black","woman","","","","","{""Q0"":""fred is being opposed by beth""}","<img src=""stim_listA/oppose2.gif""style=""height:400px;""></stim_listA>","is being opposed by","","","","","",""
"null","<div style=""font-size:60px;"">+</div>","","html-keyboard-response","384","2317644","0.0-19.0-0.15","94990","List1A","black","woman","","","","null","","","","","","","","",""
"null","<img src=""stim_listA/oppose6.gif""style=""height:400px;""></stim_listA>","","html-keyboard-response","385","2319652","0.0-19.0-1.15","94990","List1A","black","woman","","","","null","","","","","","","","",""
"null","is being opposed by","","html-keyboard-response","386","2321657","0.0-19.0-2.15","94990","List1A","black","woman","","","","null","","","","","","","","",""
"17921.599999904633","","","survey-text","387","2339581","0.0-19.0-3.15","94990","List1A","black","woman","","","","","{""Q0"":""fred is being opposed by luke""}","<img src=""stim_listA/oppose6.gif""style=""height:400px;""></stim_listA>","is being opposed by","","","","","",""
"null","<div style=""font-size:60px;"">+</div>","","html-keyboard-response","388","2340094","0.0-19.0-0.16","94990","List1A","black","woman","","","","null","","","","","","","","",""
"null","<img src=""stim_listA/shout4.gif""style=""height:400px;""></stim_listA>","","html-keyboard-response","389","2342108","0.0-19.0-1.16","94990","List1A","black","woman","","","","null","","","","","","","","",""
"null","is being shouted at by","","html-keyboard-response","390","2344119","0.0-19.0-2.16","94990","List1A","black","woman","","","","null","","","","","","","","",""
"14017.099999904633","","","survey-text","391","2358138","0.0-19.0-3.16","94990","List1A","black","woman","","","","","{""Q0"":""dave is being shouted at by jane""}","<img src=""stim_listA/shout4.gif""style=""height:400px;""></stim_listA>","is being shouted at by","","","","","",""
"null","<div style=""font-size:60px;"">+</div>","","html-keyboard-response","392","2358651","0.0-19.0-0.17","94990","List1A","black","woman","","","","null","","","","","","","","",""
"null","<img src=""stim_listA/seduce1.gif""style=""height:400px;""></stim_listA>","","html-keyboard-response","393","2360664","0.0-19.0-1.17","94990","List1A","black","woman","","","","null","","","","","","","","",""
"null","is seducing","","html-keyboard-response","394","2362669","0.0-19.0-2.17","94990","List1A","black","woman","","","","null","","","","","","","","",""
"9913.099999904633","","","survey-text","395","2372588","0.0-19.0-3.17","94990","List1A","black","woman","","","","","{""Q0"":""fred is seducing kate""}","<img src=""stim_listA/seduce1.gif""style=""height:400px;""></stim_listA>","is seducing","","","","","",""
"null","<div style=""font-size:60px;"">+</div>","","html-keyboard-response","396","2373104","0.0-19.0-0.18","94990","List1A","black","woman","","","","null","","","","","","","","",""
"null","<img src=""stim_listA/touch4.gif""style=""height:400px;""></stim_listA>","","html-keyboard-response","397","2375116","0.0-19.0-1.18","94990","List1A","black","woman","","","","null","","","","","","","","",""
"null","is being touched by","","html-keyboard-response","398","2377126","0.0-19.0-2.18","94990","List1A","black","woman","","","","null","","","","","","","","",""
"13177.300000190735","","","survey-text","399","2390305","0.0-19.0-3.18","94990","List1A","black","woman","","","","","{""Q0"":""luke is being touched by ruth""}","<img src=""stim_listA/touch4.gif""style=""height:400px;""></stim_listA>","is being touched by","","","","","",""
"null","<div style=""font-size:60px;"">+</div>","","html-keyboard-response","400","2390815","0.0-19.0-0.19","94990","List1A","black","woman","","","","null","","","","","","","","",""
"null","<img src=""stim_listA/look8.gif""style=""height:400px;""></stim_listA>","","html-keyboard-response","401","2392819","0.0-19.0-1.19","94990","List1A","black","woman","","","","null","","","","","","","","",""
"null","is being looked at by","","html-keyboard-response","402","2394831","0.0-19.0-2.19","94990","List1A","black","woman","","","","null","","","","","","","","",""
"14482.800000190735","","","survey-text","403","2409316","0.0-19.0-3.19","94990","List1A","black","woman","","","","","{""Q0"":""kate is being looked at by jane""}","<img src=""stim_listA/look8.gif""style=""height:400px;""></stim_listA>","is being looked at by","","","","","",""
"2872","<p>Thank you for completing that task.</p><p>The final part of this session is a questionnaire that will take about 4 minutes.</p><p>Press Continue.</p>","0","html-button-response","404","2412189","0.0-20.0","94990","List1A","black","woman","","","","","","","","","","","","",""
"39834.2999997139","","","survey-text","405","2453028","0.0-21.0","94990","List1A","black","woman","","","","","{""Q0"":""30"",""Q1"":""english"",""Q2"":""english"",""Q3"":""United States"",""Q4"":""American"",""Q5"":""white"",""Q6"":""female""}","","","demographics","","","","",""
"2531.1000003814697","<p>Have you lived in the USA for the last 5 years or more?</p>","0","html-button-response","406","2455562","0.0-22.0","94990","List1A","black","woman","","","","","","","","fiveyears","","","","",""
"2718.2000002861023","<p>Move the slider to show the extent to which you agree with the following statements.</p>","0","html-button-response","407","2459292","0.0-23.0","94990","List1A","black","woman","","","","","","","","","","","","",""
"6265.800000190735","","","html-slider-response","408","2466567","0.0-24.0-0.0-0.0","94990","List1A","black","woman","","","","","","","","survey_race","79","","","The fact that I am my race is an important part of my identity.","identity"
"4338.5","","","html-slider-response","409","2470906","0.0-24.0-0.0-0.1","94990","List1A","black","woman","","","","","","","","survey_race","77","","","I have a lot in common with people of a similar age to me.","filler"
"5806.200000286102","","","html-slider-response","410","2476714","0.0-24.0-0.0-0.2","94990","List1A","black","woman","","","","","","","","survey_race","58","","","I feel a bond with people the same age as me.","filler"
"3242.300000190735","","","html-slider-response","411","2479958","0.0-24.0-0.0-0.3","94990","List1A","black","woman","","","","","","","","survey_race","71","","","The older I get, the wiser I feel.","filler"
"5093.39999961853","","","html-slider-response","412","2485053","0.0-24.0-0.0-0.4","94990","List1A","black","woman","","","","","","","","survey_race","31","","","I often think about the fact that I am my age.","filler"
"3718.699999809265","","","html-slider-response","413","2488774","0.0-24.0-0.0-0.5","94990","List1A","black","woman","","","","","","","","survey_race","71","","","Being my race is an important part of how I see myself.","important"
"5977.5","","","html-slider-response","414","2494753","0.0-24.0-0.0-0.6","94990","List1A","black","woman","","","","","","","","survey_race","38","","","I think that my race has a lot to be proud of.","proud"
"7548.799999713898","","","html-slider-response","415","2502304","0.0-24.0-0.0-0.7","94990","List1A","black","woman","","","","","","","","survey_race","57","","","Being my age gives me a good feeling.","filler"
"4239.299999713898","","","html-slider-response","416","2506545","0.0-24.0-0.0-0.8","94990","List1A","black","woman","","","","","","","","survey_race","18","","","I consider myself an extrovert.","filler"
"7573.5","","","html-slider-response","417","2514120","0.0-24.0-0.0-0.9","94990","List1A","black","woman","","","","","","","","survey_race","52","","","It is pleasant to be my race.","pleasant"
"5764.900000095367","","","html-slider-response","418","2519887","0.0-24.0-0.0-0.10","94990","List1A","black","woman","","","","","","","","survey_race","9","","","I enjoy being in large groups.","filler"
"3445.199999809265","","","html-slider-response","419","2523334","0.0-24.0-0.0-0.11","94990","List1A","black","woman","","","","","","","","survey_race","55","","","I feel committed to my race.","committed"
"4556.799999713898","","","html-slider-response","420","2527892","0.0-24.0-0.0-0.12","94990","List1A","black","woman","","","","","","","","survey_race","44","","","Getting older does not worry me.","filler"
"2331.5","","","html-slider-response","421","2530225","0.0-24.0-0.0-0.13","94990","List1A","black","woman","","","","","","","","survey_race","45","","","I am glad to be my age.","filler"
"3234.5","","","html-slider-response","422","2533461","0.0-24.0-0.0-0.14","94990","List1A","black","woman","","","","","","","","survey_race","56","","","People my age have a lot in common with each other.","filler"
"2631.4000000953674","","","html-slider-response","423","2536094","0.0-24.0-0.0-0.15","94990","List1A","black","woman","","","","","","","","survey_race","46","","","My age is not an important part of who I am.","filler"
"2293.2999997138977","","","html-slider-response","424","2538388","0.0-24.0-0.0-0.16","94990","List1A","black","woman","","","","","","","","survey_race","55","","","I feel a bond with my race.","bond"
"2424.5999999046326","","","html-slider-response","425","2540814","0.0-24.0-0.0-0.17","94990","List1A","black","woman","","","","","","","","survey_race","60","","","People of my race have a lot in common with each other.","common"
"1703.6000003814697","","","html-slider-response","426","2542519","0.0-24.0-0.0-0.18","94990","List1A","black","woman","","","","","","","","survey_race","59","","","I am glad to be my race.","glad"
"3365.4000000953674","","","html-slider-response","427","2545886","0.0-24.0-0.0-0.19","94990","List1A","black","woman","","","","","","","","survey_race","95","","","I consider myself an introvert.","filler"
"2639.5","","","html-slider-response","428","2548526","0.0-24.0-0.0-0.20","94990","List1A","black","woman","","","","","","","","survey_race","60","","","I feel solidarity with people the same age as me.","filler"
"1974.1999998092651","","","html-slider-response","429","2550502","0.0-24.0-0.0-0.21","94990","List1A","black","woman","","","","","","","","survey_race","65","","","I feel solidarity with my race.","solidarity"
"4209.900000095367","","","html-slider-response","430","2554713","0.0-24.0-0.0-0.22","94990","List1A","black","woman","","","","","","","","survey_race","53","","","I am similar to the average person of my race.","similar"
"2778.2999997138977","","","html-slider-response","431","2557493","0.0-24.0-0.0-0.23","94990","List1A","black","woman","","","","","","","","survey_race","57","","","I have a lot in common with the average person of my race.","average"
"3960.9000000953674","","","html-slider-response","432","2561455","0.0-24.0-0.0-0.24","94990","List1A","black","woman","","","","","","","","survey_race","48","","","I am glad to be the age I am.","filler"
"3624.5","","","html-slider-response","433","2565081","0.0-24.0-0.0-0.25","94990","List1A","black","woman","","","","","","","","survey_race","54","","","Being my race gives me a good feeling.","feeling"
"2898.0999999046326","","","html-slider-response","434","2567981","0.0-24.0-0.0-0.26","94990","List1A","black","woman","","","","","","","","survey_race","54","","","I often think about the fact that I am my race.","often"
"2300.4000000953674","","","html-slider-response","435","2570283","0.0-24.0-0.0-0.27","94990","List1A","black","woman","","","","","","","","survey_race","54","","","People of my race are very similar to each other.","verysimilar"
"5964.39999961853","","","html-slider-response","436","2576249","0.0-24.0-1.0-0.0","94990","List1A","black","woman","","","","","","","","survey_gender","59","","","It is not always easy for people to know what I am thinking.","filler"
"6114.900000095367","","","html-slider-response","437","2582365","0.0-24.0-1.0-0.1","94990","List1A","black","woman","","","","","","","","survey_gender","5","","","Family is not more important to me than friendship.","filler"
"3227.7999997138977","","","html-slider-response","438","2585595","0.0-24.0-1.0-0.2","94990","List1A","black","woman","","","","","","","","survey_gender","67","","","My friends have a lot in common with each other.","filler"
"6107","","","html-slider-response","439","2591703","0.0-24.0-1.0-0.3","94990","List1A","black","woman","","","","","","","","survey_gender","45","","","I have a lot in common with the average person of my gender.","average"
"3401.300000190735","","","html-slider-response","440","2595106","0.0-24.0-1.0-0.4","94990","List1A","black","woman","","","","","","","","survey_gender","87","","","I consider myself a highly empathetic person.","filler"
"4159","","","html-slider-response","441","2599267","0.0-24.0-1.0-0.5","94990","List1A","black","woman","","","","","","","","survey_gender","72","","","Most of the friends in my life are very similar to me.","filler"
"2553.5","","","html-slider-response","442","2601822","0.0-24.0-1.0-0.6","94990","List1A","black","woman","","","","","","","","survey_gender","73","","","Being my gender is an important part of how I see myself.","important"
"2630.0999999046326","","","html-slider-response","443","2604453","0.0-24.0-1.0-0.7","94990","List1A","black","woman","","","","","","","","survey_gender","74","","","I think that my gender has a lot to be proud of.","proud"
"2133.9000000953674","","","html-slider-response","444","2606588","0.0-24.0-1.0-0.8","94990","List1A","black","woman","","","","","","","","survey_gender","70","","","I feel committed to my gender.","committed"
"3058.4000000953674","","","html-slider-response","445","2609647","0.0-24.0-1.0-0.9","94990","List1A","black","woman","","","","","","","","survey_gender","87","","","I would say I am an animal person.","filler"
"2709.300000190735","","","html-slider-response","446","2612358","0.0-24.0-1.0-0.10","94990","List1A","black","woman","","","","","","","","survey_gender","82","","","I am glad to have the friends that I have.","filler"
"3612","","","html-slider-response","447","2615971","0.0-24.0-1.0-0.11","94990","List1A","black","woman","","","","","","","","survey_gender","70","","","People of my gender have a lot in common with each other.","common"
"3494.199999809265","","","html-slider-response","448","2619467","0.0-24.0-1.0-0.12","94990","List1A","black","woman","","","","","","","","survey_gender","83","","","Routine is not important to me.","filler"
"3434.5","","","html-slider-response","449","2622903","0.0-24.0-1.0-0.13","94990","List1A","black","woman","","","","","","","","survey_gender","78","","","Being my gender gives me a good feeling.","feeling"
"3037.7000002861023","","","html-slider-response","450","2625942","0.0-24.0-1.0-0.14","94990","List1A","black","woman","","","","","","","","survey_gender","79","","","I feel solidarity with my friends.","filler"
"2305","","","html-slider-response","451","2628248","0.0-24.0-1.0-0.15","94990","List1A","black","woman","","","","","","","","survey_gender","80","","","I feel a bond with my friends.","filler"
"2679.300000190735","","","html-slider-response","452","2630929","0.0-24.0-1.0-0.16","94990","List1A","black","woman","","","","","","","","survey_gender","80","","","I have a lot in common with my friends.","filler"
"3057.0999999046326","","","html-slider-response","453","2633988","0.0-24.0-1.0-0.17","94990","List1A","black","woman","","","","","","","","survey_gender","78","","","Being around my friends gives me a good feeling.","filler"
"2174.0999999046326","","","html-slider-response","454","2636164","0.0-24.0-1.0-0.18","94990","List1A","black","woman","","","","","","","","survey_gender","70","","","I am glad to be my gender.","glad"
"2521.199999809265","","","html-slider-response","455","2638686","0.0-24.0-1.0-0.19","94990","List1A","black","woman","","","","","","","","survey_gender","69","","","I feel solidarity with my gender.","solidarity"
"2125.4000000953674","","","html-slider-response","456","2640814","0.0-24.0-1.0-0.20","94990","List1A","black","woman","","","","","","","","survey_gender","66","","","It is pleasant to be my gender.","pleasant"
"3580.2999997138977","","","html-slider-response","457","2644395","0.0-24.0-1.0-0.21","94990","List1A","black","woman","","","","","","","","survey_gender","71","","","The fact that I am my gender is an important part of my identity.","identity"
"3288.2999997138977","","","html-slider-response","458","2647685","0.0-24.0-1.0-0.22","94990","List1A","black","woman","","","","","","","","survey_gender","46","","","I am similar to the average person of my gender.","similar"
"4936.099999904633","","","html-slider-response","459","2652622","0.0-24.0-1.0-0.23","94990","List1A","black","woman","","","","","","","","survey_gender","56","","","People of my gender are very similar to each other.","verysimilar"
"78106.30000019073","","","html-slider-response","460","2730730","0.0-24.0-1.0-0.24","94990","List1A","black","woman","","","","","","","","survey_gender","45","","","I often think about the fact that I am my gender.","often"
"3187.8999996185303","","","html-slider-response","461","2733919","0.0-24.0-1.0-0.25","94990","List1A","black","woman","","","","","","","","survey_gender","56","","","I often think about my actions.","filler"
"3037.6000003814697","","","html-slider-response","462","2736958","0.0-24.0-1.0-0.26","94990","List1A","black","woman","","","","","","","","survey_gender","60","","","I feel a bond with my gender.","bond"
"4693.099999904633","","","html-slider-response","463","2741652","0.0-24.0-1.0-0.27","94990","List1A","black","woman","","","","","","","","survey_gender","82","","","My friends understand me.","filler"
"11339.299999713898","","","survey-text","464","2752994","0.0-25.0","94990","List1A","black","woman","","","","","{""Q0"":""5d38f983242a6f000156bbc1""}","","","worker_id","","","","",""
"10569.900000095367","","","external-html","465","2763806","0.0-26.0","94990","List1A","black","woman","debrief.html","","","","","","","","","","","",""
