"rt","stimulus","button_pressed","trial_type","trial_index","time_elapsed","internal_node_id","subject","list","ppt_race","ppt_gender","url","first_guess","correct","key_press","responses","image_type","phrase_type","test_part","response","stimulus1","stimulus2","question_type","survey_item"
"2175.5999999940395","Welcome to the experiment. Press Continue to begin.","0","html-button-response","0","2181","0.0-0.0","95450","List1B","white","man","","","","","","","","","","","","",""
"49640","","","external-html","1","53004","0.0-1.0","95450","List1B","white","man","consent.html","","","","","","","","","","","",""
"8563.59999999404","<p>On the next page, you will see portraits of 8 people and their names.</p><p>Your first task is to take a few minutes to memorise the names of these people.</p><p>You will have to recall their names during the rest of the experiment, so it is</p><p>essential that you try to memorise these people and their names as best as you can.</p><br><p><strong>You will then be tested on your memory of these names and portraits.</strong></p><br><p>The experiment will start after you have completed this memory test.</p><br><p>Ready?</p>","0","html-button-response","2","61569","0.0-2.0","95450","List1B","white","man","","","","","","","","","","","","",""
"83039.09999999404","<img src='img/portrait_matrix_list1.jpg' style='width:900px;height:500px;''></img><p>If you have memorised all the portraits and names and are ready to start, press Continue.</p><p><strong>Please note: Your memory of these faces will be tested 4 times during this experiment.</strong></p>","0","html-button-response","3","145611","0.0-3.0-0.0","95450","List1B","white","man","","","","","","","","","","","","",""
"6603.0999999940395","<img src=""portrait/BM1.jpg""style=""height:400px;""></img>","4","html-button-response","4","153231","0.0-3.0-1.0","95450","List1B","white","man","","true","4","","","","","","","","","",""
"null","CORRECT","","html-keyboard-response","5","154737","0.0-3.0-2.0-0.0","95450","List1B","white","man","","","","null","","","","","","","","",""
"8173.199999988079","<img src=""portrait/BW1.jpg""style=""height:400px;""></img>","0","html-button-response","6","162911","0.0-3.0-4.0","95450","List1B","white","man","","true","0","","","","","","","","","",""
"null","CORRECT","","html-keyboard-response","7","164438","0.0-3.0-5.0-0.0","95450","List1B","white","man","","","","null","","","","","","","","",""
"4114.9000000059605","<img src=""portrait/BW2.jpg""style=""height:400px;""></img>","2","html-button-response","8","168554","0.0-3.0-7.0","95450","List1B","white","man","","true","2","","","","","","","","","",""
"null","CORRECT","","html-keyboard-response","9","170061","0.0-3.0-8.0-0.0","95450","List1B","white","man","","","","null","","","","","","","","",""
"2848.4000000059605","<img src=""portrait/BM2.jpg""style=""height:400px;""></img>","5","html-button-response","10","172911","0.0-3.0-10.0","95450","List1B","white","man","","true","5","","","","","","","","","",""
"null","CORRECT","","html-keyboard-response","11","174430","0.0-3.0-11.0-0.0","95450","List1B","white","man","","","","null","","","","","","","","",""
"4627.29999999702","<img src=""portrait/WM2.jpg""style=""height:400px;""></img>","7","html-button-response","12","179059","0.0-3.0-13.0","95450","List1B","white","man","","true","7","","","","","","","","","",""
"null","CORRECT","","html-keyboard-response","13","180569","0.0-3.0-14.0-0.0","95450","List1B","white","man","","","","null","","","","","","","","",""
"6150.70000000298","<img src=""portrait/WW1.jpg""style=""height:400px;""></img>","1","html-button-response","14","186721","0.0-3.0-16.0","95450","List1B","white","man","","true","1","","","","","","","","","",""
"null","CORRECT","","html-keyboard-response","15","188242","0.0-3.0-17.0-0.0","95450","List1B","white","man","","","","null","","","","","","","","",""
"2749.199999988079","<img src=""portrait/WM1.jpg""style=""height:400px;""></img>","6","html-button-response","16","190993","0.0-3.0-19.0","95450","List1B","white","man","","true","6","","","","","","","","","",""
"null","CORRECT","","html-keyboard-response","17","192496","0.0-3.0-20.0-0.0","95450","List1B","white","man","","","","null","","","","","","","","",""
"5073.70000000298","<img src=""portrait/WW2.jpg""style=""height:400px;""></img>","3","html-button-response","18","197571","0.0-3.0-22.0","95450","List1B","white","man","","true","3","","","","","","","","","",""
"null","CORRECT","","html-keyboard-response","19","199088","0.0-3.0-23.0-0.0","95450","List1B","white","man","","","","null","","","","","","","","",""
"4476.20000000298","<p>You got 8 out of 8 right first time. Press Continue.</p>","0","html-button-response","20","203567","0.0-3.0-25.0","95450","List1B","white","man","","","","","","","","","","","","",""
"113591.80000001192","<p>In this experiment, you will view photographs of the people from the memory game interacting.</p><p>By using the <strong>exact</strong> phrase given <i>after</i> the photograph appears and recalling the correct names of the people in the photographs, form a sentence describing the interaction. You do not need to capitalise names.</p><p>Type your answer in the space provided. Please complete every sentence before moving onto the next trial.</p><p>You will only have a few seconds to memorise each given photograph and phrase before you can respond, so try your best to focus.</p><p>An example is given below. Press 'Continue' when you are ready.</p><img src='img/speaking_example.jpg' style='width:800px;height:460px;''></img>","0","html-button-response","21","318163","0.0-4.0","95450","List1B","white","man","","","","","","","","","","","","",""
"2709.2000000029802","<p>Before the experiment starts, you will watch two example trials. Press 'Continue'.</p>","0","html-button-response","22","321875","0.0-5.0","95450","List1B","white","man","","","","","","","","","","","","",""
"null","<img src='img/play_eg.gif' style='height:400px;''></img>","","html-keyboard-response","23","324886","0.0-6.0","95450","List1B","white","man","","","","null","","","","","","","","",""
"null","<p>is playing with</p>","","html-keyboard-response","24","326888","0.0-7.0","95450","List1B","white","man","","","","null","","","","","","","","",""
"7617","<p><b>Answer:</b> kate is playing with beth</p>","0","html-button-response","25","334506","0.0-8.0","95450","List1B","white","man","","","","","","","","","","","","",""
"null","<img src='img/dance_eg.gif' style='height:400px;''></img>","","html-keyboard-response","26","337515","0.0-9.0","95450","List1B","white","man","","","","null","","","","","","","","",""
"null","<p>is being entertained by</p>","","html-keyboard-response","27","339525","0.0-10.0","95450","List1B","white","man","","","","null","","","","","","","","",""
"10354.59999999404","<p><b>Answer:</b> luke is being entertained by dave</p>","0","html-button-response","28","349881","0.0-11.0","95450","List1B","white","man","","","","","","","","","","","","",""
"7786.4000000059605","<p>Ready to start the experiment?</p><br><p><strong>Remember to describe the picture using a full sentence,</strong></p><p><strong>that combines the names of the people with the <i>exact</i> phrase given.</strong></p><p><strong>To receive full payment you must do this correctly.</strong></p><p><strong> You do not need to capitalise names or use punctuation.</strong></p><br><p>Press 'Continue' to begin.</p>","0","html-button-response","29","358671","0.0-12.0","95450","List1B","white","man","","","","","","","","","","","","",""
"null","<div style=""font-size:60px;"">+</div>","","html-keyboard-response","30","360174","0.0-13.0-0.0","95450","List1B","white","man","","","","null","","","","","","","","",""
"null","<img src=""stim_listB/look6.gif""style=""height:400px;""></stim_listB>","","html-keyboard-response","31","362182","0.0-13.0-1.0","95450","List1B","white","man","","","","null","","","","","","","","",""
"null","is being looked at by","","html-keyboard-response","32","364198","0.0-13.0-2.0","95450","List1B","white","man","","","","null","","","","","","","","",""
"8332.699999988079","","","survey-text","33","372537","0.0-13.0-3.0","95450","List1B","white","man","","","","","{""Q0"":""dave is being looked at by mike""}","<img src=""stim_listB/look6.gif""style=""height:400px;""></stim_listB>","is being looked at by","","","","","",""
"null","<div style=""font-size:60px;"">+</div>","","html-keyboard-response","34","373040","0.0-13.0-0.1","95450","List1B","white","man","","","","null","","","","","","","","",""
"null","<img src=""stim_listB/greet2.gif""style=""height:400px;""></stim_listB>","","html-keyboard-response","35","375043","0.0-13.0-1.1","95450","List1B","white","man","","","","null","","","","","","","","",""
"null","is being greeted by","","html-keyboard-response","36","377057","0.0-13.0-2.1","95450","List1B","white","man","","","","null","","","","","","","","",""
"7149.20000000298","","","survey-text","37","384211","0.0-13.0-3.1","95450","List1B","white","man","","","","","{""Q0"":""fred is being greeted by kate""}","<img src=""stim_listB/greet2.gif""style=""height:400px;""></stim_listB>","is being greeted by","","","","","",""
"null","<div style=""font-size:60px;"">+</div>","","html-keyboard-response","38","384727","0.0-13.0-0.2","95450","List1B","white","man","","","","null","","","","","","","","",""
"null","<img src=""stim_listB/copy2.gif""style=""height:400px;""></stim_listB>","","html-keyboard-response","39","386743","0.0-13.0-1.2","95450","List1B","white","man","","","","null","","","","","","","","",""
"null","is being copied by","","html-keyboard-response","40","388760","0.0-13.0-2.2","95450","List1B","white","man","","","","null","","","","","","","","",""
"7933.100000008941","","","survey-text","41","396697","0.0-13.0-3.2","95450","List1B","white","man","","","","","{""Q0"":""kate is being copied by fred""}","<img src=""stim_listB/copy2.gif""style=""height:400px;""></stim_listB>","is being copied by","","","","","",""
"null","<div style=""font-size:60px;"">+</div>","","html-keyboard-response","42","397213","0.0-13.0-0.3","95450","List1B","white","man","","","","null","","","","","","","","",""
"null","<img src=""stim_listB/seduce8.gif""style=""height:400px;""></stim_listB>","","html-keyboard-response","43","399217","0.0-13.0-1.3","95450","List1B","white","man","","","","null","","","","","","","","",""
"null","is being seduced by","","html-keyboard-response","44","401228","0.0-13.0-2.3","95450","List1B","white","man","","","","null","","","","","","","","",""
"8731","","","survey-text","45","409963","0.0-13.0-3.3","95450","List1B","white","man","","","","","{""Q0"":""kate is being seduced by ruth""}","<img src=""stim_listB/seduce8.gif""style=""height:400px;""></stim_listB>","is being seduced by","","","","","",""
"null","<div style=""font-size:60px;"">+</div>","","html-keyboard-response","46","410478","0.0-13.0-0.4","95450","List1B","white","man","","","","null","","","","","","","","",""
"null","<img src=""stim_listB/copy4.gif""style=""height:400px;""></stim_listB>","","html-keyboard-response","47","412493","0.0-13.0-1.4","95450","List1B","white","man","","","","null","","","","","","","","",""
"null","is being copied by","","html-keyboard-response","48","414495","0.0-13.0-2.4","95450","List1B","white","man","","","","null","","","","","","","","",""
"4901.29999999702","","","survey-text","49","419400","0.0-13.0-3.4","95450","List1B","white","man","","","","","{""Q0"":""luke is being copied by jane""}","<img src=""stim_listB/copy4.gif""style=""height:400px;""></stim_listB>","is being copied by","","","","","",""
"null","<div style=""font-size:60px;"">+</div>","","html-keyboard-response","50","419910","0.0-13.0-0.5","95450","List1B","white","man","","","","null","","","","","","","","",""
"null","<img src=""stim_listB/kiss4.gif""style=""height:400px;""></stim_listB>","","html-keyboard-response","51","421914","0.0-13.0-1.5","95450","List1B","white","man","","","","null","","","","","","","","",""
"null","is being kissed by","","html-keyboard-response","52","423918","0.0-13.0-2.5","95450","List1B","white","man","","","","null","","","","","","","","",""
"5908","","","survey-text","53","429830","0.0-13.0-3.5","95450","List1B","white","man","","","","","{""Q0"":""dave is being kissed by jane""}","<img src=""stim_listB/kiss4.gif""style=""height:400px;""></stim_listB>","is being kissed by","","","","","",""
"null","<div style=""font-size:60px;"">+</div>","","html-keyboard-response","54","430339","0.0-13.0-0.6","95450","List1B","white","man","","","","null","","","","","","","","",""
"null","<img src=""stim_listB/oppose2.gif""style=""height:400px;""></stim_listB>","","html-keyboard-response","55","432343","0.0-13.0-1.6","95450","List1B","white","man","","","","null","","","","","","","","",""
"null","is being opposed by","","html-keyboard-response","56","434354","0.0-13.0-2.6","95450","List1B","white","man","","","","null","","","","","","","","",""
"5836.600000008941","","","survey-text","57","440194","0.0-13.0-3.6","95450","List1B","white","man","","","","","{""Q0"":""fred is being opposed by beth""}","<img src=""stim_listB/oppose2.gif""style=""height:400px;""></stim_listB>","is being opposed by","","","","","",""
"null","<div style=""font-size:60px;"">+</div>","","html-keyboard-response","58","440698","0.0-13.0-0.7","95450","List1B","white","man","","","","null","","","","","","","","",""
"null","<img src=""stim_listB/shout7.gif""style=""height:400px;""></stim_listB>","","html-keyboard-response","59","442710","0.0-13.0-1.7","95450","List1B","white","man","","","","null","","","","","","","","",""
"null","is shouting at","","html-keyboard-response","60","444715","0.0-13.0-2.7","95450","List1B","white","man","","","","null","","","","","","","","",""
"4380.899999991059","","","survey-text","61","449099","0.0-13.0-3.7","95450","List1B","white","man","","","","","{""Q0"":""beth is shouting at ruth""}","<img src=""stim_listB/shout7.gif""style=""height:400px;""></stim_listB>","is shouting at","","","","","",""
"null","<div style=""font-size:60px;"">+</div>","","html-keyboard-response","62","449602","0.0-13.0-0.8","95450","List1B","white","man","","","","null","","","","","","","","",""
"null","<img src=""stim_listB/hug5.gif""style=""height:400px;""></stim_listB>","","html-keyboard-response","63","451607","0.0-13.0-1.8","95450","List1B","white","man","","","","null","","","","","","","","",""
"null","is hugging","","html-keyboard-response","64","453612","0.0-13.0-2.8","95450","List1B","white","man","","","","null","","","","","","","","",""
"5040.800000011921","","","survey-text","65","458657","0.0-13.0-3.8","95450","List1B","white","man","","","","","{""Q0"":""fred is hugging luke""}","<img src=""stim_listB/hug5.gif""style=""height:400px;""></stim_listB>","is hugging","","","","","",""
"null","<div style=""font-size:60px;"">+</div>","","html-keyboard-response","66","459159","0.0-13.0-0.9","95450","List1B","white","man","","","","null","","","","","","","","",""
"null","<img src=""stim_listB/greet4.gif""style=""height:400px;""></stim_listB>","","html-keyboard-response","67","461167","0.0-13.0-1.9","95450","List1B","white","man","","","","null","","","","","","","","",""
"null","is being greeted by","","html-keyboard-response","68","463183","0.0-13.0-2.9","95450","List1B","white","man","","","","null","","","","","","","","",""
"7287.70000000298","","","survey-text","69","470474","0.0-13.0-3.9","95450","List1B","white","man","","","","","{""Q0"":""luke is being greeted by jane""}","<img src=""stim_listB/greet4.gif""style=""height:400px;""></stim_listB>","is being greeted by","","","","","",""
"null","<div style=""font-size:60px;"">+</div>","","html-keyboard-response","70","470976","0.0-13.0-0.10","95450","List1B","white","man","","","","null","","","","","","","","",""
"null","<img src=""stim_listB/challenge4.gif""style=""height:400px;""></stim_listB>","","html-keyboard-response","71","472980","0.0-13.0-1.10","95450","List1B","white","man","","","","null","","","","","","","","",""
"null","is being challenged by","","html-keyboard-response","72","474995","0.0-13.0-2.10","95450","List1B","white","man","","","","null","","","","","","","","",""
"6721.899999991059","","","survey-text","73","481721","0.0-13.0-3.10","95450","List1B","white","man","","","","","{""Q0"":""jane is being challenged by luke""}","<img src=""stim_listB/challenge4.gif""style=""height:400px;""></stim_listB>","is being challenged by","","","","","",""
"null","<div style=""font-size:60px;"">+</div>","","html-keyboard-response","74","482228","0.0-13.0-0.11","95450","List1B","white","man","","","","null","","","","","","","","",""
"null","<img src=""stim_listB/look5.gif""style=""height:400px;""></stim_listB>","","html-keyboard-response","75","484243","0.0-13.0-1.11","95450","List1B","white","man","","","","null","","","","","","","","",""
"null","is looking at","","html-keyboard-response","76","486260","0.0-13.0-2.11","95450","List1B","white","man","","","","null","","","","","","","","",""
"5599.4000000059605","","","survey-text","77","491863","0.0-13.0-3.11","95450","List1B","white","man","","","","","{""Q0"":""fred is looking at luke""}","<img src=""stim_listB/look5.gif""style=""height:400px;""></stim_listB>","is looking at","","","","","",""
"null","<div style=""font-size:60px;"">+</div>","","html-keyboard-response","78","492367","0.0-13.0-0.12","95450","List1B","white","man","","","","null","","","","","","","","",""
"null","<img src=""stim_listB/hug2.gif""style=""height:400px;""></stim_listB>","","html-keyboard-response","79","494371","0.0-13.0-1.12","95450","List1B","white","man","","","","null","","","","","","","","",""
"null","is being hugged by","","html-keyboard-response","80","496388","0.0-13.0-2.12","95450","List1B","white","man","","","","null","","","","","","","","",""
"8061.5999999940395","","","survey-text","81","504453","0.0-13.0-3.12","95450","List1B","white","man","","","","","{""Q0"":""mike is being hugged by kate""}","<img src=""stim_listB/hug2.gif""style=""height:400px;""></stim_listB>","is being hugged by","","","","","",""
"null","<div style=""font-size:60px;"">+</div>","","html-keyboard-response","82","504964","0.0-13.0-0.13","95450","List1B","white","man","","","","null","","","","","","","","",""
"null","<img src=""stim_listB/hug1.gif""style=""height:400px;""></stim_listB>","","html-keyboard-response","83","506980","0.0-13.0-1.13","95450","List1B","white","man","","","","null","","","","","","","","",""
"null","is hugging","","html-keyboard-response","84","508995","0.0-13.0-2.13","95450","List1B","white","man","","","","null","","","","","","","","",""
"4821.5","","","survey-text","85","513818","0.0-13.0-3.13","95450","List1B","white","man","","","","","{""Q0"":""fred is hugging beth""}","<img src=""stim_listB/hug1.gif""style=""height:400px;""></stim_listB>","is hugging","","","","","",""
"null","<div style=""font-size:60px;"">+</div>","","html-keyboard-response","86","514323","0.0-13.0-0.14","95450","List1B","white","man","","","","null","","","","","","","","",""
"null","<img src=""stim_listB/oppose4.gif""style=""height:400px;""></stim_listB>","","html-keyboard-response","87","516337","0.0-13.0-1.14","95450","List1B","white","man","","","","null","","","","","","","","",""
"null","is being opposed by","","html-keyboard-response","88","518353","0.0-13.0-2.14","95450","List1B","white","man","","","","null","","","","","","","","",""
"6039.29999999702","","","survey-text","89","524396","0.0-13.0-3.14","95450","List1B","white","man","","","","","{""Q0"":""ruth is being opposed by luke""}","<img src=""stim_listB/oppose4.gif""style=""height:400px;""></stim_listB>","is being opposed by","","","","","",""
"null","<div style=""font-size:60px;"">+</div>","","html-keyboard-response","90","524901","0.0-13.0-0.15","95450","List1B","white","man","","","","null","","","","","","","","",""
"null","<img src=""stim_listB/touch2.gif""style=""height:400px;""></stim_listB>","","html-keyboard-response","91","526904","0.0-13.0-1.15","95450","List1B","white","man","","","","null","","","","","","","","",""
"null","is being touched by","","html-keyboard-response","92","528916","0.0-13.0-2.15","95450","List1B","white","man","","","","null","","","","","","","","",""
"6621.4000000059605","","","survey-text","93","535542","0.0-13.0-3.15","95450","List1B","white","man","","","","","{""Q0"":""fred is being touched by beth""}","<img src=""stim_listB/touch2.gif""style=""height:400px;""></stim_listB>","is being touched by","","","","","",""
"null","<div style=""font-size:60px;"">+</div>","","html-keyboard-response","94","536056","0.0-13.0-0.16","95450","List1B","white","man","","","","null","","","","","","","","",""
"null","<img src=""stim_listB/oppose3.gif""style=""height:400px;""></stim_listB>","","html-keyboard-response","95","538073","0.0-13.0-1.16","95450","List1B","white","man","","","","null","","","","","","","","",""
"null","is opposing","","html-keyboard-response","96","540087","0.0-13.0-2.16","95450","List1B","white","man","","","","null","","","","","","","","",""
"3738.0999999940395","","","survey-text","97","543827","0.0-13.0-3.16","95450","List1B","white","man","","","","","{""Q0"":""dave is opposing jane""}","<img src=""stim_listB/oppose3.gif""style=""height:400px;""></stim_listB>","is opposing","","","","","",""
"null","<div style=""font-size:60px;"">+</div>","","html-keyboard-response","98","544341","0.0-13.0-0.17","95450","List1B","white","man","","","","null","","","","","","","","",""
"null","<img src=""stim_listB/challenge6.gif""style=""height:400px;""></stim_listB>","","html-keyboard-response","99","546353","0.0-13.0-1.17","95450","List1B","white","man","","","","null","","","","","","","","",""
"null","is being challenged by","","html-keyboard-response","100","548369","0.0-13.0-2.17","95450","List1B","white","man","","","","null","","","","","","","","",""
"6174.5","","","survey-text","101","554547","0.0-13.0-3.17","95450","List1B","white","man","","","","","{""Q0"":""fred is being challenged by dave""}","<img src=""stim_listB/challenge6.gif""style=""height:400px;""></stim_listB>","is being challenged by","","","","","",""
"null","<div style=""font-size:60px;"">+</div>","","html-keyboard-response","102","555057","0.0-13.0-0.18","95450","List1B","white","man","","","","null","","","","","","","","",""
"null","<img src=""stim_listB/greet7.gif""style=""height:400px;""></stim_listB>","","html-keyboard-response","103","557073","0.0-13.0-1.18","95450","List1B","white","man","","","","null","","","","","","","","",""
"null","is greeting","","html-keyboard-response","104","559089","0.0-13.0-2.18","95450","List1B","white","man","","","","null","","","","","","","","",""
"5320.5999999940395","","","survey-text","105","564413","0.0-13.0-3.18","95450","List1B","white","man","","","","","{""Q0"":""kate is greeting ruth""}","<img src=""stim_listB/greet7.gif""style=""height:400px;""></stim_listB>","is greeting","","","","","",""
"null","<div style=""font-size:60px;"">+</div>","","html-keyboard-response","106","564916","0.0-13.0-0.19","95450","List1B","white","man","","","","null","","","","","","","","",""
"null","<img src=""stim_listB/touch3.gif""style=""height:400px;""></stim_listB>","","html-keyboard-response","107","566919","0.0-13.0-1.19","95450","List1B","white","man","","","","null","","","","","","","","",""
"null","is touching","","html-keyboard-response","108","568932","0.0-13.0-2.19","95450","List1B","white","man","","","","null","","","","","","","","",""
"3852.7999999970198","","","survey-text","109","572788","0.0-13.0-3.19","95450","List1B","white","man","","","","","{""Q0"":""jane is touching dave""}","<img src=""stim_listB/touch3.gif""style=""height:400px;""></stim_listB>","is touching","","","","","",""
"26355.20000000298","<img src='img/portrait_matrix_list1.jpg' style='width:900px;height:500px;''></img><p>If you have memorised all the portraits and names and are ready to start, press Continue.</p><p><strong>Please note: Your memory of these faces will be tested 4 times during this experiment.</strong></p>","0","html-button-response","110","599144","0.0-14.0-0.0","95450","List1B","white","man","","","","","","","","","","","","",""
"2774","<img src=""portrait/BM2.jpg""style=""height:400px;""></img>","5","html-button-response","111","602927","0.0-14.0-1.0","95450","List1B","white","man","","true","5","","","","","","","","","",""
"null","CORRECT","","html-keyboard-response","112","604431","0.0-14.0-2.0-0.0","95450","List1B","white","man","","","","null","","","","","","","","",""
"3003.4000000059605","<img src=""portrait/BW1.jpg""style=""height:400px;""></img>","0","html-button-response","113","607437","0.0-14.0-4.0","95450","List1B","white","man","","true","0","","","","","","","","","",""
"null","CORRECT","","html-keyboard-response","114","608963","0.0-14.0-5.0-0.0","95450","List1B","white","man","","","","null","","","","","","","","",""
"1838.0999999940395","<img src=""portrait/BM1.jpg""style=""height:400px;""></img>","4","html-button-response","115","610803","0.0-14.0-7.0","95450","List1B","white","man","","true","4","","","","","","","","","",""
"null","CORRECT","","html-keyboard-response","116","612323","0.0-14.0-8.0-0.0","95450","List1B","white","man","","","","null","","","","","","","","",""
"3293","<img src=""portrait/WW1.jpg""style=""height:400px;""></img>","1","html-button-response","117","615619","0.0-14.0-10.0","95450","List1B","white","man","","true","1","","","","","","","","","",""
"null","CORRECT","","html-keyboard-response","118","617151","0.0-14.0-11.0-0.0","95450","List1B","white","man","","","","null","","","","","","","","",""
"1807.5","<img src=""portrait/WM2.jpg""style=""height:400px;""></img>","7","html-button-response","119","618961","0.0-14.0-13.0","95450","List1B","white","man","","true","7","","","","","","","","","",""
"null","CORRECT","","html-keyboard-response","120","620467","0.0-14.0-14.0-0.0","95450","List1B","white","man","","","","null","","","","","","","","",""
"2424.699999988079","<img src=""portrait/WW2.jpg""style=""height:400px;""></img>","3","html-button-response","121","622895","0.0-14.0-16.0","95450","List1B","white","man","","true","3","","","","","","","","","",""
"null","CORRECT","","html-keyboard-response","122","624412","0.0-14.0-17.0-0.0","95450","List1B","white","man","","","","null","","","","","","","","",""
"2199.0999999940395","<img src=""portrait/WM1.jpg""style=""height:400px;""></img>","6","html-button-response","123","626613","0.0-14.0-19.0","95450","List1B","white","man","","true","6","","","","","","","","","",""
"null","CORRECT","","html-keyboard-response","124","628116","0.0-14.0-20.0-0.0","95450","List1B","white","man","","","","null","","","","","","","","",""
"3500.3999999910593","<img src=""portrait/BW2.jpg""style=""height:400px;""></img>","2","html-button-response","125","631619","0.0-14.0-22.0","95450","List1B","white","man","","true","2","","","","","","","","","",""
"null","CORRECT","","html-keyboard-response","126","633137","0.0-14.0-23.0-0.0","95450","List1B","white","man","","","","null","","","","","","","","",""
"1525.2000000029802","<p>You got 8 out of 8 right first time. Press Continue.</p>","0","html-button-response","127","634664","0.0-14.0-25.0","95450","List1B","white","man","","","","","","","","","","","","",""
"null","<div style=""font-size:60px;"">+</div>","","html-keyboard-response","128","636183","0.0-15.0-0.0","95450","List1B","white","man","","","","null","","","","","","","","",""
"null","<img src=""stim_listB/seduce4.gif""style=""height:400px;""></stim_listB>","","html-keyboard-response","129","638197","0.0-15.0-1.0","95450","List1B","white","man","","","","null","","","","","","","","",""
"null","is being seduced by","","html-keyboard-response","130","640198","0.0-15.0-2.0","95450","List1B","white","man","","","","null","","","","","","","","",""
"5779.29999999702","","","survey-text","131","645981","0.0-15.0-3.0","95450","List1B","white","man","","","","","{""Q0"":""dave is being seduced by ruth""}","<img src=""stim_listB/seduce4.gif""style=""height:400px;""></stim_listB>","is being seduced by","","","","","",""
"null","<div style=""font-size:60px;"">+</div>","","html-keyboard-response","132","646495","0.0-15.0-0.1","95450","List1B","white","man","","","","null","","","","","","","","",""
"null","<img src=""stim_listB/challenge3.gif""style=""height:400px;""></stim_listB>","","html-keyboard-response","133","648510","0.0-15.0-1.1","95450","List1B","white","man","","","","null","","","","","","","","",""
"null","is challenging","","html-keyboard-response","134","650526","0.0-15.0-2.1","95450","List1B","white","man","","","","null","","","","","","","","",""
"4220.600000008941","","","survey-text","135","654750","0.0-15.0-3.1","95450","List1B","white","man","","","","","{""Q0"":""dave is challenging ruth""}","<img src=""stim_listB/challenge3.gif""style=""height:400px;""></stim_listB>","is challenging","","","","","",""
"null","<div style=""font-size:60px;"">+</div>","","html-keyboard-response","136","655259","0.0-15.0-0.2","95450","List1B","white","man","","","","null","","","","","","","","",""
"null","<img src=""stim_listB/kiss6.gif""style=""height:400px;""></stim_listB>","","html-keyboard-response","137","657276","0.0-15.0-1.2","95450","List1B","white","man","","","","null","","","","","","","","",""
"null","is being kissed by","","html-keyboard-response","138","659292","0.0-15.0-2.2","95450","List1B","white","man","","","","null","","","","","","","","",""
"6239","","","survey-text","139","665535","0.0-15.0-3.2","95450","List1B","white","man","","","","","{""Q0"":""mike is being kissed by dave""}","<img src=""stim_listB/kiss6.gif""style=""height:400px;""></stim_listB>","is being kissed by","","","","","",""
"null","<div style=""font-size:60px;"">+</div>","","html-keyboard-response","140","666041","0.0-15.0-0.3","95450","List1B","white","man","","","","null","","","","","","","","",""
"null","<img src=""stim_listB/oppose1.gif""style=""height:400px;""></stim_listB>","","html-keyboard-response","141","668045","0.0-15.0-1.3","95450","List1B","white","man","","","","null","","","","","","","","",""
"null","is opposing","","html-keyboard-response","142","670058","0.0-15.0-2.3","95450","List1B","white","man","","","","null","","","","","","","","",""
"3664.8999999910593","","","survey-text","143","673726","0.0-15.0-3.3","95450","List1B","white","man","","","","","{""Q0"":""kate is opposing mike""}","<img src=""stim_listB/oppose1.gif""style=""height:400px;""></stim_listB>","is opposing","","","","","",""
"null","<div style=""font-size:60px;"">+</div>","","html-keyboard-response","144","674243","0.0-15.0-0.4","95450","List1B","white","man","","","","null","","","","","","","","",""
"null","<img src=""stim_listB/kiss2.gif""style=""height:400px;""></stim_listB>","","html-keyboard-response","145","676261","0.0-15.0-1.4","95450","List1B","white","man","","","","null","","","","","","","","",""
"null","is being kissed by","","html-keyboard-response","146","678276","0.0-15.0-2.4","95450","List1B","white","man","","","","null","","","","","","","","",""
"5278.5","","","survey-text","147","683558","0.0-15.0-3.4","95450","List1B","white","man","","","","","{""Q0"":""kate is being kissed by mike""}","<img src=""stim_listB/kiss2.gif""style=""height:400px;""></stim_listB>","is being kissed by","","","","","",""
"null","<div style=""font-size:60px;"">+</div>","","html-keyboard-response","148","684073","0.0-15.0-0.5","95450","List1B","white","man","","","","null","","","","","","","","",""
"null","<img src=""stim_listB/seduce6.gif""style=""height:400px;""></stim_listB>","","html-keyboard-response","149","686077","0.0-15.0-1.5","95450","List1B","white","man","","","","null","","","","","","","","",""
"null","is being seduced by","","html-keyboard-response","150","688084","0.0-15.0-2.5","95450","List1B","white","man","","","","null","","","","","","","","",""
"5614.29999999702","","","survey-text","151","693703","0.0-15.0-3.5","95450","List1B","white","man","","","","","{""Q0"":""luke is being seduced by mike""}","<img src=""stim_listB/seduce6.gif""style=""height:400px;""></stim_listB>","is being seduced by","","","","","",""
"null","<div style=""font-size:60px;"">+</div>","","html-keyboard-response","152","694212","0.0-15.0-0.6","95450","List1B","white","man","","","","null","","","","","","","","",""
"null","<img src=""stim_listB/challenge1.gif""style=""height:400px;""></stim_listB>","","html-keyboard-response","153","696229","0.0-15.0-1.6","95450","List1B","white","man","","","","null","","","","","","","","",""
"null","is challenging","","html-keyboard-response","154","698244","0.0-15.0-2.6","95450","List1B","white","man","","","","null","","","","","","","","",""
"3865.7999999970198","","","survey-text","155","702114","0.0-15.0-3.6","95450","List1B","white","man","","","","","{""Q0"":""mike is challenging beth""}","<img src=""stim_listB/challenge1.gif""style=""height:400px;""></stim_listB>","is challenging","","","","","",""
"null","<div style=""font-size:60px;"">+</div>","","html-keyboard-response","156","702617","0.0-15.0-0.7","95450","List1B","white","man","","","","null","","","","","","","","",""
"null","<img src=""stim_listB/greet1.gif""style=""height:400px;""></stim_listB>","","html-keyboard-response","157","704621","0.0-15.0-1.7","95450","List1B","white","man","","","","null","","","","","","","","",""
"null","is greeting","","html-keyboard-response","158","706634","0.0-15.0-2.7","95450","List1B","white","man","","","","null","","","","","","","","",""
"5857.79999999702","","","survey-text","159","712495","0.0-15.0-3.7","95450","List1B","white","man","","","","","{""Q0"":""mike is greeting beth""}","<img src=""stim_listB/greet1.gif""style=""height:400px;""></stim_listB>","is greeting","","","","","",""
"null","<div style=""font-size:60px;"">+</div>","","html-keyboard-response","160","713009","0.0-15.0-0.8","95450","List1B","white","man","","","","null","","","","","","","","",""
"null","<img src=""stim_listB/shout3.gif""style=""height:400px;""></stim_listB>","","html-keyboard-response","161","715026","0.0-15.0-1.8","95450","List1B","white","man","","","","null","","","","","","","","",""
"null","is shouting at","","html-keyboard-response","162","717042","0.0-15.0-2.8","95450","List1B","white","man","","","","null","","","","","","","","",""
"32712.20000000298","","","survey-text","163","749760","0.0-15.0-3.8","95450","List1B","white","man","","","","","{""Q0"":""ruthing is shouting at luke""}","<img src=""stim_listB/shout3.gif""style=""height:400px;""></stim_listB>","is shouting at","","","","","",""
"null","<div style=""font-size:60px;"">+</div>","","html-keyboard-response","164","750274","0.0-15.0-0.9","95450","List1B","white","man","","","","null","","","","","","","","",""
"null","<img src=""stim_listB/shout6.gif""style=""height:400px;""></stim_listB>","","html-keyboard-response","165","752286","0.0-15.0-1.9","95450","List1B","white","man","","","","null","","","","","","","","",""
"null","is being shouted at by","","html-keyboard-response","166","754292","0.0-15.0-2.9","95450","List1B","white","man","","","","null","","","","","","","","",""
"6133","","","survey-text","167","760430","0.0-15.0-3.9","95450","List1B","white","man","","","","","{""Q0"":""mike is being shouted at by dave""}","<img src=""stim_listB/shout6.gif""style=""height:400px;""></stim_listB>","is being shouted at by","","","","","",""
"null","<div style=""font-size:60px;"">+</div>","","html-keyboard-response","168","760943","0.0-15.0-0.10","95450","List1B","white","man","","","","null","","","","","","","","",""
"null","<img src=""stim_listB/touch4.gif""style=""height:400px;""></stim_listB>","","html-keyboard-response","169","762948","0.0-15.0-1.10","95450","List1B","white","man","","","","null","","","","","","","","",""
"null","is being touched by","","html-keyboard-response","170","764958","0.0-15.0-2.10","95450","List1B","white","man","","","","null","","","","","","","","",""
"7209","","","survey-text","171","772171","0.0-15.0-3.10","95450","List1B","white","man","","","","","{""Q0"":""ruth is being touched by luke""}","<img src=""stim_listB/touch4.gif""style=""height:400px;""></stim_listB>","is being touched by","","","","","",""
"null","<div style=""font-size:60px;"">+</div>","","html-keyboard-response","172","772683","0.0-15.0-0.11","95450","List1B","white","man","","","","null","","","","","","","","",""
"null","<img src=""stim_listB/seduce3.gif""style=""height:400px;""></stim_listB>","","html-keyboard-response","173","774699","0.0-15.0-1.11","95450","List1B","white","man","","","","null","","","","","","","","",""
"null","is seducing","","html-keyboard-response","174","776711","0.0-15.0-2.11","95450","List1B","white","man","","","","null","","","","","","","","",""
"8868.5","","","survey-text","175","785584","0.0-15.0-3.11","95450","List1B","white","man","","","","","{""Q0"":""jane is seducing luke""}","<img src=""stim_listB/seduce3.gif""style=""height:400px;""></stim_listB>","is seducing","","","","","",""
"null","<div style=""font-size:60px;"">+</div>","","html-keyboard-response","176","786089","0.0-15.0-0.12","95450","List1B","white","man","","","","null","","","","","","","","",""
"null","<img src=""stim_listB/greet5.gif""style=""height:400px;""></stim_listB>","","html-keyboard-response","177","788102","0.0-15.0-1.12","95450","List1B","white","man","","","","null","","","","","","","","",""
"null","is greeting","","html-keyboard-response","178","790116","0.0-15.0-2.12","95450","List1B","white","man","","","","null","","","","","","","","",""
"8562.70000000298","","","survey-text","179","798683","0.0-15.0-3.12","95450","List1B","white","man","","","","","{""Q0"":""mike is greeting luke""}","<img src=""stim_listB/greet5.gif""style=""height:400px;""></stim_listB>","is greeting","","","","","",""
"null","<div style=""font-size:60px;"">+</div>","","html-keyboard-response","180","799198","0.0-15.0-0.13","95450","List1B","white","man","","","","null","","","","","","","","",""
"null","<img src=""stim_listB/hug3.gif""style=""height:400px;""></stim_listB>","","html-keyboard-response","181","801214","0.0-15.0-1.13","95450","List1B","white","man","","","","null","","","","","","","","",""
"null","is hugging","","html-keyboard-response","182","803226","0.0-15.0-2.13","95450","List1B","white","man","","","","null","","","","","","","","",""
"7366.9000000059605","","","survey-text","183","810596","0.0-15.0-3.13","95450","List1B","white","man","","","","","{""Q0"":""luke is hugging ruth""}","<img src=""stim_listB/hug3.gif""style=""height:400px;""></stim_listB>","is hugging","","","","","",""
"null","<div style=""font-size:60px;"">+</div>","","html-keyboard-response","184","811102","0.0-15.0-0.14","95450","List1B","white","man","","","","null","","","","","","","","",""
"null","<img src=""stim_listB/copy7.gif""style=""height:400px;""></stim_listB>","","html-keyboard-response","185","813106","0.0-15.0-1.14","95450","List1B","white","man","","","","null","","","","","","","","",""
"null","is copying","","html-keyboard-response","186","815120","0.0-15.0-2.14","95450","List1B","white","man","","","","null","","","","","","","","",""
"3806.4000000059605","","","survey-text","187","818931","0.0-15.0-3.14","95450","List1B","white","man","","","","","{""Q0"":""ruth is copying kate""}","<img src=""stim_listB/copy7.gif""style=""height:400px;""></stim_listB>","is copying","","","","","",""
"null","<div style=""font-size:60px;"">+</div>","","html-keyboard-response","188","819446","0.0-15.0-0.15","95450","List1B","white","man","","","","null","","","","","","","","",""
"null","<img src=""stim_listB/look8.gif""style=""height:400px;""></stim_listB>","","html-keyboard-response","189","821465","0.0-15.0-1.15","95450","List1B","white","man","","","","null","","","","","","","","",""
"null","is being looked at by","","html-keyboard-response","190","823480","0.0-15.0-2.15","95450","List1B","white","man","","","","null","","","","","","","","",""
"8918.09999999404","","","survey-text","191","832403","0.0-15.0-3.15","95450","List1B","white","man","","","","","{""Q0"":""kate is being looked at by jane""}","<img src=""stim_listB/look8.gif""style=""height:400px;""></stim_listB>","is being looked at by","","","","","",""
"null","<div style=""font-size:60px;"">+</div>","","html-keyboard-response","192","832913","0.0-15.0-0.16","95450","List1B","white","man","","","","null","","","","","","","","",""
"null","<img src=""stim_listB/touch5.gif""style=""height:400px;""></stim_listB>","","html-keyboard-response","193","834930","0.0-15.0-1.16","95450","List1B","white","man","","","","null","","","","","","","","",""
"null","is touching","","html-keyboard-response","194","836947","0.0-15.0-2.16","95450","List1B","white","man","","","","null","","","","","","","","",""
"3959.5999999940395","","","survey-text","195","840911","0.0-15.0-3.16","95450","List1B","white","man","","","","","{""Q0"":""dave is touching mike""}","<img src=""stim_listB/touch5.gif""style=""height:400px;""></stim_listB>","is touching","","","","","",""
"null","<div style=""font-size:60px;"">+</div>","","html-keyboard-response","196","841418","0.0-15.0-0.17","95450","List1B","white","man","","","","null","","","","","","","","",""
"null","<img src=""stim_listB/greet8.gif""style=""height:400px;""></stim_listB>","","html-keyboard-response","197","843430","0.0-15.0-1.17","95450","List1B","white","man","","","","null","","","","","","","","",""
"null","is being greeted by","","html-keyboard-response","198","845433","0.0-15.0-2.17","95450","List1B","white","man","","","","null","","","","","","","","",""
"7195.699999988079","","","survey-text","199","852631","0.0-15.0-3.17","95450","List1B","white","man","","","","","{""Q0"":""beth is being greeted by jane""}","<img src=""stim_listB/greet8.gif""style=""height:400px;""></stim_listB>","is being greeted by","","","","","",""
"null","<div style=""font-size:60px;"">+</div>","","html-keyboard-response","200","853136","0.0-15.0-0.18","95450","List1B","white","man","","","","null","","","","","","","","",""
"null","<img src=""stim_listB/greet6.gif""style=""height:400px;""></stim_listB>","","html-keyboard-response","201","855151","0.0-15.0-1.18","95450","List1B","white","man","","","","null","","","","","","","","",""
"null","is being greeted by","","html-keyboard-response","202","857166","0.0-15.0-2.18","95450","List1B","white","man","","","","null","","","","","","","","",""
"4805.5999999940395","","","survey-text","203","861976","0.0-15.0-3.18","95450","List1B","white","man","","","","","{""Q0"":""fred is being greeted by dave""}","<img src=""stim_listB/greet6.gif""style=""height:400px;""></stim_listB>","is being greeted by","","","","","",""
"null","<div style=""font-size:60px;"">+</div>","","html-keyboard-response","204","862479","0.0-15.0-0.19","95450","List1B","white","man","","","","null","","","","","","","","",""
"null","<img src=""stim_listB/oppose8.gif""style=""height:400px;""></stim_listB>","","html-keyboard-response","205","864496","0.0-15.0-1.19","95450","List1B","white","man","","","","null","","","","","","","","",""
"null","is being opposed by","","html-keyboard-response","206","866511","0.0-15.0-2.19","95450","List1B","white","man","","","","null","","","","","","","","",""
"8095.79999999702","","","survey-text","207","874611","0.0-15.0-3.19","95450","List1B","white","man","","","","","{""Q0"":""ruth is being opposed by beth""}","<img src=""stim_listB/oppose8.gif""style=""height:400px;""></stim_listB>","is being opposed by","","","","","",""
"59607","<img src='img/portrait_matrix_list1.jpg' style='width:900px;height:500px;''></img><p>If you have memorised all the portraits and names and are ready to start, press Continue.</p><p><strong>Please note: Your memory of these faces will be tested 4 times during this experiment.</strong></p>","0","html-button-response","208","934219","0.0-16.0-0.0","95450","List1B","white","man","","","","","","","","","","","","",""
"2157.0999999940395","<img src=""portrait/BM2.jpg""style=""height:400px;""></img>","5","html-button-response","209","937382","0.0-16.0-1.0","95450","List1B","white","man","","true","5","","","","","","","","","",""
"null","CORRECT","","html-keyboard-response","210","938887","0.0-16.0-2.0-0.0","95450","List1B","white","man","","","","null","","","","","","","","",""
"1939.9000000059605","<img src=""portrait/WM1.jpg""style=""height:400px;""></img>","6","html-button-response","211","940829","0.0-16.0-4.0","95450","List1B","white","man","","true","6","","","","","","","","","",""
"null","CORRECT","","html-keyboard-response","212","942362","0.0-16.0-5.0-0.0","95450","List1B","white","man","","","","null","","","","","","","","",""
"3014.9000000059605","<img src=""portrait/BW1.jpg""style=""height:400px;""></img>","0","html-button-response","213","945379","0.0-16.0-7.0","95450","List1B","white","man","","true","0","","","","","","","","","",""
"null","CORRECT","","html-keyboard-response","214","946902","0.0-16.0-8.0-0.0","95450","List1B","white","man","","","","null","","","","","","","","",""
"2024.4000000059605","<img src=""portrait/WM2.jpg""style=""height:400px;""></img>","7","html-button-response","215","948929","0.0-16.0-10.0","95450","List1B","white","man","","true","7","","","","","","","","","",""
"null","CORRECT","","html-keyboard-response","216","950448","0.0-16.0-11.0-0.0","95450","List1B","white","man","","","","null","","","","","","","","",""
"2317.8999999910593","<img src=""portrait/BW2.jpg""style=""height:400px;""></img>","2","html-button-response","217","952767","0.0-16.0-13.0","95450","List1B","white","man","","true","2","","","","","","","","","",""
"null","CORRECT","","html-keyboard-response","218","954288","0.0-16.0-14.0-0.0","95450","List1B","white","man","","","","null","","","","","","","","",""
"2252","<img src=""portrait/WW1.jpg""style=""height:400px;""></img>","1","html-button-response","219","956543","0.0-16.0-16.0","95450","List1B","white","man","","true","1","","","","","","","","","",""
"null","CORRECT","","html-keyboard-response","220","958073","0.0-16.0-17.0-0.0","95450","List1B","white","man","","","","null","","","","","","","","",""
"3893","<img src=""portrait/BM1.jpg""style=""height:400px;""></img>","4","html-button-response","221","961969","0.0-16.0-19.0","95450","List1B","white","man","","true","4","","","","","","","","","",""
"null","CORRECT","","html-keyboard-response","222","963484","0.0-16.0-20.0-0.0","95450","List1B","white","man","","","","null","","","","","","","","",""
"2000.5","<img src=""portrait/WW2.jpg""style=""height:400px;""></img>","3","html-button-response","223","965487","0.0-16.0-22.0","95450","List1B","white","man","","true","3","","","","","","","","","",""
"null","CORRECT","","html-keyboard-response","224","966991","0.0-16.0-23.0-0.0","95450","List1B","white","man","","","","null","","","","","","","","",""
"1520.9000000059605","<p>You got 8 out of 8 right first time. Press Continue.</p>","0","html-button-response","225","968515","0.0-16.0-25.0","95450","List1B","white","man","","","","","","","","","","","","",""
"null","<div style=""font-size:60px;"">+</div>","","html-keyboard-response","226","970019","0.0-17.0-0.0","95450","List1B","white","man","","","","null","","","","","","","","",""
"null","<img src=""stim_listB/hug6.gif""style=""height:400px;""></stim_listB>","","html-keyboard-response","227","972024","0.0-17.0-1.0","95450","List1B","white","man","","","","null","","","","","","","","",""
"null","is being hugged by","","html-keyboard-response","228","974040","0.0-17.0-2.0","95450","List1B","white","man","","","","null","","","","","","","","",""
"4885.5","","","survey-text","229","978931","0.0-17.0-3.0","95450","List1B","white","man","","","","","{""Q0"":""mike is being hugged by dave""}","<img src=""stim_listB/hug6.gif""style=""height:400px;""></stim_listB>","is being hugged by","","","","","",""
"null","<div style=""font-size:60px;"">+</div>","","html-keyboard-response","230","979433","0.0-17.0-0.1","95450","List1B","white","man","","","","null","","","","","","","","",""
"null","<img src=""stim_listB/shout4.gif""style=""height:400px;""></stim_listB>","","html-keyboard-response","231","981448","0.0-17.0-1.1","95450","List1B","white","man","","","","null","","","","","","","","",""
"null","is being shouted at by","","html-keyboard-response","232","983462","0.0-17.0-2.1","95450","List1B","white","man","","","","null","","","","","","","","",""
"6576.5","","","survey-text","233","990042","0.0-17.0-3.1","95450","List1B","white","man","","","","","{""Q0"":""dave is being shouted at by jane""}","<img src=""stim_listB/shout4.gif""style=""height:400px;""></stim_listB>","is being shouted at by","","","","","",""
"null","<div style=""font-size:60px;"">+</div>","","html-keyboard-response","234","990546","0.0-17.0-0.2","95450","List1B","white","man","","","","null","","","","","","","","",""
"null","<img src=""stim_listB/touch1.gif""style=""height:400px;""></stim_listB>","","html-keyboard-response","235","992558","0.0-17.0-1.2","95450","List1B","white","man","","","","null","","","","","","","","",""
"null","is touching","","html-keyboard-response","236","994571","0.0-17.0-2.2","95450","List1B","white","man","","","","null","","","","","","","","",""
"3712","","","survey-text","237","998287","0.0-17.0-3.2","95450","List1B","white","man","","","","","{""Q0"":""kate is touching mike""}","<img src=""stim_listB/touch1.gif""style=""height:400px;""></stim_listB>","is touching","","","","","",""
"null","<div style=""font-size:60px;"">+</div>","","html-keyboard-response","238","998793","0.0-17.0-0.3","95450","List1B","white","man","","","","null","","","","","","","","",""
"null","<img src=""stim_listB/look7.gif""style=""height:400px;""></stim_listB>","","html-keyboard-response","239","1000807","0.0-17.0-1.3","95450","List1B","white","man","","","","null","","","","","","","","",""
"null","is looking at","","html-keyboard-response","240","1002810","0.0-17.0-2.3","95450","List1B","white","man","","","","null","","","","","","","","",""
"4611.20000000298","","","survey-text","241","1007425","0.0-17.0-3.3","95450","List1B","white","man","","","","","{""Q0"":""beth is looking at ruth""}","<img src=""stim_listB/look7.gif""style=""height:400px;""></stim_listB>","is looking at","","","","","",""
"null","<div style=""font-size:60px;"">+</div>","","html-keyboard-response","242","1007931","0.0-17.0-0.4","95450","List1B","white","man","","","","null","","","","","","","","",""
"null","<img src=""stim_listB/oppose5.gif""style=""height:400px;""></stim_listB>","","html-keyboard-response","243","1009949","0.0-17.0-1.4","95450","List1B","white","man","","","","null","","","","","","","","",""
"null","is opposing","","html-keyboard-response","244","1011964","0.0-17.0-2.4","95450","List1B","white","man","","","","null","","","","","","","","",""
"3861.5999999940395","","","survey-text","245","1015829","0.0-17.0-3.4","95450","List1B","white","man","","","","","{""Q0"":""mike is opposing dave""}","<img src=""stim_listB/oppose5.gif""style=""height:400px;""></stim_listB>","is opposing","","","","","",""
"null","<div style=""font-size:60px;"">+</div>","","html-keyboard-response","246","1016338","0.0-17.0-0.5","95450","List1B","white","man","","","","null","","","","","","","","",""
"null","<img src=""stim_listB/touch6.gif""style=""height:400px;""></stim_listB>","","html-keyboard-response","247","1018349","0.0-17.0-1.5","95450","List1B","white","man","","","","null","","","","","","","","",""
"null","is being touched by","","html-keyboard-response","248","1020354","0.0-17.0-2.5","95450","List1B","white","man","","","","null","","","","","","","","",""
"5138.9000000059605","","","survey-text","249","1025496","0.0-17.0-3.5","95450","List1B","white","man","","","","","{""Q0"":""fred is being touched by luke""}","<img src=""stim_listB/touch6.gif""style=""height:400px;""></stim_listB>","is being touched by","","","","","",""
"null","<div style=""font-size:60px;"">+</div>","","html-keyboard-response","250","1026005","0.0-17.0-0.6","95450","List1B","white","man","","","","null","","","","","","","","",""
"null","<img src=""stim_listB/kiss3.gif""style=""height:400px;""></stim_listB>","","html-keyboard-response","251","1028023","0.0-17.0-1.6","95450","List1B","white","man","","","","null","","","","","","","","",""
"null","is kissing","","html-keyboard-response","252","1030031","0.0-17.0-2.6","95450","List1B","white","man","","","","null","","","","","","","","",""
"3688","","","survey-text","253","1033723","0.0-17.0-3.6","95450","List1B","white","man","","","","","{""Q0"":""ruth is kissing luke""}","<img src=""stim_listB/kiss3.gif""style=""height:400px;""></stim_listB>","is kissing","","","","","",""
"null","<div style=""font-size:60px;"">+</div>","","html-keyboard-response","254","1034229","0.0-17.0-0.7","95450","List1B","white","man","","","","null","","","","","","","","",""
"null","<img src=""stim_listB/copy3.gif""style=""height:400px;""></stim_listB>","","html-keyboard-response","255","1036245","0.0-17.0-1.7","95450","List1B","white","man","","","","null","","","","","","","","",""
"null","is copying","","html-keyboard-response","256","1038259","0.0-17.0-2.7","95450","List1B","white","man","","","","null","","","","","","","","",""
"3576.2999999970198","","","survey-text","257","1041839","0.0-17.0-3.7","95450","List1B","white","man","","","","","{""Q0"":""dave is copying ruth""}","<img src=""stim_listB/copy3.gif""style=""height:400px;""></stim_listB>","is copying","","","","","",""
"null","<div style=""font-size:60px;"">+</div>","","html-keyboard-response","258","1042354","0.0-17.0-0.8","95450","List1B","white","man","","","","null","","","","","","","","",""
"null","<img src=""stim_listB/copy6.gif""style=""height:400px;""></stim_listB>","","html-keyboard-response","259","1044361","0.0-17.0-1.8","95450","List1B","white","man","","","","null","","","","","","","","",""
"null","is being copied by","","html-keyboard-response","260","1046367","0.0-17.0-2.8","95450","List1B","white","man","","","","null","","","","","","","","",""
"6653.70000000298","","","survey-text","261","1053024","0.0-17.0-3.8","95450","List1B","white","man","","","","","{""Q0"":""fred is being copied by dave""}","<img src=""stim_listB/copy6.gif""style=""height:400px;""></stim_listB>","is being copied by","","","","","",""
"null","<div style=""font-size:60px;"">+</div>","","html-keyboard-response","262","1053527","0.0-17.0-0.9","95450","List1B","white","man","","","","null","","","","","","","","",""
"null","<img src=""stim_listB/look2.gif""style=""height:400px;""></stim_listB>","","html-keyboard-response","263","1055541","0.0-17.0-1.9","95450","List1B","white","man","","","","null","","","","","","","","",""
"null","is being looked at by","","html-keyboard-response","264","1057543","0.0-17.0-2.9","95450","List1B","white","man","","","","null","","","","","","","","",""
"5625.4000000059605","","","survey-text","265","1063170","0.0-17.0-3.9","95450","List1B","white","man","","","","","{""Q0"":""mike is being looked at by kate""}","<img src=""stim_listB/look2.gif""style=""height:400px;""></stim_listB>","is being looked at by","","","","","",""
"null","<div style=""font-size:60px;"">+</div>","","html-keyboard-response","266","1063681","0.0-17.0-0.10","95450","List1B","white","man","","","","null","","","","","","","","",""
"null","<img src=""stim_listB/kiss8.gif""style=""height:400px;""></stim_listB>","","html-keyboard-response","267","1065699","0.0-17.0-1.10","95450","List1B","white","man","","","","null","","","","","","","","",""
"null","is being kissed by","","html-keyboard-response","268","1067714","0.0-17.0-2.10","95450","List1B","white","man","","","","null","","","","","","","","",""
"5898.70000000298","","","survey-text","269","1073617","0.0-17.0-3.10","95450","List1B","white","man","","","","","{""Q0"":""kate is being kissed by jane""}","<img src=""stim_listB/kiss8.gif""style=""height:400px;""></stim_listB>","is being kissed by","","","","","",""
"null","<div style=""font-size:60px;"">+</div>","","html-keyboard-response","270","1074119","0.0-17.0-0.11","95450","List1B","white","man","","","","null","","","","","","","","",""
"null","<img src=""stim_listB/seduce5.gif""style=""height:400px;""></stim_listB>","","html-keyboard-response","271","1076136","0.0-17.0-1.11","95450","List1B","white","man","","","","null","","","","","","","","",""
"null","is seducing","","html-keyboard-response","272","1078151","0.0-17.0-2.11","95450","List1B","white","man","","","","null","","","","","","","","",""
"5103.399999991059","","","survey-text","273","1083258","0.0-17.0-3.11","95450","List1B","white","man","","","","","{""Q0"":""fred is seducing dave""}","<img src=""stim_listB/seduce5.gif""style=""height:400px;""></stim_listB>","is seducing","","","","","",""
"null","<div style=""font-size:60px;"">+</div>","","html-keyboard-response","274","1083769","0.0-17.0-0.12","95450","List1B","white","man","","","","null","","","","","","","","",""
"null","<img src=""stim_listB/shout2.gif""style=""height:400px;""></stim_listB>","","html-keyboard-response","275","1085788","0.0-17.0-1.12","95450","List1B","white","man","","","","null","","","","","","","","",""
"null","is being shouted at by","","html-keyboard-response","276","1087792","0.0-17.0-2.12","95450","List1B","white","man","","","","null","","","","","","","","",""
"5437.5","","","survey-text","277","1093234","0.0-17.0-3.12","95450","List1B","white","man","","","","","{""Q0"":""mike is being shouted at by kate""}","<img src=""stim_listB/shout2.gif""style=""height:400px;""></stim_listB>","is being shouted at by","","","","","",""
"null","<div style=""font-size:60px;"">+</div>","","html-keyboard-response","278","1093744","0.0-17.0-0.13","95450","List1B","white","man","","","","null","","","","","","","","",""
"null","<img src=""stim_listB/seduce2.gif""style=""height:400px;""></stim_listB>","","html-keyboard-response","279","1095758","0.0-17.0-1.13","95450","List1B","white","man","","","","null","","","","","","","","",""
"null","is being seduced by","","html-keyboard-response","280","1097775","0.0-17.0-2.13","95450","List1B","white","man","","","","null","","","","","","","","",""
"5385.5","","","survey-text","281","1103165","0.0-17.0-3.13","95450","List1B","white","man","","","","","{""Q0"":""beth is being seduced by mike""}","<img src=""stim_listB/seduce2.gif""style=""height:400px;""></stim_listB>","is being seduced by","","","","","",""
"null","<div style=""font-size:60px;"">+</div>","","html-keyboard-response","282","1103680","0.0-17.0-0.14","95450","List1B","white","man","","","","null","","","","","","","","",""
"null","<img src=""stim_listB/copy1.gif""style=""height:400px;""></stim_listB>","","html-keyboard-response","283","1105684","0.0-17.0-1.14","95450","List1B","white","man","","","","null","","","","","","","","",""
"null","is copying","","html-keyboard-response","284","1107698","0.0-17.0-2.14","95450","List1B","white","man","","","","null","","","","","","","","",""
"5035.100000008941","","","survey-text","285","1112737","0.0-17.0-3.14","95450","List1B","white","man","","","","","{""Q0"":""mike is copying beth""}","<img src=""stim_listB/copy1.gif""style=""height:400px;""></stim_listB>","is copying","","","","","",""
"null","<div style=""font-size:60px;"">+</div>","","html-keyboard-response","286","1113247","0.0-17.0-0.15","95450","List1B","white","man","","","","null","","","","","","","","",""
"null","<img src=""stim_listB/copy8.gif""style=""height:400px;""></stim_listB>","","html-keyboard-response","287","1115259","0.0-17.0-1.15","95450","List1B","white","man","","","","null","","","","","","","","",""
"null","is being copied by","","html-keyboard-response","288","1117261","0.0-17.0-2.15","95450","List1B","white","man","","","","null","","","","","","","","",""
"6079.29999999702","","","survey-text","289","1123344","0.0-17.0-3.15","95450","List1B","white","man","","","","","{""Q0"":""beth is being copied by jane""}","<img src=""stim_listB/copy8.gif""style=""height:400px;""></stim_listB>","is being copied by","","","","","",""
"null","<div style=""font-size:60px;"">+</div>","","html-keyboard-response","290","1123854","0.0-17.0-0.16","95450","List1B","white","man","","","","null","","","","","","","","",""
"null","<img src=""stim_listB/look3.gif""style=""height:400px;""></stim_listB>","","html-keyboard-response","291","1125869","0.0-17.0-1.16","95450","List1B","white","man","","","","null","","","","","","","","",""
"null","is looking at","","html-keyboard-response","292","1127885","0.0-17.0-2.16","95450","List1B","white","man","","","","null","","","","","","","","",""
"4868.79999999702","","","survey-text","293","1132758","0.0-17.0-3.16","95450","List1B","white","man","","","","","{""Q0"":""luke is looking at ruth""}","<img src=""stim_listB/look3.gif""style=""height:400px;""></stim_listB>","is looking at","","","","","",""
"null","<div style=""font-size:60px;"">+</div>","","html-keyboard-response","294","1133274","0.0-17.0-0.17","95450","List1B","white","man","","","","null","","","","","","","","",""
"null","<img src=""stim_listB/shout5.gif""style=""height:400px;""></stim_listB>","","html-keyboard-response","295","1135292","0.0-17.0-1.17","95450","List1B","white","man","","","","null","","","","","","","","",""
"null","is shouting at","","html-keyboard-response","296","1137306","0.0-17.0-2.17","95450","List1B","white","man","","","","null","","","","","","","","",""
"4226.5","","","survey-text","297","1141536","0.0-17.0-3.17","95450","List1B","white","man","","","","","{""Q0"":""luke is shouting at fred""}","<img src=""stim_listB/shout5.gif""style=""height:400px;""></stim_listB>","is shouting at","","","","","",""
"null","<div style=""font-size:60px;"">+</div>","","html-keyboard-response","298","1142043","0.0-17.0-0.18","95450","List1B","white","man","","","","null","","","","","","","","",""
"null","<img src=""stim_listB/seduce1.gif""style=""height:400px;""></stim_listB>","","html-keyboard-response","299","1144057","0.0-17.0-1.18","95450","List1B","white","man","","","","null","","","","","","","","",""
"null","is seducing","","html-keyboard-response","300","1146073","0.0-17.0-2.18","95450","List1B","white","man","","","","null","","","","","","","","",""
"3836","","","survey-text","301","1149913","0.0-17.0-3.18","95450","List1B","white","man","","","","","{""Q0"":""fred is seducing kate""}","<img src=""stim_listB/seduce1.gif""style=""height:400px;""></stim_listB>","is seducing","","","","","",""
"null","<div style=""font-size:60px;"">+</div>","","html-keyboard-response","302","1150416","0.0-17.0-0.19","95450","List1B","white","man","","","","null","","","","","","","","",""
"null","<img src=""stim_listB/shout1.gif""style=""height:400px;""></stim_listB>","","html-keyboard-response","303","1152425","0.0-17.0-1.19","95450","List1B","white","man","","","","null","","","","","","","","",""
"null","is shouting at","","html-keyboard-response","304","1154430","0.0-17.0-2.19","95450","List1B","white","man","","","","null","","","","","","","","",""
"4177.0999999940395","","","survey-text","305","1158611","0.0-17.0-3.19","95450","List1B","white","man","","","","","{""Q0"":""fred is shouting at beth""}","<img src=""stim_listB/shout1.gif""style=""height:400px;""></stim_listB>","is shouting at","","","","","",""
"2619.7000000029802","<img src='img/portrait_matrix_list1.jpg' style='width:900px;height:500px;''></img><p>If you have memorised all the portraits and names and are ready to start, press Continue.</p><p><strong>Please note: Your memory of these faces will be tested 4 times during this experiment.</strong></p>","0","html-button-response","306","1161233","0.0-18.0-0.0","95450","List1B","white","man","","","","","","","","","","","","",""
"1690.300000011921","<img src=""portrait/WM2.jpg""style=""height:400px;""></img>","7","html-button-response","307","1163926","0.0-18.0-1.0","95450","List1B","white","man","","true","7","","","","","","","","","",""
"null","CORRECT","","html-keyboard-response","308","1165449","0.0-18.0-2.0-0.0","95450","List1B","white","man","","","","null","","","","","","","","",""
"1550.9000000059605","<img src=""portrait/WW2.jpg""style=""height:400px;""></img>","3","html-button-response","309","1167003","0.0-18.0-4.0","95450","List1B","white","man","","true","3","","","","","","","","","",""
"null","CORRECT","","html-keyboard-response","310","1168506","0.0-18.0-5.0-0.0","95450","List1B","white","man","","","","null","","","","","","","","",""
"4471.100000008941","<img src=""portrait/WM1.jpg""style=""height:400px;""></img>","6","html-button-response","311","1172979","0.0-18.0-7.0","95450","List1B","white","man","","true","6","","","","","","","","","",""
"null","CORRECT","","html-keyboard-response","312","1174482","0.0-18.0-8.0-0.0","95450","List1B","white","man","","","","null","","","","","","","","",""
"2410.4000000059605","<img src=""portrait/BW1.jpg""style=""height:400px;""></img>","0","html-button-response","313","1176895","0.0-18.0-10.0","95450","List1B","white","man","","true","0","","","","","","","","","",""
"null","CORRECT","","html-keyboard-response","314","1178398","0.0-18.0-11.0-0.0","95450","List1B","white","man","","","","null","","","","","","","","",""
"1836.2000000029802","<img src=""portrait/WW1.jpg""style=""height:400px;""></img>","1","html-button-response","315","1180237","0.0-18.0-13.0","95450","List1B","white","man","","true","1","","","","","","","","","",""
"null","CORRECT","","html-keyboard-response","316","1181753","0.0-18.0-14.0-0.0","95450","List1B","white","man","","","","null","","","","","","","","",""
"1861.5999999940395","<img src=""portrait/BM2.jpg""style=""height:400px;""></img>","5","html-button-response","317","1183617","0.0-18.0-16.0","95450","List1B","white","man","","true","5","","","","","","","","","",""
"null","CORRECT","","html-keyboard-response","318","1185136","0.0-18.0-17.0-0.0","95450","List1B","white","man","","","","null","","","","","","","","",""
"1876.8999999910593","<img src=""portrait/BW2.jpg""style=""height:400px;""></img>","2","html-button-response","319","1187015","0.0-18.0-19.0","95450","List1B","white","man","","true","2","","","","","","","","","",""
"null","CORRECT","","html-keyboard-response","320","1188528","0.0-18.0-20.0-0.0","95450","List1B","white","man","","","","null","","","","","","","","",""
"1744.8999999910593","<img src=""portrait/BM1.jpg""style=""height:400px;""></img>","4","html-button-response","321","1190275","0.0-18.0-22.0","95450","List1B","white","man","","true","4","","","","","","","","","",""
"null","CORRECT","","html-keyboard-response","322","1191807","0.0-18.0-23.0-0.0","95450","List1B","white","man","","","","null","","","","","","","","",""
"1102","<p>You got 8 out of 8 right first time. Press Continue.</p>","0","html-button-response","323","1192912","0.0-18.0-25.0","95450","List1B","white","man","","","","","","","","","","","","",""
"null","<div style=""font-size:60px;"">+</div>","","html-keyboard-response","324","1194418","0.0-19.0-0.0","95450","List1B","white","man","","","","null","","","","","","","","",""
"null","<img src=""stim_listB/greet3.gif""style=""height:400px;""></stim_listB>","","html-keyboard-response","325","1196430","0.0-19.0-1.0","95450","List1B","white","man","","","","null","","","","","","","","",""
"null","is greeting","","html-keyboard-response","326","1198447","0.0-19.0-2.0","95450","List1B","white","man","","","","null","","","","","","","","",""
"3625.0999999940395","","","survey-text","327","1202076","0.0-19.0-3.0","95450","List1B","white","man","","","","","{""Q0"":""ruth is greeting dave""}","<img src=""stim_listB/greet3.gif""style=""height:400px;""></stim_listB>","is greeting","","","","","",""
"null","<div style=""font-size:60px;"">+</div>","","html-keyboard-response","328","1202590","0.0-19.0-0.1","95450","List1B","white","man","","","","null","","","","","","","","",""
"null","<img src=""stim_listB/copy5.gif""style=""height:400px;""></stim_listB>","","html-keyboard-response","329","1204605","0.0-19.0-1.1","95450","List1B","white","man","","","","null","","","","","","","","",""
"null","is copying","","html-keyboard-response","330","1206620","0.0-19.0-2.1","95450","List1B","white","man","","","","null","","","","","","","","",""
"3470.4000000059605","","","survey-text","331","1210094","0.0-19.0-3.1","95450","List1B","white","man","","","","","{""Q0"":""luke is copying mike""}","<img src=""stim_listB/copy5.gif""style=""height:400px;""></stim_listB>","is copying","","","","","",""
"null","<div style=""font-size:60px;"">+</div>","","html-keyboard-response","332","1210604","0.0-19.0-0.2","95450","List1B","white","man","","","","null","","","","","","","","",""
"null","<img src=""stim_listB/shout8.gif""style=""height:400px;""></stim_listB>","","html-keyboard-response","333","1212618","0.0-19.0-1.2","95450","List1B","white","man","","","","null","","","","","","","","",""
"null","is being shouted at by","","html-keyboard-response","334","1214635","0.0-19.0-2.2","95450","List1B","white","man","","","","null","","","","","","","","",""
"6274.9000000059605","","","survey-text","335","1220913","0.0-19.0-3.2","95450","List1B","white","man","","","","","{""Q0"":""jane is being shouted at by kate""}","<img src=""stim_listB/shout8.gif""style=""height:400px;""></stim_listB>","is being shouted at by","","","","","",""
"null","<div style=""font-size:60px;"">+</div>","","html-keyboard-response","336","1221417","0.0-19.0-0.3","95450","List1B","white","man","","","","null","","","","","","","","",""
"null","<img src=""stim_listB/seduce7.gif""style=""height:400px;""></stim_listB>","","html-keyboard-response","337","1223421","0.0-19.0-1.3","95450","List1B","white","man","","","","null","","","","","","","","",""
"null","is seducing","","html-keyboard-response","338","1225433","0.0-19.0-2.3","95450","List1B","white","man","","","","null","","","","","","","","",""
"3848","","","survey-text","339","1229285","0.0-19.0-3.3","95450","List1B","white","man","","","","","{""Q0"":""jane is seducing kate""}","<img src=""stim_listB/seduce7.gif""style=""height:400px;""></stim_listB>","is seducing","","","","","",""
"null","<div style=""font-size:60px;"">+</div>","","html-keyboard-response","340","1229792","0.0-19.0-0.4","95450","List1B","white","man","","","","null","","","","","","","","",""
"null","<img src=""stim_listB/oppose7.gif""style=""height:400px;""></stim_listB>","","html-keyboard-response","341","1231805","0.0-19.0-1.4","95450","List1B","white","man","","","","null","","","","","","","","",""
"null","is opposing","","html-keyboard-response","342","1233809","0.0-19.0-2.4","95450","List1B","white","man","","","","null","","","","","","","","",""
"3831","","","survey-text","343","1237643","0.0-19.0-3.4","95450","List1B","white","man","","","","","{""Q0"":""kate is opposing jane""}","<img src=""stim_listB/oppose7.gif""style=""height:400px;""></stim_listB>","is opposing","","","","","",""
"null","<div style=""font-size:60px;"">+</div>","","html-keyboard-response","344","1238150","0.0-19.0-0.5","95450","List1B","white","man","","","","null","","","","","","","","",""
"null","<img src=""stim_listB/oppose6.gif""style=""height:400px;""></stim_listB>","","html-keyboard-response","345","1240166","0.0-19.0-1.5","95450","List1B","white","man","","","","null","","","","","","","","",""
"null","is being opposed by","","html-keyboard-response","346","1242182","0.0-19.0-2.5","95450","List1B","white","man","","","","null","","","","","","","","",""
"6346.4000000059605","","","survey-text","347","1248533","0.0-19.0-3.5","95450","List1B","white","man","","","","","{""Q0"":""fred is being opposed by luke""}","<img src=""stim_listB/oppose6.gif""style=""height:400px;""></stim_listB>","is being opposed by","","","","","",""
"null","<div style=""font-size:60px;"">+</div>","","html-keyboard-response","348","1249046","0.0-19.0-0.6","95450","List1B","white","man","","","","null","","","","","","","","",""
"null","<img src=""stim_listB/hug4.gif""style=""height:400px;""></stim_listB>","","html-keyboard-response","349","1251050","0.0-19.0-1.6","95450","List1B","white","man","","","","null","","","","","","","","",""
"null","is being hugged by","","html-keyboard-response","350","1253057","0.0-19.0-2.6","95450","List1B","white","man","","","","null","","","","","","","","",""
"5122.100000008941","","","survey-text","351","1258183","0.0-19.0-3.6","95450","List1B","white","man","","","","","{""Q0"":""dave is being hugged by jane""}","<img src=""stim_listB/hug4.gif""style=""height:400px;""></stim_listB>","is being hugged by","","","","","",""
"null","<div style=""font-size:60px;"">+</div>","","html-keyboard-response","352","1258696","0.0-19.0-0.7","95450","List1B","white","man","","","","null","","","","","","","","",""
"null","<img src=""stim_listB/look1.gif""style=""height:400px;""></stim_listB>","","html-keyboard-response","353","1260700","0.0-19.0-1.7","95450","List1B","white","man","","","","null","","","","","","","","",""
"null","is looking at","","html-keyboard-response","354","1262712","0.0-19.0-2.7","95450","List1B","white","man","","","","null","","","","","","","","",""
"4000","","","survey-text","355","1266716","0.0-19.0-3.7","95450","List1B","white","man","","","","","{""Q0"":""beth is looking at fred""}","<img src=""stim_listB/look1.gif""style=""height:400px;""></stim_listB>","is looking at","","","","","",""
"null","<div style=""font-size:60px;"">+</div>","","html-keyboard-response","356","1267229","0.0-19.0-0.8","95450","List1B","white","man","","","","null","","","","","","","","",""
"null","<img src=""stim_listB/hug8.gif""style=""height:400px;""></stim_listB>","","html-keyboard-response","357","1269246","0.0-19.0-1.8","95450","List1B","white","man","","","","null","","","","","","","","",""
"null","is being hugged by","","html-keyboard-response","358","1271263","0.0-19.0-2.8","95450","List1B","white","man","","","","null","","","","","","","","",""
"5224.70000000298","","","survey-text","359","1276491","0.0-19.0-3.8","95450","List1B","white","man","","","","","{""Q0"":""kate is being hugged by jane""}","<img src=""stim_listB/hug8.gif""style=""height:400px;""></stim_listB>","is being hugged by","","","","","",""
"null","<div style=""font-size:60px;"">+</div>","","html-keyboard-response","360","1276994","0.0-19.0-0.9","95450","List1B","white","man","","","","null","","","","","","","","",""
"null","<img src=""stim_listB/kiss1.gif""style=""height:400px;""></stim_listB>","","html-keyboard-response","361","1279000","0.0-19.0-1.9","95450","List1B","white","man","","","","null","","","","","","","","",""
"null","is kissing","","html-keyboard-response","362","1281011","0.0-19.0-2.9","95450","List1B","white","man","","","","null","","","","","","","","",""
"3935.5","","","survey-text","363","1284950","0.0-19.0-3.9","95450","List1B","white","man","","","","","{""Q0"":""beth is kissing fred""}","<img src=""stim_listB/kiss1.gif""style=""height:400px;""></stim_listB>","is kissing","","","","","",""
"null","<div style=""font-size:60px;"">+</div>","","html-keyboard-response","364","1285464","0.0-19.0-0.10","95450","List1B","white","man","","","","null","","","","","","","","",""
"null","<img src=""stim_listB/kiss5.gif""style=""height:400px;""></stim_listB>","","html-keyboard-response","365","1287480","0.0-19.0-1.10","95450","List1B","white","man","","","","null","","","","","","","","",""
"null","is kissing","","html-keyboard-response","366","1289498","0.0-19.0-2.10","95450","List1B","white","man","","","","null","","","","","","","","",""
"3893.0999999940395","","","survey-text","367","1293395","0.0-19.0-3.10","95450","List1B","white","man","","","","","{""Q0"":""fred is kissing luke""}","<img src=""stim_listB/kiss5.gif""style=""height:400px;""></stim_listB>","is kissing","","","","","",""
"null","<div style=""font-size:60px;"">+</div>","","html-keyboard-response","368","1293900","0.0-19.0-0.11","95450","List1B","white","man","","","","null","","","","","","","","",""
"null","<img src=""stim_listB/challenge7.gif""style=""height:400px;""></stim_listB>","","html-keyboard-response","369","1295905","0.0-19.0-1.11","95450","List1B","white","man","","","","null","","","","","","","","",""
"null","is challenging","","html-keyboard-response","370","1297911","0.0-19.0-2.11","95450","List1B","white","man","","","","null","","","","","","","","",""
"8490.10000000894","","","survey-text","371","1306406","0.0-19.0-3.11","95450","List1B","white","man","","","","","{""Q0"":""beth is challenging ruth""}","<img src=""stim_listB/challenge7.gif""style=""height:400px;""></stim_listB>","is challenging","","","","","",""
"null","<div style=""font-size:60px;"">+</div>","","html-keyboard-response","372","1306915","0.0-19.0-0.12","95450","List1B","white","man","","","","null","","","","","","","","",""
"null","<img src=""stim_listB/touch8.gif""style=""height:400px;""></stim_listB>","","html-keyboard-response","373","1308933","0.0-19.0-1.12","95450","List1B","white","man","","","","null","","","","","","","","",""
"null","is being touched by","","html-keyboard-response","374","1310948","0.0-19.0-2.12","95450","List1B","white","man","","","","null","","","","","","","","",""
"4540.9000000059605","","","survey-text","375","1315493","0.0-19.0-3.12","95450","List1B","white","man","","","","","{""Q0"":""beth is being touched by ruth""}","<img src=""stim_listB/touch8.gif""style=""height:400px;""></stim_listB>","is being touched by","","","","","",""
"null","<div style=""font-size:60px;"">+</div>","","html-keyboard-response","376","1315994","0.0-19.0-0.13","95450","List1B","white","man","","","","null","","","","","","","","",""
"null","<img src=""stim_listB/look4.gif""style=""height:400px;""></stim_listB>","","html-keyboard-response","377","1318011","0.0-19.0-1.13","95450","List1B","white","man","","","","null","","","","","","","","",""
"null","is being looked at by","","html-keyboard-response","378","1320014","0.0-19.0-2.13","95450","List1B","white","man","","","","null","","","","","","","","",""
"6750.199999988079","","","survey-text","379","1326769","0.0-19.0-3.13","95450","List1B","white","man","","","","","{""Q0"":""dave is being looked at by jane""}","<img src=""stim_listB/look4.gif""style=""height:400px;""></stim_listB>","is being looked at by","","","","","",""
"null","<div style=""font-size:60px;"">+</div>","","html-keyboard-response","380","1327279","0.0-19.0-0.14","95450","List1B","white","man","","","","null","","","","","","","","",""
"null","<img src=""stim_listB/kiss7.gif""style=""height:400px;""></stim_listB>","","html-keyboard-response","381","1329291","0.0-19.0-1.14","95450","List1B","white","man","","","","null","","","","","","","","",""
"null","is kissing","","html-keyboard-response","382","1331309","0.0-19.0-2.14","95450","List1B","white","man","","","","null","","","","","","","","",""
"3859.5","","","survey-text","383","1335172","0.0-19.0-3.14","95450","List1B","white","man","","","","","{""Q0"":""ruth is kissing beth""}","<img src=""stim_listB/kiss7.gif""style=""height:400px;""></stim_listB>","is kissing","","","","","",""
"null","<div style=""font-size:60px;"">+</div>","","html-keyboard-response","384","1335678","0.0-19.0-0.15","95450","List1B","white","man","","","","null","","","","","","","","",""
"null","<img src=""stim_listB/touch7.gif""style=""height:400px;""></stim_listB>","","html-keyboard-response","385","1337692","0.0-19.0-1.15","95450","List1B","white","man","","","","null","","","","","","","","",""
"null","is touching","","html-keyboard-response","386","1339699","0.0-19.0-2.15","95450","List1B","white","man","","","","null","","","","","","","","",""
"3645","","","survey-text","387","1343348","0.0-19.0-3.15","95450","List1B","white","man","","","","","{""Q0"":""jane is touching kate""}","<img src=""stim_listB/touch7.gif""style=""height:400px;""></stim_listB>","is touching","","","","","",""
"null","<div style=""font-size:60px;"">+</div>","","html-keyboard-response","388","1343863","0.0-19.0-0.16","95450","List1B","white","man","","","","null","","","","","","","","",""
"null","<img src=""stim_listB/hug7.gif""style=""height:400px;""></stim_listB>","","html-keyboard-response","389","1345873","0.0-19.0-1.16","95450","List1B","white","man","","","","null","","","","","","","","",""
"null","is hugging","","html-keyboard-response","390","1347886","0.0-19.0-2.16","95450","List1B","white","man","","","","null","","","","","","","","",""
"3673.2000000029802","","","survey-text","391","1351568","0.0-19.0-3.16","95450","List1B","white","man","","","","","{""Q0"":""ruth is hugging beth""}","<img src=""stim_listB/hug7.gif""style=""height:400px;""></stim_listB>","is hugging","","","","","",""
"null","<div style=""font-size:60px;"">+</div>","","html-keyboard-response","392","1352073","0.0-19.0-0.17","95450","List1B","white","man","","","","null","","","","","","","","",""
"null","<img src=""stim_listB/challenge2.gif""style=""height:400px;""></stim_listB>","","html-keyboard-response","393","1354091","0.0-19.0-1.17","95450","List1B","white","man","","","","null","","","","","","","","",""
"null","is being challenged by","","html-keyboard-response","394","1356107","0.0-19.0-2.17","95450","List1B","white","man","","","","null","","","","","","","","",""
"6012.79999999702","","","survey-text","395","1362124","0.0-19.0-3.17","95450","List1B","white","man","","","","","{""Q0"":""fred is being challenged by kate""}","<img src=""stim_listB/challenge2.gif""style=""height:400px;""></stim_listB>","is being challenged by","","","","","",""
"null","<div style=""font-size:60px;"">+</div>","","html-keyboard-response","396","1362637","0.0-19.0-0.18","95450","List1B","white","man","","","","null","","","","","","","","",""
"null","<img src=""stim_listB/challenge5.gif""style=""height:400px;""></stim_listB>","","html-keyboard-response","397","1364641","0.0-19.0-1.18","95450","List1B","white","man","","","","null","","","","","","","","",""
"null","is challenging","","html-keyboard-response","398","1366651","0.0-19.0-2.18","95450","List1B","white","man","","","","null","","","","","","","","",""
"5530.70000000298","","","survey-text","399","1372186","0.0-19.0-3.18","95450","List1B","white","man","","","","","{""Q0"":""luke is challenging mike""}","<img src=""stim_listB/challenge5.gif""style=""height:400px;""></stim_listB>","is challenging","","","","","",""
"null","<div style=""font-size:60px;"">+</div>","","html-keyboard-response","400","1372693","0.0-19.0-0.19","95450","List1B","white","man","","","","null","","","","","","","","",""
"null","<img src=""stim_listB/challenge8.gif""style=""height:400px;""></stim_listB>","","html-keyboard-response","401","1374699","0.0-19.0-1.19","95450","List1B","white","man","","","","null","","","","","","","","",""
"null","is being challenged by","","html-keyboard-response","402","1376714","0.0-19.0-2.19","95450","List1B","white","man","","","","null","","","","","","","","",""
"6494.0999999940395","","","survey-text","403","1383211","0.0-19.0-3.19","95450","List1B","white","man","","","","","{""Q0"":""beth is being challenged by jane""}","<img src=""stim_listB/challenge8.gif""style=""height:400px;""></stim_listB>","is being challenged by","","","","","",""
"4758","<p>Thank you for completing that task.</p><p>The final part of this session is a questionnaire that will take about 4 minutes.</p><p>Press Continue.</p>","0","html-button-response","404","1387971","0.0-20.0","95450","List1B","white","man","","","","","","","","","","","","",""
"30719.5","","","survey-text","405","1419706","0.0-21.0","95450","List1B","white","man","","","","","{""Q0"":""21"",""Q1"":""English"",""Q2"":""English"",""Q3"":""United States"",""Q4"":""American"",""Q5"":""White"",""Q6"":""Male""}","","","demographics","","","","",""
"2869.4000000059605","<p>Have you lived in the USA for the last 5 years or more?</p>","0","html-button-response","406","1422578","0.0-22.0","95450","List1B","white","man","","","","","","","","fiveyears","","","","",""
"2143.9000000059605","<p>Move the slider to show the extent to which you agree with the following statements.</p>","0","html-button-response","407","1425734","0.0-23.0","95450","List1B","white","man","","","","","","","","","","","","",""
"9932.09999999404","","","html-slider-response","408","1436672","0.0-24.0-0.0-0.0","95450","List1B","white","man","","","","","","","","survey_gender","71","","","Being my gender is an important part of how I see myself.","important"
"4051.5","","","html-slider-response","409","1440725","0.0-24.0-0.0-0.1","95450","List1B","white","man","","","","","","","","survey_gender","72","","","I feel solidarity with my friends.","filler"
"18586.5","","","html-slider-response","410","1459314","0.0-24.0-0.0-0.2","95450","List1B","white","man","","","","","","","","survey_gender","61","","","Family is not more important to me than friendship.","filler"
"2937.0999999940395","","","html-slider-response","411","1462253","0.0-24.0-0.0-0.3","95450","List1B","white","man","","","","","","","","survey_gender","81","","","It is pleasant to be my gender.","pleasant"
"4299.100000008941","","","html-slider-response","412","1466553","0.0-24.0-0.0-0.4","95450","List1B","white","man","","","","","","","","survey_gender","57","","","I feel a bond with my gender.","bond"
"2706.2000000029802","","","html-slider-response","413","1469261","0.0-24.0-0.0-0.5","95450","List1B","white","man","","","","","","","","survey_gender","63","","","I have a lot in common with my friends.","filler"
"4244.9000000059605","","","html-slider-response","414","1473508","0.0-24.0-0.0-0.6","95450","List1B","white","man","","","","","","","","survey_gender","58","","","Most of the friends in my life are very similar to me.","filler"
"4164.899999991059","","","html-slider-response","415","1477674","0.0-24.0-0.0-0.7","95450","List1B","white","man","","","","","","","","survey_gender","56","","","The fact that I am my gender is an important part of my identity.","identity"
"4564.5","","","html-slider-response","416","1482240","0.0-24.0-0.0-0.8","95450","List1B","white","man","","","","","","","","survey_gender","33","","","People of my gender have a lot in common with each other.","common"
"7175.79999999702","","","html-slider-response","417","1489418","0.0-24.0-0.0-0.9","95450","List1B","white","man","","","","","","","","survey_gender","42","","","I feel committed to my gender.","committed"
"3217.8999999910593","","","html-slider-response","418","1492638","0.0-24.0-0.0-0.10","95450","List1B","white","man","","","","","","","","survey_gender","52","","","I feel solidarity with my gender.","solidarity"
"3885.7999999970198","","","html-slider-response","419","1496525","0.0-24.0-0.0-0.11","95450","List1B","white","man","","","","","","","","survey_gender","52","","","My friends understand me.","filler"
"3377","","","html-slider-response","420","1499904","0.0-24.0-0.0-0.12","95450","List1B","white","man","","","","","","","","survey_gender","100","","","I am glad to have the friends that I have.","filler"
"3762.5999999940395","","","html-slider-response","421","1503668","0.0-24.0-0.0-0.13","95450","List1B","white","man","","","","","","","","survey_gender","100","","","I would say I am an animal person.","filler"
"4803.70000000298","","","html-slider-response","422","1508473","0.0-24.0-0.0-0.14","95450","List1B","white","man","","","","","","","","survey_gender","32","","","I often think about the fact that I am my gender.","often"
"2490.5999999940395","","","html-slider-response","423","1510966","0.0-24.0-0.0-0.15","95450","List1B","white","man","","","","","","","","survey_gender","88","","","I feel a bond with my friends.","filler"
"3797.7999999970198","","","html-slider-response","424","1514765","0.0-24.0-0.0-0.16","95450","List1B","white","man","","","","","","","","survey_gender","100","","","I consider myself a highly empathetic person.","filler"
"4843.29999999702","","","html-slider-response","425","1519610","0.0-24.0-0.0-0.17","95450","List1B","white","man","","","","","","","","survey_gender","51","","","Being my gender gives me a good feeling.","feeling"
"2480.0999999940395","","","html-slider-response","426","1522092","0.0-24.0-0.0-0.18","95450","List1B","white","man","","","","","","","","survey_gender","92","","","I often think about my actions.","filler"
"6144.79999999702","","","html-slider-response","427","1528238","0.0-24.0-0.0-0.19","95450","List1B","white","man","","","","","","","","survey_gender","58","","","I think that my gender has a lot to be proud of.","proud"
"3561.800000011921","","","html-slider-response","428","1531802","0.0-24.0-0.0-0.20","95450","List1B","white","man","","","","","","","","survey_gender","62","","","I have a lot in common with the average person of my gender.","average"
"4444.399999991059","","","html-slider-response","429","1536248","0.0-24.0-0.0-0.21","95450","List1B","white","man","","","","","","","","survey_gender","84","","","It is not always easy for people to know what I am thinking.","filler"
"3337.800000011921","","","html-slider-response","430","1539588","0.0-24.0-0.0-0.22","95450","List1B","white","man","","","","","","","","survey_gender","100","","","I am glad to be my gender.","glad"
"3385.6000000089407","","","html-slider-response","431","1542976","0.0-24.0-0.0-0.23","95450","List1B","white","man","","","","","","","","survey_gender","65","","","I am similar to the average person of my gender.","similar"
"4236.79999999702","","","html-slider-response","432","1547214","0.0-24.0-0.0-0.24","95450","List1B","white","man","","","","","","","","survey_gender","18","","","People of my gender are very similar to each other.","verysimilar"
"3466.5999999940395","","","html-slider-response","433","1550682","0.0-24.0-0.0-0.25","95450","List1B","white","man","","","","","","","","survey_gender","100","","","Being around my friends gives me a good feeling.","filler"
"3708.2999999970198","","","html-slider-response","434","1554392","0.0-24.0-0.0-0.26","95450","List1B","white","man","","","","","","","","survey_gender","33","","","Routine is not important to me.","filler"
"3306.2999999970198","","","html-slider-response","435","1557700","0.0-24.0-0.0-0.27","95450","List1B","white","man","","","","","","","","survey_gender","66","","","My friends have a lot in common with each other.","filler"
"3242.2999999970198","","","html-slider-response","436","1560944","0.0-24.0-1.0-0.0","95450","List1B","white","man","","","","","","","","survey_race","31","","","Getting older does not worry me.","filler"
"3090.2999999970198","","","html-slider-response","437","1564036","0.0-24.0-1.0-0.1","95450","List1B","white","man","","","","","","","","survey_race","54","","","My age is not an important part of who I am.","filler"
"2954.0999999940395","","","html-slider-response","438","1566992","0.0-24.0-1.0-0.2","95450","List1B","white","man","","","","","","","","survey_race","62","","","I am glad to be the age I am.","filler"
"6705","","","html-slider-response","439","1573698","0.0-24.0-1.0-0.3","95450","List1B","white","man","","","","","","","","survey_race","36","","","I have a lot in common with the average person of my race.","average"
"2431.4000000059605","","","html-slider-response","440","1576132","0.0-24.0-1.0-0.4","95450","List1B","white","man","","","","","","","","survey_race","59","","","I consider myself an introvert.","filler"
"4516.5","","","html-slider-response","441","1580650","0.0-24.0-1.0-0.5","95450","List1B","white","man","","","","","","","","survey_race","37","","","The fact that I am my race is an important part of my identity.","identity"
"3091.0999999940395","","","html-slider-response","442","1583742","0.0-24.0-1.0-0.6","95450","List1B","white","man","","","","","","","","survey_race","22","","","I enjoy being in large groups.","filler"
"2882.2999999970198","","","html-slider-response","443","1586626","0.0-24.0-1.0-0.7","95450","List1B","white","man","","","","","","","","survey_race","9","","","People of my race have a lot in common with each other.","common"
"3155","","","html-slider-response","444","1589782","0.0-24.0-1.0-0.8","95450","List1B","white","man","","","","","","","","survey_race","39","","","I feel solidarity with people the same age as me.","filler"
"4782.5","","","html-slider-response","445","1594566","0.0-24.0-1.0-0.9","95450","List1B","white","man","","","","","","","","survey_race","56","","","I am glad to be my race.","glad"
"2488","","","html-slider-response","446","1597055","0.0-24.0-1.0-0.10","95450","List1B","white","man","","","","","","","","survey_race","56","","","Being my race is an important part of how I see myself.","important"
"2386.4000000059605","","","html-slider-response","447","1599443","0.0-24.0-1.0-0.11","95450","List1B","white","man","","","","","","","","survey_race","71","","","I am glad to be my age.","filler"
"5533.29999999702","","","html-slider-response","448","1604978","0.0-24.0-1.0-0.12","95450","List1B","white","man","","","","","","","","survey_race","30","","","I have a lot in common with people of a similar age to me.","filler"
"4195.5","","","html-slider-response","449","1609175","0.0-24.0-1.0-0.13","95450","List1B","white","man","","","","","","","","survey_race","55","","","I feel a bond with people the same age as me.","filler"
"3130.2000000029802","","","html-slider-response","450","1612307","0.0-24.0-1.0-0.14","95450","List1B","white","man","","","","","","","","survey_race","68","","","It is pleasant to be my race.","pleasant"
"3082","","","html-slider-response","451","1615391","0.0-24.0-1.0-0.15","95450","List1B","white","man","","","","","","","","survey_race","80","","","I often think about the fact that I am my age.","filler"
"3564.7000000029802","","","html-slider-response","452","1618957","0.0-24.0-1.0-0.16","95450","List1B","white","man","","","","","","","","survey_race","19","","","I am similar to the average person of my race.","similar"
"5100.29999999702","","","html-slider-response","453","1624059","0.0-24.0-1.0-0.17","95450","List1B","white","man","","","","","","","","survey_race","40","","","I often think about the fact that I am my race.","often"
"2953.5","","","html-slider-response","454","1627015","0.0-24.0-1.0-0.18","95450","List1B","white","man","","","","","","","","survey_race","56","","","I feel a bond with my race.","bond"
"2011.6000000089407","","","html-slider-response","455","1629027","0.0-24.0-1.0-0.19","95450","List1B","white","man","","","","","","","","survey_race","59","","","I feel solidarity with my race.","solidarity"
"3522.7999999970198","","","html-slider-response","456","1632551","0.0-24.0-1.0-0.20","95450","List1B","white","man","","","","","","","","survey_race","31","","","The older I get, the wiser I feel.","filler"
"5028","","","html-slider-response","457","1637581","0.0-24.0-1.0-0.21","95450","List1B","white","man","","","","","","","","survey_race","60","","","I feel committed to my race.","committed"
"3018.2000000029802","","","html-slider-response","458","1640602","0.0-24.0-1.0-0.22","95450","List1B","white","man","","","","","","","","survey_race","38","","","Being my age gives me a good feeling.","filler"
"2153.8999999910593","","","html-slider-response","459","1642757","0.0-24.0-1.0-0.23","95450","List1B","white","man","","","","","","","","survey_race","58","","","Being my race gives me a good feeling.","feeling"
"2072.8999999910593","","","html-slider-response","460","1644831","0.0-24.0-1.0-0.24","95450","List1B","white","man","","","","","","","","survey_race","33","","","I consider myself an extrovert.","filler"
"2898.5999999940395","","","html-slider-response","461","1647731","0.0-24.0-1.0-0.25","95450","List1B","white","man","","","","","","","","survey_race","21","","","People of my race are very similar to each other.","verysimilar"
"2610.9000000059605","","","html-slider-response","462","1650343","0.0-24.0-1.0-0.26","95450","List1B","white","man","","","","","","","","survey_race","77","","","I think that my race has a lot to be proud of.","proud"
"3314.2000000029802","","","html-slider-response","463","1653659","0.0-24.0-1.0-0.27","95450","List1B","white","man","","","","","","","","survey_race","26","","","People my age have a lot in common with each other.","filler"
"11725","","","survey-text","464","1665387","0.0-25.0","95450","List1B","white","man","","","","","{""Q0"":""6126b1a4cf495ae35fa2a4ed""}","","","worker_id","","","","",""
"21573.39999999106","","","external-html","465","1687319","0.0-26.0","95450","List1B","white","man","debrief.html","","","","","","","","","","","",""
