rt,stimulus,button_pressed,trial_type,trial_index,time_elapsed,internal_node_id,subject,list,ppt_race,ppt_gender,url,first_guess,correct,key_press,responses,image_type,phrase_type,test_part,response,stimulus1,stimulus2,question_type,survey_item
24994.1,Welcome to the experiment. Press Continue to begin.,0,html-button-response,0,25022,0.0-0.0,95848,List1B,black,man,,,,,,,,,,,,,
56037.4,,,external-html,1,83734,0.0-1.0,95848,List1B,black,man,consent.html,,,,,,,,,,,,
11757.3,"<p>On the next page, you will see portraits of 8 people and their names.</p><p>Your first task is to take a few minutes to memorise the names of these people.</p><p>You will have to recall their names during the rest of the experiment, so it is</p><p>essential that you try to memorise these people and their names as best as you can.</p><br><p><strong>You will then be tested on your memory of these names and portraits.</strong></p><br><p>The experiment will start after you have completed this memory test.</p><br><p>Ready?</p>",0,html-button-response,2,95502,0.0-2.0,95848,List1B,black,man,,,,,,,,,,,,,
146379.3,"<img src='img/portrait_matrix_list1.jpg' style='width:900px;height:500px;''></img><p>If you have memorised all the portraits and names and are ready to start, press Continue.</p><p><strong>Please note: Your memory of these faces will be tested 4 times during this experiment.</strong></p>",0,html-button-response,3,242903,0.0-3.0-0.0,95848,List1B,black,man,,,,,,,,,,,,,
25915.2,"<img src=""portrait/BM1.jpg""style=""height:400px;""></img>",4,html-button-response,4,269840,0.0-3.0-1.0,95848,List1B,black,man,,TRUE,4,,,,,,,,,,
null,CORRECT,,html-keyboard-response,5,271366,0.0-3.0-2.0-0.0,95848,List1B,black,man,,,,null,,,,,,,,,
5434.1,"<img src=""portrait/BW2.jpg""style=""height:400px;""></img>",2,html-button-response,6,276812,0.0-3.0-4.0,95848,List1B,black,man,,TRUE,2,,,,,,,,,,
null,CORRECT,,html-keyboard-response,7,278333,0.0-3.0-5.0-0.0,95848,List1B,black,man,,,,null,,,,,,,,,
6412.8,"<img src=""portrait/WM1.jpg""style=""height:400px;""></img>",6,html-button-response,8,284756,0.0-3.0-7.0,95848,List1B,black,man,,TRUE,6,,,,,,,,,,
null,CORRECT,,html-keyboard-response,9,286276,0.0-3.0-8.0-0.0,95848,List1B,black,man,,,,null,,,,,,,,,
8498.4,"<img src=""portrait/WM2.jpg""style=""height:400px;""></img>",7,html-button-response,10,294785,0.0-3.0-10.0,95848,List1B,black,man,,TRUE,7,,,,,,,,,,
null,CORRECT,,html-keyboard-response,11,296294,0.0-3.0-11.0-0.0,95848,List1B,black,man,,,,null,,,,,,,,,
7533.1,"<img src=""portrait/WW2.jpg""style=""height:400px;""></img>",3,html-button-response,12,303837,0.0-3.0-13.0,95848,List1B,black,man,,TRUE,3,,,,,,,,,,
null,CORRECT,,html-keyboard-response,13,305356,0.0-3.0-14.0-0.0,95848,List1B,black,man,,,,null,,,,,,,,,
9275.4,"<img src=""portrait/BW1.jpg""style=""height:400px;""></img>",0,html-button-response,14,314640,0.0-3.0-16.0,95848,List1B,black,man,,TRUE,0,,,,,,,,,,
null,CORRECT,,html-keyboard-response,15,316166,0.0-3.0-17.0-0.0,95848,List1B,black,man,,,,null,,,,,,,,,
6755.5,"<img src=""portrait/BM2.jpg""style=""height:400px;""></img>",5,html-button-response,16,322931,0.0-3.0-19.0,95848,List1B,black,man,,TRUE,5,,,,,,,,,,
null,CORRECT,,html-keyboard-response,17,324449,0.0-3.0-20.0-0.0,95848,List1B,black,man,,,,null,,,,,,,,,
7377.2,"<img src=""portrait/WW1.jpg""style=""height:400px;""></img>",1,html-button-response,18,331834,0.0-3.0-22.0,95848,List1B,black,man,,TRUE,1,,,,,,,,,,
null,CORRECT,,html-keyboard-response,19,333353,0.0-3.0-23.0-0.0,95848,List1B,black,man,,,,null,,,,,,,,,
2744.1,<p>You got 8 out of 8 right first time. Press Continue.</p>,0,html-button-response,20,336107,0.0-3.0-25.0,95848,List1B,black,man,,,,,,,,,,,,,
95293,"<p>In this experiment, you will view photographs of the people from the memory game interacting.</p><p>By using the <strong>exact</strong> phrase given <i>after</i> the photograph appears and recalling the correct names of the people in the photographs, form a sentence describing the interaction. You do not need to capitalise names.</p><p>Type your answer in the space provided. Please complete every sentence before moving onto the next trial.</p><p>You will only have a few seconds to memorise each given photograph and phrase before you can respond, so try your best to focus.</p><p>An example is given below. Press 'Continue' when you are ready.</p><img src='img/speaking_example.jpg' style='width:800px;height:460px;''></img>",0,html-button-response,21,432428,0.0-4.0,95848,List1B,black,man,,,,,,,,,,,,,
143244.8,"<p>Before the experiment starts, you will watch two example trials. Press 'Continue'.</p>",0,html-button-response,22,576681,0.0-5.0,95848,List1B,black,man,,,,,,,,,,,,,
null,<img src='img/play_eg.gif' style='height:400px;''></img>,,html-keyboard-response,23,579701,0.0-6.0,95848,List1B,black,man,,,,null,,,,,,,,,
null,<p>is playing with</p>,,html-keyboard-response,24,581715,0.0-7.0,95848,List1B,black,man,,,,null,,,,,,,,,
3035.7,<p><b>Answer:</b> kate is playing with beth</p>,0,html-button-response,25,584756,0.0-8.0,95848,List1B,black,man,,,,,,,,,,,,,
null,<img src='img/dance_eg.gif' style='height:400px;''></img>,,html-keyboard-response,26,587772,0.0-9.0,95848,List1B,black,man,,,,null,,,,,,,,,
null,<p>is being entertained by</p>,,html-keyboard-response,27,589779,0.0-10.0,95848,List1B,black,man,,,,null,,,,,,,,,
903.1,<p><b>Answer:</b> luke is being entertained by dave</p>,0,html-button-response,28,590688,0.0-11.0,95848,List1B,black,man,,,,,,,,,,,,,
587639.7,"<p>Ready to start the experiment?</p><br><p><strong>Remember to describe the picture using a full sentence,</strong></p><p><strong>that combines the names of the people with the <i>exact</i> phrase given.</strong></p><p><strong>To receive full payment you must do this correctly.</strong></p><p><strong> You do not need to capitalise names or use punctuation.</strong></p><br><p>Press 'Continue' to begin.</p>",0,html-button-response,29,1179334,0.0-12.0,95848,List1B,black,man,,,,,,,,,,,,,
null,"<div style=""font-size:60px;"">+</div>",,html-keyboard-response,30,1180854,0.0-13.0-0.0,95848,List1B,black,man,,,,null,,,,,,,,,
null,"<img src=""stim_listB/seduce3.gif""style=""height:400px;""></stim_listB>",,html-keyboard-response,31,1182879,0.0-13.0-1.0,95848,List1B,black,man,,,,null,,,,,,,,,
null,is seducing,,html-keyboard-response,32,1184885,0.0-13.0-2.0,95848,List1B,black,man,,,,null,,,,,,,,,
22756.8,,,survey-text,33,1207665,0.0-13.0-3.0,95848,List1B,black,man,,,,,"{""Q0"":""ruth is seducing mike""}","<img src=""stim_listB/seduce3.gif""style=""height:400px;""></stim_listB>",is seducing,,,,,,
null,"<div style=""font-size:60px;"">+</div>",,html-keyboard-response,34,1208179,0.0-13.0-0.1,95848,List1B,black,man,,,,null,,,,,,,,,
null,"<img src=""stim_listB/look4.gif""style=""height:400px;""></stim_listB>",,html-keyboard-response,35,1210194,0.0-13.0-1.1,95848,List1B,black,man,,,,null,,,,,,,,,
null,is being looked at by,,html-keyboard-response,36,1212205,0.0-13.0-2.1,95848,List1B,black,man,,,,null,,,,,,,,,
18598.8,,,survey-text,37,1230817,0.0-13.0-3.1,95848,List1B,black,man,,,,,"{""Q0"":""dave is being looked at by jane""}","<img src=""stim_listB/look4.gif""style=""height:400px;""></stim_listB>",is being looked at by,,,,,,
null,"<div style=""font-size:60px;"">+</div>",,html-keyboard-response,38,1231336,0.0-13.0-0.2,95848,List1B,black,man,,,,null,,,,,,,,,
null,"<img src=""stim_listB/oppose2.gif""style=""height:400px;""></stim_listB>",,html-keyboard-response,39,1233352,0.0-13.0-1.2,95848,List1B,black,man,,,,null,,,,,,,,,
null,is being opposed by,,html-keyboard-response,40,1235364,0.0-13.0-2.2,95848,List1B,black,man,,,,null,,,,,,,,,
16571.1,,,survey-text,41,1251951,0.0-13.0-3.2,95848,List1B,black,man,,,,,"{""Q0"":""fred is being opposed by beth""}","<img src=""stim_listB/oppose2.gif""style=""height:400px;""></stim_listB>",is being opposed by,,,,,,
null,"<div style=""font-size:60px;"">+</div>",,html-keyboard-response,42,1252460,0.0-13.0-0.3,95848,List1B,black,man,,,,null,,,,,,,,,
null,"<img src=""stim_listB/oppose3.gif""style=""height:400px;""></stim_listB>",,html-keyboard-response,43,1254475,0.0-13.0-1.3,95848,List1B,black,man,,,,null,,,,,,,,,
null,is opposing,,html-keyboard-response,44,1256479,0.0-13.0-2.3,95848,List1B,black,man,,,,null,,,,,,,,,
16443.8,,,survey-text,45,1272935,0.0-13.0-3.3,95848,List1B,black,man,,,,,"{""Q0"":""jane is opposing dave""}","<img src=""stim_listB/oppose3.gif""style=""height:400px;""></stim_listB>",is opposing,,,,,,
null,"<div style=""font-size:60px;"">+</div>",,html-keyboard-response,46,1273450,0.0-13.0-0.4,95848,List1B,black,man,,,,null,,,,,,,,,
null,"<img src=""stim_listB/seduce2.gif""style=""height:400px;""></stim_listB>",,html-keyboard-response,47,1275464,0.0-13.0-1.4,95848,List1B,black,man,,,,null,,,,,,,,,
null,is being seduced by,,html-keyboard-response,48,1277468,0.0-13.0-2.4,95848,List1B,black,man,,,,null,,,,,,,,,
16615.5,,,survey-text,49,1294096,0.0-13.0-3.4,95848,List1B,black,man,,,,,"{""Q0"":""mike is being seduced by beth""}","<img src=""stim_listB/seduce2.gif""style=""height:400px;""></stim_listB>",is being seduced by,,,,,,
null,"<div style=""font-size:60px;"">+</div>",,html-keyboard-response,50,1294603,0.0-13.0-0.5,95848,List1B,black,man,,,,null,,,,,,,,,
null,"<img src=""stim_listB/shout7.gif""style=""height:400px;""></stim_listB>",,html-keyboard-response,51,1296612,0.0-13.0-1.5,95848,List1B,black,man,,,,null,,,,,,,,,
null,is shouting at,,html-keyboard-response,52,1298632,0.0-13.0-2.5,95848,List1B,black,man,,,,null,,,,,,,,,
13536.5,,,survey-text,53,1312181,0.0-13.0-3.5,95848,List1B,black,man,,,,,"{""Q0"":""ruth is shouting at beth""}","<img src=""stim_listB/shout7.gif""style=""height:400px;""></stim_listB>",is shouting at,,,,,,
null,"<div style=""font-size:60px;"">+</div>",,html-keyboard-response,54,1312696,0.0-13.0-0.6,95848,List1B,black,man,,,,null,,,,,,,,,
null,"<img src=""stim_listB/kiss3.gif""style=""height:400px;""></stim_listB>",,html-keyboard-response,55,1314711,0.0-13.0-1.6,95848,List1B,black,man,,,,null,,,,,,,,,
null,is kissing,,html-keyboard-response,56,1316731,0.0-13.0-2.6,95848,List1B,black,man,,,,null,,,,,,,,,
15372.5,,,survey-text,57,1332118,0.0-13.0-3.6,95848,List1B,black,man,,,,,"{""Q0"":""ruth is kissing luke""}","<img src=""stim_listB/kiss3.gif""style=""height:400px;""></stim_listB>",is kissing,,,,,,
null,"<div style=""font-size:60px;"">+</div>",,html-keyboard-response,58,1332632,0.0-13.0-0.7,95848,List1B,black,man,,,,null,,,,,,,,,
null,"<img src=""stim_listB/greet3.gif""style=""height:400px;""></stim_listB>",,html-keyboard-response,59,1334653,0.0-13.0-1.7,95848,List1B,black,man,,,,null,,,,,,,,,
null,is greeting,,html-keyboard-response,60,1336664,0.0-13.0-2.7,95848,List1B,black,man,,,,null,,,,,,,,,
9007.6,,,survey-text,61,1345685,0.0-13.0-3.7,95848,List1B,black,man,,,,,"{""Q0"":""ruth is greeting dave""}","<img src=""stim_listB/greet3.gif""style=""height:400px;""></stim_listB>",is greeting,,,,,,
null,"<div style=""font-size:60px;"">+</div>",,html-keyboard-response,62,1346200,0.0-13.0-0.8,95848,List1B,black,man,,,,null,,,,,,,,,
null,"<img src=""stim_listB/look3.gif""style=""height:400px;""></stim_listB>",,html-keyboard-response,63,1348212,0.0-13.0-1.8,95848,List1B,black,man,,,,null,,,,,,,,,
null,is looking at,,html-keyboard-response,64,1350231,0.0-13.0-2.8,95848,List1B,black,man,,,,null,,,,,,,,,
19480.4,,,survey-text,65,1369725,0.0-13.0-3.8,95848,List1B,black,man,,,,,"{""Q0"":""ruth is looking at luke""}","<img src=""stim_listB/look3.gif""style=""height:400px;""></stim_listB>",is looking at,,,,,,
null,"<div style=""font-size:60px;"">+</div>",,html-keyboard-response,66,1370234,0.0-13.0-0.9,95848,List1B,black,man,,,,null,,,,,,,,,
null,"<img src=""stim_listB/greet6.gif""style=""height:400px;""></stim_listB>",,html-keyboard-response,67,1372245,0.0-13.0-1.9,95848,List1B,black,man,,,,null,,,,,,,,,
null,is being greeted by,,html-keyboard-response,68,1374277,0.0-13.0-2.9,95848,List1B,black,man,,,,null,,,,,,,,,
10940.4,,,survey-text,69,1385231,0.0-13.0-3.9,95848,List1B,black,man,,,,,"{""Q0"":""fred is being greeted by dave""}","<img src=""stim_listB/greet6.gif""style=""height:400px;""></stim_listB>",is being greeted by,,,,,,
null,"<div style=""font-size:60px;"">+</div>",,html-keyboard-response,70,1385747,0.0-13.0-0.10,95848,List1B,black,man,,,,null,,,,,,,,,
null,"<img src=""stim_listB/touch6.gif""style=""height:400px;""></stim_listB>",,html-keyboard-response,71,1387762,0.0-13.0-1.10,95848,List1B,black,man,,,,null,,,,,,,,,
null,is being touched by,,html-keyboard-response,72,1389774,0.0-13.0-2.10,95848,List1B,black,man,,,,null,,,,,,,,,
12917.7,,,survey-text,73,1402705,0.0-13.0-3.10,95848,List1B,black,man,,,,,"{""Q0"":""fred is being touched by luke""}","<img src=""stim_listB/touch6.gif""style=""height:400px;""></stim_listB>",is being touched by,,,,,,
null,"<div style=""font-size:60px;"">+</div>",,html-keyboard-response,74,1403213,0.0-13.0-0.11,95848,List1B,black,man,,,,null,,,,,,,,,
null,"<img src=""stim_listB/greet2.gif""style=""height:400px;""></stim_listB>",,html-keyboard-response,75,1405227,0.0-13.0-1.11,95848,List1B,black,man,,,,null,,,,,,,,,
null,is being greeted by,,html-keyboard-response,76,1407231,0.0-13.0-2.11,95848,List1B,black,man,,,,null,,,,,,,,,
13141.2,,,survey-text,77,1420381,0.0-13.0-3.11,95848,List1B,black,man,,,,,"{""Q0"":""fred is being greeted by kate""}","<img src=""stim_listB/greet2.gif""style=""height:400px;""></stim_listB>",is being greeted by,,,,,,
null,"<div style=""font-size:60px;"">+</div>",,html-keyboard-response,78,1420897,0.0-13.0-0.12,95848,List1B,black,man,,,,null,,,,,,,,,
null,"<img src=""stim_listB/challenge1.gif""style=""height:400px;""></stim_listB>",,html-keyboard-response,79,1422913,0.0-13.0-1.12,95848,List1B,black,man,,,,null,,,,,,,,,
null,is challenging,,html-keyboard-response,80,1424931,0.0-13.0-2.12,95848,List1B,black,man,,,,null,,,,,,,,,
13387.2,,,survey-text,81,1438332,0.0-13.0-3.12,95848,List1B,black,man,,,,,"{""Q0"":""beth is challenging mike""}","<img src=""stim_listB/challenge1.gif""style=""height:400px;""></stim_listB>",is challenging,,,,,,
null,"<div style=""font-size:60px;"">+</div>",,html-keyboard-response,82,1438843,0.0-13.0-0.13,95848,List1B,black,man,,,,null,,,,,,,,,
null,"<img src=""stim_listB/shout3.gif""style=""height:400px;""></stim_listB>",,html-keyboard-response,83,1440869,0.0-13.0-1.13,95848,List1B,black,man,,,,null,,,,,,,,,
null,is shouting at,,html-keyboard-response,84,1442881,0.0-13.0-2.13,95848,List1B,black,man,,,,null,,,,,,,,,
10789.9,,,survey-text,85,1453684,0.0-13.0-3.13,95848,List1B,black,man,,,,,"{""Q0"":""ruth is shouting at luke""}","<img src=""stim_listB/shout3.gif""style=""height:400px;""></stim_listB>",is shouting at,,,,,,
null,"<div style=""font-size:60px;"">+</div>",,html-keyboard-response,86,1454190,0.0-13.0-0.14,95848,List1B,black,man,,,,null,,,,,,,,,
null,"<img src=""stim_listB/look6.gif""style=""height:400px;""></stim_listB>",,html-keyboard-response,87,1456209,0.0-13.0-1.14,95848,List1B,black,man,,,,null,,,,,,,,,
null,is being looked at by,,html-keyboard-response,88,1458229,0.0-13.0-2.14,95848,List1B,black,man,,,,null,,,,,,,,,
14363.2,,,survey-text,89,1472605,0.0-13.0-3.14,95848,List1B,black,man,,,,,"{""Q0"":""mike is being looked at by dave""}","<img src=""stim_listB/look6.gif""style=""height:400px;""></stim_listB>",is being looked at by,,,,,,
null,"<div style=""font-size:60px;"">+</div>",,html-keyboard-response,90,1473120,0.0-13.0-0.15,95848,List1B,black,man,,,,null,,,,,,,,,
null,"<img src=""stim_listB/oppose4.gif""style=""height:400px;""></stim_listB>",,html-keyboard-response,91,1475135,0.0-13.0-1.15,95848,List1B,black,man,,,,null,,,,,,,,,
null,is being opposed by,,html-keyboard-response,92,1477149,0.0-13.0-2.15,95848,List1B,black,man,,,,null,,,,,,,,,
11408.3,,,survey-text,93,1488576,0.0-13.0-3.15,95848,List1B,black,man,,,,,"{""Q0"":""ruth is being opposed by luke""}","<img src=""stim_listB/oppose4.gif""style=""height:400px;""></stim_listB>",is being opposed by,,,,,,
null,"<div style=""font-size:60px;"">+</div>",,html-keyboard-response,94,1489084,0.0-13.0-0.16,95848,List1B,black,man,,,,null,,,,,,,,,
null,"<img src=""stim_listB/hug6.gif""style=""height:400px;""></stim_listB>",,html-keyboard-response,95,1491107,0.0-13.0-1.16,95848,List1B,black,man,,,,null,,,,,,,,,
null,is being hugged by,,html-keyboard-response,96,1493122,0.0-13.0-2.16,95848,List1B,black,man,,,,null,,,,,,,,,
11667.4,,,survey-text,97,1504804,0.0-13.0-3.16,95848,List1B,black,man,,,,,"{""Q0"":""mike is being hugged by dave""}","<img src=""stim_listB/hug6.gif""style=""height:400px;""></stim_listB>",is being hugged by,,,,,,
null,"<div style=""font-size:60px;"">+</div>",,html-keyboard-response,98,1505320,0.0-13.0-0.17,95848,List1B,black,man,,,,null,,,,,,,,,
null,"<img src=""stim_listB/look8.gif""style=""height:400px;""></stim_listB>",,html-keyboard-response,99,1507337,0.0-13.0-1.17,95848,List1B,black,man,,,,null,,,,,,,,,
null,is being looked at by,,html-keyboard-response,100,1509356,0.0-13.0-2.17,95848,List1B,black,man,,,,null,,,,,,,,,
16791.1,,,survey-text,101,1526163,0.0-13.0-3.17,95848,List1B,black,man,,,,,"{""Q0"":""kate is being looked at by jane""}","<img src=""stim_listB/look8.gif""style=""height:400px;""></stim_listB>",is being looked at by,,,,,,
null,"<div style=""font-size:60px;"">+</div>",,html-keyboard-response,102,1526683,0.0-13.0-0.18,95848,List1B,black,man,,,,null,,,,,,,,,
null,"<img src=""stim_listB/greet5.gif""style=""height:400px;""></stim_listB>",,html-keyboard-response,103,1528695,0.0-13.0-1.18,95848,List1B,black,man,,,,null,,,,,,,,,
null,is greeting,,html-keyboard-response,104,1530714,0.0-13.0-2.18,95848,List1B,black,man,,,,null,,,,,,,,,
8828,,,survey-text,105,1539552,0.0-13.0-3.18,95848,List1B,black,man,,,,,"{""Q0"":""luke is greeting mike""}","<img src=""stim_listB/greet5.gif""style=""height:400px;""></stim_listB>",is greeting,,,,,,
null,"<div style=""font-size:60px;"">+</div>",,html-keyboard-response,106,1540067,0.0-13.0-0.19,95848,List1B,black,man,,,,null,,,,,,,,,
null,"<img src=""stim_listB/touch4.gif""style=""height:400px;""></stim_listB>",,html-keyboard-response,107,1542082,0.0-13.0-1.19,95848,List1B,black,man,,,,null,,,,,,,,,
null,is being touched by,,html-keyboard-response,108,1544102,0.0-13.0-2.19,95848,List1B,black,man,,,,null,,,,,,,,,
14081.8,,,survey-text,109,1558197,0.0-13.0-3.19,95848,List1B,black,man,,,,,"{""Q0"":""luke is being touched by ruth""}","<img src=""stim_listB/touch4.gif""style=""height:400px;""></stim_listB>",is being touched by,,,,,,
8356.4,"<img src='img/portrait_matrix_list1.jpg' style='width:900px;height:500px;''></img><p>If you have memorised all the portraits and names and are ready to start, press Continue.</p><p><strong>Please note: Your memory of these faces will be tested 4 times during this experiment.</strong></p>",0,html-button-response,110,1566564,0.0-14.0-0.0,95848,List1B,black,man,,,,,,,,,,,,,
4960.5,"<img src=""portrait/WW1.jpg""style=""height:400px;""></img>",1,html-button-response,111,1572543,0.0-14.0-1.0,95848,List1B,black,man,,TRUE,1,,,,,,,,,,
null,CORRECT,,html-keyboard-response,112,1574065,0.0-14.0-2.0-0.0,95848,List1B,black,man,,,,null,,,,,,,,,
5337.6,"<img src=""portrait/WM1.jpg""style=""height:400px;""></img>",6,html-button-response,113,1579416,0.0-14.0-4.0,95848,List1B,black,man,,TRUE,6,,,,,,,,,,
null,CORRECT,,html-keyboard-response,114,1580941,0.0-14.0-5.0-0.0,95848,List1B,black,man,,,,null,,,,,,,,,
3700.5,"<img src=""portrait/WM2.jpg""style=""height:400px;""></img>",7,html-button-response,115,1584653,0.0-14.0-7.0,95848,List1B,black,man,,TRUE,7,,,,,,,,,,
null,CORRECT,,html-keyboard-response,116,1586179,0.0-14.0-8.0-0.0,95848,List1B,black,man,,,,null,,,,,,,,,
4993,"<img src=""portrait/WW2.jpg""style=""height:400px;""></img>",3,html-button-response,117,1591183,0.0-14.0-10.0,95848,List1B,black,man,,TRUE,3,,,,,,,,,,
null,CORRECT,,html-keyboard-response,118,1592724,0.0-14.0-11.0-0.0,95848,List1B,black,man,,,,null,,,,,,,,,
4133.2,"<img src=""portrait/BM1.jpg""style=""height:400px;""></img>",4,html-button-response,119,1596869,0.0-14.0-13.0,95848,List1B,black,man,,TRUE,4,,,,,,,,,,
null,CORRECT,,html-keyboard-response,120,1598402,0.0-14.0-14.0-0.0,95848,List1B,black,man,,,,null,,,,,,,,,
5610.6,"<img src=""portrait/BW2.jpg""style=""height:400px;""></img>",2,html-button-response,121,1604026,0.0-14.0-16.0,95848,List1B,black,man,,TRUE,2,,,,,,,,,,
null,CORRECT,,html-keyboard-response,122,1605563,0.0-14.0-17.0-0.0,95848,List1B,black,man,,,,null,,,,,,,,,
4487.8,"<img src=""portrait/BM2.jpg""style=""height:400px;""></img>",5,html-button-response,123,1610064,0.0-14.0-19.0,95848,List1B,black,man,,TRUE,5,,,,,,,,,,
null,CORRECT,,html-keyboard-response,124,1611591,0.0-14.0-20.0-0.0,95848,List1B,black,man,,,,null,,,,,,,,,
6734.6,"<img src=""portrait/BW1.jpg""style=""height:400px;""></img>",0,html-button-response,125,1618336,0.0-14.0-22.0,95848,List1B,black,man,,TRUE,0,,,,,,,,,,
null,CORRECT,,html-keyboard-response,126,1619855,0.0-14.0-23.0-0.0,95848,List1B,black,man,,,,null,,,,,,,,,
20426,<p>You got 8 out of 8 right first time. Press Continue.</p>,0,html-button-response,127,1640291,0.0-14.0-25.0,95848,List1B,black,man,,,,,,,,,,,,,
null,"<div style=""font-size:60px;"">+</div>",,html-keyboard-response,128,1641829,0.0-15.0-0.0,95848,List1B,black,man,,,,null,,,,,,,,,
null,"<img src=""stim_listB/copy3.gif""style=""height:400px;""></stim_listB>",,html-keyboard-response,129,1643844,0.0-15.0-1.0,95848,List1B,black,man,,,,null,,,,,,,,,
null,is copying,,html-keyboard-response,130,1645855,0.0-15.0-2.0,95848,List1B,black,man,,,,null,,,,,,,,,
14154.8,,,survey-text,131,1660018,0.0-15.0-3.0,95848,List1B,black,man,,,,,"{""Q0"":""ruth is copying dave""}","<img src=""stim_listB/copy3.gif""style=""height:400px;""></stim_listB>",is copying,,,,,,
null,"<div style=""font-size:60px;"">+</div>",,html-keyboard-response,132,1660534,0.0-15.0-0.1,95848,List1B,black,man,,,,null,,,,,,,,,
null,"<img src=""stim_listB/kiss5.gif""style=""height:400px;""></stim_listB>",,html-keyboard-response,133,1662550,0.0-15.0-1.1,95848,List1B,black,man,,,,null,,,,,,,,,
null,is kissing,,html-keyboard-response,134,1664569,0.0-15.0-2.1,95848,List1B,black,man,,,,null,,,,,,,,,
11062.1,,,survey-text,135,1675648,0.0-15.0-3.1,95848,List1B,black,man,,,,,"{""Q0"":""luke is kissing fred""}","<img src=""stim_listB/kiss5.gif""style=""height:400px;""></stim_listB>",is kissing,,,,,,
null,"<div style=""font-size:60px;"">+</div>",,html-keyboard-response,136,1676163,0.0-15.0-0.2,95848,List1B,black,man,,,,null,,,,,,,,,
null,"<img src=""stim_listB/hug1.gif""style=""height:400px;""></stim_listB>",,html-keyboard-response,137,1678179,0.0-15.0-1.2,95848,List1B,black,man,,,,null,,,,,,,,,
null,is hugging,,html-keyboard-response,138,1680190,0.0-15.0-2.2,95848,List1B,black,man,,,,null,,,,,,,,,
8246.8,,,survey-text,139,1688449,0.0-15.0-3.2,95848,List1B,black,man,,,,,"{""Q0"":""fred is hugging beth""}","<img src=""stim_listB/hug1.gif""style=""height:400px;""></stim_listB>",is hugging,,,,,,
null,"<div style=""font-size:60px;"">+</div>",,html-keyboard-response,140,1688957,0.0-15.0-0.3,95848,List1B,black,man,,,,null,,,,,,,,,
null,"<img src=""stim_listB/seduce1.gif""style=""height:400px;""></stim_listB>",,html-keyboard-response,141,1690972,0.0-15.0-1.3,95848,List1B,black,man,,,,null,,,,,,,,,
null,is seducing,,html-keyboard-response,142,1692976,0.0-15.0-2.3,95848,List1B,black,man,,,,null,,,,,,,,,
11477.7,,,survey-text,143,1704465,0.0-15.0-3.3,95848,List1B,black,man,,,,,"{""Q0"":""kate is seducing fred""}","<img src=""stim_listB/seduce1.gif""style=""height:400px;""></stim_listB>",is seducing,,,,,,
null,"<div style=""font-size:60px;"">+</div>",,html-keyboard-response,144,1704974,0.0-15.0-0.4,95848,List1B,black,man,,,,null,,,,,,,,,
null,"<img src=""stim_listB/touch1.gif""style=""height:400px;""></stim_listB>",,html-keyboard-response,145,1706988,0.0-15.0-1.4,95848,List1B,black,man,,,,null,,,,,,,,,
null,is touching,,html-keyboard-response,146,1709005,0.0-15.0-2.4,95848,List1B,black,man,,,,null,,,,,,,,,
10936.1,,,survey-text,147,1719958,0.0-15.0-3.4,95848,List1B,black,man,,,,,"{""Q0"":""kate is touching mike""}","<img src=""stim_listB/touch1.gif""style=""height:400px;""></stim_listB>",is touching,,,,,,
null,"<div style=""font-size:60px;"">+</div>",,html-keyboard-response,148,1720466,0.0-15.0-0.5,95848,List1B,black,man,,,,null,,,,,,,,,
null,"<img src=""stim_listB/kiss4.gif""style=""height:400px;""></stim_listB>",,html-keyboard-response,149,1722480,0.0-15.0-1.5,95848,List1B,black,man,,,,null,,,,,,,,,
null,is being kissed by,,html-keyboard-response,150,1724491,0.0-15.0-2.5,95848,List1B,black,man,,,,null,,,,,,,,,
14182.3,,,survey-text,151,1738685,0.0-15.0-3.5,95848,List1B,black,man,,,,,"{""Q0"":""jane is being kissed by dave""}","<img src=""stim_listB/kiss4.gif""style=""height:400px;""></stim_listB>",is being kissed by,,,,,,
null,"<div style=""font-size:60px;"">+</div>",,html-keyboard-response,152,1739201,0.0-15.0-0.6,95848,List1B,black,man,,,,null,,,,,,,,,
null,"<img src=""stim_listB/oppose6.gif""style=""height:400px;""></stim_listB>",,html-keyboard-response,153,1741214,0.0-15.0-1.6,95848,List1B,black,man,,,,null,,,,,,,,,
null,is being opposed by,,html-keyboard-response,154,1743227,0.0-15.0-2.6,95848,List1B,black,man,,,,null,,,,,,,,,
15653.6,,,survey-text,155,1758893,0.0-15.0-3.6,95848,List1B,black,man,,,,,"{""Q0"":""fred is opposed by luke""}","<img src=""stim_listB/oppose6.gif""style=""height:400px;""></stim_listB>",is being opposed by,,,,,,
null,"<div style=""font-size:60px;"">+</div>",,html-keyboard-response,156,1759401,0.0-15.0-0.7,95848,List1B,black,man,,,,null,,,,,,,,,
null,"<img src=""stim_listB/challenge6.gif""style=""height:400px;""></stim_listB>",,html-keyboard-response,157,1761417,0.0-15.0-1.7,95848,List1B,black,man,,,,null,,,,,,,,,
null,is being challenged by,,html-keyboard-response,158,1763429,0.0-15.0-2.7,95848,List1B,black,man,,,,null,,,,,,,,,
15655.6,,,survey-text,159,1779098,0.0-15.0-3.7,95848,List1B,black,man,,,,,"{""Q0"":""fred is greeting dave""}","<img src=""stim_listB/challenge6.gif""style=""height:400px;""></stim_listB>",is being challenged by,,,,,,
null,"<div style=""font-size:60px;"">+</div>",,html-keyboard-response,160,1779606,0.0-15.0-0.8,95848,List1B,black,man,,,,null,,,,,,,,,
null,"<img src=""stim_listB/hug3.gif""style=""height:400px;""></stim_listB>",,html-keyboard-response,161,1781619,0.0-15.0-1.8,95848,List1B,black,man,,,,null,,,,,,,,,
null,is hugging,,html-keyboard-response,162,1783626,0.0-15.0-2.8,95848,List1B,black,man,,,,null,,,,,,,,,
9810.3,,,survey-text,163,1793451,0.0-15.0-3.8,95848,List1B,black,man,,,,,"{""Q0"":""ruth is hugging luke""}","<img src=""stim_listB/hug3.gif""style=""height:400px;""></stim_listB>",is hugging,,,,,,
null,"<div style=""font-size:60px;"">+</div>",,html-keyboard-response,164,1793967,0.0-15.0-0.9,95848,List1B,black,man,,,,null,,,,,,,,,
null,"<img src=""stim_listB/challenge8.gif""style=""height:400px;""></stim_listB>",,html-keyboard-response,165,1795982,0.0-15.0-1.9,95848,List1B,black,man,,,,null,,,,,,,,,
null,is being challenged by,,html-keyboard-response,166,1797993,0.0-15.0-2.9,95848,List1B,black,man,,,,null,,,,,,,,,
15642.2,,,survey-text,167,1813648,0.0-15.0-3.9,95848,List1B,black,man,,,,,"{""Q0"":""beth is being challenged by jane""}","<img src=""stim_listB/challenge8.gif""style=""height:400px;""></stim_listB>",is being challenged by,,,,,,
null,"<div style=""font-size:60px;"">+</div>",,html-keyboard-response,168,1814157,0.0-15.0-0.10,95848,List1B,black,man,,,,null,,,,,,,,,
null,"<img src=""stim_listB/shout6.gif""style=""height:400px;""></stim_listB>",,html-keyboard-response,169,1816171,0.0-15.0-1.10,95848,List1B,black,man,,,,null,,,,,,,,,
null,is being shouted at by,,html-keyboard-response,170,1818182,0.0-15.0-2.10,95848,List1B,black,man,,,,null,,,,,,,,,
14755.5,,,survey-text,171,1832950,0.0-15.0-3.10,95848,List1B,black,man,,,,,"{""Q0"":""mike is shouted at by dave""}","<img src=""stim_listB/shout6.gif""style=""height:400px;""></stim_listB>",is being shouted at by,,,,,,
null,"<div style=""font-size:60px;"">+</div>",,html-keyboard-response,172,1833465,0.0-15.0-0.11,95848,List1B,black,man,,,,null,,,,,,,,,
null,"<img src=""stim_listB/look7.gif""style=""height:400px;""></stim_listB>",,html-keyboard-response,173,1835479,0.0-15.0-1.11,95848,List1B,black,man,,,,null,,,,,,,,,
null,is looking at,,html-keyboard-response,174,1837498,0.0-15.0-2.11,95848,List1B,black,man,,,,null,,,,,,,,,
17348.7,,,survey-text,175,1854859,0.0-15.0-3.11,95848,List1B,black,man,,,,,"{""Q0"":""beth is looking at ruth""}","<img src=""stim_listB/look7.gif""style=""height:400px;""></stim_listB>",is looking at,,,,,,
null,"<div style=""font-size:60px;"">+</div>",,html-keyboard-response,176,1855367,0.0-15.0-0.12,95848,List1B,black,man,,,,null,,,,,,,,,
null,"<img src=""stim_listB/copy1.gif""style=""height:400px;""></stim_listB>",,html-keyboard-response,177,1857386,0.0-15.0-1.12,95848,List1B,black,man,,,,null,,,,,,,,,
null,is copying,,html-keyboard-response,178,1859398,0.0-15.0-2.12,95848,List1B,black,man,,,,null,,,,,,,,,
9785.1,,,survey-text,179,1869196,0.0-15.0-3.12,95848,List1B,black,man,,,,,"{""Q0"":""mike is copying beth""}","<img src=""stim_listB/copy1.gif""style=""height:400px;""></stim_listB>",is copying,,,,,,
null,"<div style=""font-size:60px;"">+</div>",,html-keyboard-response,180,1869712,0.0-15.0-0.13,95848,List1B,black,man,,,,null,,,,,,,,,
null,"<img src=""stim_listB/copy6.gif""style=""height:400px;""></stim_listB>",,html-keyboard-response,181,1871727,0.0-15.0-1.13,95848,List1B,black,man,,,,null,,,,,,,,,
null,is being copied by,,html-keyboard-response,182,1873746,0.0-15.0-2.13,95848,List1B,black,man,,,,null,,,,,,,,,
14489.8,,,survey-text,183,1888249,0.0-15.0-3.13,95848,List1B,black,man,,,,,"{""Q0"":""fred is copied by dave""}","<img src=""stim_listB/copy6.gif""style=""height:400px;""></stim_listB>",is being copied by,,,,,,
null,"<div style=""font-size:60px;"">+</div>",,html-keyboard-response,184,1888758,0.0-15.0-0.14,95848,List1B,black,man,,,,null,,,,,,,,,
null,"<img src=""stim_listB/shout2.gif""style=""height:400px;""></stim_listB>",,html-keyboard-response,185,1890773,0.0-15.0-1.14,95848,List1B,black,man,,,,null,,,,,,,,,
null,is being shouted at by,,html-keyboard-response,186,1892779,0.0-15.0-2.14,95848,List1B,black,man,,,,null,,,,,,,,,
13885.1,,,survey-text,187,1906676,0.0-15.0-3.14,95848,List1B,black,man,,,,,"{""Q0"":""mike is being shouted at by kate""}","<img src=""stim_listB/shout2.gif""style=""height:400px;""></stim_listB>",is being shouted at by,,,,,,
null,"<div style=""font-size:60px;"">+</div>",,html-keyboard-response,188,1907191,0.0-15.0-0.15,95848,List1B,black,man,,,,null,,,,,,,,,
null,"<img src=""stim_listB/seduce8.gif""style=""height:400px;""></stim_listB>",,html-keyboard-response,189,1909202,0.0-15.0-1.15,95848,List1B,black,man,,,,null,,,,,,,,,
null,is being seduced by,,html-keyboard-response,190,1911221,0.0-15.0-2.15,95848,List1B,black,man,,,,null,,,,,,,,,
14942.8,,,survey-text,191,1926177,0.0-15.0-3.15,95848,List1B,black,man,,,,,"{""Q0"":""kate is being seduced by beth""}","<img src=""stim_listB/seduce8.gif""style=""height:400px;""></stim_listB>",is being seduced by,,,,,,
null,"<div style=""font-size:60px;"">+</div>",,html-keyboard-response,192,1926695,0.0-15.0-0.16,95848,List1B,black,man,,,,null,,,,,,,,,
null,"<img src=""stim_listB/touch5.gif""style=""height:400px;""></stim_listB>",,html-keyboard-response,193,1928708,0.0-15.0-1.16,95848,List1B,black,man,,,,null,,,,,,,,,
null,is touching,,html-keyboard-response,194,1930728,0.0-15.0-2.16,95848,List1B,black,man,,,,null,,,,,,,,,
10954.2,,,survey-text,195,1941696,0.0-15.0-3.16,95848,List1B,black,man,,,,,"{""Q0"":""luke is touching dave""}","<img src=""stim_listB/touch5.gif""style=""height:400px;""></stim_listB>",is touching,,,,,,
null,"<div style=""font-size:60px;"">+</div>",,html-keyboard-response,196,1942211,0.0-15.0-0.17,95848,List1B,black,man,,,,null,,,,,,,,,
null,"<img src=""stim_listB/look1.gif""style=""height:400px;""></stim_listB>",,html-keyboard-response,197,1944229,0.0-15.0-1.17,95848,List1B,black,man,,,,null,,,,,,,,,
null,is looking at,,html-keyboard-response,198,1946244,0.0-15.0-2.17,95848,List1B,black,man,,,,null,,,,,,,,,
8449.9,,,survey-text,199,1954708,0.0-15.0-3.17,95848,List1B,black,man,,,,,"{""Q0"":""fred is looking at beth""}","<img src=""stim_listB/look1.gif""style=""height:400px;""></stim_listB>",is looking at,,,,,,
null,"<div style=""font-size:60px;"">+</div>",,html-keyboard-response,200,1955225,0.0-15.0-0.18,95848,List1B,black,man,,,,null,,,,,,,,,
null,"<img src=""stim_listB/oppose1.gif""style=""height:400px;""></stim_listB>",,html-keyboard-response,201,1957240,0.0-15.0-1.18,95848,List1B,black,man,,,,null,,,,,,,,,
null,is opposing,,html-keyboard-response,202,1959266,0.0-15.0-2.18,95848,List1B,black,man,,,,null,,,,,,,,,
8556.1,,,survey-text,203,1967844,0.0-15.0-3.18,95848,List1B,black,man,,,,,"{""Q0"":""kate is opposing mike""}","<img src=""stim_listB/oppose1.gif""style=""height:400px;""></stim_listB>",is opposing,,,,,,
null,"<div style=""font-size:60px;"">+</div>",,html-keyboard-response,204,1968358,0.0-15.0-0.19,95848,List1B,black,man,,,,null,,,,,,,,,
null,"<img src=""stim_listB/seduce6.gif""style=""height:400px;""></stim_listB>",,html-keyboard-response,205,1970374,0.0-15.0-1.19,95848,List1B,black,man,,,,null,,,,,,,,,
null,is being seduced by,,html-keyboard-response,206,1972386,0.0-15.0-2.19,95848,List1B,black,man,,,,null,,,,,,,,,
10934.3,,,survey-text,207,1983334,0.0-15.0-3.19,95848,List1B,black,man,,,,,"{""Q0"":""mike is being seduced by luke""}","<img src=""stim_listB/seduce6.gif""style=""height:400px;""></stim_listB>",is being seduced by,,,,,,
11616.3,"<img src='img/portrait_matrix_list1.jpg' style='width:900px;height:500px;''></img><p>If you have memorised all the portraits and names and are ready to start, press Continue.</p><p><strong>Please note: Your memory of these faces will be tested 4 times during this experiment.</strong></p>",0,html-button-response,208,1994961,0.0-16.0-0.0,95848,List1B,black,man,,,,,,,,,,,,,
5134.3,"<img src=""portrait/WW1.jpg""style=""height:400px;""></img>",1,html-button-response,209,2001113,0.0-16.0-1.0,95848,List1B,black,man,,TRUE,1,,,,,,,,,,
null,CORRECT,,html-keyboard-response,210,2002644,0.0-16.0-2.0-0.0,95848,List1B,black,man,,,,null,,,,,,,,,
4018.9,"<img src=""portrait/WM1.jpg""style=""height:400px;""></img>",6,html-button-response,211,2006679,0.0-16.0-4.0,95848,List1B,black,man,,TRUE,6,,,,,,,,,,
null,CORRECT,,html-keyboard-response,212,2008202,0.0-16.0-5.0-0.0,95848,List1B,black,man,,,,null,,,,,,,,,
4471.5,"<img src=""portrait/WW2.jpg""style=""height:400px;""></img>",3,html-button-response,213,2012686,0.0-16.0-7.0,95848,List1B,black,man,,TRUE,3,,,,,,,,,,
null,CORRECT,,html-keyboard-response,214,2014214,0.0-16.0-8.0-0.0,95848,List1B,black,man,,,,null,,,,,,,,,
3810.5,"<img src=""portrait/BW2.jpg""style=""height:400px;""></img>",2,html-button-response,215,2018037,0.0-16.0-10.0,95848,List1B,black,man,,TRUE,2,,,,,,,,,,
null,CORRECT,,html-keyboard-response,216,2019561,0.0-16.0-11.0-0.0,95848,List1B,black,man,,,,null,,,,,,,,,
7132,"<img src=""portrait/BW1.jpg""style=""height:400px;""></img>",0,html-button-response,217,2026703,0.0-16.0-13.0,95848,List1B,black,man,,TRUE,0,,,,,,,,,,
null,CORRECT,,html-keyboard-response,218,2028229,0.0-16.0-14.0-0.0,95848,List1B,black,man,,,,null,,,,,,,,,
5226,"<img src=""portrait/BM2.jpg""style=""height:400px;""></img>",5,html-button-response,219,2033468,0.0-16.0-16.0,95848,List1B,black,man,,TRUE,5,,,,,,,,,,
null,CORRECT,,html-keyboard-response,220,2035000,0.0-16.0-17.0-0.0,95848,List1B,black,man,,,,null,,,,,,,,,
4730.1,"<img src=""portrait/WM2.jpg""style=""height:400px;""></img>",7,html-button-response,221,2039743,0.0-16.0-19.0,95848,List1B,black,man,,TRUE,7,,,,,,,,,,
null,CORRECT,,html-keyboard-response,222,2041260,0.0-16.0-20.0-0.0,95848,List1B,black,man,,,,null,,,,,,,,,
4021.5,"<img src=""portrait/BM1.jpg""style=""height:400px;""></img>",4,html-button-response,223,2045295,0.0-16.0-22.0,95848,List1B,black,man,,TRUE,4,,,,,,,,,,
null,CORRECT,,html-keyboard-response,224,2046826,0.0-16.0-23.0-0.0,95848,List1B,black,man,,,,null,,,,,,,,,
3366.9,<p>You got 8 out of 8 right first time. Press Continue.</p>,0,html-button-response,225,2050203,0.0-16.0-25.0,95848,List1B,black,man,,,,,,,,,,,,,
null,"<div style=""font-size:60px;"">+</div>",,html-keyboard-response,226,2051736,0.0-17.0-0.0,95848,List1B,black,man,,,,null,,,,,,,,,
null,"<img src=""stim_listB/oppose5.gif""style=""height:400px;""></stim_listB>",,html-keyboard-response,227,2053752,0.0-17.0-1.0,95848,List1B,black,man,,,,null,,,,,,,,,
null,is opposing,,html-keyboard-response,228,2055764,0.0-17.0-2.0,95848,List1B,black,man,,,,null,,,,,,,,,
11214.3,,,survey-text,229,2066993,0.0-17.0-3.0,95848,List1B,black,man,,,,,"{""Q0"":""dave is opposing mike""}","<img src=""stim_listB/oppose5.gif""style=""height:400px;""></stim_listB>",is opposing,,,,,,
null,"<div style=""font-size:60px;"">+</div>",,html-keyboard-response,230,2067516,0.0-17.0-0.1,95848,List1B,black,man,,,,null,,,,,,,,,
null,"<img src=""stim_listB/kiss1.gif""style=""height:400px;""></stim_listB>",,html-keyboard-response,231,2069529,0.0-17.0-1.1,95848,List1B,black,man,,,,null,,,,,,,,,
null,is kissing,,html-keyboard-response,232,2071540,0.0-17.0-2.1,95848,List1B,black,man,,,,null,,,,,,,,,
6749,,,survey-text,233,2078304,0.0-17.0-3.1,95848,List1B,black,man,,,,,"{""Q0"":""fred is kissing beth""}","<img src=""stim_listB/kiss1.gif""style=""height:400px;""></stim_listB>",is kissing,,,,,,
null,"<div style=""font-size:60px;"">+</div>",,html-keyboard-response,234,2078812,0.0-17.0-0.2,95848,List1B,black,man,,,,null,,,,,,,,,
null,"<img src=""stim_listB/hug8.gif""style=""height:400px;""></stim_listB>",,html-keyboard-response,235,2080824,0.0-17.0-1.2,95848,List1B,black,man,,,,null,,,,,,,,,
null,is being hugged by,,html-keyboard-response,236,2082843,0.0-17.0-2.2,95848,List1B,black,man,,,,null,,,,,,,,,
10493.6,,,survey-text,237,2093352,0.0-17.0-3.2,95848,List1B,black,man,,,,,"{""Q0"":""jane is being hugged by kate""}","<img src=""stim_listB/hug8.gif""style=""height:400px;""></stim_listB>",is being hugged by,,,,,,
null,"<div style=""font-size:60px;"">+</div>",,html-keyboard-response,238,2093868,0.0-17.0-0.3,95848,List1B,black,man,,,,null,,,,,,,,,
null,"<img src=""stim_listB/seduce5.gif""style=""height:400px;""></stim_listB>",,html-keyboard-response,239,2095881,0.0-17.0-1.3,95848,List1B,black,man,,,,null,,,,,,,,,
null,is seducing,,html-keyboard-response,240,2097900,0.0-17.0-2.3,95848,List1B,black,man,,,,null,,,,,,,,,
11814.8,,,survey-text,241,2109730,0.0-17.0-3.3,95848,List1B,black,man,,,,,"{""Q0"":""fred is seducing dave""}","<img src=""stim_listB/seduce5.gif""style=""height:400px;""></stim_listB>",is seducing,,,,,,
null,"<div style=""font-size:60px;"">+</div>",,html-keyboard-response,242,2110245,0.0-17.0-0.4,95848,List1B,black,man,,,,null,,,,,,,,,
null,"<img src=""stim_listB/challenge5.gif""style=""height:400px;""></stim_listB>",,html-keyboard-response,243,2112264,0.0-17.0-1.4,95848,List1B,black,man,,,,null,,,,,,,,,
null,is challenging,,html-keyboard-response,244,2114277,0.0-17.0-2.4,95848,List1B,black,man,,,,null,,,,,,,,,
9054,,,survey-text,245,2123346,0.0-17.0-3.4,95848,List1B,black,man,,,,,"{""Q0"":""luke is challenging mike""}","<img src=""stim_listB/challenge5.gif""style=""height:400px;""></stim_listB>",is challenging,,,,,,
null,"<div style=""font-size:60px;"">+</div>",,html-keyboard-response,246,2123854,0.0-17.0-0.5,95848,List1B,black,man,,,,null,,,,,,,,,
null,"<img src=""stim_listB/touch7.gif""style=""height:400px;""></stim_listB>",,html-keyboard-response,247,2125869,0.0-17.0-1.5,95848,List1B,black,man,,,,null,,,,,,,,,
null,is touching,,html-keyboard-response,248,2127889,0.0-17.0-2.5,95848,List1B,black,man,,,,null,,,,,,,,,
16428.4,,,survey-text,249,2144333,0.0-17.0-3.5,95848,List1B,black,man,,,,,"{""Q0"":""kate is touching jane""}","<img src=""stim_listB/touch7.gif""style=""height:400px;""></stim_listB>",is touching,,,,,,
null,"<div style=""font-size:60px;"">+</div>",,html-keyboard-response,250,2144855,0.0-17.0-0.6,95848,List1B,black,man,,,,null,,,,,,,,,
null,"<img src=""stim_listB/hug5.gif""style=""height:400px;""></stim_listB>",,html-keyboard-response,251,2146872,0.0-17.0-1.6,95848,List1B,black,man,,,,null,,,,,,,,,
null,is hugging,,html-keyboard-response,252,2148891,0.0-17.0-2.6,95848,List1B,black,man,,,,null,,,,,,,,,
11514.8,,,survey-text,253,2160422,0.0-17.0-3.6,95848,List1B,black,man,,,,,"{""Q0"":""fred is hugging luke""}","<img src=""stim_listB/hug5.gif""style=""height:400px;""></stim_listB>",is hugging,,,,,,
null,"<div style=""font-size:60px;"">+</div>",,html-keyboard-response,254,2160930,0.0-17.0-0.7,95848,List1B,black,man,,,,null,,,,,,,,,
null,"<img src=""stim_listB/greet7.gif""style=""height:400px;""></stim_listB>",,html-keyboard-response,255,2162952,0.0-17.0-1.7,95848,List1B,black,man,,,,null,,,,,,,,,
null,is greeting,,html-keyboard-response,256,2164967,0.0-17.0-2.7,95848,List1B,black,man,,,,null,,,,,,,,,
17155.5,,,survey-text,257,2182137,0.0-17.0-3.7,95848,List1B,black,man,,,,,"{""Q0"":""ruth is greeting kate""}","<img src=""stim_listB/greet7.gif""style=""height:400px;""></stim_listB>",is greeting,,,,,,
null,"<div style=""font-size:60px;"">+</div>",,html-keyboard-response,258,2182653,0.0-17.0-0.8,95848,List1B,black,man,,,,null,,,,,,,,,
null,"<img src=""stim_listB/shout8.gif""style=""height:400px;""></stim_listB>",,html-keyboard-response,259,2184667,0.0-17.0-1.8,95848,List1B,black,man,,,,null,,,,,,,,,
null,is being shouted at by,,html-keyboard-response,260,2186678,0.0-17.0-2.8,95848,List1B,black,man,,,,null,,,,,,,,,
16478.8,,,survey-text,261,2203168,0.0-17.0-3.8,95848,List1B,black,man,,,,,"{""Q0"":""jane is being shouted at by kate""}","<img src=""stim_listB/shout8.gif""style=""height:400px;""></stim_listB>",is being shouted at by,,,,,,
null,"<div style=""font-size:60px;"">+</div>",,html-keyboard-response,262,2203675,0.0-17.0-0.9,95848,List1B,black,man,,,,null,,,,,,,,,
null,"<img src=""stim_listB/touch8.gif""style=""height:400px;""></stim_listB>",,html-keyboard-response,263,2205685,0.0-17.0-1.9,95848,List1B,black,man,,,,null,,,,,,,,,
null,is being touched by,,html-keyboard-response,264,2207697,0.0-17.0-2.9,95848,List1B,black,man,,,,null,,,,,,,,,
12821.7,,,survey-text,265,2220531,0.0-17.0-3.9,95848,List1B,black,man,,,,,"{""Q0"":""beth is being touched by ruth""}","<img src=""stim_listB/touch8.gif""style=""height:400px;""></stim_listB>",is being touched by,,,,,,
null,"<div style=""font-size:60px;"">+</div>",,html-keyboard-response,266,2221041,0.0-17.0-0.10,95848,List1B,black,man,,,,null,,,,,,,,,
null,"<img src=""stim_listB/look2.gif""style=""height:400px;""></stim_listB>",,html-keyboard-response,267,2223056,0.0-17.0-1.10,95848,List1B,black,man,,,,null,,,,,,,,,
null,is being looked at by,,html-keyboard-response,268,2225067,0.0-17.0-2.10,95848,List1B,black,man,,,,null,,,,,,,,,
12254.1,,,survey-text,269,2237334,0.0-17.0-3.10,95848,List1B,black,man,,,,,"{""Q0"":""kate is being looked at by mike""}","<img src=""stim_listB/look2.gif""style=""height:400px;""></stim_listB>",is being looked at by,,,,,,
null,"<div style=""font-size:60px;"">+</div>",,html-keyboard-response,270,2237849,0.0-17.0-0.11,95848,List1B,black,man,,,,null,,,,,,,,,
null,"<img src=""stim_listB/copy7.gif""style=""height:400px;""></stim_listB>",,html-keyboard-response,271,2239864,0.0-17.0-1.11,95848,List1B,black,man,,,,null,,,,,,,,,
null,is copying,,html-keyboard-response,272,2241882,0.0-17.0-2.11,95848,List1B,black,man,,,,null,,,,,,,,,
12282.2,,,survey-text,273,2254177,0.0-17.0-3.11,95848,List1B,black,man,,,,,"{""Q0"":""ruth is copying kate""}","<img src=""stim_listB/copy7.gif""style=""height:400px;""></stim_listB>",is copying,,,,,,
null,"<div style=""font-size:60px;"">+</div>",,html-keyboard-response,274,2254692,0.0-17.0-0.12,95848,List1B,black,man,,,,null,,,,,,,,,
null,"<img src=""stim_listB/hug4.gif""style=""height:400px;""></stim_listB>",,html-keyboard-response,275,2256711,0.0-17.0-1.12,95848,List1B,black,man,,,,null,,,,,,,,,
null,is being hugged by,,html-keyboard-response,276,2258722,0.0-17.0-2.12,95848,List1B,black,man,,,,null,,,,,,,,,
12685.1,,,survey-text,277,2271425,0.0-17.0-3.12,95848,List1B,black,man,,,,,"{""Q0"":""dave is being hugged by jane""}","<img src=""stim_listB/hug4.gif""style=""height:400px;""></stim_listB>",is being hugged by,,,,,,
null,"<div style=""font-size:60px;"">+</div>",,html-keyboard-response,278,2271947,0.0-17.0-0.13,95848,List1B,black,man,,,,null,,,,,,,,,
null,"<img src=""stim_listB/touch2.gif""style=""height:400px;""></stim_listB>",,html-keyboard-response,279,2273963,0.0-17.0-1.13,95848,List1B,black,man,,,,null,,,,,,,,,
null,is being touched by,,html-keyboard-response,280,2275979,0.0-17.0-2.13,95848,List1B,black,man,,,,null,,,,,,,,,
11218.3,,,survey-text,281,2287213,0.0-17.0-3.13,95848,List1B,black,man,,,,,"{""Q0"":""fred is being touched by beth""}","<img src=""stim_listB/touch2.gif""style=""height:400px;""></stim_listB>",is being touched by,,,,,,
null,"<div style=""font-size:60px;"">+</div>",,html-keyboard-response,282,2287729,0.0-17.0-0.14,95848,List1B,black,man,,,,null,,,,,,,,,
null,"<img src=""stim_listB/seduce4.gif""style=""height:400px;""></stim_listB>",,html-keyboard-response,283,2289746,0.0-17.0-1.14,95848,List1B,black,man,,,,null,,,,,,,,,
null,is being seduced by,,html-keyboard-response,284,2291758,0.0-17.0-2.14,95848,List1B,black,man,,,,null,,,,,,,,,
11163.1,,,survey-text,285,2302935,0.0-17.0-3.14,95848,List1B,black,man,,,,,"{""Q0"":""dave is seducing ruth""}","<img src=""stim_listB/seduce4.gif""style=""height:400px;""></stim_listB>",is being seduced by,,,,,,
null,"<div style=""font-size:60px;"">+</div>",,html-keyboard-response,286,2303447,0.0-17.0-0.15,95848,List1B,black,man,,,,null,,,,,,,,,
null,"<img src=""stim_listB/challenge2.gif""style=""height:400px;""></stim_listB>",,html-keyboard-response,287,2305464,0.0-17.0-1.15,95848,List1B,black,man,,,,null,,,,,,,,,
null,is being challenged by,,html-keyboard-response,288,2307477,0.0-17.0-2.15,95848,List1B,black,man,,,,null,,,,,,,,,
12019,,,survey-text,289,2319509,0.0-17.0-3.15,95848,List1B,black,man,,,,,"{""Q0"":""fred is being challenged by kate""}","<img src=""stim_listB/challenge2.gif""style=""height:400px;""></stim_listB>",is being challenged by,,,,,,
null,"<div style=""font-size:60px;"">+</div>",,html-keyboard-response,290,2320024,0.0-17.0-0.16,95848,List1B,black,man,,,,null,,,,,,,,,
null,"<img src=""stim_listB/challenge7.gif""style=""height:400px;""></stim_listB>",,html-keyboard-response,291,2322041,0.0-17.0-1.16,95848,List1B,black,man,,,,null,,,,,,,,,
null,is challenging,,html-keyboard-response,292,2324060,0.0-17.0-2.16,95848,List1B,black,man,,,,null,,,,,,,,,
9178.4,,,survey-text,293,2333252,0.0-17.0-3.16,95848,List1B,black,man,,,,,"{""Q0"":""kate is challenging ruth""}","<img src=""stim_listB/challenge7.gif""style=""height:400px;""></stim_listB>",is challenging,,,,,,
null,"<div style=""font-size:60px;"">+</div>",,html-keyboard-response,294,2333775,0.0-17.0-0.17,95848,List1B,black,man,,,,null,,,,,,,,,
null,"<img src=""stim_listB/shout4.gif""style=""height:400px;""></stim_listB>",,html-keyboard-response,295,2335796,0.0-17.0-1.17,95848,List1B,black,man,,,,null,,,,,,,,,
null,is being shouted at by,,html-keyboard-response,296,2337807,0.0-17.0-2.17,95848,List1B,black,man,,,,null,,,,,,,,,
11806.8,,,survey-text,297,2349628,0.0-17.0-3.17,95848,List1B,black,man,,,,,"{""Q0"":""dave is being shouted at by jane""}","<img src=""stim_listB/shout4.gif""style=""height:400px;""></stim_listB>",is being shouted at by,,,,,,
null,"<div style=""font-size:60px;"">+</div>",,html-keyboard-response,298,2350135,0.0-17.0-0.18,95848,List1B,black,man,,,,null,,,,,,,,,
null,"<img src=""stim_listB/copy4.gif""style=""height:400px;""></stim_listB>",,html-keyboard-response,299,2352154,0.0-17.0-1.18,95848,List1B,black,man,,,,null,,,,,,,,,
null,is being copied by,,html-keyboard-response,300,2354165,0.0-17.0-2.18,95848,List1B,black,man,,,,null,,,,,,,,,
13931.9,,,survey-text,301,2368111,0.0-17.0-3.18,95848,List1B,black,man,,,,,"{""Q0"":""jane is being copied at mike""}","<img src=""stim_listB/copy4.gif""style=""height:400px;""></stim_listB>",is being copied by,,,,,,
null,"<div style=""font-size:60px;"">+</div>",,html-keyboard-response,302,2368619,0.0-17.0-0.19,95848,List1B,black,man,,,,null,,,,,,,,,
null,"<img src=""stim_listB/greet8.gif""style=""height:400px;""></stim_listB>",,html-keyboard-response,303,2370638,0.0-17.0-1.19,95848,List1B,black,man,,,,null,,,,,,,,,
null,is being greeted by,,html-keyboard-response,304,2372651,0.0-17.0-2.19,95848,List1B,black,man,,,,null,,,,,,,,,
12803.7,,,survey-text,305,2385463,0.0-17.0-3.19,95848,List1B,black,man,,,,,"{""Q0"":""beth is being greeted at by jane""}","<img src=""stim_listB/greet8.gif""style=""height:400px;""></stim_listB>",is being greeted by,,,,,,
6854.8,"<img src='img/portrait_matrix_list1.jpg' style='width:900px;height:500px;''></img><p>If you have memorised all the portraits and names and are ready to start, press Continue.</p><p><strong>Please note: Your memory of these faces will be tested 4 times during this experiment.</strong></p>",0,html-button-response,306,2392327,0.0-18.0-0.0,95848,List1B,black,man,,,,,,,,,,,,,
5344.1,"<img src=""portrait/WW1.jpg""style=""height:400px;""></img>",1,html-button-response,307,2398689,0.0-18.0-1.0,95848,List1B,black,man,,TRUE,1,,,,,,,,,,
null,CORRECT,,html-keyboard-response,308,2400223,0.0-18.0-2.0-0.0,95848,List1B,black,man,,,,null,,,,,,,,,
6200.3,"<img src=""portrait/WM1.jpg""style=""height:400px;""></img>",6,html-button-response,309,2406434,0.0-18.0-4.0,95848,List1B,black,man,,TRUE,6,,,,,,,,,,
null,CORRECT,,html-keyboard-response,310,2407959,0.0-18.0-5.0-0.0,95848,List1B,black,man,,,,null,,,,,,,,,
6431.1,"<img src=""portrait/WW2.jpg""style=""height:400px;""></img>",3,html-button-response,311,2414401,0.0-18.0-7.0,95848,List1B,black,man,,TRUE,3,,,,,,,,,,
null,CORRECT,,html-keyboard-response,312,2415927,0.0-18.0-8.0-0.0,95848,List1B,black,man,,,,null,,,,,,,,,
4110.5,"<img src=""portrait/WM2.jpg""style=""height:400px;""></img>",7,html-button-response,313,2420049,0.0-18.0-10.0,95848,List1B,black,man,,TRUE,7,,,,,,,,,,
null,CORRECT,,html-keyboard-response,314,2421566,0.0-18.0-11.0-0.0,95848,List1B,black,man,,,,null,,,,,,,,,
5702.3,"<img src=""portrait/BW1.jpg""style=""height:400px;""></img>",0,html-button-response,315,2427278,0.0-18.0-13.0,95848,List1B,black,man,,TRUE,0,,,,,,,,,,
null,CORRECT,,html-keyboard-response,316,2428807,0.0-18.0-14.0-0.0,95848,List1B,black,man,,,,null,,,,,,,,,
3747.7,"<img src=""portrait/BM2.jpg""style=""height:400px;""></img>",5,html-button-response,317,2432567,0.0-18.0-16.0,95848,List1B,black,man,,TRUE,5,,,,,,,,,,
null,CORRECT,,html-keyboard-response,318,2434084,0.0-18.0-17.0-0.0,95848,List1B,black,man,,,,null,,,,,,,,,
3359.8,"<img src=""portrait/BW2.jpg""style=""height:400px;""></img>",2,html-button-response,319,2437454,0.0-18.0-19.0,95848,List1B,black,man,,TRUE,2,,,,,,,,,,
null,CORRECT,,html-keyboard-response,320,2438973,0.0-18.0-20.0-0.0,95848,List1B,black,man,,,,null,,,,,,,,,
9989.2,"<img src=""portrait/BM1.jpg""style=""height:400px;""></img>",4,html-button-response,321,2448979,0.0-18.0-22.0,95848,List1B,black,man,,TRUE,4,,,,,,,,,,
null,CORRECT,,html-keyboard-response,322,2450512,0.0-18.0-23.0-0.0,95848,List1B,black,man,,,,null,,,,,,,,,
27887.3,<p>You got 8 out of 8 right first time. Press Continue.</p>,0,html-button-response,323,2478410,0.0-18.0-25.0,95848,List1B,black,man,,,,,,,,,,,,,
null,"<div style=""font-size:60px;"">+</div>",,html-keyboard-response,324,2479935,0.0-19.0-0.0,95848,List1B,black,man,,,,null,,,,,,,,,
null,"<img src=""stim_listB/hug7.gif""style=""height:400px;""></stim_listB>",,html-keyboard-response,325,2481953,0.0-19.0-1.0,95848,List1B,black,man,,,,null,,,,,,,,,
null,is hugging,,html-keyboard-response,326,2483963,0.0-19.0-2.0,95848,List1B,black,man,,,,null,,,,,,,,,
10422.1,,,survey-text,327,2494399,0.0-19.0-3.0,95848,List1B,black,man,,,,,"{""Q0"":""ruth is hugging beth""}","<img src=""stim_listB/hug7.gif""style=""height:400px;""></stim_listB>",is hugging,,,,,,
null,"<div style=""font-size:60px;"">+</div>",,html-keyboard-response,328,2494915,0.0-19.0-0.1,95848,List1B,black,man,,,,null,,,,,,,,,
null,"<img src=""stim_listB/seduce7.gif""style=""height:400px;""></stim_listB>",,html-keyboard-response,329,2496935,0.0-19.0-1.1,95848,List1B,black,man,,,,null,,,,,,,,,
null,is seducing,,html-keyboard-response,330,2498942,0.0-19.0-2.1,95848,List1B,black,man,,,,null,,,,,,,,,
10545.7,,,survey-text,331,2509496,0.0-19.0-3.1,95848,List1B,black,man,,,,,"{""Q0"":""beth is seducing jane""}","<img src=""stim_listB/seduce7.gif""style=""height:400px;""></stim_listB>",is seducing,,,,,,
null,"<div style=""font-size:60px;"">+</div>",,html-keyboard-response,332,2510004,0.0-19.0-0.2,95848,List1B,black,man,,,,null,,,,,,,,,
null,"<img src=""stim_listB/look5.gif""style=""height:400px;""></stim_listB>",,html-keyboard-response,333,2512022,0.0-19.0-1.2,95848,List1B,black,man,,,,null,,,,,,,,,
null,is looking at,,html-keyboard-response,334,2514034,0.0-19.0-2.2,95848,List1B,black,man,,,,null,,,,,,,,,
15043.8,,,survey-text,335,2529093,0.0-19.0-3.2,95848,List1B,black,man,,,,,"{""Q0"":""luke is looking at fred""}","<img src=""stim_listB/look5.gif""style=""height:400px;""></stim_listB>",is looking at,,,,,,
null,"<div style=""font-size:60px;"">+</div>",,html-keyboard-response,336,2529616,0.0-19.0-0.3,95848,List1B,black,man,,,,null,,,,,,,,,
null,"<img src=""stim_listB/shout5.gif""style=""height:400px;""></stim_listB>",,html-keyboard-response,337,2531634,0.0-19.0-1.3,95848,List1B,black,man,,,,null,,,,,,,,,
null,is shouting at,,html-keyboard-response,338,2533650,0.0-19.0-2.3,95848,List1B,black,man,,,,null,,,,,,,,,
13244.5,,,survey-text,339,2546909,0.0-19.0-3.3,95848,List1B,black,man,,,,,"{""Q0"":""luke is shouting at fred""}","<img src=""stim_listB/shout5.gif""style=""height:400px;""></stim_listB>",is shouting at,,,,,,
null,"<div style=""font-size:60px;"">+</div>",,html-keyboard-response,340,2547425,0.0-19.0-0.4,95848,List1B,black,man,,,,null,,,,,,,,,
null,"<img src=""stim_listB/touch3.gif""style=""height:400px;""></stim_listB>",,html-keyboard-response,341,2549447,0.0-19.0-1.4,95848,List1B,black,man,,,,null,,,,,,,,,
null,is touching,,html-keyboard-response,342,2551461,0.0-19.0-2.4,95848,List1B,black,man,,,,null,,,,,,,,,
8315.8,,,survey-text,343,2559793,0.0-19.0-3.4,95848,List1B,black,man,,,,,"{""Q0"":""dave is touching jane""}","<img src=""stim_listB/touch3.gif""style=""height:400px;""></stim_listB>",is touching,,,,,,
null,"<div style=""font-size:60px;"">+</div>",,html-keyboard-response,344,2560301,0.0-19.0-0.5,95848,List1B,black,man,,,,null,,,,,,,,,
null,"<img src=""stim_listB/hug2.gif""style=""height:400px;""></stim_listB>",,html-keyboard-response,345,2562319,0.0-19.0-1.5,95848,List1B,black,man,,,,null,,,,,,,,,
null,is being hugged by,,html-keyboard-response,346,2564332,0.0-19.0-2.5,95848,List1B,black,man,,,,null,,,,,,,,,
12198.8,,,survey-text,347,2576551,0.0-19.0-3.5,95848,List1B,black,man,,,,,"{""Q0"":""mike is being hugged by kate""}","<img src=""stim_listB/hug2.gif""style=""height:400px;""></stim_listB>",is being hugged by,,,,,,
null,"<div style=""font-size:60px;"">+</div>",,html-keyboard-response,348,2577103,0.0-19.0-0.6,95848,List1B,black,man,,,,null,,,,,,,,,
null,"<img src=""stim_listB/copy5.gif""style=""height:400px;""></stim_listB>",,html-keyboard-response,349,2579120,0.0-19.0-1.6,95848,List1B,black,man,,,,null,,,,,,,,,
null,is copying,,html-keyboard-response,350,2581140,0.0-19.0-2.6,95848,List1B,black,man,,,,null,,,,,,,,,
13507,,,survey-text,351,2594662,0.0-19.0-3.6,95848,List1B,black,man,,,,,"{""Q0"":""luke is copying mike""}","<img src=""stim_listB/copy5.gif""style=""height:400px;""></stim_listB>",is copying,,,,,,
null,"<div style=""font-size:60px;"">+</div>",,html-keyboard-response,352,2595186,0.0-19.0-0.7,95848,List1B,black,man,,,,null,,,,,,,,,
null,"<img src=""stim_listB/kiss2.gif""style=""height:400px;""></stim_listB>",,html-keyboard-response,353,2597199,0.0-19.0-1.7,95848,List1B,black,man,,,,null,,,,,,,,,
null,is being kissed by,,html-keyboard-response,354,2599214,0.0-19.0-2.7,95848,List1B,black,man,,,,null,,,,,,,,,
14449.3,,,survey-text,355,2613678,0.0-19.0-3.7,95848,List1B,black,man,,,,,"{""Q0"":""kate is being at  by mike""}","<img src=""stim_listB/kiss2.gif""style=""height:400px;""></stim_listB>",is being kissed by,,,,,,
null,"<div style=""font-size:60px;"">+</div>",,html-keyboard-response,356,2614202,0.0-19.0-0.8,95848,List1B,black,man,,,,null,,,,,,,,,
null,"<img src=""stim_listB/oppose7.gif""style=""height:400px;""></stim_listB>",,html-keyboard-response,357,2616229,0.0-19.0-1.8,95848,List1B,black,man,,,,null,,,,,,,,,
null,is opposing,,html-keyboard-response,358,2618249,0.0-19.0-2.8,95848,List1B,black,man,,,,null,,,,,,,,,
12222.5,,,survey-text,359,2630489,0.0-19.0-3.8,95848,List1B,black,man,,,,,"{""Q0"":""jane is opposing kate""}","<img src=""stim_listB/oppose7.gif""style=""height:400px;""></stim_listB>",is opposing,,,,,,
null,"<div style=""font-size:60px;"">+</div>",,html-keyboard-response,360,2631012,0.0-19.0-0.9,95848,List1B,black,man,,,,null,,,,,,,,,
null,"<img src=""stim_listB/oppose8.gif""style=""height:400px;""></stim_listB>",,html-keyboard-response,361,2633027,0.0-19.0-1.9,95848,List1B,black,man,,,,null,,,,,,,,,
null,is being opposed by,,html-keyboard-response,362,2635040,0.0-19.0-2.9,95848,List1B,black,man,,,,null,,,,,,,,,
14633.9,,,survey-text,363,2649689,0.0-19.0-3.9,95848,List1B,black,man,,,,,"{""Q0"":""ruth is being opposed by beth""}","<img src=""stim_listB/oppose8.gif""style=""height:400px;""></stim_listB>",is being opposed by,,,,,,
null,"<div style=""font-size:60px;"">+</div>",,html-keyboard-response,364,2650197,0.0-19.0-0.10,95848,List1B,black,man,,,,null,,,,,,,,,
null,"<img src=""stim_listB/kiss7.gif""style=""height:400px;""></stim_listB>",,html-keyboard-response,365,2652211,0.0-19.0-1.10,95848,List1B,black,man,,,,null,,,,,,,,,
null,is kissing,,html-keyboard-response,366,2654230,0.0-19.0-2.10,95848,List1B,black,man,,,,null,,,,,,,,,
8603.4,,,survey-text,367,2662846,0.0-19.0-3.10,95848,List1B,black,man,,,,,"{""Q0"":""beth is kissing ruth""}","<img src=""stim_listB/kiss7.gif""style=""height:400px;""></stim_listB>",is kissing,,,,,,
null,"<div style=""font-size:60px;"">+</div>",,html-keyboard-response,368,2663355,0.0-19.0-0.11,95848,List1B,black,man,,,,null,,,,,,,,,
null,"<img src=""stim_listB/greet4.gif""style=""height:400px;""></stim_listB>",,html-keyboard-response,369,2665367,0.0-19.0-1.11,95848,List1B,black,man,,,,null,,,,,,,,,
null,is being greeted by,,html-keyboard-response,370,2667387,0.0-19.0-2.11,95848,List1B,black,man,,,,null,,,,,,,,,
19131.2,,,survey-text,371,2686535,0.0-19.0-3.11,95848,List1B,black,man,,,,,"{""Q0"":""mike is being greeted at by jane""}","<img src=""stim_listB/greet4.gif""style=""height:400px;""></stim_listB>",is being greeted by,,,,,,
null,"<div style=""font-size:60px;"">+</div>",,html-keyboard-response,372,2687044,0.0-19.0-0.12,95848,List1B,black,man,,,,null,,,,,,,,,
null,"<img src=""stim_listB/copy2.gif""style=""height:400px;""></stim_listB>",,html-keyboard-response,373,2689073,0.0-19.0-1.12,95848,List1B,black,man,,,,null,,,,,,,,,
null,is being copied by,,html-keyboard-response,374,2691092,0.0-19.0-2.12,95848,List1B,black,man,,,,null,,,,,,,,,
15134.4,,,survey-text,375,2706239,0.0-19.0-3.12,95848,List1B,black,man,,,,,"{""Q0"":""fred is being copied by kate""}","<img src=""stim_listB/copy2.gif""style=""height:400px;""></stim_listB>",is being copied by,,,,,,
null,"<div style=""font-size:60px;"">+</div>",,html-keyboard-response,376,2706747,0.0-19.0-0.13,95848,List1B,black,man,,,,null,,,,,,,,,
null,"<img src=""stim_listB/challenge4.gif""style=""height:400px;""></stim_listB>",,html-keyboard-response,377,2708763,0.0-19.0-1.13,95848,List1B,black,man,,,,null,,,,,,,,,
null,is being challenged by,,html-keyboard-response,378,2710775,0.0-19.0-2.13,95848,List1B,black,man,,,,null,,,,,,,,,
14936.8,,,survey-text,379,2725724,0.0-19.0-3.13,95848,List1B,black,man,,,,,"{""Q0"":""mike is challenging jane""}","<img src=""stim_listB/challenge4.gif""style=""height:400px;""></stim_listB>",is being challenged by,,,,,,
null,"<div style=""font-size:60px;"">+</div>",,html-keyboard-response,380,2726233,0.0-19.0-0.14,95848,List1B,black,man,,,,null,,,,,,,,,
null,"<img src=""stim_listB/kiss8.gif""style=""height:400px;""></stim_listB>",,html-keyboard-response,381,2728244,0.0-19.0-1.14,95848,List1B,black,man,,,,null,,,,,,,,,
null,is being kissed by,,html-keyboard-response,382,2730260,0.0-19.0-2.14,95848,List1B,black,man,,,,null,,,,,,,,,
11630.5,,,survey-text,383,2741903,0.0-19.0-3.14,95848,List1B,black,man,,,,,"{""Q0"":""kate is being kissed by jane""}","<img src=""stim_listB/kiss8.gif""style=""height:400px;""></stim_listB>",is being kissed by,,,,,,
null,"<div style=""font-size:60px;"">+</div>",,html-keyboard-response,384,2742419,0.0-19.0-0.15,95848,List1B,black,man,,,,null,,,,,,,,,
null,"<img src=""stim_listB/shout1.gif""style=""height:400px;""></stim_listB>",,html-keyboard-response,385,2744431,0.0-19.0-1.15,95848,List1B,black,man,,,,null,,,,,,,,,
null,is shouting at,,html-keyboard-response,386,2746450,0.0-19.0-2.15,95848,List1B,black,man,,,,null,,,,,,,,,
10119,,,survey-text,387,2756580,0.0-19.0-3.15,95848,List1B,black,man,,,,,"{""Q0"":""fred is shouting at beth""}","<img src=""stim_listB/shout1.gif""style=""height:400px;""></stim_listB>",is shouting at,,,,,,
null,"<div style=""font-size:60px;"">+</div>",,html-keyboard-response,388,2757087,0.0-19.0-0.16,95848,List1B,black,man,,,,null,,,,,,,,,
null,"<img src=""stim_listB/challenge3.gif""style=""height:400px;""></stim_listB>",,html-keyboard-response,389,2759100,0.0-19.0-1.16,95848,List1B,black,man,,,,null,,,,,,,,,
null,is challenging,,html-keyboard-response,390,2761119,0.0-19.0-2.16,95848,List1B,black,man,,,,null,,,,,,,,,
12326.2,,,survey-text,391,2773472,0.0-19.0-3.16,95848,List1B,black,man,,,,,"{""Q0"":""dave is challenging ruth""}","<img src=""stim_listB/challenge3.gif""style=""height:400px;""></stim_listB>",is challenging,,,,,,
null,"<div style=""font-size:60px;"">+</div>",,html-keyboard-response,392,2773980,0.0-19.0-0.17,95848,List1B,black,man,,,,null,,,,,,,,,
null,"<img src=""stim_listB/copy8.gif""style=""height:400px;""></stim_listB>",,html-keyboard-response,393,2775992,0.0-19.0-1.17,95848,List1B,black,man,,,,null,,,,,,,,,
null,is being copied by,,html-keyboard-response,394,2778011,0.0-19.0-2.17,95848,List1B,black,man,,,,null,,,,,,,,,
13280.8,,,survey-text,395,2791305,0.0-19.0-3.17,95848,List1B,black,man,,,,,"{""Q0"":""jane is being copied by ruth""}","<img src=""stim_listB/copy8.gif""style=""height:400px;""></stim_listB>",is being copied by,,,,,,
null,"<div style=""font-size:60px;"">+</div>",,html-keyboard-response,396,2791821,0.0-19.0-0.18,95848,List1B,black,man,,,,null,,,,,,,,,
null,"<img src=""stim_listB/greet1.gif""style=""height:400px;""></stim_listB>",,html-keyboard-response,397,2793838,0.0-19.0-1.18,95848,List1B,black,man,,,,null,,,,,,,,,
null,is greeting,,html-keyboard-response,398,2795857,0.0-19.0-2.18,95848,List1B,black,man,,,,null,,,,,,,,,
12010.6,,,survey-text,399,2807881,0.0-19.0-3.18,95848,List1B,black,man,,,,,"{""Q0"":""dave is greeting ruth""}","<img src=""stim_listB/greet1.gif""style=""height:400px;""></stim_listB>",is greeting,,,,,,
null,"<div style=""font-size:60px;"">+</div>",,html-keyboard-response,400,2808405,0.0-19.0-0.19,95848,List1B,black,man,,,,null,,,,,,,,,
null,"<img src=""stim_listB/kiss6.gif""style=""height:400px;""></stim_listB>",,html-keyboard-response,401,2810411,0.0-19.0-1.19,95848,List1B,black,man,,,,null,,,,,,,,,
null,is being kissed by,,html-keyboard-response,402,2812424,0.0-19.0-2.19,95848,List1B,black,man,,,,null,,,,,,,,,
10571.7,,,survey-text,403,2823010,0.0-19.0-3.19,95848,List1B,black,man,,,,,"{""Q0"":""dave is being kissed by mike""}","<img src=""stim_listB/kiss6.gif""style=""height:400px;""></stim_listB>",is being kissed by,,,,,,
3075,<p>Thank you for completing that task.</p><p>The final part of this session is a questionnaire that will take about 4 minutes.</p><p>Press Continue.</p>,0,html-button-response,404,2826094,0.0-20.0,95848,List1B,black,man,,,,,,,,,,,,,
60273.7,,,survey-text,405,2887415,0.0-21.0,95848,List1B,black,man,,,,,"{""Q0"":""28"",""Q1"":""English"",""Q2"":""English"",""Q3"":""United States"",""Q4"":""American"",""Q5"":""Black"",""Q6"":""Male""}",,,demographics,,,,,
2780.6,<p>Have you lived in the USA for the last 5 years or more?</p>,0,html-button-response,406,2890214,0.0-22.0,95848,List1B,black,man,,,,,,,,fiveyears,,,,,
3420.1,<p>Move the slider to show the extent to which you agree with the following statements.</p>,0,html-button-response,407,2894657,0.0-23.0,95848,List1B,black,man,,,,,,,,,,,,,
6683.7,,,html-slider-response,408,2902367,0.0-24.0-0.0-0.0,95848,List1B,black,man,,,,,,,,survey_gender,64,,,I have a lot in common with my friends.,filler
4837.4,,,html-slider-response,409,2907223,0.0-24.0-0.0-0.1,95848,List1B,black,man,,,,,,,,survey_gender,80,,,Being around my friends gives me a good feeling.,filler
4223.3,,,html-slider-response,410,2911464,0.0-24.0-0.0-0.2,95848,List1B,black,man,,,,,,,,survey_gender,74,,,I feel a bond with my friends.,filler
4902.3,,,html-slider-response,411,2916385,0.0-24.0-0.0-0.3,95848,List1B,black,man,,,,,,,,survey_gender,44,,,I have a lot in common with the average person of my gender.,average
6766.6,,,html-slider-response,412,2923168,0.0-24.0-0.0-0.4,95848,List1B,black,man,,,,,,,,survey_gender,86,,,I am glad to be my gender.,glad
5162,,,html-slider-response,413,2928348,0.0-24.0-0.0-0.5,95848,List1B,black,man,,,,,,,,survey_gender,58,,,My friends have a lot in common with each other.,filler
10709,,,html-slider-response,414,2939076,0.0-24.0-0.0-0.6,95848,List1B,black,man,,,,,,,,survey_gender,98,,,I often think about my actions.,filler
6715.7,,,html-slider-response,415,2945806,0.0-24.0-0.0-0.7,95848,List1B,black,man,,,,,,,,survey_gender,44,,,I am similar to the average person of my gender.,similar
7528.1,,,html-slider-response,416,2953349,0.0-24.0-0.0-0.8,95848,List1B,black,man,,,,,,,,survey_gender,77,,,I feel solidarity with my gender.,solidarity
8815.6,,,html-slider-response,417,2962178,0.0-24.0-0.0-0.9,95848,List1B,black,man,,,,,,,,survey_gender,42,,,People of my gender are very similar to each other.,verysimilar
6218.2,,,html-slider-response,418,2968412,0.0-24.0-0.0-0.10,95848,List1B,black,man,,,,,,,,survey_gender,83,,,I often think about the fact that I am my gender.,often
4850.2,,,html-slider-response,419,2973279,0.0-24.0-0.0-0.11,95848,List1B,black,man,,,,,,,,survey_gender,1,,,Routine is not important to me.,filler
8235.5,,,html-slider-response,420,2981529,0.0-24.0-0.0-0.12,95848,List1B,black,man,,,,,,,,survey_gender,48,,,Most of the friends in my life are very similar to me.,filler
7580.8,,,html-slider-response,421,2989125,0.0-24.0-0.0-0.13,95848,List1B,black,man,,,,,,,,survey_gender,48,,,I consider myself a highly empathetic person.,filler
5722.8,,,html-slider-response,422,2994859,0.0-24.0-0.0-0.14,95848,List1B,black,man,,,,,,,,survey_gender,89,,,It is pleasant to be my gender.,pleasant
3878.8,,,html-slider-response,423,2998753,0.0-24.0-0.0-0.15,95848,List1B,black,man,,,,,,,,survey_gender,93,,,Being my gender gives me a good feeling.,feeling
4150.6,,,html-slider-response,424,3002918,0.0-24.0-0.0-0.16,95848,List1B,black,man,,,,,,,,survey_gender,84,,,I feel a bond with my gender.,bond
3492,,,html-slider-response,425,3006425,0.0-24.0-0.0-0.17,95848,List1B,black,man,,,,,,,,survey_gender,77,,,I feel committed to my gender.,committed
5264.2,,,html-slider-response,426,3011706,0.0-24.0-0.0-0.18,95848,List1B,black,man,,,,,,,,survey_gender,100,,,The fact that I am my gender is an important part of my identity.,identity
5383.5,,,html-slider-response,427,3017105,0.0-24.0-0.0-0.19,95848,List1B,black,man,,,,,,,,survey_gender,100,,,Being my gender is an important part of how I see myself.,important
4140.1,,,html-slider-response,428,3021260,0.0-24.0-0.0-0.20,95848,List1B,black,man,,,,,,,,survey_gender,71,,,I feel solidarity with my friends.,filler
5391,,,html-slider-response,429,3026666,0.0-24.0-0.0-0.21,95848,List1B,black,man,,,,,,,,survey_gender,75,,,It is not always easy for people to know what I am thinking.,filler
7178.3,,,html-slider-response,430,3033860,0.0-24.0-0.0-0.22,95848,List1B,black,man,,,,,,,,survey_gender,0,,,I would say I am an animal person.,filler
4245.9,,,html-slider-response,431,3038123,0.0-24.0-0.0-0.23,95848,List1B,black,man,,,,,,,,survey_gender,80,,,I am glad to have the friends that I have.,filler
4899.9,,,html-slider-response,432,3043039,0.0-24.0-0.0-0.24,95848,List1B,black,man,,,,,,,,survey_gender,89,,,I think that my gender has a lot to be proud of.,proud
6091.8,,,html-slider-response,433,3049148,0.0-24.0-0.0-0.25,95848,List1B,black,man,,,,,,,,survey_gender,43,,,People of my gender have a lot in common with each other.,common
6994,,,html-slider-response,434,3056161,0.0-24.0-0.0-0.26,95848,List1B,black,man,,,,,,,,survey_gender,0,,,Family is not more important to me than friendship.,filler
5423,,,html-slider-response,435,3061601,0.0-24.0-0.0-0.27,95848,List1B,black,man,,,,,,,,survey_gender,67,,,My friends understand me.,filler
3900.8,,,html-slider-response,436,3065517,0.0-24.0-1.0-0.0,95848,List1B,black,man,,,,,,,,survey_race,76,,,I am glad to be my age.,filler
3431.1,,,html-slider-response,437,3068963,0.0-24.0-1.0-0.1,95848,List1B,black,man,,,,,,,,survey_race,77,,,"The older I get, the wiser I feel.",filler
5135.6,,,html-slider-response,438,3074112,0.0-24.0-1.0-0.2,95848,List1B,black,man,,,,,,,,survey_race,48,,,I am similar to the average person of my race.,similar
7597.7,,,html-slider-response,439,3081724,0.0-24.0-1.0-0.3,95848,List1B,black,man,,,,,,,,survey_race,43,,,I often think about the fact that I am my race.,often
5109.5,,,html-slider-response,440,3086849,0.0-24.0-1.0-0.4,95848,List1B,black,man,,,,,,,,survey_race,65,,,I consider myself an extrovert.,filler
5631.2,,,html-slider-response,441,3092494,0.0-24.0-1.0-0.5,95848,List1B,black,man,,,,,,,,survey_race,68,,,I feel a bond with people the same age as me.,filler
6433.9,,,html-slider-response,442,3098942,0.0-24.0-1.0-0.6,95848,List1B,black,man,,,,,,,,survey_race,61,,,I often think about the fact that I am my age.,filler
8389.9,,,html-slider-response,443,3107347,0.0-24.0-1.0-0.7,95848,List1B,black,man,,,,,,,,survey_race,60,,,I feel solidarity with people the same age as me.,filler
7342.6,,,html-slider-response,444,3114701,0.0-24.0-1.0-0.8,95848,List1B,black,man,,,,,,,,survey_race,99,,,The fact that I am my race is an important part of my identity.,identity
6951.4,,,html-slider-response,445,3121669,0.0-24.0-1.0-0.9,95848,List1B,black,man,,,,,,,,survey_race,46,,,People my age have a lot in common with each other.,filler
6046.4,,,html-slider-response,446,3127731,0.0-24.0-1.0-0.10,95848,List1B,black,man,,,,,,,,survey_race,71,,,I am glad to be the age I am.,filler
29910.6,,,html-slider-response,447,3157658,0.0-24.0-1.0-0.11,95848,List1B,black,man,,,,,,,,survey_race,70,,,Being my race is an important part of how I see myself.,important
12549,,,html-slider-response,448,3170224,0.0-24.0-1.0-0.12,95848,List1B,black,man,,,,,,,,survey_race,68,,,I feel a bond with my race.,bond
50343.3,,,html-slider-response,449,3220592,0.0-24.0-1.0-0.13,95848,List1B,black,man,,,,,,,,survey_race,71,,,I enjoy being in large groups.,filler
9044.8,,,html-slider-response,450,3229652,0.0-24.0-1.0-0.14,95848,List1B,black,man,,,,,,,,survey_race,65,,,People of my race have a lot in common with each other.,common
4773.3,,,html-slider-response,451,3234442,0.0-24.0-1.0-0.15,95848,List1B,black,man,,,,,,,,survey_race,59,,,Getting older does not worry me.,filler
3604.6,,,html-slider-response,452,3238064,0.0-24.0-1.0-0.16,95848,List1B,black,man,,,,,,,,survey_race,84,,,I feel committed to my race.,committed
6689.5,,,html-slider-response,453,3244776,0.0-24.0-1.0-0.17,95848,List1B,black,man,,,,,,,,survey_race,72,,,Being my race gives me a good feeling.,feeling
13216.3,,,html-slider-response,454,3258009,0.0-24.0-1.0-0.18,95848,List1B,black,man,,,,,,,,survey_race,68,,,Being my age gives me a good feeling.,filler
29834.7,,,html-slider-response,455,3287865,0.0-24.0-1.0-0.19,95848,List1B,black,man,,,,,,,,survey_race,82,,,I feel solidarity with my race.,solidarity
12346.2,,,html-slider-response,456,3300229,0.0-24.0-1.0-0.20,95848,List1B,black,man,,,,,,,,survey_race,41,,,I consider myself an introvert.,filler
4531.5,,,html-slider-response,457,3304779,0.0-24.0-1.0-0.21,95848,List1B,black,man,,,,,,,,survey_race,84,,,I am glad to be my race.,glad
49999.2,,,html-slider-response,458,3354791,0.0-24.0-1.0-0.22,95848,List1B,black,man,,,,,,,,survey_race,46,,,I have a lot in common with people of a similar age to me.,filler
9007.2,,,html-slider-response,459,3363812,0.0-24.0-1.0-0.23,95848,List1B,black,man,,,,,,,,survey_race,88,,,I think that my race has a lot to be proud of.,proud
11029,,,html-slider-response,460,3374857,0.0-24.0-1.0-0.24,95848,List1B,black,man,,,,,,,,survey_race,61,,,People of my race are very similar to each other.,verysimilar
5522.4,,,html-slider-response,461,3380396,0.0-24.0-1.0-0.25,95848,List1B,black,man,,,,,,,,survey_race,41,,,My age is not an important part of who I am.,filler
5589.3,,,html-slider-response,462,3386004,0.0-24.0-1.0-0.26,95848,List1B,black,man,,,,,,,,survey_race,54,,,I have a lot in common with the average person of my race.,average
4118.3,,,html-slider-response,463,3390137,0.0-24.0-1.0-0.27,95848,List1B,black,man,,,,,,,,survey_race,98,,,It is pleasant to be my race.,pleasant
13725,,,survey-text,464,3403882,0.0-25.0,95848,List1B,black,man,,,,,"{""Q0"":""ccc""}",,,worker_id,,,,,
4210.7,,,external-html,465,3411080,0.0-26.0,95848,List1B,black,man,debrief.html,,,,,,,,,,,,
