"rt","stimulus","button_pressed","trial_type","trial_index","time_elapsed","internal_node_id","subject","list","ppt_race","ppt_gender","url","first_guess","correct","key_press","responses","image_type","phrase_type","test_part","response","stimulus1","stimulus2","question_type","survey_item"
"3340.0000000000036","Welcome to the experiment. Press Continue to begin.","0","html-button-response","0","3345","0.0-0.0","95926","List1A","black","woman","","","","","","","","","","","","",""
"77061","","","external-html","1","81857","0.0-1.0","95926","List1A","black","woman","consent.html","","","","","","","","","","","",""
"11886","<p>On the next page, you will see portraits of 8 people and their names.</p><p>Your first task is to take a few minutes to memorise the names of these people.</p><p>You will have to recall their names during the rest of the experiment, so it is</p><p>essential that you try to memorise these people and their names as best as you can.</p><br><p><strong>You will then be tested on your memory of these names and portraits.</strong></p><br><p>The experiment will start after you have completed this memory test.</p><br><p>Ready?</p>","0","html-button-response","2","93745","0.0-2.0","95926","List1A","black","woman","","","","","","","","","","","","",""
"93608.99999999999","<img src='img/portrait_matrix_list1.jpg' style='width:900px;height:500px;''></img><p>If you have memorised all the portraits and names and are ready to start, press Continue.</p><p><strong>Please note: Your memory of these faces will be tested 4 times during this experiment.</strong></p>","0","html-button-response","3","188359","0.0-3.0-0.0","95926","List1A","black","woman","","","","","","","","","","","","",""
"7221","<img src=""portrait/WW1.jpg""style=""height:400px;""></img>","1","html-button-response","4","196584","0.0-3.0-1.0","95926","List1A","black","woman","","true","1","","","","","","","","","",""
"null","CORRECT","","html-keyboard-response","5","198089","0.0-3.0-2.0-0.0","95926","List1A","black","woman","","","","null","","","","","","","","",""
"3897","<img src=""portrait/BM1.jpg""style=""height:400px;""></img>","4","html-button-response","6","201989","0.0-3.0-4.0","95926","List1A","black","woman","","true","4","","","","","","","","","",""
"null","CORRECT","","html-keyboard-response","7","203491","0.0-3.0-5.0-0.0","95926","List1A","black","woman","","","","null","","","","","","","","",""
"4053.999999999971","<img src=""portrait/BW2.jpg""style=""height:400px;""></img>","2","html-button-response","8","207548","0.0-3.0-7.0","95926","List1A","black","woman","","true","2","","","","","","","","","",""
"null","CORRECT","","html-keyboard-response","9","209050","0.0-3.0-8.0-0.0","95926","List1A","black","woman","","","","null","","","","","","","","",""
"4678","<img src=""portrait/WW2.jpg""style=""height:400px;""></img>","3","html-button-response","10","213731","0.0-3.0-10.0","95926","List1A","black","woman","","true","3","","","","","","","","","",""
"null","CORRECT","","html-keyboard-response","11","215234","0.0-3.0-11.0-0.0","95926","List1A","black","woman","","","","null","","","","","","","","",""
"4574","<img src=""portrait/WM1.jpg""style=""height:400px;""></img>","6","html-button-response","12","219811","0.0-3.0-13.0","95926","List1A","black","woman","","true","6","","","","","","","","","",""
"null","CORRECT","","html-keyboard-response","13","221314","0.0-3.0-14.0-0.0","95926","List1A","black","woman","","","","null","","","","","","","","",""
"4897","<img src=""portrait/BW1.jpg""style=""height:400px;""></img>","0","html-button-response","14","226213","0.0-3.0-16.0","95926","List1A","black","woman","","true","0","","","","","","","","","",""
"null","CORRECT","","html-keyboard-response","15","227717","0.0-3.0-17.0-0.0","95926","List1A","black","woman","","","","null","","","","","","","","",""
"4499","<img src=""portrait/BM2.jpg""style=""height:400px;""></img>","5","html-button-response","16","232217","0.0-3.0-19.0","95926","List1A","black","woman","","true","5","","","","","","","","","",""
"null","CORRECT","","html-keyboard-response","17","233721","0.0-3.0-20.0-0.0","95926","List1A","black","woman","","","","null","","","","","","","","",""
"3931","<img src=""portrait/WM2.jpg""style=""height:400px;""></img>","7","html-button-response","18","237653","0.0-3.0-22.0","95926","List1A","black","woman","","true","7","","","","","","","","","",""
"null","CORRECT","","html-keyboard-response","19","239156","0.0-3.0-23.0-0.0","95926","List1A","black","woman","","","","null","","","","","","","","",""
"3039.999999999971","<p>You got 8 out of 8 right first time. Press Continue.</p>","0","html-button-response","20","242199","0.0-3.0-25.0","95926","List1A","black","woman","","","","","","","","","","","","",""
"63208.99999999997","<p>In this experiment, you will view photographs of the people from the memory game interacting.</p><p>By using the <strong>exact</strong> phrase given <i>after</i> the photograph appears and recalling the correct names of the people in the photographs, form a sentence describing the interaction. You do not need to capitalise names.</p><p>Type your answer in the space provided. Please complete every sentence before moving onto the next trial.</p><p>You will only have a few seconds to memorise each given photograph and phrase before you can respond, so try your best to focus.</p><p>An example is given below. Press 'Continue' when you are ready.</p><img src='img/speaking_example.jpg' style='width:800px;height:460px;''></img>","0","html-button-response","21","306413","0.0-4.0","95926","List1A","black","woman","","","","","","","","","","","","",""
"2666","<p>Before the experiment starts, you will watch two example trials. Press 'Continue'.</p>","0","html-button-response","22","310081","0.0-5.0","95926","List1A","black","woman","","","","","","","","","","","","",""
"null","<img src='img/play_eg.gif' style='height:400px;''></img>","","html-keyboard-response","23","313085","0.0-6.0","95926","List1A","black","woman","","","","null","","","","","","","","",""
"null","<p>is playing with</p>","","html-keyboard-response","24","315087","0.0-7.0","95926","List1A","black","woman","","","","null","","","","","","","","",""
"9257.999999999942","<p><b>Answer:</b> kate is playing with beth</p>","0","html-button-response","25","324346","0.0-8.0","95926","List1A","black","woman","","","","","","","","","","","","",""
"null","<img src='img/dance_eg.gif' style='height:400px;''></img>","","html-keyboard-response","26","327350","0.0-9.0","95926","List1A","black","woman","","","","null","","","","","","","","",""
"null","<p>is being entertained by</p>","","html-keyboard-response","27","329352","0.0-10.0","95926","List1A","black","woman","","","","null","","","","","","","","",""
"9187","<p><b>Answer:</b> luke is being entertained by dave</p>","0","html-button-response","28","338541","0.0-11.0","95926","List1A","black","woman","","","","","","","","","","","","",""
"10905","<p>Ready to start the experiment?</p><br><p><strong>Remember to describe the picture using a full sentence,</strong></p><p><strong>that combines the names of the people with the <i>exact</i> phrase given.</strong></p><p><strong>To receive full payment you must do this correctly.</strong></p><p><strong> You do not need to capitalise names or use punctuation.</strong></p><br><p>Press 'Continue' to begin.</p>","0","html-button-response","29","350449","0.0-12.0","95926","List1A","black","woman","","","","","","","","","","","","",""
"null","<div style=""font-size:60px;"">+</div>","","html-keyboard-response","30","351952","0.0-13.0-0.0","95926","List1A","black","woman","","","","null","","","","","","","","",""
"null","<img src=""stim_listA/oppose8.gif""style=""height:400px;""></stim_listA>","","html-keyboard-response","31","353955","0.0-13.0-1.0","95926","List1A","black","woman","","","","null","","","","","","","","",""
"null","is being opposed by","","html-keyboard-response","32","355957","0.0-13.0-2.0","95926","List1A","black","woman","","","","null","","","","","","","","",""
"36861","","","survey-text","33","392845","0.0-13.0-3.0","95926","List1A","black","woman","","","","","{""Q0"":""ruth is being opposed by Kate""}","<img src=""stim_listA/oppose8.gif""style=""height:400px;""></stim_listA>","is being opposed by","","","","","",""
"null","<div style=""font-size:60px;"">+</div>","","html-keyboard-response","34","393348","0.0-13.0-0.1","95926","List1A","black","woman","","","","null","","","","","","","","",""
"null","<img src=""stim_listA/look7.gif""style=""height:400px;""></stim_listA>","","html-keyboard-response","35","395350","0.0-13.0-1.1","95926","List1A","black","woman","","","","null","","","","","","","","",""
"null","is looking at","","html-keyboard-response","36","397352","0.0-13.0-2.1","95926","List1A","black","woman","","","","null","","","","","","","","",""
"14077","","","survey-text","37","411439","0.0-13.0-3.1","95926","List1A","black","woman","","","","","{""Q0"":""Beth is looking at ruth ""}","<img src=""stim_listA/look7.gif""style=""height:400px;""></stim_listA>","is looking at","","","","","",""
"null","<div style=""font-size:60px;"">+</div>","","html-keyboard-response","38","411941","0.0-13.0-0.2","95926","List1A","black","woman","","","","null","","","","","","","","",""
"null","<img src=""stim_listA/look8.gif""style=""height:400px;""></stim_listA>","","html-keyboard-response","39","413943","0.0-13.0-1.2","95926","List1A","black","woman","","","","null","","","","","","","","",""
"null","is being looked at by","","html-keyboard-response","40","415946","0.0-13.0-2.2","95926","List1A","black","woman","","","","null","","","","","","","","",""
"28122.00000000006","","","survey-text","41","444080","0.0-13.0-3.2","95926","List1A","black","woman","","","","","{""Q0"":""Kate and Jane ... sorry I didn't get the sentence""}","<img src=""stim_listA/look8.gif""style=""height:400px;""></stim_listA>","is being looked at by","","","","","",""
"null","<div style=""font-size:60px;"">+</div>","","html-keyboard-response","42","444583","0.0-13.0-0.3","95926","List1A","black","woman","","","","null","","","","","","","","",""
"null","<img src=""stim_listA/look4.gif""style=""height:400px;""></stim_listA>","","html-keyboard-response","43","446586","0.0-13.0-1.3","95926","List1A","black","woman","","","","null","","","","","","","","",""
"null","is being looked at by","","html-keyboard-response","44","448588","0.0-13.0-2.3","95926","List1A","black","woman","","","","null","","","","","","","","",""
"21354","","","survey-text","45","469953","0.0-13.0-3.3","95926","List1A","black","woman","","","","","{""Q0"":""Dave is being looked at by Beth""}","<img src=""stim_listA/look4.gif""style=""height:400px;""></stim_listA>","is being looked at by","","","","","",""
"null","<div style=""font-size:60px;"">+</div>","","html-keyboard-response","46","470456","0.0-13.0-0.4","95926","List1A","black","woman","","","","null","","","","","","","","",""
"null","<img src=""stim_listA/seduce4.gif""style=""height:400px;""></stim_listA>","","html-keyboard-response","47","472458","0.0-13.0-1.4","95926","List1A","black","woman","","","","null","","","","","","","","",""
"null","is being seduced by","","html-keyboard-response","48","474461","0.0-13.0-2.4","95926","List1A","black","woman","","","","null","","","","","","","","",""
"13475","","","survey-text","49","487944","0.0-13.0-3.4","95926","List1A","black","woman","","","","","{""Q0"":""Dave is being seduced by Ruth""}","<img src=""stim_listA/seduce4.gif""style=""height:400px;""></stim_listA>","is being seduced by","","","","","",""
"null","<div style=""font-size:60px;"">+</div>","","html-keyboard-response","50","488447","0.0-13.0-0.5","95926","List1A","black","woman","","","","null","","","","","","","","",""
"null","<img src=""stim_listA/challenge7.gif""style=""height:400px;""></stim_listA>","","html-keyboard-response","51","490449","0.0-13.0-1.5","95926","List1A","black","woman","","","","null","","","","","","","","",""
"null","is challenging","","html-keyboard-response","52","492451","0.0-13.0-2.5","95926","List1A","black","woman","","","","null","","","","","","","","",""
"15987","","","survey-text","53","508447","0.0-13.0-3.5","95926","List1A","black","woman","","","","","{""Q0"":""ruth is challenging Kate""}","<img src=""stim_listA/challenge7.gif""style=""height:400px;""></stim_listA>","is challenging","","","","","",""
"null","<div style=""font-size:60px;"">+</div>","","html-keyboard-response","54","508952","0.0-13.0-0.6","95926","List1A","black","woman","","","","null","","","","","","","","",""
"null","<img src=""stim_listA/touch3.gif""style=""height:400px;""></stim_listA>","","html-keyboard-response","55","510955","0.0-13.0-1.6","95926","List1A","black","woman","","","","null","","","","","","","","",""
"null","is touching","","html-keyboard-response","56","512957","0.0-13.0-2.6","95926","List1A","black","woman","","","","null","","","","","","","","",""
"12906","","","survey-text","57","525872","0.0-13.0-3.6","95926","List1A","black","woman","","","","","{""Q0"":""Dave Is touching Jane""}","<img src=""stim_listA/touch3.gif""style=""height:400px;""></stim_listA>","is touching","","","","","",""
"null","<div style=""font-size:60px;"">+</div>","","html-keyboard-response","58","526375","0.0-13.0-0.7","95926","List1A","black","woman","","","","null","","","","","","","","",""
"null","<img src=""stim_listA/look6.gif""style=""height:400px;""></stim_listA>","","html-keyboard-response","59","528378","0.0-13.0-1.7","95926","List1A","black","woman","","","","null","","","","","","","","",""
"null","is being looked at by","","html-keyboard-response","60","530379","0.0-13.0-2.7","95926","List1A","black","woman","","","","null","","","","","","","","",""
"17274","","","survey-text","61","547659","0.0-13.0-3.7","95926","List1A","black","woman","","","","","{""Q0"":""Dave is being looked at by mike ""}","<img src=""stim_listA/look6.gif""style=""height:400px;""></stim_listA>","is being looked at by","","","","","",""
"null","<div style=""font-size:60px;"">+</div>","","html-keyboard-response","62","548161","0.0-13.0-0.8","95926","List1A","black","woman","","","","null","","","","","","","","",""
"null","<img src=""stim_listA/copy8.gif""style=""height:400px;""></stim_listA>","","html-keyboard-response","63","550163","0.0-13.0-1.8","95926","List1A","black","woman","","","","null","","","","","","","","",""
"null","is being copied by","","html-keyboard-response","64","552165","0.0-13.0-2.8","95926","List1A","black","woman","","","","null","","","","","","","","",""
"15871","","","survey-text","65","568045","0.0-13.0-3.8","95926","List1A","black","woman","","","","","{""Q0"":""Jane is being copied by Beth""}","<img src=""stim_listA/copy8.gif""style=""height:400px;""></stim_listA>","is being copied by","","","","","",""
"null","<div style=""font-size:60px;"">+</div>","","html-keyboard-response","66","568547","0.0-13.0-0.9","95926","List1A","black","woman","","","","null","","","","","","","","",""
"null","<img src=""stim_listA/hug3.gif""style=""height:400px;""></stim_listA>","","html-keyboard-response","67","570550","0.0-13.0-1.9","95926","List1A","black","woman","","","","null","","","","","","","","",""
"null","is hugging","","html-keyboard-response","68","572552","0.0-13.0-2.9","95926","List1A","black","woman","","","","null","","","","","","","","",""
"14892.999999999884","","","survey-text","69","587454","0.0-13.0-3.9","95926","List1A","black","woman","","","","","{""Q0"":""Luke is hugging ruth ""}","<img src=""stim_listA/hug3.gif""style=""height:400px;""></stim_listA>","is hugging","","","","","",""
"null","<div style=""font-size:60px;"">+</div>","","html-keyboard-response","70","587956","0.0-13.0-0.10","95926","List1A","black","woman","","","","null","","","","","","","","",""
"null","<img src=""stim_listA/shout3.gif""style=""height:400px;""></stim_listA>","","html-keyboard-response","71","589959","0.0-13.0-1.10","95926","List1A","black","woman","","","","null","","","","","","","","",""
"null","is shouting at","","html-keyboard-response","72","591961","0.0-13.0-2.10","95926","List1A","black","woman","","","","null","","","","","","","","",""
"6103","","","survey-text","73","598074","0.0-13.0-3.10","95926","List1A","black","woman","","","","","{""Q0"":""Luke is shouting at ruth""}","<img src=""stim_listA/shout3.gif""style=""height:400px;""></stim_listA>","is shouting at","","","","","",""
"null","<div style=""font-size:60px;"">+</div>","","html-keyboard-response","74","598576","0.0-13.0-0.11","95926","List1A","black","woman","","","","null","","","","","","","","",""
"null","<img src=""stim_listA/oppose5.gif""style=""height:400px;""></stim_listA>","","html-keyboard-response","75","600578","0.0-13.0-1.11","95926","List1A","black","woman","","","","null","","","","","","","","",""
"null","is opposing","","html-keyboard-response","76","602580","0.0-13.0-2.11","95926","List1A","black","woman","","","","null","","","","","","","","",""
"10102","","","survey-text","77","612693","0.0-13.0-3.11","95926","List1A","black","woman","","","","","{""Q0"":""mike is opposing Dave""}","<img src=""stim_listA/oppose5.gif""style=""height:400px;""></stim_listA>","is opposing","","","","","",""
"null","<div style=""font-size:60px;"">+</div>","","html-keyboard-response","78","613195","0.0-13.0-0.12","95926","List1A","black","woman","","","","null","","","","","","","","",""
"null","<img src=""stim_listA/kiss7.gif""style=""height:400px;""></stim_listA>","","html-keyboard-response","79","615198","0.0-13.0-1.12","95926","List1A","black","woman","","","","null","","","","","","","","",""
"null","is kissing","","html-keyboard-response","80","617199","0.0-13.0-2.12","95926","List1A","black","woman","","","","null","","","","","","","","",""
"7457","","","survey-text","81","624664","0.0-13.0-3.12","95926","List1A","black","woman","","","","","{""Q0"":""Beth is kissing ruth""}","<img src=""stim_listA/kiss7.gif""style=""height:400px;""></stim_listA>","is kissing","","","","","",""
"null","<div style=""font-size:60px;"">+</div>","","html-keyboard-response","82","625166","0.0-13.0-0.13","95926","List1A","black","woman","","","","null","","","","","","","","",""
"null","<img src=""stim_listA/greet6.gif""style=""height:400px;""></stim_listA>","","html-keyboard-response","83","627168","0.0-13.0-1.13","95926","List1A","black","woman","","","","null","","","","","","","","",""
"null","is being greeted by","","html-keyboard-response","84","629171","0.0-13.0-2.13","95926","List1A","black","woman","","","","null","","","","","","","","",""
"10752","","","survey-text","85","639931","0.0-13.0-3.13","95926","List1A","black","woman","","","","","{""Q0"":""Dave is being greeted by Fred""}","<img src=""stim_listA/greet6.gif""style=""height:400px;""></stim_listA>","is being greeted by","","","","","",""
"null","<div style=""font-size:60px;"">+</div>","","html-keyboard-response","86","640433","0.0-13.0-0.14","95926","List1A","black","woman","","","","null","","","","","","","","",""
"null","<img src=""stim_listA/kiss4.gif""style=""height:400px;""></stim_listA>","","html-keyboard-response","87","642437","0.0-13.0-1.14","95926","List1A","black","woman","","","","null","","","","","","","","",""
"null","is being kissed by","","html-keyboard-response","88","644439","0.0-13.0-2.14","95926","List1A","black","woman","","","","null","","","","","","","","",""
"12065","","","survey-text","89","656514","0.0-13.0-3.14","95926","List1A","black","woman","","","","","{""Q0"":""Dave is being kissed by Jane""}","<img src=""stim_listA/kiss4.gif""style=""height:400px;""></stim_listA>","is being kissed by","","","","","",""
"null","<div style=""font-size:60px;"">+</div>","","html-keyboard-response","90","657016","0.0-13.0-0.15","95926","List1A","black","woman","","","","null","","","","","","","","",""
"null","<img src=""stim_listA/copy6.gif""style=""height:400px;""></stim_listA>","","html-keyboard-response","91","659019","0.0-13.0-1.15","95926","List1A","black","woman","","","","null","","","","","","","","",""
"null","is being copied by","","html-keyboard-response","92","661022","0.0-13.0-2.15","95926","List1A","black","woman","","","","null","","","","","","","","",""
"12901","","","survey-text","93","673932","0.0-13.0-3.15","95926","List1A","black","woman","","","","","{""Q0"":""Dave is being copied by Fred""}","<img src=""stim_listA/copy6.gif""style=""height:400px;""></stim_listA>","is being copied by","","","","","",""
"null","<div style=""font-size:60px;"">+</div>","","html-keyboard-response","94","674436","0.0-13.0-0.16","95926","List1A","black","woman","","","","null","","","","","","","","",""
"null","<img src=""stim_listA/copy1.gif""style=""height:400px;""></stim_listA>","","html-keyboard-response","95","676439","0.0-13.0-1.16","95926","List1A","black","woman","","","","null","","","","","","","","",""
"null","is copying","","html-keyboard-response","96","678441","0.0-13.0-2.16","95926","List1A","black","woman","","","","null","","","","","","","","",""
"18713","","","survey-text","97","697164","0.0-13.0-3.16","95926","List1A","black","woman","","","","","{""Q0"":""Beth is copying mike ""}","<img src=""stim_listA/copy1.gif""style=""height:400px;""></stim_listA>","is copying","","","","","",""
"null","<div style=""font-size:60px;"">+</div>","","html-keyboard-response","98","697666","0.0-13.0-0.17","95926","List1A","black","woman","","","","null","","","","","","","","",""
"null","<img src=""stim_listA/seduce2.gif""style=""height:400px;""></stim_listA>","","html-keyboard-response","99","699669","0.0-13.0-1.17","95926","List1A","black","woman","","","","null","","","","","","","","",""
"null","is being seduced by","","html-keyboard-response","100","701674","0.0-13.0-2.17","95926","List1A","black","woman","","","","null","","","","","","","","",""
"10502","","","survey-text","101","712187","0.0-13.0-3.17","95926","List1A","black","woman","","","","","{""Q0"":""Beth is being seduced by mike""}","<img src=""stim_listA/seduce2.gif""style=""height:400px;""></stim_listA>","is being seduced by","","","","","",""
"null","<div style=""font-size:60px;"">+</div>","","html-keyboard-response","102","712689","0.0-13.0-0.18","95926","List1A","black","woman","","","","null","","","","","","","","",""
"null","<img src=""stim_listA/oppose1.gif""style=""height:400px;""></stim_listA>","","html-keyboard-response","103","714690","0.0-13.0-1.18","95926","List1A","black","woman","","","","null","","","","","","","","",""
"null","is opposing","","html-keyboard-response","104","716693","0.0-13.0-2.18","95926","List1A","black","woman","","","","null","","","","","","","","",""
"5664","","","survey-text","105","722366","0.0-13.0-3.18","95926","List1A","black","woman","","","","","{""Q0"":""mike is opposing Kate""}","<img src=""stim_listA/oppose1.gif""style=""height:400px;""></stim_listA>","is opposing","","","","","",""
"null","<div style=""font-size:60px;"">+</div>","","html-keyboard-response","106","722868","0.0-13.0-0.19","95926","List1A","black","woman","","","","null","","","","","","","","",""
"null","<img src=""stim_listA/seduce3.gif""style=""height:400px;""></stim_listA>","","html-keyboard-response","107","724870","0.0-13.0-1.19","95926","List1A","black","woman","","","","null","","","","","","","","",""
"null","is seducing","","html-keyboard-response","108","726872","0.0-13.0-2.19","95926","List1A","black","woman","","","","null","","","","","","","","",""
"13519","","","survey-text","109","740399","0.0-13.0-3.19","95926","List1A","black","woman","","","","","{""Q0"":""Jane is seduced Luke""}","<img src=""stim_listA/seduce3.gif""style=""height:400px;""></stim_listA>","is seducing","","","","","",""
"115225","<img src='img/portrait_matrix_list1.jpg' style='width:900px;height:500px;''></img><p>If you have memorised all the portraits and names and are ready to start, press Continue.</p><p><strong>Please note: Your memory of these faces will be tested 4 times during this experiment.</strong></p>","0","html-button-response","110","855631","0.0-14.0-0.0","95926","List1A","black","woman","","","","","","","","","","","","",""
"4762","<img src=""portrait/BW2.jpg""style=""height:400px;""></img>","2","html-button-response","111","861396","0.0-14.0-1.0","95926","List1A","black","woman","","true","2","","","","","","","","","",""
"null","CORRECT","","html-keyboard-response","112","862899","0.0-14.0-2.0-0.0","95926","List1A","black","woman","","","","null","","","","","","","","",""
"3144","<img src=""portrait/WW1.jpg""style=""height:400px;""></img>","1","html-button-response","113","866045","0.0-14.0-4.0","95926","List1A","black","woman","","true","1","","","","","","","","","",""
"null","CORRECT","","html-keyboard-response","114","867546","0.0-14.0-5.0-0.0","95926","List1A","black","woman","","","","null","","","","","","","","",""
"2831","<img src=""portrait/WW2.jpg""style=""height:400px;""></img>","3","html-button-response","115","870380","0.0-14.0-7.0","95926","List1A","black","woman","","true","3","","","","","","","","","",""
"null","CORRECT","","html-keyboard-response","116","871883","0.0-14.0-8.0-0.0","95926","List1A","black","woman","","","","null","","","","","","","","",""
"2594","<img src=""portrait/BW1.jpg""style=""height:400px;""></img>","0","html-button-response","117","874480","0.0-14.0-10.0","95926","List1A","black","woman","","true","0","","","","","","","","","",""
"null","CORRECT","","html-keyboard-response","118","875983","0.0-14.0-11.0-0.0","95926","List1A","black","woman","","","","null","","","","","","","","",""
"2018","<img src=""portrait/BM2.jpg""style=""height:400px;""></img>","5","html-button-response","119","878003","0.0-14.0-13.0","95926","List1A","black","woman","","true","5","","","","","","","","","",""
"null","CORRECT","","html-keyboard-response","120","879505","0.0-14.0-14.0-0.0","95926","List1A","black","woman","","","","null","","","","","","","","",""
"3247","<img src=""portrait/WM2.jpg""style=""height:400px;""></img>","7","html-button-response","121","882755","0.0-14.0-16.0","95926","List1A","black","woman","","true","7","","","","","","","","","",""
"null","CORRECT","","html-keyboard-response","122","884258","0.0-14.0-17.0-0.0","95926","List1A","black","woman","","","","null","","","","","","","","",""
"3650","<img src=""portrait/WM1.jpg""style=""height:400px;""></img>","6","html-button-response","123","887910","0.0-14.0-19.0","95926","List1A","black","woman","","true","6","","","","","","","","","",""
"null","CORRECT","","html-keyboard-response","124","889414","0.0-14.0-20.0-0.0","95926","List1A","black","woman","","","","null","","","","","","","","",""
"2613","<img src=""portrait/BM1.jpg""style=""height:400px;""></img>","4","html-button-response","125","892029","0.0-14.0-22.0","95926","List1A","black","woman","","true","4","","","","","","","","","",""
"null","CORRECT","","html-keyboard-response","126","893532","0.0-14.0-23.0-0.0","95926","List1A","black","woman","","","","null","","","","","","","","",""
"1681.0000000001164","<p>You got 8 out of 8 right first time. Press Continue.</p>","0","html-button-response","127","895214","0.0-14.0-25.0","95926","List1A","black","woman","","","","","","","","","","","","",""
"null","<div style=""font-size:60px;"">+</div>","","html-keyboard-response","128","896718","0.0-15.0-0.0","95926","List1A","black","woman","","","","null","","","","","","","","",""
"null","<img src=""stim_listA/oppose7.gif""style=""height:400px;""></stim_listA>","","html-keyboard-response","129","898720","0.0-15.0-1.0","95926","List1A","black","woman","","","","null","","","","","","","","",""
"null","is opposing","","html-keyboard-response","130","900723","0.0-15.0-2.0","95926","List1A","black","woman","","","","null","","","","","","","","",""
"10763","","","survey-text","131","911495","0.0-15.0-3.0","95926","List1A","black","woman","","","","","{""Q0"":""Kate is opposing Jane""}","<img src=""stim_listA/oppose7.gif""style=""height:400px;""></stim_listA>","is opposing","","","","","",""
"null","<div style=""font-size:60px;"">+</div>","","html-keyboard-response","132","911998","0.0-15.0-0.1","95926","List1A","black","woman","","","","null","","","","","","","","",""
"null","<img src=""stim_listA/hug4.gif""style=""height:400px;""></stim_listA>","","html-keyboard-response","133","914001","0.0-15.0-1.1","95926","List1A","black","woman","","","","null","","","","","","","","",""
"null","is being hugged by","","html-keyboard-response","134","916003","0.0-15.0-2.1","95926","List1A","black","woman","","","","null","","","","","","","","",""
"19780","","","survey-text","135","935770","0.0-15.0-3.1","95926","List1A","black","woman","","","","","{""Q0"":""Dave is being hugged by Jane""}","<img src=""stim_listA/hug4.gif""style=""height:400px;""></stim_listA>","is being hugged by","","","","","",""
"null","<div style=""font-size:60px;"">+</div>","","html-keyboard-response","136","936272","0.0-15.0-0.2","95926","List1A","black","woman","","","","null","","","","","","","","",""
"null","<img src=""stim_listA/challenge1.gif""style=""height:400px;""></stim_listA>","","html-keyboard-response","137","938272","0.0-15.0-1.2","95926","List1A","black","woman","","","","null","","","","","","","","",""
"null","is challenging","","html-keyboard-response","138","940272","0.0-15.0-2.2","95926","List1A","black","woman","","","","null","","","","","","","","",""
"9756.999999999884","","","survey-text","139","950030","0.0-15.0-3.2","95926","List1A","black","woman","","","","","{""Q0"":""mike is challenging Beth ""}","<img src=""stim_listA/challenge1.gif""style=""height:400px;""></stim_listA>","is challenging","","","","","",""
"null","<div style=""font-size:60px;"">+</div>","","html-keyboard-response","140","950532","0.0-15.0-0.3","95926","List1A","black","woman","","","","null","","","","","","","","",""
"null","<img src=""stim_listA/touch5.gif""style=""height:400px;""></stim_listA>","","html-keyboard-response","141","952533","0.0-15.0-1.3","95926","List1A","black","woman","","","","null","","","","","","","","",""
"null","is touching","","html-keyboard-response","142","954536","0.0-15.0-2.3","95926","List1A","black","woman","","","","null","","","","","","","","",""
"4549","","","survey-text","143","959090","0.0-15.0-3.3","95926","List1A","black","woman","","","","","{""Q0"":""mike is touching Dave""}","<img src=""stim_listA/touch5.gif""style=""height:400px;""></stim_listA>","is touching","","","","","",""
"null","<div style=""font-size:60px;"">+</div>","","html-keyboard-response","144","959592","0.0-15.0-0.4","95926","List1A","black","woman","","","","null","","","","","","","","",""
"null","<img src=""stim_listA/touch8.gif""style=""height:400px;""></stim_listA>","","html-keyboard-response","145","961594","0.0-15.0-1.4","95926","List1A","black","woman","","","","null","","","","","","","","",""
"null","is being touched by","","html-keyboard-response","146","963596","0.0-15.0-2.4","95926","List1A","black","woman","","","","null","","","","","","","","",""
"7764","","","survey-text","147","971364","0.0-15.0-3.4","95926","List1A","black","woman","","","","","{""Q0"":""ruth is being touched by Beth""}","<img src=""stim_listA/touch8.gif""style=""height:400px;""></stim_listA>","is being touched by","","","","","",""
"null","<div style=""font-size:60px;"">+</div>","","html-keyboard-response","148","971868","0.0-15.0-0.5","95926","List1A","black","woman","","","","null","","","","","","","","",""
"null","<img src=""stim_listA/challenge4.gif""style=""height:400px;""></stim_listA>","","html-keyboard-response","149","973872","0.0-15.0-1.5","95926","List1A","black","woman","","","","null","","","","","","","","",""
"null","is being challenged by","","html-keyboard-response","150","975874","0.0-15.0-2.5","95926","List1A","black","woman","","","","null","","","","","","","","",""
"13286.000000000116","","","survey-text","151","989169","0.0-15.0-3.5","95926","List1A","black","woman","","","","","{""Q0"":""Luke is being challenged by Jane""}","<img src=""stim_listA/challenge4.gif""style=""height:400px;""></stim_listA>","is being challenged by","","","","","",""
"null","<div style=""font-size:60px;"">+</div>","","html-keyboard-response","152","989671","0.0-15.0-0.6","95926","List1A","black","woman","","","","null","","","","","","","","",""
"null","<img src=""stim_listA/challenge5.gif""style=""height:400px;""></stim_listA>","","html-keyboard-response","153","991673","0.0-15.0-1.6","95926","List1A","black","woman","","","","null","","","","","","","","",""
"null","is challenging","","html-keyboard-response","154","993675","0.0-15.0-2.6","95926","List1A","black","woman","","","","null","","","","","","","","",""
"6903","","","survey-text","155","1000585","0.0-15.0-3.6","95926","List1A","black","woman","","","","","{""Q0"":""Luke is challenging mike ""}","<img src=""stim_listA/challenge5.gif""style=""height:400px;""></stim_listA>","is challenging","","","","","",""
"null","<div style=""font-size:60px;"">+</div>","","html-keyboard-response","156","1001088","0.0-15.0-0.7","95926","List1A","black","woman","","","","null","","","","","","","","",""
"null","<img src=""stim_listA/copy3.gif""style=""height:400px;""></stim_listA>","","html-keyboard-response","157","1003090","0.0-15.0-1.7","95926","List1A","black","woman","","","","null","","","","","","","","",""
"null","is copying","","html-keyboard-response","158","1005093","0.0-15.0-2.7","95926","List1A","black","woman","","","","null","","","","","","","","",""
"10730","","","survey-text","159","1015831","0.0-15.0-3.7","95926","List1A","black","woman","","","","","{""Q0"":""ruth is copying Dave""}","<img src=""stim_listA/copy3.gif""style=""height:400px;""></stim_listA>","is copying","","","","","",""
"null","<div style=""font-size:60px;"">+</div>","","html-keyboard-response","160","1016334","0.0-15.0-0.8","95926","List1A","black","woman","","","","null","","","","","","","","",""
"null","<img src=""stim_listA/touch2.gif""style=""height:400px;""></stim_listA>","","html-keyboard-response","161","1018337","0.0-15.0-1.8","95926","List1A","black","woman","","","","null","","","","","","","","",""
"null","is being touched by","","html-keyboard-response","162","1020340","0.0-15.0-2.8","95926","List1A","black","woman","","","","null","","","","","","","","",""
"8713","","","survey-text","163","1029064","0.0-15.0-3.8","95926","List1A","black","woman","","","","","{""Q0"":""Beth is being touched by Fred""}","<img src=""stim_listA/touch2.gif""style=""height:400px;""></stim_listA>","is being touched by","","","","","",""
"null","<div style=""font-size:60px;"">+</div>","","html-keyboard-response","164","1029567","0.0-15.0-0.9","95926","List1A","black","woman","","","","null","","","","","","","","",""
"null","<img src=""stim_listA/copy5.gif""style=""height:400px;""></stim_listA>","","html-keyboard-response","165","1031569","0.0-15.0-1.9","95926","List1A","black","woman","","","","null","","","","","","","","",""
"null","is copying","","html-keyboard-response","166","1033572","0.0-15.0-2.9","95926","List1A","black","woman","","","","null","","","","","","","","",""
"15964","","","survey-text","167","1049544","0.0-15.0-3.9","95926","List1A","black","woman","","","","","{""Q0"":""mike is copying Luke""}","<img src=""stim_listA/copy5.gif""style=""height:400px;""></stim_listA>","is copying","","","","","",""
"null","<div style=""font-size:60px;"">+</div>","","html-keyboard-response","168","1050048","0.0-15.0-0.10","95926","List1A","black","woman","","","","null","","","","","","","","",""
"null","<img src=""stim_listA/look5.gif""style=""height:400px;""></stim_listA>","","html-keyboard-response","169","1052050","0.0-15.0-1.10","95926","List1A","black","woman","","","","null","","","","","","","","",""
"null","is looking at","","html-keyboard-response","170","1054051","0.0-15.0-2.10","95926","List1A","black","woman","","","","null","","","","","","","","",""
"7044","","","survey-text","171","1061103","0.0-15.0-3.10","95926","List1A","black","woman","","","","","{""Q0"":""fred is looking at Luke ""}","<img src=""stim_listA/look5.gif""style=""height:400px;""></stim_listA>","is looking at","","","","","",""
"null","<div style=""font-size:60px;"">+</div>","","html-keyboard-response","172","1061605","0.0-15.0-0.11","95926","List1A","black","woman","","","","null","","","","","","","","",""
"null","<img src=""stim_listA/hug2.gif""style=""height:400px;""></stim_listA>","","html-keyboard-response","173","1063608","0.0-15.0-1.11","95926","List1A","black","woman","","","","null","","","","","","","","",""
"null","is being hugged by","","html-keyboard-response","174","1065610","0.0-15.0-2.11","95926","List1A","black","woman","","","","null","","","","","","","","",""
"10851","","","survey-text","175","1076469","0.0-15.0-3.11","95926","List1A","black","woman","","","","","{""Q0"":""Kate is being hugged by mike ""}","<img src=""stim_listA/hug2.gif""style=""height:400px;""></stim_listA>","is being hugged by","","","","","",""
"null","<div style=""font-size:60px;"">+</div>","","html-keyboard-response","176","1076971","0.0-15.0-0.12","95926","List1A","black","woman","","","","null","","","","","","","","",""
"null","<img src=""stim_listA/shout7.gif""style=""height:400px;""></stim_listA>","","html-keyboard-response","177","1078974","0.0-15.0-1.12","95926","List1A","black","woman","","","","null","","","","","","","","",""
"null","is shouting at","","html-keyboard-response","178","1080976","0.0-15.0-2.12","95926","List1A","black","woman","","","","null","","","","","","","","",""
"13155","","","survey-text","179","1094139","0.0-15.0-3.12","95926","List1A","black","woman","","","","","{""Q0"":""Kate is shouting at Beth""}","<img src=""stim_listA/shout7.gif""style=""height:400px;""></stim_listA>","is shouting at","","","","","",""
"null","<div style=""font-size:60px;"">+</div>","","html-keyboard-response","180","1094640","0.0-15.0-0.13","95926","List1A","black","woman","","","","null","","","","","","","","",""
"null","<img src=""stim_listA/kiss8.gif""style=""height:400px;""></stim_listA>","","html-keyboard-response","181","1096643","0.0-15.0-1.13","95926","List1A","black","woman","","","","null","","","","","","","","",""
"null","is being kissed by","","html-keyboard-response","182","1098645","0.0-15.0-2.13","95926","List1A","black","woman","","","","null","","","","","","","","",""
"11488.999999999767","","","survey-text","183","1110143","0.0-15.0-3.13","95926","List1A","black","woman","","","","","{""Q0"":""Jane is being kissed by Kate""}","<img src=""stim_listA/kiss8.gif""style=""height:400px;""></stim_listA>","is being kissed by","","","","","",""
"null","<div style=""font-size:60px;"">+</div>","","html-keyboard-response","184","1110645","0.0-15.0-0.14","95926","List1A","black","woman","","","","null","","","","","","","","",""
"null","<img src=""stim_listA/shout8.gif""style=""height:400px;""></stim_listA>","","html-keyboard-response","185","1112646","0.0-15.0-1.14","95926","List1A","black","woman","","","","null","","","","","","","","",""
"null","is being shouted at by","","html-keyboard-response","186","1114649","0.0-15.0-2.14","95926","List1A","black","woman","","","","null","","","","","","","","",""
"15116","","","survey-text","187","1129774","0.0-15.0-3.14","95926","List1A","black","woman","","","","","{""Q0"":""Jane is being shouted at by Kate""}","<img src=""stim_listA/shout8.gif""style=""height:400px;""></stim_listA>","is being shouted at by","","","","","",""
"null","<div style=""font-size:60px;"">+</div>","","html-keyboard-response","188","1130277","0.0-15.0-0.15","95926","List1A","black","woman","","","","null","","","","","","","","",""
"null","<img src=""stim_listA/greet1.gif""style=""height:400px;""></stim_listA>","","html-keyboard-response","189","1132279","0.0-15.0-1.15","95926","List1A","black","woman","","","","null","","","","","","","","",""
"null","is greeting","","html-keyboard-response","190","1134282","0.0-15.0-2.15","95926","List1A","black","woman","","","","null","","","","","","","","",""
"4641.999999999767","","","survey-text","191","1138931","0.0-15.0-3.15","95926","List1A","black","woman","","","","","{""Q0"":""mike is greeting Beth ""}","<img src=""stim_listA/greet1.gif""style=""height:400px;""></stim_listA>","is greeting","","","","","",""
"null","<div style=""font-size:60px;"">+</div>","","html-keyboard-response","192","1139434","0.0-15.0-0.16","95926","List1A","black","woman","","","","null","","","","","","","","",""
"null","<img src=""stim_listA/oppose3.gif""style=""height:400px;""></stim_listA>","","html-keyboard-response","193","1141436","0.0-15.0-1.16","95926","List1A","black","woman","","","","null","","","","","","","","",""
"null","is opposing","","html-keyboard-response","194","1143438","0.0-15.0-2.16","95926","List1A","black","woman","","","","null","","","","","","","","",""
"6560","","","survey-text","195","1150006","0.0-15.0-3.16","95926","List1A","black","woman","","","","","{""Q0"":""Dave is opposing Jane""}","<img src=""stim_listA/oppose3.gif""style=""height:400px;""></stim_listA>","is opposing","","","","","",""
"null","<div style=""font-size:60px;"">+</div>","","html-keyboard-response","196","1150507","0.0-15.0-0.17","95926","List1A","black","woman","","","","null","","","","","","","","",""
"null","<img src=""stim_listA/shout4.gif""style=""height:400px;""></stim_listA>","","html-keyboard-response","197","1152510","0.0-15.0-1.17","95926","List1A","black","woman","","","","null","","","","","","","","",""
"null","is being shouted at by","","html-keyboard-response","198","1154512","0.0-15.0-2.17","95926","List1A","black","woman","","","","null","","","","","","","","",""
"7944","","","survey-text","199","1162464","0.0-15.0-3.17","95926","List1A","black","woman","","","","","{""Q0"":""Dave is being shouted at by Jane""}","<img src=""stim_listA/shout4.gif""style=""height:400px;""></stim_listA>","is being shouted at by","","","","","",""
"null","<div style=""font-size:60px;"">+</div>","","html-keyboard-response","200","1162967","0.0-15.0-0.18","95926","List1A","black","woman","","","","null","","","","","","","","",""
"null","<img src=""stim_listA/seduce8.gif""style=""height:400px;""></stim_listA>","","html-keyboard-response","201","1164970","0.0-15.0-1.18","95926","List1A","black","woman","","","","null","","","","","","","","",""
"null","is being seduced by","","html-keyboard-response","202","1166971","0.0-15.0-2.18","95926","List1A","black","woman","","","","null","","","","","","","","",""
"7341","","","survey-text","203","1174320","0.0-15.0-3.18","95926","List1A","black","woman","","","","","{""Q0"":""Kate is being seduced by ruth ""}","<img src=""stim_listA/seduce8.gif""style=""height:400px;""></stim_listA>","is being seduced by","","","","","",""
"null","<div style=""font-size:60px;"">+</div>","","html-keyboard-response","204","1174823","0.0-15.0-0.19","95926","List1A","black","woman","","","","null","","","","","","","","",""
"null","<img src=""stim_listA/oppose6.gif""style=""height:400px;""></stim_listA>","","html-keyboard-response","205","1176825","0.0-15.0-1.19","95926","List1A","black","woman","","","","null","","","","","","","","",""
"null","is being opposed by","","html-keyboard-response","206","1178828","0.0-15.0-2.19","95926","List1A","black","woman","","","","null","","","","","","","","",""
"18145","","","survey-text","207","1196981","0.0-15.0-3.19","95926","List1A","black","woman","","","","","{""Q0"":""Luke is being opposed by Fred ""}","<img src=""stim_listA/oppose6.gif""style=""height:400px;""></stim_listA>","is being opposed by","","","","","",""
"50378","<img src='img/portrait_matrix_list1.jpg' style='width:900px;height:500px;''></img><p>If you have memorised all the portraits and names and are ready to start, press Continue.</p><p><strong>Please note: Your memory of these faces will be tested 4 times during this experiment.</strong></p>","0","html-button-response","208","1247363","0.0-16.0-0.0","95926","List1A","black","woman","","","","","","","","","","","","",""
"3654","<img src=""portrait/BW2.jpg""style=""height:400px;""></img>","2","html-button-response","209","1252020","0.0-16.0-1.0","95926","List1A","black","woman","","true","2","","","","","","","","","",""
"null","CORRECT","","html-keyboard-response","210","1253524","0.0-16.0-2.0-0.0","95926","List1A","black","woman","","","","null","","","","","","","","",""
"2792","<img src=""portrait/WW2.jpg""style=""height:400px;""></img>","3","html-button-response","211","1256319","0.0-16.0-4.0","95926","List1A","black","woman","","true","3","","","","","","","","","",""
"null","CORRECT","","html-keyboard-response","212","1257822","0.0-16.0-5.0-0.0","95926","List1A","black","woman","","","","null","","","","","","","","",""
"3615","<img src=""portrait/WM1.jpg""style=""height:400px;""></img>","6","html-button-response","213","1261440","0.0-16.0-7.0","95926","List1A","black","woman","","true","6","","","","","","","","","",""
"null","CORRECT","","html-keyboard-response","214","1262943","0.0-16.0-8.0-0.0","95926","List1A","black","woman","","","","null","","","","","","","","",""
"2634","<img src=""portrait/WM2.jpg""style=""height:400px;""></img>","7","html-button-response","215","1265580","0.0-16.0-10.0","95926","List1A","black","woman","","true","7","","","","","","","","","",""
"null","CORRECT","","html-keyboard-response","216","1267084","0.0-16.0-11.0-0.0","95926","List1A","black","woman","","","","null","","","","","","","","",""
"2273.000000000233","<img src=""portrait/BM2.jpg""style=""height:400px;""></img>","5","html-button-response","217","1269359","0.0-16.0-13.0","95926","List1A","black","woman","","true","5","","","","","","","","","",""
"null","CORRECT","","html-keyboard-response","218","1270862","0.0-16.0-14.0-0.0","95926","List1A","black","woman","","","","null","","","","","","","","",""
"4177","<img src=""portrait/WW1.jpg""style=""height:400px;""></img>","1","html-button-response","219","1275041","0.0-16.0-16.0","95926","List1A","black","woman","","true","1","","","","","","","","","",""
"null","CORRECT","","html-keyboard-response","220","1276544","0.0-16.0-17.0-0.0","95926","List1A","black","woman","","","","null","","","","","","","","",""
"2750","<img src=""portrait/BW1.jpg""style=""height:400px;""></img>","0","html-button-response","221","1279296","0.0-16.0-19.0","95926","List1A","black","woman","","true","0","","","","","","","","","",""
"null","CORRECT","","html-keyboard-response","222","1280799","0.0-16.0-20.0-0.0","95926","List1A","black","woman","","","","null","","","","","","","","",""
"2065.999999999767","<img src=""portrait/BM1.jpg""style=""height:400px;""></img>","4","html-button-response","223","1282867","0.0-16.0-22.0","95926","List1A","black","woman","","true","4","","","","","","","","","",""
"null","CORRECT","","html-keyboard-response","224","1284369","0.0-16.0-23.0-0.0","95926","List1A","black","woman","","","","null","","","","","","","","",""
"5121","<p>You got 8 out of 8 right first time. Press Continue.</p>","0","html-button-response","225","1289493","0.0-16.0-25.0","95926","List1A","black","woman","","","","","","","","","","","","",""
"null","<div style=""font-size:60px;"">+</div>","","html-keyboard-response","226","1290997","0.0-17.0-0.0","95926","List1A","black","woman","","","","null","","","","","","","","",""
"null","<img src=""stim_listA/greet5.gif""style=""height:400px;""></stim_listA>","","html-keyboard-response","227","1293000","0.0-17.0-1.0","95926","List1A","black","woman","","","","null","","","","","","","","",""
"null","is greeting","","html-keyboard-response","228","1295002","0.0-17.0-2.0","95926","List1A","black","woman","","","","null","","","","","","","","",""
"12588.000000000233","","","survey-text","229","1307599","0.0-17.0-3.0","95926","List1A","black","woman","","","","","{""Q0"":""Luke is greeting mike ""}","<img src=""stim_listA/greet5.gif""style=""height:400px;""></stim_listA>","is greeting","","","","","",""
"null","<div style=""font-size:60px;"">+</div>","","html-keyboard-response","230","1308102","0.0-17.0-0.1","95926","List1A","black","woman","","","","null","","","","","","","","",""
"null","<img src=""stim_listA/copy4.gif""style=""height:400px;""></stim_listA>","","html-keyboard-response","231","1310104","0.0-17.0-1.1","95926","List1A","black","woman","","","","null","","","","","","","","",""
"null","is being copied by","","html-keyboard-response","232","1312106","0.0-17.0-2.1","95926","List1A","black","woman","","","","null","","","","","","","","",""
"8821.000000000233","","","survey-text","233","1320937","0.0-17.0-3.1","95926","List1A","black","woman","","","","","{""Q0"":""luke is being copied by Jane ""}","<img src=""stim_listA/copy4.gif""style=""height:400px;""></stim_listA>","is being copied by","","","","","",""
"null","<div style=""font-size:60px;"">+</div>","","html-keyboard-response","234","1321440","0.0-17.0-0.2","95926","List1A","black","woman","","","","null","","","","","","","","",""
"null","<img src=""stim_listA/challenge3.gif""style=""height:400px;""></stim_listA>","","html-keyboard-response","235","1323443","0.0-17.0-1.2","95926","List1A","black","woman","","","","null","","","","","","","","",""
"null","is challenging","","html-keyboard-response","236","1325444","0.0-17.0-2.2","95926","List1A","black","woman","","","","null","","","","","","","","",""
"24215","","","survey-text","237","1349666","0.0-17.0-3.2","95926","List1A","black","woman","","","","","{""Q0"":""Dave is challenging by ruth ""}","<img src=""stim_listA/challenge3.gif""style=""height:400px;""></stim_listA>","is challenging","","","","","",""
"null","<div style=""font-size:60px;"">+</div>","","html-keyboard-response","238","1350169","0.0-17.0-0.3","95926","List1A","black","woman","","","","null","","","","","","","","",""
"null","<img src=""stim_listA/hug8.gif""style=""height:400px;""></stim_listA>","","html-keyboard-response","239","1352172","0.0-17.0-1.3","95926","List1A","black","woman","","","","null","","","","","","","","",""
"null","is being hugged by","","html-keyboard-response","240","1354173","0.0-17.0-2.3","95926","List1A","black","woman","","","","null","","","","","","","","",""
"11462","","","survey-text","241","1365643","0.0-17.0-3.3","95926","List1A","black","woman","","","","","{""Q0"":""Kate is being hugged by Jane ""}","<img src=""stim_listA/hug8.gif""style=""height:400px;""></stim_listA>","is being hugged by","","","","","",""
"null","<div style=""font-size:60px;"">+</div>","","html-keyboard-response","242","1366146","0.0-17.0-0.4","95926","List1A","black","woman","","","","null","","","","","","","","",""
"null","<img src=""stim_listA/greet2.gif""style=""height:400px;""></stim_listA>","","html-keyboard-response","243","1368149","0.0-17.0-1.4","95926","List1A","black","woman","","","","null","","","","","","","","",""
"null","is being greeted by","","html-keyboard-response","244","1370151","0.0-17.0-2.4","95926","List1A","black","woman","","","","null","","","","","","","","",""
"7712","","","survey-text","245","1377868","0.0-17.0-3.4","95926","List1A","black","woman","","","","","{""Q0"":""fred is being greeted by Kate""}","<img src=""stim_listA/greet2.gif""style=""height:400px;""></stim_listA>","is being greeted by","","","","","",""
"null","<div style=""font-size:60px;"">+</div>","","html-keyboard-response","246","1378373","0.0-17.0-0.5","95926","List1A","black","woman","","","","null","","","","","","","","",""
"null","<img src=""stim_listA/challenge2.gif""style=""height:400px;""></stim_listA>","","html-keyboard-response","247","1380376","0.0-17.0-1.5","95926","List1A","black","woman","","","","null","","","","","","","","",""
"null","is being challenged by","","html-keyboard-response","248","1382379","0.0-17.0-2.5","95926","List1A","black","woman","","","","null","","","","","","","","",""
"8658","","","survey-text","249","1391045","0.0-17.0-3.5","95926","List1A","black","woman","","","","","{""Q0"":""fred is being challenged by Kate ""}","<img src=""stim_listA/challenge2.gif""style=""height:400px;""></stim_listA>","is being challenged by","","","","","",""
"null","<div style=""font-size:60px;"">+</div>","","html-keyboard-response","250","1391548","0.0-17.0-0.6","95926","List1A","black","woman","","","","null","","","","","","","","",""
"null","<img src=""stim_listA/touch1.gif""style=""height:400px;""></stim_listA>","","html-keyboard-response","251","1393551","0.0-17.0-1.6","95926","List1A","black","woman","","","","null","","","","","","","","",""
"null","is touching","","html-keyboard-response","252","1395553","0.0-17.0-2.6","95926","List1A","black","woman","","","","null","","","","","","","","",""
"4833","","","survey-text","253","1400394","0.0-17.0-3.6","95926","List1A","black","woman","","","","","{""Q0"":""Kate is touching mike ""}","<img src=""stim_listA/touch1.gif""style=""height:400px;""></stim_listA>","is touching","","","","","",""
"null","<div style=""font-size:60px;"">+</div>","","html-keyboard-response","254","1400897","0.0-17.0-0.7","95926","List1A","black","woman","","","","null","","","","","","","","",""
"null","<img src=""stim_listA/look1.gif""style=""height:400px;""></stim_listA>","","html-keyboard-response","255","1402899","0.0-17.0-1.7","95926","List1A","black","woman","","","","null","","","","","","","","",""
"null","is looking at","","html-keyboard-response","256","1404901","0.0-17.0-2.7","95926","List1A","black","woman","","","","null","","","","","","","","",""
"8675.999999999767","","","survey-text","257","1413586","0.0-17.0-3.7","95926","List1A","black","woman","","","","","{""Q0"":""Beth is looking at fred""}","<img src=""stim_listA/look1.gif""style=""height:400px;""></stim_listA>","is looking at","","","","","",""
"null","<div style=""font-size:60px;"">+</div>","","html-keyboard-response","258","1414089","0.0-17.0-0.8","95926","List1A","black","woman","","","","null","","","","","","","","",""
"null","<img src=""stim_listA/seduce1.gif""style=""height:400px;""></stim_listA>","","html-keyboard-response","259","1416092","0.0-17.0-1.8","95926","List1A","black","woman","","","","null","","","","","","","","",""
"null","is seducing","","html-keyboard-response","260","1418093","0.0-17.0-2.8","95926","List1A","black","woman","","","","null","","","","","","","","",""
"5614.999999999767","","","survey-text","261","1423717","0.0-17.0-3.8","95926","List1A","black","woman","","","","","{""Q0"":""fred is seducing Kate ""}","<img src=""stim_listA/seduce1.gif""style=""height:400px;""></stim_listA>","is seducing","","","","","",""
"null","<div style=""font-size:60px;"">+</div>","","html-keyboard-response","262","1424220","0.0-17.0-0.9","95926","List1A","black","woman","","","","null","","","","","","","","",""
"null","<img src=""stim_listA/copy2.gif""style=""height:400px;""></stim_listA>","","html-keyboard-response","263","1426222","0.0-17.0-1.9","95926","List1A","black","woman","","","","null","","","","","","","","",""
"null","is being copied by","","html-keyboard-response","264","1428224","0.0-17.0-2.9","95926","List1A","black","woman","","","","null","","","","","","","","",""
"12577","","","survey-text","265","1440810","0.0-17.0-3.9","95926","List1A","black","woman","","","","","{""Q0"":""fred is being copied by Kate ""}","<img src=""stim_listA/copy2.gif""style=""height:400px;""></stim_listA>","is being copied by","","","","","",""
"null","<div style=""font-size:60px;"">+</div>","","html-keyboard-response","266","1441313","0.0-17.0-0.10","95926","List1A","black","woman","","","","null","","","","","","","","",""
"null","<img src=""stim_listA/shout2.gif""style=""height:400px;""></stim_listA>","","html-keyboard-response","267","1443316","0.0-17.0-1.10","95926","List1A","black","woman","","","","null","","","","","","","","",""
"null","is being shouted at by","","html-keyboard-response","268","1445318","0.0-17.0-2.10","95926","List1A","black","woman","","","","null","","","","","","","","",""
"11606","","","survey-text","269","1456932","0.0-17.0-3.10","95926","List1A","black","woman","","","","","{""Q0"":""mike Is being shouted by Kate ""}","<img src=""stim_listA/shout2.gif""style=""height:400px;""></stim_listA>","is being shouted at by","","","","","",""
"null","<div style=""font-size:60px;"">+</div>","","html-keyboard-response","270","1457435","0.0-17.0-0.11","95926","List1A","black","woman","","","","null","","","","","","","","",""
"null","<img src=""stim_listA/seduce7.gif""style=""height:400px;""></stim_listA>","","html-keyboard-response","271","1459438","0.0-17.0-1.11","95926","List1A","black","woman","","","","null","","","","","","","","",""
"null","is seducing","","html-keyboard-response","272","1461440","0.0-17.0-2.11","95926","List1A","black","woman","","","","null","","","","","","","","",""
"6061","","","survey-text","273","1467508","0.0-17.0-3.11","95926","List1A","black","woman","","","","","{""Q0"":""Beth is seducing Jane ""}","<img src=""stim_listA/seduce7.gif""style=""height:400px;""></stim_listA>","is seducing","","","","","",""
"null","<div style=""font-size:60px;"">+</div>","","html-keyboard-response","274","1468012","0.0-17.0-0.12","95926","List1A","black","woman","","","","null","","","","","","","","",""
"null","<img src=""stim_listA/hug6.gif""style=""height:400px;""></stim_listA>","","html-keyboard-response","275","1470014","0.0-17.0-1.12","95926","List1A","black","woman","","","","null","","","","","","","","",""
"null","is being hugged by","","html-keyboard-response","276","1472017","0.0-17.0-2.12","95926","List1A","black","woman","","","","null","","","","","","","","",""
"6698","","","survey-text","277","1478724","0.0-17.0-3.12","95926","List1A","black","woman","","","","","{""Q0"":""Dave is being hugged by mike ""}","<img src=""stim_listA/hug6.gif""style=""height:400px;""></stim_listA>","is being hugged by","","","","","",""
"null","<div style=""font-size:60px;"">+</div>","","html-keyboard-response","278","1479226","0.0-17.0-0.13","95926","List1A","black","woman","","","","null","","","","","","","","",""
"null","<img src=""stim_listA/kiss5.gif""style=""height:400px;""></stim_listA>","","html-keyboard-response","279","1481229","0.0-17.0-1.13","95926","List1A","black","woman","","","","null","","","","","","","","",""
"null","is kissing","","html-keyboard-response","280","1483232","0.0-17.0-2.13","95926","List1A","black","woman","","","","null","","","","","","","","",""
"6280","","","survey-text","281","1489519","0.0-17.0-3.13","95926","List1A","black","woman","","","","","{""Q0"":""fred is kissing Luke ""}","<img src=""stim_listA/kiss5.gif""style=""height:400px;""></stim_listA>","is kissing","","","","","",""
"null","<div style=""font-size:60px;"">+</div>","","html-keyboard-response","282","1490022","0.0-17.0-0.14","95926","List1A","black","woman","","","","null","","","","","","","","",""
"null","<img src=""stim_listA/touch4.gif""style=""height:400px;""></stim_listA>","","html-keyboard-response","283","1492024","0.0-17.0-1.14","95926","List1A","black","woman","","","","null","","","","","","","","",""
"null","is being touched by","","html-keyboard-response","284","1494026","0.0-17.0-2.14","95926","List1A","black","woman","","","","null","","","","","","","","",""
"20431","","","survey-text","285","1514466","0.0-17.0-3.14","95926","List1A","black","woman","","","","","{""Q0"":""luke is being touched by ruth ""}","<img src=""stim_listA/touch4.gif""style=""height:400px;""></stim_listA>","is being touched by","","","","","",""
"null","<div style=""font-size:60px;"">+</div>","","html-keyboard-response","286","1514967","0.0-17.0-0.15","95926","List1A","black","woman","","","","null","","","","","","","","",""
"null","<img src=""stim_listA/hug1.gif""style=""height:400px;""></stim_listA>","","html-keyboard-response","287","1516970","0.0-17.0-1.15","95926","List1A","black","woman","","","","null","","","","","","","","",""
"null","is hugging","","html-keyboard-response","288","1518973","0.0-17.0-2.15","95926","List1A","black","woman","","","","null","","","","","","","","",""
"3930","","","survey-text","289","1522910","0.0-17.0-3.15","95926","List1A","black","woman","","","","","{""Q0"":""fred is hugging Beth ""}","<img src=""stim_listA/hug1.gif""style=""height:400px;""></stim_listA>","is hugging","","","","","",""
"null","<div style=""font-size:60px;"">+</div>","","html-keyboard-response","290","1523412","0.0-17.0-0.16","95926","List1A","black","woman","","","","null","","","","","","","","",""
"null","<img src=""stim_listA/greet4.gif""style=""height:400px;""></stim_listA>","","html-keyboard-response","291","1525414","0.0-17.0-1.16","95926","List1A","black","woman","","","","null","","","","","","","","",""
"null","is being greeted by","","html-keyboard-response","292","1527416","0.0-17.0-2.16","95926","List1A","black","woman","","","","null","","","","","","","","",""
"8639","","","survey-text","293","1536063","0.0-17.0-3.16","95926","List1A","black","woman","","","","","{""Q0"":""Luke is being greeted by Jane ""}","<img src=""stim_listA/greet4.gif""style=""height:400px;""></stim_listA>","is being greeted by","","","","","",""
"null","<div style=""font-size:60px;"">+</div>","","html-keyboard-response","294","1536566","0.0-17.0-0.17","95926","List1A","black","woman","","","","null","","","","","","","","",""
"null","<img src=""stim_listA/kiss2.gif""style=""height:400px;""></stim_listA>","","html-keyboard-response","295","1538569","0.0-17.0-1.17","95926","List1A","black","woman","","","","null","","","","","","","","",""
"null","is being kissed by","","html-keyboard-response","296","1540572","0.0-17.0-2.17","95926","List1A","black","woman","","","","null","","","","","","","","",""
"5942","","","survey-text","297","1546522","0.0-17.0-3.17","95926","List1A","black","woman","","","","","{""Q0"":""Kate is being kissed by mike ""}","<img src=""stim_listA/kiss2.gif""style=""height:400px;""></stim_listA>","is being kissed by","","","","","",""
"null","<div style=""font-size:60px;"">+</div>","","html-keyboard-response","298","1547025","0.0-17.0-0.18","95926","List1A","black","woman","","","","null","","","","","","","","",""
"null","<img src=""stim_listA/greet3.gif""style=""height:400px;""></stim_listA>","","html-keyboard-response","299","1549028","0.0-17.0-1.18","95926","List1A","black","woman","","","","null","","","","","","","","",""
"null","is greeting","","html-keyboard-response","300","1551030","0.0-17.0-2.18","95926","List1A","black","woman","","","","null","","","","","","","","",""
"6111","","","survey-text","301","1557149","0.0-17.0-3.18","95926","List1A","black","woman","","","","","{""Q0"":""Dave is greeting ruth ""}","<img src=""stim_listA/greet3.gif""style=""height:400px;""></stim_listA>","is greeting","","","","","",""
"null","<div style=""font-size:60px;"">+</div>","","html-keyboard-response","302","1557651","0.0-17.0-0.19","95926","List1A","black","woman","","","","null","","","","","","","","",""
"null","<img src=""stim_listA/copy7.gif""style=""height:400px;""></stim_listA>","","html-keyboard-response","303","1559654","0.0-17.0-1.19","95926","List1A","black","woman","","","","null","","","","","","","","",""
"null","is copying","","html-keyboard-response","304","1561656","0.0-17.0-2.19","95926","List1A","black","woman","","","","null","","","","","","","","",""
"7572","","","survey-text","305","1569236","0.0-17.0-3.19","95926","List1A","black","woman","","","","","{""Q0"":""Kate is copying ruth ""}","<img src=""stim_listA/copy7.gif""style=""height:400px;""></stim_listA>","is copying","","","","","",""
"2500","<img src='img/portrait_matrix_list1.jpg' style='width:900px;height:500px;''></img><p>If you have memorised all the portraits and names and are ready to start, press Continue.</p><p><strong>Please note: Your memory of these faces will be tested 4 times during this experiment.</strong></p>","0","html-button-response","306","1571741","0.0-18.0-0.0","95926","List1A","black","woman","","","","","","","","","","","","",""
"2243","<img src=""portrait/BW1.jpg""style=""height:400px;""></img>","0","html-button-response","307","1574987","0.0-18.0-1.0","95926","List1A","black","woman","","true","0","","","","","","","","","",""
"null","CORRECT","","html-keyboard-response","308","1576491","0.0-18.0-2.0-0.0","95926","List1A","black","woman","","","","null","","","","","","","","",""
"1380","<img src=""portrait/WW1.jpg""style=""height:400px;""></img>","1","html-button-response","309","1577873","0.0-18.0-4.0","95926","List1A","black","woman","","true","1","","","","","","","","","",""
"null","CORRECT","","html-keyboard-response","310","1579375","0.0-18.0-5.0-0.0","95926","List1A","black","woman","","","","null","","","","","","","","",""
"1997.0000000002328","<img src=""portrait/BW2.jpg""style=""height:400px;""></img>","2","html-button-response","311","1581374","0.0-18.0-7.0","95926","List1A","black","woman","","true","2","","","","","","","","","",""
"null","CORRECT","","html-keyboard-response","312","1582878","0.0-18.0-8.0-0.0","95926","List1A","black","woman","","","","null","","","","","","","","",""
"1994.0000000002328","<img src=""portrait/BM1.jpg""style=""height:400px;""></img>","4","html-button-response","313","1584875","0.0-18.0-10.0","95926","List1A","black","woman","","true","4","","","","","","","","","",""
"null","CORRECT","","html-keyboard-response","314","1586378","0.0-18.0-11.0-0.0","95926","List1A","black","woman","","","","null","","","","","","","","",""
"1634","<img src=""portrait/WW2.jpg""style=""height:400px;""></img>","3","html-button-response","315","1588015","0.0-18.0-13.0","95926","List1A","black","woman","","true","3","","","","","","","","","",""
"null","CORRECT","","html-keyboard-response","316","1589518","0.0-18.0-14.0-0.0","95926","List1A","black","woman","","","","null","","","","","","","","",""
"1816.0000000002328","<img src=""portrait/BM2.jpg""style=""height:400px;""></img>","5","html-button-response","317","1591337","0.0-18.0-16.0","95926","List1A","black","woman","","true","5","","","","","","","","","",""
"null","CORRECT","","html-keyboard-response","318","1592840","0.0-18.0-17.0-0.0","95926","List1A","black","woman","","","","null","","","","","","","","",""
"1519","<img src=""portrait/WM2.jpg""style=""height:400px;""></img>","7","html-button-response","319","1594361","0.0-18.0-19.0","95926","List1A","black","woman","","true","7","","","","","","","","","",""
"null","CORRECT","","html-keyboard-response","320","1595864","0.0-18.0-20.0-0.0","95926","List1A","black","woman","","","","null","","","","","","","","",""
"3170","<img src=""portrait/WM1.jpg""style=""height:400px;""></img>","6","html-button-response","321","1599037","0.0-18.0-22.0","95926","List1A","black","woman","","true","6","","","","","","","","","",""
"null","CORRECT","","html-keyboard-response","322","1600539","0.0-18.0-23.0-0.0","95926","List1A","black","woman","","","","null","","","","","","","","",""
"64858","<p>You got 8 out of 8 right first time. Press Continue.</p>","0","html-button-response","323","1665400","0.0-18.0-25.0","95926","List1A","black","woman","","","","","","","","","","","","",""
"null","<div style=""font-size:60px;"">+</div>","","html-keyboard-response","324","1666906","0.0-19.0-0.0","95926","List1A","black","woman","","","","null","","","","","","","","",""
"null","<img src=""stim_listA/seduce6.gif""style=""height:400px;""></stim_listA>","","html-keyboard-response","325","1668909","0.0-19.0-1.0","95926","List1A","black","woman","","","","null","","","","","","","","",""
"null","is being seduced by","","html-keyboard-response","326","1670912","0.0-19.0-2.0","95926","List1A","black","woman","","","","null","","","","","","","","",""
"8896","","","survey-text","327","1679817","0.0-19.0-3.0","95926","List1A","black","woman","","","","","{""Q0"":""mike is being seduced by Luke""}","<img src=""stim_listA/seduce6.gif""style=""height:400px;""></stim_listA>","is being seduced by","","","","","",""
"null","<div style=""font-size:60px;"">+</div>","","html-keyboard-response","328","1680319","0.0-19.0-0.1","95926","List1A","black","woman","","","","null","","","","","","","","",""
"null","<img src=""stim_listA/look3.gif""style=""height:400px;""></stim_listA>","","html-keyboard-response","329","1682322","0.0-19.0-1.1","95926","List1A","black","woman","","","","null","","","","","","","","",""
"null","is looking at","","html-keyboard-response","330","1684325","0.0-19.0-2.1","95926","List1A","black","woman","","","","null","","","","","","","","",""
"6412","","","survey-text","331","1690744","0.0-19.0-3.1","95926","List1A","black","woman","","","","","{""Q0"":""Luke is looking at ruth ""}","<img src=""stim_listA/look3.gif""style=""height:400px;""></stim_listA>","is looking at","","","","","",""
"null","<div style=""font-size:60px;"">+</div>","","html-keyboard-response","332","1691247","0.0-19.0-0.2","95926","List1A","black","woman","","","","null","","","","","","","","",""
"null","<img src=""stim_listA/touch7.gif""style=""height:400px;""></stim_listA>","","html-keyboard-response","333","1693250","0.0-19.0-1.2","95926","List1A","black","woman","","","","null","","","","","","","","",""
"null","is touching","","html-keyboard-response","334","1695251","0.0-19.0-2.2","95926","List1A","black","woman","","","","null","","","","","","","","",""
"7113","","","survey-text","335","1702372","0.0-19.0-3.2","95926","List1A","black","woman","","","","","{""Q0"":""Kate is touching ruth ""}","<img src=""stim_listA/touch7.gif""style=""height:400px;""></stim_listA>","is touching","","","","","",""
"null","<div style=""font-size:60px;"">+</div>","","html-keyboard-response","336","1702875","0.0-19.0-0.3","95926","List1A","black","woman","","","","null","","","","","","","","",""
"null","<img src=""stim_listA/shout1.gif""style=""height:400px;""></stim_listA>","","html-keyboard-response","337","1704877","0.0-19.0-1.3","95926","List1A","black","woman","","","","null","","","","","","","","",""
"null","is shouting at","","html-keyboard-response","338","1706880","0.0-19.0-2.3","95926","List1A","black","woman","","","","null","","","","","","","","",""
"5328","","","survey-text","339","1712216","0.0-19.0-3.3","95926","List1A","black","woman","","","","","{""Q0"":""fred is shouting at Beth""}","<img src=""stim_listA/shout1.gif""style=""height:400px;""></stim_listA>","is shouting at","","","","","",""
"null","<div style=""font-size:60px;"">+</div>","","html-keyboard-response","340","1712718","0.0-19.0-0.4","95926","List1A","black","woman","","","","null","","","","","","","","",""
"null","<img src=""stim_listA/oppose4.gif""style=""height:400px;""></stim_listA>","","html-keyboard-response","341","1714721","0.0-19.0-1.4","95926","List1A","black","woman","","","","null","","","","","","","","",""
"null","is being opposed by","","html-keyboard-response","342","1716724","0.0-19.0-2.4","95926","List1A","black","woman","","","","null","","","","","","","","",""
"7976.999999999767","","","survey-text","343","1724710","0.0-19.0-3.4","95926","List1A","black","woman","","","","","{""Q0"":""ruth is being opposed by Luke""}","<img src=""stim_listA/oppose4.gif""style=""height:400px;""></stim_listA>","is being opposed by","","","","","",""
"null","<div style=""font-size:60px;"">+</div>","","html-keyboard-response","344","1725211","0.0-19.0-0.5","95926","List1A","black","woman","","","","null","","","","","","","","",""
"null","<img src=""stim_listA/hug5.gif""style=""height:400px;""></stim_listA>","","html-keyboard-response","345","1727214","0.0-19.0-1.5","95926","List1A","black","woman","","","","null","","","","","","","","",""
"null","is hugging","","html-keyboard-response","346","1729215","0.0-19.0-2.5","95926","List1A","black","woman","","","","null","","","","","","","","",""
"9038","","","survey-text","347","1738260","0.0-19.0-3.5","95926","List1A","black","woman","","","","","{""Q0"":""fred is hugging Luke ""}","<img src=""stim_listA/hug5.gif""style=""height:400px;""></stim_listA>","is hugging","","","","","",""
"null","<div style=""font-size:60px;"">+</div>","","html-keyboard-response","348","1738763","0.0-19.0-0.6","95926","List1A","black","woman","","","","null","","","","","","","","",""
"null","<img src=""stim_listA/hug7.gif""style=""height:400px;""></stim_listA>","","html-keyboard-response","349","1740766","0.0-19.0-1.6","95926","List1A","black","woman","","","","null","","","","","","","","",""
"null","is hugging","","html-keyboard-response","350","1742769","0.0-19.0-2.6","95926","List1A","black","woman","","","","null","","","","","","","","",""
"10147","","","survey-text","351","1752924","0.0-19.0-3.6","95926","List1A","black","woman","","","","","{""Q0"":""Beth is hugging ruth ""}","<img src=""stim_listA/hug7.gif""style=""height:400px;""></stim_listA>","is hugging","","","","","",""
"null","<div style=""font-size:60px;"">+</div>","","html-keyboard-response","352","1753427","0.0-19.0-0.7","95926","List1A","black","woman","","","","null","","","","","","","","",""
"null","<img src=""stim_listA/kiss6.gif""style=""height:400px;""></stim_listA>","","html-keyboard-response","353","1755430","0.0-19.0-1.7","95926","List1A","black","woman","","","","null","","","","","","","","",""
"null","is being kissed by","","html-keyboard-response","354","1757432","0.0-19.0-2.7","95926","List1A","black","woman","","","","null","","","","","","","","",""
"11156","","","survey-text","355","1768597","0.0-19.0-3.7","95926","List1A","black","woman","","","","","{""Q0"":""Dave is being kissed by Luke""}","<img src=""stim_listA/kiss6.gif""style=""height:400px;""></stim_listA>","is being kissed by","","","","","",""
"null","<div style=""font-size:60px;"">+</div>","","html-keyboard-response","356","1769099","0.0-19.0-0.8","95926","List1A","black","woman","","","","null","","","","","","","","",""
"null","<img src=""stim_listA/kiss1.gif""style=""height:400px;""></stim_listA>","","html-keyboard-response","357","1771101","0.0-19.0-1.8","95926","List1A","black","woman","","","","null","","","","","","","","",""
"null","is kissing","","html-keyboard-response","358","1773104","0.0-19.0-2.8","95926","List1A","black","woman","","","","null","","","","","","","","",""
"13712","","","survey-text","359","1786824","0.0-19.0-3.8","95926","List1A","black","woman","","","","","{""Q0"":""Beth is kissing fred ""}","<img src=""stim_listA/kiss1.gif""style=""height:400px;""></stim_listA>","is kissing","","","","","",""
"null","<div style=""font-size:60px;"">+</div>","","html-keyboard-response","360","1787327","0.0-19.0-0.9","95926","List1A","black","woman","","","","null","","","","","","","","",""
"null","<img src=""stim_listA/greet8.gif""style=""height:400px;""></stim_listA>","","html-keyboard-response","361","1789329","0.0-19.0-1.9","95926","List1A","black","woman","","","","null","","","","","","","","",""
"null","is being greeted by","","html-keyboard-response","362","1791332","0.0-19.0-2.9","95926","List1A","black","woman","","","","null","","","","","","","","",""
"6420","","","survey-text","363","1797759","0.0-19.0-3.9","95926","List1A","black","woman","","","","","{""Q0"":""Beth is being greeted by Jane ""}","<img src=""stim_listA/greet8.gif""style=""height:400px;""></stim_listA>","is being greeted by","","","","","",""
"null","<div style=""font-size:60px;"">+</div>","","html-keyboard-response","364","1798262","0.0-19.0-0.10","95926","List1A","black","woman","","","","null","","","","","","","","",""
"null","<img src=""stim_listA/look2.gif""style=""height:400px;""></stim_listA>","","html-keyboard-response","365","1800264","0.0-19.0-1.10","95926","List1A","black","woman","","","","null","","","","","","","","",""
"null","is being looked at by","","html-keyboard-response","366","1802267","0.0-19.0-2.10","95926","List1A","black","woman","","","","null","","","","","","","","",""
"8659","","","survey-text","367","1810934","0.0-19.0-3.10","95926","List1A","black","woman","","","","","{""Q0"":""Kate is being looked at by mike ""}","<img src=""stim_listA/look2.gif""style=""height:400px;""></stim_listA>","is being looked at by","","","","","",""
"null","<div style=""font-size:60px;"">+</div>","","html-keyboard-response","368","1811437","0.0-19.0-0.11","95926","List1A","black","woman","","","","null","","","","","","","","",""
"null","<img src=""stim_listA/oppose2.gif""style=""height:400px;""></stim_listA>","","html-keyboard-response","369","1813440","0.0-19.0-1.11","95926","List1A","black","woman","","","","null","","","","","","","","",""
"null","is being opposed by","","html-keyboard-response","370","1815442","0.0-19.0-2.11","95926","List1A","black","woman","","","","null","","","","","","","","",""
"6908","","","survey-text","371","1822358","0.0-19.0-3.11","95926","List1A","black","woman","","","","","{""Q0"":""Beth is being opposed by fred ""}","<img src=""stim_listA/oppose2.gif""style=""height:400px;""></stim_listA>","is being opposed by","","","","","",""
"null","<div style=""font-size:60px;"">+</div>","","html-keyboard-response","372","1822861","0.0-19.0-0.12","95926","List1A","black","woman","","","","null","","","","","","","","",""
"null","<img src=""stim_listA/touch6.gif""style=""height:400px;""></stim_listA>","","html-keyboard-response","373","1824863","0.0-19.0-1.12","95926","List1A","black","woman","","","","null","","","","","","","","",""
"null","is being touched by","","html-keyboard-response","374","1826678","0.0-19.0-2.12","95926","List1A","black","woman","","","","null","","","","","","","","",""
"10794.000000000233","","","survey-text","375","1837480","0.0-19.0-3.12","95926","List1A","black","woman","","","","","{""Q0"":""fred is being touched by luke ""}","<img src=""stim_listA/touch6.gif""style=""height:400px;""></stim_listA>","is being touched by","","","","","",""
"null","<div style=""font-size:60px;"">+</div>","","html-keyboard-response","376","1837982","0.0-19.0-0.13","95926","List1A","black","woman","","","","null","","","","","","","","",""
"null","<img src=""stim_listA/kiss3.gif""style=""height:400px;""></stim_listA>","","html-keyboard-response","377","1839984","0.0-19.0-1.13","95926","List1A","black","woman","","","","null","","","","","","","","",""
"null","is kissing","","html-keyboard-response","378","1841986","0.0-19.0-2.13","95926","List1A","black","woman","","","","null","","","","","","","","",""
"11434","","","survey-text","379","1853428","0.0-19.0-3.13","95926","List1A","black","woman","","","","","{""Q0"":""Luke is kissing ruth ""}","<img src=""stim_listA/kiss3.gif""style=""height:400px;""></stim_listA>","is kissing","","","","","",""
"null","<div style=""font-size:60px;"">+</div>","","html-keyboard-response","380","1853930","0.0-19.0-0.14","95926","List1A","black","woman","","","","null","","","","","","","","",""
"null","<img src=""stim_listA/greet7.gif""style=""height:400px;""></stim_listA>","","html-keyboard-response","381","1855932","0.0-19.0-1.14","95926","List1A","black","woman","","","","null","","","","","","","","",""
"null","is greeting","","html-keyboard-response","382","1857934","0.0-19.0-2.14","95926","List1A","black","woman","","","","null","","","","","","","","",""
"4468.000000000233","","","survey-text","383","1862411","0.0-19.0-3.14","95926","List1A","black","woman","","","","","{""Q0"":""Kate is greeting ruth ""}","<img src=""stim_listA/greet7.gif""style=""height:400px;""></stim_listA>","is greeting","","","","","",""
"null","<div style=""font-size:60px;"">+</div>","","html-keyboard-response","384","1862913","0.0-19.0-0.15","95926","List1A","black","woman","","","","null","","","","","","","","",""
"null","<img src=""stim_listA/shout6.gif""style=""height:400px;""></stim_listA>","","html-keyboard-response","385","1864916","0.0-19.0-1.15","95926","List1A","black","woman","","","","null","","","","","","","","",""
"null","is being shouted at by","","html-keyboard-response","386","1866919","0.0-19.0-2.15","95926","List1A","black","woman","","","","null","","","","","","","","",""
"6430","","","survey-text","387","1873355","0.0-19.0-3.15","95926","List1A","black","woman","","","","","{""Q0"":""Dave is being shouted at by mike ""}","<img src=""stim_listA/shout6.gif""style=""height:400px;""></stim_listA>","is being shouted at by","","","","","",""
"null","<div style=""font-size:60px;"">+</div>","","html-keyboard-response","388","1873858","0.0-19.0-0.16","95926","List1A","black","woman","","","","null","","","","","","","","",""
"null","<img src=""stim_listA/seduce5.gif""style=""height:400px;""></stim_listA>","","html-keyboard-response","389","1875861","0.0-19.0-1.16","95926","List1A","black","woman","","","","null","","","","","","","","",""
"null","is seducing","","html-keyboard-response","390","1877863","0.0-19.0-2.16","95926","List1A","black","woman","","","","null","","","","","","","","",""
"5027","","","survey-text","391","1882899","0.0-19.0-3.16","95926","List1A","black","woman","","","","","{""Q0"":""fred is seducing Dave ""}","<img src=""stim_listA/seduce5.gif""style=""height:400px;""></stim_listA>","is seducing","","","","","",""
"null","<div style=""font-size:60px;"">+</div>","","html-keyboard-response","392","1883401","0.0-19.0-0.17","95926","List1A","black","woman","","","","null","","","","","","","","",""
"null","<img src=""stim_listA/shout5.gif""style=""height:400px;""></stim_listA>","","html-keyboard-response","393","1885403","0.0-19.0-1.17","95926","List1A","black","woman","","","","null","","","","","","","","",""
"null","is shouting at","","html-keyboard-response","394","1887406","0.0-19.0-2.17","95926","List1A","black","woman","","","","null","","","","","","","","",""
"8487","","","survey-text","395","1895900","0.0-19.0-3.17","95926","List1A","black","woman","","","","","{""Q0"":""fred is shouting at Luke ""}","<img src=""stim_listA/shout5.gif""style=""height:400px;""></stim_listA>","is shouting at","","","","","",""
"null","<div style=""font-size:60px;"">+</div>","","html-keyboard-response","396","1896403","0.0-19.0-0.18","95926","List1A","black","woman","","","","null","","","","","","","","",""
"null","<img src=""stim_listA/challenge6.gif""style=""height:400px;""></stim_listA>","","html-keyboard-response","397","1898405","0.0-19.0-1.18","95926","List1A","black","woman","","","","null","","","","","","","","",""
"null","is being challenged by","","html-keyboard-response","398","1900408","0.0-19.0-2.18","95926","List1A","black","woman","","","","null","","","","","","","","",""
"17708","","","survey-text","399","1918123","0.0-19.0-3.18","95926","List1A","black","woman","","","","","{""Q0"":""Dave is being challenged by Luke ""}","<img src=""stim_listA/challenge6.gif""style=""height:400px;""></stim_listA>","is being challenged by","","","","","",""
"null","<div style=""font-size:60px;"">+</div>","","html-keyboard-response","400","1918626","0.0-19.0-0.19","95926","List1A","black","woman","","","","null","","","","","","","","",""
"null","<img src=""stim_listA/challenge8.gif""style=""height:400px;""></stim_listA>","","html-keyboard-response","401","1920629","0.0-19.0-1.19","95926","List1A","black","woman","","","","null","","","","","","","","",""
"null","is being challenged by","","html-keyboard-response","402","1922631","0.0-19.0-2.19","95926","List1A","black","woman","","","","null","","","","","","","","",""
"14526.000000000233","","","survey-text","403","1937166","0.0-19.0-3.19","95926","List1A","black","woman","","","","","{""Q0"":""Beth is being challenged by Jane ""}","<img src=""stim_listA/challenge8.gif""style=""height:400px;""></stim_listA>","is being challenged by","","","","","",""
"3822","<p>Thank you for completing that task.</p><p>The final part of this session is a questionnaire that will take about 4 minutes.</p><p>Press Continue.</p>","0","html-button-response","404","1940991","0.0-20.0","95926","List1A","black","woman","","","","","","","","","","","","",""
"45577","","","survey-text","405","1987584","0.0-21.0","95926","List1A","black","woman","","","","","{""Q0"":""26"",""Q1"":""creole"",""Q2"":""English"",""Q3"":""united states "",""Q4"":""haitian "",""Q5"":""black "",""Q6"":""female ""}","","","demographics","","","","",""
"2068","<p>Have you lived in the USA for the last 5 years or more?</p>","0","html-button-response","406","1989653","0.0-22.0","95926","List1A","black","woman","","","","","","","","fiveyears","","","","",""
"2957","<p>Move the slider to show the extent to which you agree with the following statements.</p>","0","html-button-response","407","1993612","0.0-23.0","95926","List1A","black","woman","","","","","","","","","","","","",""
"6700","","","html-slider-response","408","2001315","0.0-24.0-0.0-0.0","95926","List1A","black","woman","","","","","","","","survey_race","88","","","People of my race have a lot in common with each other.","common"
"11948","","","html-slider-response","409","2013266","0.0-24.0-0.0-0.1","95926","List1A","black","woman","","","","","","","","survey_race","77","","","I consider myself an extrovert.","filler"
"5408","","","html-slider-response","410","2018676","0.0-24.0-0.0-0.2","95926","List1A","black","woman","","","","","","","","survey_race","31","","","Being my age gives me a good feeling.","filler"
"4679.999999999767","","","html-slider-response","411","2023361","0.0-24.0-0.0-0.3","95926","List1A","black","woman","","","","","","","","survey_race","8","","","I feel a bond with people the same age as me.","filler"
"5047","","","html-slider-response","412","2028412","0.0-24.0-0.0-0.4","95926","List1A","black","woman","","","","","","","","survey_race","87","","","I feel solidarity with my race.","solidarity"
"3008","","","html-slider-response","413","2031422","0.0-24.0-0.0-0.5","95926","List1A","black","woman","","","","","","","","survey_race","100","","","I feel committed to my race.","committed"
"3864","","","html-slider-response","414","2035289","0.0-24.0-0.0-0.6","95926","List1A","black","woman","","","","","","","","survey_race","21","","","I consider myself an introvert.","filler"
"2852.000000000233","","","html-slider-response","415","2038146","0.0-24.0-0.0-0.7","95926","List1A","black","woman","","","","","","","","survey_race","100","","","I feel a bond with my race.","bond"
"3389.999999999767","","","html-slider-response","416","2041540","0.0-24.0-0.0-0.8","95926","List1A","black","woman","","","","","","","","survey_race","0","","","I am glad to be the age I am.","filler"
"4990.000000000233","","","html-slider-response","417","2046533","0.0-24.0-0.0-0.9","95926","List1A","black","woman","","","","","","","","survey_race","79","","","I have a lot in common with the average person of my race.","average"
"5129","","","html-slider-response","418","2051666","0.0-24.0-0.0-0.10","95926","List1A","black","woman","","","","","","","","survey_race","78","","","I often think about the fact that I am my age.","filler"
"7183","","","html-slider-response","419","2058853","0.0-24.0-0.0-0.11","95926","List1A","black","woman","","","","","","","","survey_race","98","","","It is pleasant to be my race.","pleasant"
"7920.999999999767","","","html-slider-response","420","2066776","0.0-24.0-0.0-0.12","95926","List1A","black","woman","","","","","","","","survey_race","2","","","I often think about the fact that I am my race.","often"
"3875.999999999767","","","html-slider-response","421","2070654","0.0-24.0-0.0-0.13","95926","List1A","black","woman","","","","","","","","survey_race","100","","","Being my race is an important part of how I see myself.","important"
"4449.000000000233","","","html-slider-response","422","2075107","0.0-24.0-0.0-0.14","95926","List1A","black","woman","","","","","","","","survey_race","91","","","I am similar to the average person of my race.","similar"
"4072","","","html-slider-response","423","2079182","0.0-24.0-0.0-0.15","95926","List1A","black","woman","","","","","","","","survey_race","24","","","I have a lot in common with people of a similar age to me.","filler"
"4018","","","html-slider-response","424","2083204","0.0-24.0-0.0-0.16","95926","List1A","black","woman","","","","","","","","survey_race","84","","","The older I get, the wiser I feel.","filler"
"6033","","","html-slider-response","425","2089239","0.0-24.0-0.0-0.17","95926","List1A","black","woman","","","","","","","","survey_race","2","","","I am glad to be my age.","filler"
"2950","","","html-slider-response","426","2092193","0.0-24.0-0.0-0.18","95926","List1A","black","woman","","","","","","","","survey_race","100","","","I am glad to be my race.","glad"
"3120","","","html-slider-response","427","2095317","0.0-24.0-0.0-0.19","95926","List1A","black","woman","","","","","","","","survey_race","100","","","Being my race gives me a good feeling.","feeling"
"3147","","","html-slider-response","428","2098466","0.0-24.0-0.0-0.20","95926","List1A","black","woman","","","","","","","","survey_race","29","","","I feel solidarity with people the same age as me.","filler"
"3621.9999999995343","","","html-slider-response","429","2102090","0.0-24.0-0.0-0.21","95926","List1A","black","woman","","","","","","","","survey_race","100","","","The fact that I am my race is an important part of my identity.","identity"
"3523","","","html-slider-response","430","2105619","0.0-24.0-0.0-0.22","95926","List1A","black","woman","","","","","","","","survey_race","21","","","Getting older does not worry me.","filler"
"3183","","","html-slider-response","431","2108804","0.0-24.0-0.0-0.23","95926","List1A","black","woman","","","","","","","","survey_race","76","","","People of my race are very similar to each other.","verysimilar"
"3092","","","html-slider-response","432","2111897","0.0-24.0-0.0-0.24","95926","List1A","black","woman","","","","","","","","survey_race","89","","","I think that my race has a lot to be proud of.","proud"
"6164","","","html-slider-response","433","2118065","0.0-24.0-0.0-0.25","95926","List1A","black","woman","","","","","","","","survey_race","74","","","My age is not an important part of who I am.","filler"
"3482","","","html-slider-response","434","2121548","0.0-24.0-0.0-0.26","95926","List1A","black","woman","","","","","","","","survey_race","38","","","People my age have a lot in common with each other.","filler"
"3287","","","html-slider-response","435","2124837","0.0-24.0-0.0-0.27","95926","List1A","black","woman","","","","","","","","survey_race","88","","","I enjoy being in large groups.","filler"
"5527.999999999534","","","html-slider-response","436","2130369","0.0-24.0-1.0-0.0","95926","List1A","black","woman","","","","","","","","survey_gender","20","","","I often think about the fact that I am my gender.","often"
"3023","","","html-slider-response","437","2133396","0.0-24.0-1.0-0.1","95926","List1A","black","woman","","","","","","","","survey_gender","39","","","I have a lot in common with my friends.","filler"
"2688","","","html-slider-response","438","2136086","0.0-24.0-1.0-0.2","95926","List1A","black","woman","","","","","","","","survey_gender","63","","","I am glad to be my gender.","glad"
"4042","","","html-slider-response","439","2140129","0.0-24.0-1.0-0.3","95926","List1A","black","woman","","","","","","","","survey_gender","70","","","I think that my gender has a lot to be proud of.","proud"
"3526","","","html-slider-response","440","2143659","0.0-24.0-1.0-0.4","95926","List1A","black","woman","","","","","","","","survey_gender","59","","","I feel solidarity with my friends.","filler"
"3687","","","html-slider-response","441","2147348","0.0-24.0-1.0-0.5","95926","List1A","black","woman","","","","","","","","survey_gender","59","","","It is pleasant to be my gender.","pleasant"
"3005","","","html-slider-response","442","2150358","0.0-24.0-1.0-0.6","95926","List1A","black","woman","","","","","","","","survey_gender","21","","","I would say I am an animal person.","filler"
"2935.9999999995343","","","html-slider-response","443","2153296","0.0-24.0-1.0-0.7","95926","List1A","black","woman","","","","","","","","survey_gender","61","","","My friends understand me.","filler"
"3389","","","html-slider-response","444","2156690","0.0-24.0-1.0-0.8","95926","List1A","black","woman","","","","","","","","survey_gender","71","","","Being around my friends gives me a good feeling.","filler"
"5476","","","html-slider-response","445","2162170","0.0-24.0-1.0-0.9","95926","List1A","black","woman","","","","","","","","survey_gender","64","","","I have a lot in common with the average person of my gender.","average"
"3932","","","html-slider-response","446","2166104","0.0-24.0-1.0-0.10","95926","List1A","black","woman","","","","","","","","survey_gender","83","","","I feel a bond with my gender.","bond"
"5074","","","html-slider-response","447","2171178","0.0-24.0-1.0-0.11","95926","List1A","black","woman","","","","","","","","survey_gender","26","","","It is not always easy for people to know what I am thinking.","filler"
"4283","","","html-slider-response","448","2175465","0.0-24.0-1.0-0.12","95926","List1A","black","woman","","","","","","","","survey_gender","37","","","Most of the friends in my life are very similar to me.","filler"
"6304","","","html-slider-response","449","2181772","0.0-24.0-1.0-0.13","95926","List1A","black","woman","","","","","","","","survey_gender","37","","","People of my gender are very similar to each other.","verysimilar"
"3334","","","html-slider-response","450","2185113","0.0-24.0-1.0-0.14","95926","List1A","black","woman","","","","","","","","survey_gender","38","","","I am similar to the average person of my gender.","similar"
"3388","","","html-slider-response","451","2188503","0.0-24.0-1.0-0.15","95926","List1A","black","woman","","","","","","","","survey_gender","95","","","I am glad to have the friends that I have.","filler"
"6728","","","html-slider-response","452","2195235","0.0-24.0-1.0-0.16","95926","List1A","black","woman","","","","","","","","survey_gender","85","","","The fact that I am my gender is an important part of my identity.","identity"
"3408","","","html-slider-response","453","2198644","0.0-24.0-1.0-0.17","95926","List1A","black","woman","","","","","","","","survey_gender","81","","","I consider myself a highly empathetic person.","filler"
"7041","","","html-slider-response","454","2205687","0.0-24.0-1.0-0.18","95926","List1A","black","woman","","","","","","","","survey_gender","39","","","My friends have a lot in common with each other.","filler"
"3382","","","html-slider-response","455","2209072","0.0-24.0-1.0-0.19","95926","List1A","black","woman","","","","","","","","survey_gender","6","","","Routine is not important to me.","filler"
"6743","","","html-slider-response","456","2215819","0.0-24.0-1.0-0.20","95926","List1A","black","woman","","","","","","","","survey_gender","61","","","People of my gender have a lot in common with each other.","common"
"5391","","","html-slider-response","457","2221213","0.0-24.0-1.0-0.21","95926","List1A","black","woman","","","","","","","","survey_gender","67","","","I feel committed to my gender.","committed"
"3320","","","html-slider-response","458","2224533","0.0-24.0-1.0-0.22","95926","List1A","black","woman","","","","","","","","survey_gender","64","","","Being my gender gives me a good feeling.","feeling"
"5956","","","html-slider-response","459","2230491","0.0-24.0-1.0-0.23","95926","List1A","black","woman","","","","","","","","survey_gender","47","","","Family is not more important to me than friendship.","filler"
"3798","","","html-slider-response","460","2234292","0.0-24.0-1.0-0.24","95926","List1A","black","woman","","","","","","","","survey_gender","60","","","I feel solidarity with my gender.","solidarity"
"3000","","","html-slider-response","461","2237295","0.0-24.0-1.0-0.25","95926","List1A","black","woman","","","","","","","","survey_gender","64","","","I feel a bond with my friends.","filler"
"3059.9999999995343","","","html-slider-response","462","2240356","0.0-24.0-1.0-0.26","95926","List1A","black","woman","","","","","","","","survey_gender","69","","","I often think about my actions.","filler"
"20556","","","html-slider-response","463","2260912","0.0-24.0-1.0-0.27","95926","List1A","black","woman","","","","","","","","survey_gender","60","","","Being my gender is an important part of how I see myself.","important"
"10313","","","survey-text","464","2271236","0.0-25.0","95926","List1A","black","woman","","","","","{""Q0"":""60e156dc1ca28c07739f0cb3""}","","","worker_id","","","","",""
"37365","","","external-html","465","2308961","0.0-26.0","95926","List1A","black","woman","debrief.html","","","","","","","","","","","",""
