"rt","stimulus","button_pressed","trial_type","trial_index","time_elapsed","internal_node_id","subject","list","ppt_race","ppt_gender","url","first_guess","correct","key_press","responses","image_type","phrase_type","test_part","response","stimulus1","stimulus2","question_type","survey_item"
"6290.89999999851","Welcome to the experiment. Press Continue to begin.","0","html-button-response","0","6294","0.0-0.0","95946","List2B","white","man","","","","","","","","","","","","",""
"11914.39999999851","","","external-html","1","19603","0.0-1.0","95946","List2B","white","man","consent.html","","","","","","","","","","","",""
"11760.60000000149","<p>On the next page, you will see portraits of 8 people and their names.</p><p>Your first task is to take a few minutes to memorise the names of these people.</p><p>You will have to recall their names during the rest of the experiment, so it is</p><p>essential that you try to memorise these people and their names as best as you can.</p><br><p><strong>You will then be tested on your memory of these names and portraits.</strong></p><br><p>The experiment will start after you have completed this memory test.</p><br><p>Ready?</p>","0","html-button-response","2","31366","0.0-2.0","95946","List2B","white","man","","","","","","","","","","","","",""
"59292.300000000745","<img src='img/portrait_matrix_list2.jpg' style='width:900px;height:500px;''></img><p>If you have memorised all the portraits and names and are ready to start, press Continue.</p><p><strong>Please note: Your memory of these faces will be tested 4 times during this experiment.</strong></p>","0","html-button-response","3","91663","0.0-3.0-0.0","95946","List2B","white","man","","","","","","","","","","","","",""
"2995.60000000149","<img src=""portrait/WM2.jpg""style=""height:400px;""></img>","7","html-button-response","4","95667","0.0-3.0-1.0","95946","List2B","white","man","","true","7","","","","","","","","","",""
"null","CORRECT","","html-keyboard-response","5","97181","0.0-3.0-2.0-0.0","95946","List2B","white","man","","","","null","","","","","","","","",""
"3813","<img src=""portrait/BM1.jpg""style=""height:400px;""></img>","4","html-button-response","6","100997","0.0-3.0-4.0","95946","List2B","white","man","","true","4","","","","","","","","","",""
"null","CORRECT","","html-keyboard-response","7","102508","0.0-3.0-5.0-0.0","95946","List2B","white","man","","","","null","","","","","","","","",""
"2898.39999999851","<img src=""portrait/WM1.jpg""style=""height:400px;""></img>","6","html-button-response","8","105409","0.0-3.0-7.0","95946","List2B","white","man","","true","6","","","","","","","","","",""
"null","CORRECT","","html-keyboard-response","9","106919","0.0-3.0-8.0-0.0","95946","List2B","white","man","","","","null","","","","","","","","",""
"3769.800000000745","<img src=""portrait/BW2.jpg""style=""height:400px;""></img>","2","html-button-response","10","110691","0.0-3.0-10.0","95946","List2B","white","man","","true","2","","","","","","","","","",""
"null","CORRECT","","html-keyboard-response","11","112199","0.0-3.0-11.0-0.0","95946","List2B","white","man","","","","null","","","","","","","","",""
"8305.400000002235","<img src=""portrait/BW1.jpg""style=""height:400px;""></img>","0","html-button-response","12","120507","0.0-3.0-13.0","95946","List2B","white","man","","true","0","","","","","","","","","",""
"null","CORRECT","","html-keyboard-response","13","122013","0.0-3.0-14.0-0.0","95946","List2B","white","man","","","","null","","","","","","","","",""
"2454.699999999255","<img src=""portrait/WW2.jpg""style=""height:400px;""></img>","3","html-button-response","14","124470","0.0-3.0-16.0","95946","List2B","white","man","","true","3","","","","","","","","","",""
"null","CORRECT","","html-keyboard-response","15","125975","0.0-3.0-17.0-0.0","95946","List2B","white","man","","","","null","","","","","","","","",""
"1877.5999999977648","<img src=""portrait/BM2.jpg""style=""height:400px;""></img>","5","html-button-response","16","127855","0.0-3.0-19.0","95946","List2B","white","man","","true","5","","","","","","","","","",""
"null","CORRECT","","html-keyboard-response","17","129362","0.0-3.0-20.0-0.0","95946","List2B","white","man","","","","null","","","","","","","","",""
"3774.5","<img src=""portrait/WW1.jpg""style=""height:400px;""></img>","1","html-button-response","18","133139","0.0-3.0-22.0","95946","List2B","white","man","","true","1","","","","","","","","","",""
"null","CORRECT","","html-keyboard-response","19","134641","0.0-3.0-23.0-0.0","95946","List2B","white","man","","","","null","","","","","","","","",""
"1219.800000000745","<p>You got 8 out of 8 right first time. Press Continue.</p>","0","html-button-response","20","135863","0.0-3.0-25.0","95946","List2B","white","man","","","","","","","","","","","","",""
"22395.300000000745","<p>In this experiment, you will view photographs of the people from the memory game interacting.</p><p>By using the <strong>exact</strong> phrase given <i>after</i> the photograph appears and recalling the correct names of the people in the photographs, form a sentence describing the interaction. You do not need to capitalise names.</p><p>Type your answer in the space provided. Please complete every sentence before moving onto the next trial.</p><p>You will only have a few seconds to memorise each given photograph and phrase before you can respond, so try your best to focus.</p><p>An example is given below. Press 'Continue' when you are ready.</p><img src='img/speaking_example.jpg' style='width:800px;height:460px;''></img>","0","html-button-response","21","159264","0.0-4.0","95946","List2B","white","man","","","","","","","","","","","","",""
"2088","<p>Before the experiment starts, you will watch two example trials. Press 'Continue'.</p>","0","html-button-response","22","162358","0.0-5.0","95946","List2B","white","man","","","","","","","","","","","","",""
"null","<img src='img/play_eg.gif' style='height:400px;''></img>","","html-keyboard-response","23","165367","0.0-6.0","95946","List2B","white","man","","","","null","","","","","","","","",""
"null","<p>is playing with</p>","","html-keyboard-response","24","167373","0.0-7.0","95946","List2B","white","man","","","","null","","","","","","","","",""
"2308.300000000745","<p><b>Answer:</b> jane is playing with ruth</p>","0","html-button-response","25","169683","0.0-8.0","95946","List2B","white","man","","","","","","","","","","","","",""
"null","<img src='img/dance_eg.gif' style='height:400px;''></img>","","html-keyboard-response","26","172695","0.0-9.0","95946","List2B","white","man","","","","null","","","","","","","","",""
"null","<p>is being entertained by</p>","","html-keyboard-response","27","174700","0.0-10.0","95946","List2B","white","man","","","","null","","","","","","","","",""
"3505.300000000745","<p><b>Answer:</b> fred is being entertained by mike</p>","0","html-button-response","28","178208","0.0-11.0","95946","List2B","white","man","","","","","","","","","","","","",""
"45821.300000000745","<p>Ready to start the experiment?</p><br><p><strong>Remember to describe the picture using a full sentence,</strong></p><p><strong>that combines the names of the people with the <i>exact</i> phrase given.</strong></p><p><strong>To receive full payment you must do this correctly.</strong></p><p><strong> You do not need to capitalise names or use punctuation.</strong></p><br><p>Press 'Continue' to begin.</p>","0","html-button-response","29","225035","0.0-12.0","95946","List2B","white","man","","","","","","","","","","","","",""
"null","<div style=""font-size:60px;"">+</div>","","html-keyboard-response","30","226540","0.0-13.0-0.0","95946","List2B","white","man","","","","null","","","","","","","","",""
"null","<img src=""stim_listB/seduce1.gif""style=""height:400px;""></stim_listB>","","html-keyboard-response","31","228545","0.0-13.0-1.0","95946","List2B","white","man","","","","null","","","","","","","","",""
"null","is seducing","","html-keyboard-response","32","230546","0.0-13.0-2.0","95946","List2B","white","man","","","","null","","","","","","","","",""
"3037.099999997765","","","survey-text","33","233588","0.0-13.0-3.0","95946","List2B","white","man","","","","","{""Q0"":""luke""}","<img src=""stim_listB/seduce1.gif""style=""height:400px;""></stim_listB>","is seducing","","","","","",""
"null","<div style=""font-size:60px;"">+</div>","","html-keyboard-response","34","234090","0.0-13.0-0.1","95946","List2B","white","man","","","","null","","","","","","","","",""
"null","<img src=""stim_listB/copy6.gif""style=""height:400px;""></stim_listB>","","html-keyboard-response","35","236097","0.0-13.0-1.1","95946","List2B","white","man","","","","null","","","","","","","","",""
"null","is being copied by","","html-keyboard-response","36","238099","0.0-13.0-2.1","95946","List2B","white","man","","","","null","","","","","","","","",""
"4855.60000000149","","","survey-text","37","242957","0.0-13.0-3.1","95946","List2B","white","man","","","","","{""Q0"":""mike luke""}","<img src=""stim_listB/copy6.gif""style=""height:400px;""></stim_listB>","is being copied by","","","","","",""
"null","<div style=""font-size:60px;"">+</div>","","html-keyboard-response","38","243458","0.0-13.0-0.2","95946","List2B","white","man","","","","null","","","","","","","","",""
"null","<img src=""stim_listB/touch2.gif""style=""height:400px;""></stim_listB>","","html-keyboard-response","39","245462","0.0-13.0-1.2","95946","List2B","white","man","","","","null","","","","","","","","",""
"null","is being touched by","","html-keyboard-response","40","247467","0.0-13.0-2.2","95946","List2B","white","man","","","","null","","","","","","","","",""
"4089.60000000149","","","survey-text","41","251561","0.0-13.0-3.2","95946","List2B","white","man","","","","","{""Q0"":""luke ruth""}","<img src=""stim_listB/touch2.gif""style=""height:400px;""></stim_listB>","is being touched by","","","","","",""
"null","<div style=""font-size:60px;"">+</div>","","html-keyboard-response","42","252063","0.0-13.0-0.3","95946","List2B","white","man","","","","null","","","","","","","","",""
"null","<img src=""stim_listB/kiss1.gif""style=""height:400px;""></stim_listB>","","html-keyboard-response","43","254070","0.0-13.0-1.3","95946","List2B","white","man","","","","null","","","","","","","","",""
"null","is kissing","","html-keyboard-response","44","256075","0.0-13.0-2.3","95946","List2B","white","man","","","","null","","","","","","","","",""
"2660.5","","","survey-text","45","258737","0.0-13.0-3.3","95946","List2B","white","man","","","","","{""Q0"":""luke ruth""}","<img src=""stim_listB/kiss1.gif""style=""height:400px;""></stim_listB>","is kissing","","","","","",""
"null","<div style=""font-size:60px;"">+</div>","","html-keyboard-response","46","259239","0.0-13.0-0.4","95946","List2B","white","man","","","","null","","","","","","","","",""
"null","<img src=""stim_listB/shout6.gif""style=""height:400px;""></stim_listB>","","html-keyboard-response","47","261244","0.0-13.0-1.4","95946","List2B","white","man","","","","null","","","","","","","","",""
"null","is being shouted at by","","html-keyboard-response","48","263249","0.0-13.0-2.4","95946","List2B","white","man","","","","null","","","","","","","","",""
"3188.300000000745","","","survey-text","49","266441","0.0-13.0-3.4","95946","List2B","white","man","","","","","{""Q0"":""dave mike""}","<img src=""stim_listB/shout6.gif""style=""height:400px;""></stim_listB>","is being shouted at by","","","","","",""
"null","<div style=""font-size:60px;"">+</div>","","html-keyboard-response","50","266945","0.0-13.0-0.5","95946","List2B","white","man","","","","null","","","","","","","","",""
"null","<img src=""stim_listB/shout5.gif""style=""height:400px;""></stim_listB>","","html-keyboard-response","51","268951","0.0-13.0-1.5","95946","List2B","white","man","","","","null","","","","","","","","",""
"null","is shouting at","","html-keyboard-response","52","270955","0.0-13.0-2.5","95946","List2B","white","man","","","","null","","","","","","","","",""
"1794.800000000745","","","survey-text","53","272754","0.0-13.0-3.5","95946","List2B","white","man","","","","","{""Q0"":""fred luke""}","<img src=""stim_listB/shout5.gif""style=""height:400px;""></stim_listB>","is shouting at","","","","","",""
"null","<div style=""font-size:60px;"">+</div>","","html-keyboard-response","54","273256","0.0-13.0-0.6","95946","List2B","white","man","","","","null","","","","","","","","",""
"null","<img src=""stim_listB/touch4.gif""style=""height:400px;""></stim_listB>","","html-keyboard-response","55","275258","0.0-13.0-1.6","95946","List2B","white","man","","","","null","","","","","","","","",""
"null","is being touched by","","html-keyboard-response","56","277263","0.0-13.0-2.6","95946","List2B","white","man","","","","null","","","","","","","","",""
"2537.199999999255","","","survey-text","57","279803","0.0-13.0-3.6","95946","List2B","white","man","","","","","{""Q0"":""kate fred""}","<img src=""stim_listB/touch4.gif""style=""height:400px;""></stim_listB>","is being touched by","","","","","",""
"null","<div style=""font-size:60px;"">+</div>","","html-keyboard-response","58","280305","0.0-13.0-0.7","95946","List2B","white","man","","","","null","","","","","","","","",""
"null","<img src=""stim_listB/challenge1.gif""style=""height:400px;""></stim_listB>","","html-keyboard-response","59","282310","0.0-13.0-1.7","95946","List2B","white","man","","","","null","","","","","","","","",""
"null","is challenging","","html-keyboard-response","60","284315","0.0-13.0-2.7","95946","List2B","white","man","","","","null","","","","","","","","",""
"3066.7000000029802","","","survey-text","61","287387","0.0-13.0-3.7","95946","List2B","white","man","","","","","{""Q0"":""dave ruth""}","<img src=""stim_listB/challenge1.gif""style=""height:400px;""></stim_listB>","is challenging","","","","","",""
"null","<div style=""font-size:60px;"">+</div>","","html-keyboard-response","62","287889","0.0-13.0-0.8","95946","List2B","white","man","","","","null","","","","","","","","",""
"null","<img src=""stim_listB/seduce2.gif""style=""height:400px;""></stim_listB>","","html-keyboard-response","63","289894","0.0-13.0-1.8","95946","List2B","white","man","","","","null","","","","","","","","",""
"null","is being seduced by","","html-keyboard-response","64","291900","0.0-13.0-2.8","95946","List2B","white","man","","","","null","","","","","","","","",""
"2972.39999999851","","","survey-text","65","294876","0.0-13.0-3.8","95946","List2B","white","man","","","","","{""Q0"":""dave ruth""}","<img src=""stim_listB/seduce2.gif""style=""height:400px;""></stim_listB>","is being seduced by","","","","","",""
"null","<div style=""font-size:60px;"">+</div>","","html-keyboard-response","66","295378","0.0-13.0-0.9","95946","List2B","white","man","","","","null","","","","","","","","",""
"null","<img src=""stim_listB/challenge6.gif""style=""height:400px;""></stim_listB>","","html-keyboard-response","67","297383","0.0-13.0-1.9","95946","List2B","white","man","","","","null","","","","","","","","",""
"null","is being challenged by","","html-keyboard-response","68","299391","0.0-13.0-2.9","95946","List2B","white","man","","","","null","","","","","","","","",""
"1895","","","survey-text","69","301290","0.0-13.0-3.9","95946","List2B","white","man","","","","","{""Q0"":""mike luke""}","<img src=""stim_listB/challenge6.gif""style=""height:400px;""></stim_listB>","is being challenged by","","","","","",""
"null","<div style=""font-size:60px;"">+</div>","","html-keyboard-response","70","301793","0.0-13.0-0.10","95946","List2B","white","man","","","","null","","","","","","","","",""
"null","<img src=""stim_listB/seduce8.gif""style=""height:400px;""></stim_listB>","","html-keyboard-response","71","303800","0.0-13.0-1.10","95946","List2B","white","man","","","","null","","","","","","","","",""
"null","is being seduced by","","html-keyboard-response","72","305803","0.0-13.0-2.10","95946","List2B","white","man","","","","null","","","","","","","","",""
"1368.3999999985099","","","survey-text","73","307176","0.0-13.0-3.10","95946","List2B","white","man","","","","","{""Q0"":""kate jane""}","<img src=""stim_listB/seduce8.gif""style=""height:400px;""></stim_listB>","is being seduced by","","","","","",""
"null","<div style=""font-size:60px;"">+</div>","","html-keyboard-response","74","307678","0.0-13.0-0.11","95946","List2B","white","man","","","","null","","","","","","","","",""
"null","<img src=""stim_listB/hug7.gif""style=""height:400px;""></stim_listB>","","html-keyboard-response","75","309684","0.0-13.0-1.11","95946","List2B","white","man","","","","null","","","","","","","","",""
"null","is hugging","","html-keyboard-response","76","311690","0.0-13.0-2.11","95946","List2B","white","man","","","","null","","","","","","","","",""
"3387","","","survey-text","77","315080","0.0-13.0-3.11","95946","List2B","white","man","","","","","{""Q0"":""kate ruth""}","<img src=""stim_listB/hug7.gif""style=""height:400px;""></stim_listB>","is hugging","","","","","",""
"null","<div style=""font-size:60px;"">+</div>","","html-keyboard-response","78","315583","0.0-13.0-0.12","95946","List2B","white","man","","","","null","","","","","","","","",""
"null","<img src=""stim_listB/greet2.gif""style=""height:400px;""></stim_listB>","","html-keyboard-response","79","317590","0.0-13.0-1.12","95946","List2B","white","man","","","","null","","","","","","","","",""
"null","is being greeted by","","html-keyboard-response","80","319595","0.0-13.0-2.12","95946","List2B","white","man","","","","null","","","","","","","","",""
"1358.199999999255","","","survey-text","81","320958","0.0-13.0-3.12","95946","List2B","white","man","","","","","{""Q0"":""jane luke""}","<img src=""stim_listB/greet2.gif""style=""height:400px;""></stim_listB>","is being greeted by","","","","","",""
"null","<div style=""font-size:60px;"">+</div>","","html-keyboard-response","82","321460","0.0-13.0-0.13","95946","List2B","white","man","","","","null","","","","","","","","",""
"null","<img src=""stim_listB/look3.gif""style=""height:400px;""></stim_listB>","","html-keyboard-response","83","323462","0.0-13.0-1.13","95946","List2B","white","man","","","","null","","","","","","","","",""
"null","is looking at","","html-keyboard-response","84","325467","0.0-13.0-2.13","95946","List2B","white","man","","","","null","","","","","","","","",""
"1453.300000000745","","","survey-text","85","326924","0.0-13.0-3.13","95946","List2B","white","man","","","","","{""Q0"":""kate fred""}","<img src=""stim_listB/look3.gif""style=""height:400px;""></stim_listB>","is looking at","","","","","",""
"null","<div style=""font-size:60px;"">+</div>","","html-keyboard-response","86","327426","0.0-13.0-0.14","95946","List2B","white","man","","","","null","","","","","","","","",""
"null","<img src=""stim_listB/seduce3.gif""style=""height:400px;""></stim_listB>","","html-keyboard-response","87","329429","0.0-13.0-1.14","95946","List2B","white","man","","","","null","","","","","","","","",""
"null","is seducing","","html-keyboard-response","88","331435","0.0-13.0-2.14","95946","List2B","white","man","","","","null","","","","","","","","",""
"1414.5","","","survey-text","89","332853","0.0-13.0-3.14","95946","List2B","white","man","","","","","{""Q0"":""beth fred""}","<img src=""stim_listB/seduce3.gif""style=""height:400px;""></stim_listB>","is seducing","","","","","",""
"null","<div style=""font-size:60px;"">+</div>","","html-keyboard-response","90","333355","0.0-13.0-0.15","95946","List2B","white","man","","","","null","","","","","","","","",""
"null","<img src=""stim_listB/shout1.gif""style=""height:400px;""></stim_listB>","","html-keyboard-response","91","335361","0.0-13.0-1.15","95946","List2B","white","man","","","","null","","","","","","","","",""
"null","is shouting at","","html-keyboard-response","92","337366","0.0-13.0-2.15","95946","List2B","white","man","","","","null","","","","","","","","",""
"1412.800000000745","","","survey-text","93","338784","0.0-13.0-3.15","95946","List2B","white","man","","","","","{""Q0"":""ruth luke""}","<img src=""stim_listB/shout1.gif""style=""height:400px;""></stim_listB>","is shouting at","","","","","",""
"null","<div style=""font-size:60px;"">+</div>","","html-keyboard-response","94","339285","0.0-13.0-0.16","95946","List2B","white","man","","","","null","","","","","","","","",""
"null","<img src=""stim_listB/challenge3.gif""style=""height:400px;""></stim_listB>","","html-keyboard-response","95","341291","0.0-13.0-1.16","95946","List2B","white","man","","","","null","","","","","","","","",""
"null","is challenging","","html-keyboard-response","96","343296","0.0-13.0-2.16","95946","List2B","white","man","","","","null","","","","","","","","",""
"2099.699999999255","","","survey-text","97","345399","0.0-13.0-3.16","95946","List2B","white","man","","","","","{""Q0"":""mike kate""}","<img src=""stim_listB/challenge3.gif""style=""height:400px;""></stim_listB>","is challenging","","","","","",""
"null","<div style=""font-size:60px;"">+</div>","","html-keyboard-response","98","345902","0.0-13.0-0.17","95946","List2B","white","man","","","","null","","","","","","","","",""
"null","<img src=""stim_listB/look6.gif""style=""height:400px;""></stim_listB>","","html-keyboard-response","99","347905","0.0-13.0-1.17","95946","List2B","white","man","","","","null","","","","","","","","",""
"null","is being looked at by","","html-keyboard-response","100","349910","0.0-13.0-2.17","95946","List2B","white","man","","","","null","","","","","","","","",""
"1761.3999999985099","","","survey-text","101","351676","0.0-13.0-3.17","95946","List2B","white","man","","","","","{""Q0"":""mike dave""}","<img src=""stim_listB/look6.gif""style=""height:400px;""></stim_listB>","is being looked at by","","","","","",""
"null","<div style=""font-size:60px;"">+</div>","","html-keyboard-response","102","352177","0.0-13.0-0.18","95946","List2B","white","man","","","","null","","","","","","","","",""
"null","<img src=""stim_listB/look7.gif""style=""height:400px;""></stim_listB>","","html-keyboard-response","103","354181","0.0-13.0-1.18","95946","List2B","white","man","","","","null","","","","","","","","",""
"null","is looking at","","html-keyboard-response","104","356187","0.0-13.0-2.18","95946","List2B","white","man","","","","null","","","","","","","","",""
"1183.9000000022352","","","survey-text","105","357374","0.0-13.0-3.18","95946","List2B","white","man","","","","","{""Q0"":""ruth kate""}","<img src=""stim_listB/look7.gif""style=""height:400px;""></stim_listB>","is looking at","","","","","",""
"null","<div style=""font-size:60px;"">+</div>","","html-keyboard-response","106","357877","0.0-13.0-0.19","95946","List2B","white","man","","","","null","","","","","","","","",""
"null","<img src=""stim_listB/oppose7.gif""style=""height:400px;""></stim_listB>","","html-keyboard-response","107","359883","0.0-13.0-1.19","95946","List2B","white","man","","","","null","","","","","","","","",""
"null","is opposing","","html-keyboard-response","108","361888","0.0-13.0-2.19","95946","List2B","white","man","","","","null","","","","","","","","",""
"2643.800000000745","","","survey-text","109","364536","0.0-13.0-3.19","95946","List2B","white","man","","","","","{""Q0"":""jane beth""}","<img src=""stim_listB/oppose7.gif""style=""height:400px;""></stim_listB>","is opposing","","","","","",""
"19285.5","<img src='img/portrait_matrix_list2.jpg' style='width:900px;height:500px;''></img><p>If you have memorised all the portraits and names and are ready to start, press Continue.</p><p><strong>Please note: Your memory of these faces will be tested 4 times during this experiment.</strong></p>","0","html-button-response","110","383823","0.0-14.0-0.0","95946","List2B","white","man","","","","","","","","","","","","",""
"2783.199999999255","<img src=""portrait/BM1.jpg""style=""height:400px;""></img>","4","html-button-response","111","387612","0.0-14.0-1.0","95946","List2B","white","man","","true","4","","","","","","","","","",""
"null","CORRECT","","html-keyboard-response","112","389120","0.0-14.0-2.0-0.0","95946","List2B","white","man","","","","null","","","","","","","","",""
"8286.60000000149","<img src=""portrait/BW2.jpg""style=""height:400px;""></img>","2","html-button-response","113","397410","0.0-14.0-4.0","95946","List2B","white","man","","true","2","","","","","","","","","",""
"null","CORRECT","","html-keyboard-response","114","398918","0.0-14.0-5.0-0.0","95946","List2B","white","man","","","","null","","","","","","","","",""
"2599.60000000149","<img src=""portrait/BW1.jpg""style=""height:400px;""></img>","0","html-button-response","115","401520","0.0-14.0-7.0","95946","List2B","white","man","","true","0","","","","","","","","","",""
"null","CORRECT","","html-keyboard-response","116","403029","0.0-14.0-8.0-0.0","95946","List2B","white","man","","","","null","","","","","","","","",""
"1611.800000000745","<img src=""portrait/WW2.jpg""style=""height:400px;""></img>","3","html-button-response","117","404644","0.0-14.0-10.0","95946","List2B","white","man","","true","3","","","","","","","","","",""
"null","CORRECT","","html-keyboard-response","118","406152","0.0-14.0-11.0-0.0","95946","List2B","white","man","","","","null","","","","","","","","",""
"1853.0999999977648","<img src=""portrait/WM2.jpg""style=""height:400px;""></img>","7","html-button-response","119","408008","0.0-14.0-13.0","95946","List2B","white","man","","true","7","","","","","","","","","",""
"null","CORRECT","","html-keyboard-response","120","409519","0.0-14.0-14.0-0.0","95946","List2B","white","man","","","","null","","","","","","","","",""
"2405.599999997765","<img src=""portrait/BM2.jpg""style=""height:400px;""></img>","5","html-button-response","121","411927","0.0-14.0-16.0","95946","List2B","white","man","","true","5","","","","","","","","","",""
"null","CORRECT","","html-keyboard-response","122","413435","0.0-14.0-17.0-0.0","95946","List2B","white","man","","","","null","","","","","","","","",""
"1642.5","<img src=""portrait/WM1.jpg""style=""height:400px;""></img>","6","html-button-response","123","415080","0.0-14.0-19.0","95946","List2B","white","man","","true","6","","","","","","","","","",""
"null","CORRECT","","html-keyboard-response","124","416592","0.0-14.0-20.0-0.0","95946","List2B","white","man","","","","null","","","","","","","","",""
"3686.5","<img src=""portrait/WW1.jpg""style=""height:400px;""></img>","1","html-button-response","125","420281","0.0-14.0-22.0","95946","List2B","white","man","","true","1","","","","","","","","","",""
"null","CORRECT","","html-keyboard-response","126","421787","0.0-14.0-23.0-0.0","95946","List2B","white","man","","","","null","","","","","","","","",""
"1063.699999999255","<p>You got 8 out of 8 right first time. Press Continue.</p>","0","html-button-response","127","422854","0.0-14.0-25.0","95946","List2B","white","man","","","","","","","","","","","","",""
"null","<div style=""font-size:60px;"">+</div>","","html-keyboard-response","128","424359","0.0-15.0-0.0","95946","List2B","white","man","","","","null","","","","","","","","",""
"null","<img src=""stim_listB/touch6.gif""style=""height:400px;""></stim_listB>","","html-keyboard-response","129","426362","0.0-15.0-1.0","95946","List2B","white","man","","","","null","","","","","","","","",""
"null","is being touched by","","html-keyboard-response","130","428367","0.0-15.0-2.0","95946","List2B","white","man","","","","null","","","","","","","","",""
"1820.800000000745","","","survey-text","131","430191","0.0-15.0-3.0","95946","List2B","white","man","","","","","{""Q0"":""fred luke""}","<img src=""stim_listB/touch6.gif""style=""height:400px;""></stim_listB>","is being touched by","","","","","",""
"null","<div style=""font-size:60px;"">+</div>","","html-keyboard-response","132","430693","0.0-15.0-0.1","95946","List2B","white","man","","","","null","","","","","","","","",""
"null","<img src=""stim_listB/touch8.gif""style=""height:400px;""></stim_listB>","","html-keyboard-response","133","432698","0.0-15.0-1.1","95946","List2B","white","man","","","","null","","","","","","","","",""
"null","is being touched by","","html-keyboard-response","134","434703","0.0-15.0-2.1","95946","List2B","white","man","","","","null","","","","","","","","",""
"1480.5","","","survey-text","135","436188","0.0-15.0-3.1","95946","List2B","white","man","","","","","{""Q0"":""ruth beth""}","<img src=""stim_listB/touch8.gif""style=""height:400px;""></stim_listB>","is being touched by","","","","","",""
"null","<div style=""font-size:60px;"">+</div>","","html-keyboard-response","136","436689","0.0-15.0-0.2","95946","List2B","white","man","","","","null","","","","","","","","",""
"null","<img src=""stim_listB/challenge4.gif""style=""height:400px;""></stim_listB>","","html-keyboard-response","137","438694","0.0-15.0-1.2","95946","List2B","white","man","","","","null","","","","","","","","",""
"null","is being challenged by","","html-keyboard-response","138","440698","0.0-15.0-2.2","95946","List2B","white","man","","","","null","","","","","","","","",""
"1722.199999999255","","","survey-text","139","442424","0.0-15.0-3.2","95946","List2B","white","man","","","","","{""Q0"":""fred kate""}","<img src=""stim_listB/challenge4.gif""style=""height:400px;""></stim_listB>","is being challenged by","","","","","",""
"null","<div style=""font-size:60px;"">+</div>","","html-keyboard-response","140","442928","0.0-15.0-0.3","95946","List2B","white","man","","","","null","","","","","","","","",""
"null","<img src=""stim_listB/copy2.gif""style=""height:400px;""></stim_listB>","","html-keyboard-response","141","444932","0.0-15.0-1.3","95946","List2B","white","man","","","","null","","","","","","","","",""
"null","is being copied by","","html-keyboard-response","142","446938","0.0-15.0-2.3","95946","List2B","white","man","","","","null","","","","","","","","",""
"1565.699999999255","","","survey-text","143","448507","0.0-15.0-3.3","95946","List2B","white","man","","","","","{""Q0"":""jane luke""}","<img src=""stim_listB/copy2.gif""style=""height:400px;""></stim_listB>","is being copied by","","","","","",""
"null","<div style=""font-size:60px;"">+</div>","","html-keyboard-response","144","449009","0.0-15.0-0.4","95946","List2B","white","man","","","","null","","","","","","","","",""
"null","<img src=""stim_listB/copy8.gif""style=""height:400px;""></stim_listB>","","html-keyboard-response","145","451012","0.0-15.0-1.4","95946","List2B","white","man","","","","null","","","","","","","","",""
"null","is being copied by","","html-keyboard-response","146","453018","0.0-15.0-2.4","95946","List2B","white","man","","","","null","","","","","","","","",""
"1104.699999999255","","","survey-text","147","454125","0.0-15.0-3.4","95946","List2B","white","man","","","","","{""Q0"":""ruth kate""}","<img src=""stim_listB/copy8.gif""style=""height:400px;""></stim_listB>","is being copied by","","","","","",""
"null","<div style=""font-size:60px;"">+</div>","","html-keyboard-response","148","454626","0.0-15.0-0.5","95946","List2B","white","man","","","","null","","","","","","","","",""
"null","<img src=""stim_listB/look4.gif""style=""height:400px;""></stim_listB>","","html-keyboard-response","149","456629","0.0-15.0-1.5","95946","List2B","white","man","","","","null","","","","","","","","",""
"null","is being looked at by","","html-keyboard-response","150","458634","0.0-15.0-2.5","95946","List2B","white","man","","","","null","","","","","","","","",""
"1302.800000000745","","","survey-text","151","459941","0.0-15.0-3.5","95946","List2B","white","man","","","","","{""Q0"":""kate mike""}","<img src=""stim_listB/look4.gif""style=""height:400px;""></stim_listB>","is being looked at by","","","","","",""
"null","<div style=""font-size:60px;"">+</div>","","html-keyboard-response","152","460443","0.0-15.0-0.6","95946","List2B","white","man","","","","null","","","","","","","","",""
"null","<img src=""stim_listB/look5.gif""style=""height:400px;""></stim_listB>","","html-keyboard-response","153","462447","0.0-15.0-1.6","95946","List2B","white","man","","","","null","","","","","","","","",""
"null","is looking at","","html-keyboard-response","154","464453","0.0-15.0-2.6","95946","List2B","white","man","","","","null","","","","","","","","",""
"1840.2999999970198","","","survey-text","155","466297","0.0-15.0-3.6","95946","List2B","white","man","","","","","{""Q0"":""fred luke""}","<img src=""stim_listB/look5.gif""style=""height:400px;""></stim_listB>","is looking at","","","","","",""
"null","<div style=""font-size:60px;"">+</div>","","html-keyboard-response","156","466799","0.0-15.0-0.7","95946","List2B","white","man","","","","null","","","","","","","","",""
"null","<img src=""stim_listB/challenge2.gif""style=""height:400px;""></stim_listB>","","html-keyboard-response","157","468805","0.0-15.0-1.7","95946","List2B","white","man","","","","null","","","","","","","","",""
"null","is being challenged by","","html-keyboard-response","158","470810","0.0-15.0-2.7","95946","List2B","white","man","","","","null","","","","","","","","",""
"1761.199999999255","","","survey-text","159","472575","0.0-15.0-3.7","95946","List2B","white","man","","","","","{""Q0"":""luke jane""}","<img src=""stim_listB/challenge2.gif""style=""height:400px;""></stim_listB>","is being challenged by","","","","","",""
"null","<div style=""font-size:60px;"">+</div>","","html-keyboard-response","160","473077","0.0-15.0-0.8","95946","List2B","white","man","","","","null","","","","","","","","",""
"null","<img src=""stim_listB/challenge7.gif""style=""height:400px;""></stim_listB>","","html-keyboard-response","161","475082","0.0-15.0-1.8","95946","List2B","white","man","","","","null","","","","","","","","",""
"null","is challenging","","html-keyboard-response","162","477087","0.0-15.0-2.8","95946","List2B","white","man","","","","null","","","","","","","","",""
"1260.5999999977648","","","survey-text","163","478350","0.0-15.0-3.8","95946","List2B","white","man","","","","","{""Q0"":""beth jane""}","<img src=""stim_listB/challenge7.gif""style=""height:400px;""></stim_listB>","is challenging","","","","","",""
"null","<div style=""font-size:60px;"">+</div>","","html-keyboard-response","164","478853","0.0-15.0-0.9","95946","List2B","white","man","","","","null","","","","","","","","",""
"null","<img src=""stim_listB/shout3.gif""style=""height:400px;""></stim_listB>","","html-keyboard-response","165","480858","0.0-15.0-1.9","95946","List2B","white","man","","","","null","","","","","","","","",""
"null","is shouting at","","html-keyboard-response","166","482863","0.0-15.0-2.9","95946","List2B","white","man","","","","null","","","","","","","","",""
"5140.5","","","survey-text","167","488008","0.0-15.0-3.9","95946","List2B","white","man","","","","","{""Q0"":""beth fred""}","<img src=""stim_listB/shout3.gif""style=""height:400px;""></stim_listB>","is shouting at","","","","","",""
"null","<div style=""font-size:60px;"">+</div>","","html-keyboard-response","168","488511","0.0-15.0-0.10","95946","List2B","white","man","","","","null","","","","","","","","",""
"null","<img src=""stim_listB/copy5.gif""style=""height:400px;""></stim_listB>","","html-keyboard-response","169","490517","0.0-15.0-1.10","95946","List2B","white","man","","","","null","","","","","","","","",""
"null","is copying","","html-keyboard-response","170","492519","0.0-15.0-2.10","95946","List2B","white","man","","","","null","","","","","","","","",""
"1338.699999999255","","","survey-text","171","493860","0.0-15.0-3.10","95946","List2B","white","man","","","","","{""Q0"":""fred dave""}","<img src=""stim_listB/copy5.gif""style=""height:400px;""></stim_listB>","is copying","","","","","",""
"null","<div style=""font-size:60px;"">+</div>","","html-keyboard-response","172","494362","0.0-15.0-0.11","95946","List2B","white","man","","","","null","","","","","","","","",""
"null","<img src=""stim_listB/oppose5.gif""style=""height:400px;""></stim_listB>","","html-keyboard-response","173","496367","0.0-15.0-1.11","95946","List2B","white","man","","","","null","","","","","","","","",""
"null","is opposing","","html-keyboard-response","174","498373","0.0-15.0-2.11","95946","List2B","white","man","","","","null","","","","","","","","",""
"3188.199999999255","","","survey-text","175","501564","0.0-15.0-3.11","95946","List2B","white","man","","","","","{""Q0"":""dave mike""}","<img src=""stim_listB/oppose5.gif""style=""height:400px;""></stim_listB>","is opposing","","","","","",""
"null","<div style=""font-size:60px;"">+</div>","","html-keyboard-response","176","502068","0.0-15.0-0.12","95946","List2B","white","man","","","","null","","","","","","","","",""
"null","<img src=""stim_listB/touch5.gif""style=""height:400px;""></stim_listB>","","html-keyboard-response","177","504073","0.0-15.0-1.12","95946","List2B","white","man","","","","null","","","","","","","","",""
"null","is touching","","html-keyboard-response","178","506079","0.0-15.0-2.12","95946","List2B","white","man","","","","null","","","","","","","","",""
"1405.800000000745","","","survey-text","179","507488","0.0-15.0-3.12","95946","List2B","white","man","","","","","{""Q0"":""dave mike""}","<img src=""stim_listB/touch5.gif""style=""height:400px;""></stim_listB>","is touching","","","","","",""
"null","<div style=""font-size:60px;"">+</div>","","html-keyboard-response","180","507990","0.0-15.0-0.13","95946","List2B","white","man","","","","null","","","","","","","","",""
"null","<img src=""stim_listB/kiss5.gif""style=""height:400px;""></stim_listB>","","html-keyboard-response","181","509994","0.0-15.0-1.13","95946","List2B","white","man","","","","null","","","","","","","","",""
"null","is kissing","","html-keyboard-response","182","511999","0.0-15.0-2.13","95946","List2B","white","man","","","","null","","","","","","","","",""
"1598.199999999255","","","survey-text","183","513601","0.0-15.0-3.13","95946","List2B","white","man","","","","","{""Q0"":""luke fred""}","<img src=""stim_listB/kiss5.gif""style=""height:400px;""></stim_listB>","is kissing","","","","","",""
"null","<div style=""font-size:60px;"">+</div>","","html-keyboard-response","184","514103","0.0-15.0-0.14","95946","List2B","white","man","","","","null","","","","","","","","",""
"null","<img src=""stim_listB/kiss6.gif""style=""height:400px;""></stim_listB>","","html-keyboard-response","185","516109","0.0-15.0-1.14","95946","List2B","white","man","","","","null","","","","","","","","",""
"null","is being kissed by","","html-keyboard-response","186","518111","0.0-15.0-2.14","95946","List2B","white","man","","","","null","","","","","","","","",""
"1402.800000000745","","","survey-text","187","519517","0.0-15.0-3.14","95946","List2B","white","man","","","","","{""Q0"":""dave mike""}","<img src=""stim_listB/kiss6.gif""style=""height:400px;""></stim_listB>","is being kissed by","","","","","",""
"null","<div style=""font-size:60px;"">+</div>","","html-keyboard-response","188","520021","0.0-15.0-0.15","95946","List2B","white","man","","","","null","","","","","","","","",""
"null","<img src=""stim_listB/seduce7.gif""style=""height:400px;""></stim_listB>","","html-keyboard-response","189","522025","0.0-15.0-1.15","95946","List2B","white","man","","","","null","","","","","","","","",""
"null","is seducing","","html-keyboard-response","190","524031","0.0-15.0-2.15","95946","List2B","white","man","","","","null","","","","","","","","",""
"1384.3999999985099","","","survey-text","191","525419","0.0-15.0-3.15","95946","List2B","white","man","","","","","{""Q0"":""beth ruth""}","<img src=""stim_listB/seduce7.gif""style=""height:400px;""></stim_listB>","is seducing","","","","","",""
"null","<div style=""font-size:60px;"">+</div>","","html-keyboard-response","192","525921","0.0-15.0-0.16","95946","List2B","white","man","","","","null","","","","","","","","",""
"null","<img src=""stim_listB/kiss2.gif""style=""height:400px;""></stim_listB>","","html-keyboard-response","193","527924","0.0-15.0-1.16","95946","List2B","white","man","","","","null","","","","","","","","",""
"null","is being kissed by","","html-keyboard-response","194","529926","0.0-15.0-2.16","95946","List2B","white","man","","","","null","","","","","","","","",""
"1299.199999999255","","","survey-text","195","531229","0.0-15.0-3.16","95946","List2B","white","man","","","","","{""Q0"":""jane dave""}","<img src=""stim_listB/kiss2.gif""style=""height:400px;""></stim_listB>","is being kissed by","","","","","",""
"null","<div style=""font-size:60px;"">+</div>","","html-keyboard-response","196","531732","0.0-15.0-0.17","95946","List2B","white","man","","","","null","","","","","","","","",""
"null","<img src=""stim_listB/greet5.gif""style=""height:400px;""></stim_listB>","","html-keyboard-response","197","533737","0.0-15.0-1.17","95946","List2B","white","man","","","","null","","","","","","","","",""
"null","is greeting","","html-keyboard-response","198","535743","0.0-15.0-2.17","95946","List2B","white","man","","","","null","","","","","","","","",""
"1745.8999999985099","","","survey-text","199","537493","0.0-15.0-3.17","95946","List2B","white","man","","","","","{""Q0"":""fred dave""}","<img src=""stim_listB/greet5.gif""style=""height:400px;""></stim_listB>","is greeting","","","","","",""
"null","<div style=""font-size:60px;"">+</div>","","html-keyboard-response","200","537995","0.0-15.0-0.18","95946","List2B","white","man","","","","null","","","","","","","","",""
"null","<img src=""stim_listB/greet3.gif""style=""height:400px;""></stim_listB>","","html-keyboard-response","201","540001","0.0-15.0-1.18","95946","List2B","white","man","","","","null","","","","","","","","",""
"null","is greeting","","html-keyboard-response","202","542004","0.0-15.0-2.18","95946","List2B","white","man","","","","null","","","","","","","","",""
"1503.699999999255","","","survey-text","203","543512","0.0-15.0-3.18","95946","List2B","white","man","","","","","{""Q0"":""beth mike""}","<img src=""stim_listB/greet3.gif""style=""height:400px;""></stim_listB>","is greeting","","","","","",""
"null","<div style=""font-size:60px;"">+</div>","","html-keyboard-response","204","544014","0.0-15.0-0.19","95946","List2B","white","man","","","","null","","","","","","","","",""
"null","<img src=""stim_listB/greet7.gif""style=""height:400px;""></stim_listB>","","html-keyboard-response","205","546021","0.0-15.0-1.19","95946","List2B","white","man","","","","null","","","","","","","","",""
"null","is greeting","","html-keyboard-response","206","548026","0.0-15.0-2.19","95946","List2B","white","man","","","","null","","","","","","","","",""
"1761","","","survey-text","207","549792","0.0-15.0-3.19","95946","List2B","white","man","","","","","{""Q0"":""beth jane""}","<img src=""stim_listB/greet7.gif""style=""height:400px;""></stim_listB>","is greeting","","","","","",""
"9337.800000000745","<img src='img/portrait_matrix_list2.jpg' style='width:900px;height:500px;''></img><p>If you have memorised all the portraits and names and are ready to start, press Continue.</p><p><strong>Please note: Your memory of these faces will be tested 4 times during this experiment.</strong></p>","0","html-button-response","208","559132","0.0-16.0-0.0","95946","List2B","white","man","","","","","","","","","","","","",""
"2421.89999999851","<img src=""portrait/BW2.jpg""style=""height:400px;""></img>","2","html-button-response","209","562562","0.0-16.0-1.0","95946","List2B","white","man","","true","2","","","","","","","","","",""
"null","CORRECT","","html-keyboard-response","210","564071","0.0-16.0-2.0-0.0","95946","List2B","white","man","","","","null","","","","","","","","",""
"1411.0999999977648","<img src=""portrait/WW1.jpg""style=""height:400px;""></img>","1","html-button-response","211","565484","0.0-16.0-4.0","95946","List2B","white","man","","true","1","","","","","","","","","",""
"null","CORRECT","","html-keyboard-response","212","566991","0.0-16.0-5.0-0.0","95946","List2B","white","man","","","","null","","","","","","","","",""
"1921","<img src=""portrait/WM1.jpg""style=""height:400px;""></img>","6","html-button-response","213","568914","0.0-16.0-7.0","95946","List2B","white","man","","true","6","","","","","","","","","",""
"null","CORRECT","","html-keyboard-response","214","570421","0.0-16.0-8.0-0.0","95946","List2B","white","man","","","","null","","","","","","","","",""
"1694.7000000029802","<img src=""portrait/BM2.jpg""style=""height:400px;""></img>","5","html-button-response","215","572119","0.0-16.0-10.0","95946","List2B","white","man","","true","5","","","","","","","","","",""
"null","CORRECT","","html-keyboard-response","216","573625","0.0-16.0-11.0-0.0","95946","List2B","white","man","","","","null","","","","","","","","",""
"2729.5","<img src=""portrait/BW1.jpg""style=""height:400px;""></img>","0","html-button-response","217","576356","0.0-16.0-13.0","95946","List2B","white","man","","true","0","","","","","","","","","",""
"null","CORRECT","","html-keyboard-response","218","577865","0.0-16.0-14.0-0.0","95946","List2B","white","man","","","","null","","","","","","","","",""
"1386.8999999985099","<img src=""portrait/WW2.jpg""style=""height:400px;""></img>","3","html-button-response","219","579254","0.0-16.0-16.0","95946","List2B","white","man","","true","3","","","","","","","","","",""
"null","CORRECT","","html-keyboard-response","220","580761","0.0-16.0-17.0-0.0","95946","List2B","white","man","","","","null","","","","","","","","",""
"1392.6000000014901","<img src=""portrait/BM1.jpg""style=""height:400px;""></img>","4","html-button-response","221","582156","0.0-16.0-19.0","95946","List2B","white","man","","true","4","","","","","","","","","",""
"null","CORRECT","","html-keyboard-response","222","583666","0.0-16.0-20.0-0.0","95946","List2B","white","man","","","","null","","","","","","","","",""
"1708.8999999985099","<img src=""portrait/WM2.jpg""style=""height:400px;""></img>","7","html-button-response","223","585378","0.0-16.0-22.0","95946","List2B","white","man","","true","7","","","","","","","","","",""
"null","CORRECT","","html-keyboard-response","224","586885","0.0-16.0-23.0-0.0","95946","List2B","white","man","","","","null","","","","","","","","",""
"892.8000000007451","<p>You got 8 out of 8 right first time. Press Continue.</p>","0","html-button-response","225","587780","0.0-16.0-25.0","95946","List2B","white","man","","","","","","","","","","","","",""
"null","<div style=""font-size:60px;"">+</div>","","html-keyboard-response","226","589289","0.0-17.0-0.0","95946","List2B","white","man","","","","null","","","","","","","","",""
"null","<img src=""stim_listB/look1.gif""style=""height:400px;""></stim_listB>","","html-keyboard-response","227","591294","0.0-17.0-1.0","95946","List2B","white","man","","","","null","","","","","","","","",""
"null","is looking at","","html-keyboard-response","228","593297","0.0-17.0-2.0","95946","List2B","white","man","","","","null","","","","","","","","",""
"2001.6000000014901","","","survey-text","229","595302","0.0-17.0-3.0","95946","List2B","white","man","","","","","{""Q0"":""luke ruth""}","<img src=""stim_listB/look1.gif""style=""height:400px;""></stim_listB>","is looking at","","","","","",""
"null","<div style=""font-size:60px;"">+</div>","","html-keyboard-response","230","595807","0.0-17.0-0.1","95946","List2B","white","man","","","","null","","","","","","","","",""
"null","<img src=""stim_listB/touch1.gif""style=""height:400px;""></stim_listB>","","html-keyboard-response","231","597812","0.0-17.0-1.1","95946","List2B","white","man","","","","null","","","","","","","","",""
"null","is touching","","html-keyboard-response","232","599817","0.0-17.0-2.1","95946","List2B","white","man","","","","null","","","","","","","","",""
"1423.6000000014901","","","survey-text","233","601245","0.0-17.0-3.1","95946","List2B","white","man","","","","","{""Q0"":""jane dave""}","<img src=""stim_listB/touch1.gif""style=""height:400px;""></stim_listB>","is touching","","","","","",""
"null","<div style=""font-size:60px;"">+</div>","","html-keyboard-response","234","601748","0.0-17.0-0.2","95946","List2B","white","man","","","","null","","","","","","","","",""
"null","<img src=""stim_listB/copy1.gif""style=""height:400px;""></stim_listB>","","html-keyboard-response","235","603753","0.0-17.0-1.2","95946","List2B","white","man","","","","null","","","","","","","","",""
"null","is copying","","html-keyboard-response","236","605760","0.0-17.0-2.2","95946","List2B","white","man","","","","null","","","","","","","","",""
"1745.300000000745","","","survey-text","237","607510","0.0-17.0-3.2","95946","List2B","white","man","","","","","{""Q0"":""dave ruth""}","<img src=""stim_listB/copy1.gif""style=""height:400px;""></stim_listB>","is copying","","","","","",""
"null","<div style=""font-size:60px;"">+</div>","","html-keyboard-response","238","608012","0.0-17.0-0.3","95946","List2B","white","man","","","","null","","","","","","","","",""
"null","<img src=""stim_listB/shout8.gif""style=""height:400px;""></stim_listB>","","html-keyboard-response","239","610015","0.0-17.0-1.3","95946","List2B","white","man","","","","null","","","","","","","","",""
"null","is being shouted at by","","html-keyboard-response","240","612020","0.0-17.0-2.3","95946","List2B","white","man","","","","null","","","","","","","","",""
"1222.300000000745","","","survey-text","241","613246","0.0-17.0-3.3","95946","List2B","white","man","","","","","{""Q0"":""kate jane""}","<img src=""stim_listB/shout8.gif""style=""height:400px;""></stim_listB>","is being shouted at by","","","","","",""
"null","<div style=""font-size:60px;"">+</div>","","html-keyboard-response","242","613748","0.0-17.0-0.4","95946","List2B","white","man","","","","null","","","","","","","","",""
"null","<img src=""stim_listB/greet6.gif""style=""height:400px;""></stim_listB>","","html-keyboard-response","243","615753","0.0-17.0-1.4","95946","List2B","white","man","","","","null","","","","","","","","",""
"null","is being greeted by","","html-keyboard-response","244","617759","0.0-17.0-2.4","95946","List2B","white","man","","","","null","","","","","","","","",""
"3659.599999997765","","","survey-text","245","621422","0.0-17.0-3.4","95946","List2B","white","man","","","","","{""Q0"":""mike luke""}","<img src=""stim_listB/greet6.gif""style=""height:400px;""></stim_listB>","is being greeted by","","","","","",""
"null","<div style=""font-size:60px;"">+</div>","","html-keyboard-response","246","621924","0.0-17.0-0.5","95946","List2B","white","man","","","","null","","","","","","","","",""
"null","<img src=""stim_listB/oppose1.gif""style=""height:400px;""></stim_listB>","","html-keyboard-response","247","623931","0.0-17.0-1.5","95946","List2B","white","man","","","","null","","","","","","","","",""
"null","is opposing","","html-keyboard-response","248","625935","0.0-17.0-2.5","95946","List2B","white","man","","","","null","","","","","","","","",""
"1364.5","","","survey-text","249","627303","0.0-17.0-3.5","95946","List2B","white","man","","","","","{""Q0"":""jane dave""}","<img src=""stim_listB/oppose1.gif""style=""height:400px;""></stim_listB>","is opposing","","","","","",""
"null","<div style=""font-size:60px;"">+</div>","","html-keyboard-response","250","627807","0.0-17.0-0.6","95946","List2B","white","man","","","","null","","","","","","","","",""
"null","<img src=""stim_listB/greet4.gif""style=""height:400px;""></stim_listB>","","html-keyboard-response","251","629812","0.0-17.0-1.6","95946","List2B","white","man","","","","null","","","","","","","","",""
"null","is being greeted by","","html-keyboard-response","252","631815","0.0-17.0-2.6","95946","List2B","white","man","","","","null","","","","","","","","",""
"1472.1000000014901","","","survey-text","253","633291","0.0-17.0-3.6","95946","List2B","white","man","","","","","{""Q0"":""fred kate""}","<img src=""stim_listB/greet4.gif""style=""height:400px;""></stim_listB>","is being greeted by","","","","","",""
"null","<div style=""font-size:60px;"">+</div>","","html-keyboard-response","254","633796","0.0-17.0-0.7","95946","List2B","white","man","","","","null","","","","","","","","",""
"null","<img src=""stim_listB/oppose4.gif""style=""height:400px;""></stim_listB>","","html-keyboard-response","255","635801","0.0-17.0-1.7","95946","List2B","white","man","","","","null","","","","","","","","",""
"null","is being opposed by","","html-keyboard-response","256","637806","0.0-17.0-2.7","95946","List2B","white","man","","","","null","","","","","","","","",""
"6930","","","survey-text","257","644740","0.0-17.0-3.7","95946","List2B","white","man","","","","","{""Q0"":""fred kate""}","<img src=""stim_listB/oppose4.gif""style=""height:400px;""></stim_listB>","is being opposed by","","","","","",""
"null","<div style=""font-size:60px;"">+</div>","","html-keyboard-response","258","645242","0.0-17.0-0.8","95946","List2B","white","man","","","","null","","","","","","","","",""
"null","<img src=""stim_listB/hug3.gif""style=""height:400px;""></stim_listB>","","html-keyboard-response","259","647246","0.0-17.0-1.8","95946","List2B","white","man","","","","null","","","","","","","","",""
"null","is hugging","","html-keyboard-response","260","649252","0.0-17.0-2.8","95946","List2B","white","man","","","","null","","","","","","","","",""
"1390.6000000014901","","","survey-text","261","650646","0.0-17.0-3.8","95946","List2B","white","man","","","","","{""Q0"":""fred beth""}","<img src=""stim_listB/hug3.gif""style=""height:400px;""></stim_listB>","is hugging","","","","","",""
"null","<div style=""font-size:60px;"">+</div>","","html-keyboard-response","262","651148","0.0-17.0-0.9","95946","List2B","white","man","","","","null","","","","","","","","",""
"null","<img src=""stim_listB/shout2.gif""style=""height:400px;""></stim_listB>","","html-keyboard-response","263","653150","0.0-17.0-1.9","95946","List2B","white","man","","","","null","","","","","","","","",""
"null","is being shouted at by","","html-keyboard-response","264","655156","0.0-17.0-2.9","95946","List2B","white","man","","","","null","","","","","","","","",""
"1311.7000000029802","","","survey-text","265","656472","0.0-17.0-3.9","95946","List2B","white","man","","","","","{""Q0"":""jane dave""}","<img src=""stim_listB/shout2.gif""style=""height:400px;""></stim_listB>","is being shouted at by","","","","","",""
"null","<div style=""font-size:60px;"">+</div>","","html-keyboard-response","266","656975","0.0-17.0-0.10","95946","List2B","white","man","","","","null","","","","","","","","",""
"null","<img src=""stim_listB/greet1.gif""style=""height:400px;""></stim_listB>","","html-keyboard-response","267","658982","0.0-17.0-1.10","95946","List2B","white","man","","","","null","","","","","","","","",""
"null","is greeting","","html-keyboard-response","268","660985","0.0-17.0-2.10","95946","List2B","white","man","","","","null","","","","","","","","",""
"2380.10000000149","","","survey-text","269","663370","0.0-17.0-3.10","95946","List2B","white","man","","","","","{""Q0"":""ruth dave""}","<img src=""stim_listB/greet1.gif""style=""height:400px;""></stim_listB>","is greeting","","","","","",""
"null","<div style=""font-size:60px;"">+</div>","","html-keyboard-response","270","663872","0.0-17.0-0.11","95946","List2B","white","man","","","","null","","","","","","","","",""
"null","<img src=""stim_listB/look2.gif""style=""height:400px;""></stim_listB>","","html-keyboard-response","271","665875","0.0-17.0-1.11","95946","List2B","white","man","","","","null","","","","","","","","",""
"null","is being looked at by","","html-keyboard-response","272","667880","0.0-17.0-2.11","95946","List2B","white","man","","","","null","","","","","","","","",""
"2394.5","","","survey-text","273","670278","0.0-17.0-3.11","95946","List2B","white","man","","","","","{""Q0"":""jane dave""}","<img src=""stim_listB/look2.gif""style=""height:400px;""></stim_listB>","is being looked at by","","","","","",""
"null","<div style=""font-size:60px;"">+</div>","","html-keyboard-response","274","670782","0.0-17.0-0.12","95946","List2B","white","man","","","","null","","","","","","","","",""
"null","<img src=""stim_listB/touch7.gif""style=""height:400px;""></stim_listB>","","html-keyboard-response","275","672787","0.0-17.0-1.12","95946","List2B","white","man","","","","null","","","","","","","","",""
"null","is touching","","html-keyboard-response","276","674792","0.0-17.0-2.12","95946","List2B","white","man","","","","null","","","","","","","","",""
"1348.4000000022352","","","survey-text","277","676144","0.0-17.0-3.12","95946","List2B","white","man","","","","","{""Q0"":""jane kate""}","<img src=""stim_listB/touch7.gif""style=""height:400px;""></stim_listB>","is touching","","","","","",""
"null","<div style=""font-size:60px;"">+</div>","","html-keyboard-response","278","676646","0.0-17.0-0.13","95946","List2B","white","man","","","","null","","","","","","","","",""
"null","<img src=""stim_listB/shout7.gif""style=""height:400px;""></stim_listB>","","html-keyboard-response","279","678648","0.0-17.0-1.13","95946","List2B","white","man","","","","null","","","","","","","","",""
"null","is shouting at","","html-keyboard-response","280","680654","0.0-17.0-2.13","95946","List2B","white","man","","","","null","","","","","","","","",""
"2419.60000000149","","","survey-text","281","683077","0.0-17.0-3.13","95946","List2B","white","man","","","","","{""Q0"":""ruth beth\\""}","<img src=""stim_listB/shout7.gif""style=""height:400px;""></stim_listB>","is shouting at","","","","","",""
"null","<div style=""font-size:60px;"">+</div>","","html-keyboard-response","282","683579","0.0-17.0-0.14","95946","List2B","white","man","","","","null","","","","","","","","",""
"null","<img src=""stim_listB/hug2.gif""style=""height:400px;""></stim_listB>","","html-keyboard-response","283","685582","0.0-17.0-1.14","95946","List2B","white","man","","","","null","","","","","","","","",""
"null","is being hugged by","","html-keyboard-response","284","687587","0.0-17.0-2.14","95946","List2B","white","man","","","","null","","","","","","","","",""
"4449.60000000149","","","survey-text","285","692041","0.0-17.0-3.14","95946","List2B","white","man","","","","","{""Q0"":""jane dave""}","<img src=""stim_listB/hug2.gif""style=""height:400px;""></stim_listB>","is being hugged by","","","","","",""
"null","<div style=""font-size:60px;"">+</div>","","html-keyboard-response","286","692543","0.0-17.0-0.15","95946","List2B","white","man","","","","null","","","","","","","","",""
"null","<img src=""stim_listB/shout4.gif""style=""height:400px;""></stim_listB>","","html-keyboard-response","287","694547","0.0-17.0-1.15","95946","List2B","white","man","","","","null","","","","","","","","",""
"null","is being shouted at by","","html-keyboard-response","288","696552","0.0-17.0-2.15","95946","List2B","white","man","","","","null","","","","","","","","",""
"1524.800000000745","","","survey-text","289","698081","0.0-17.0-3.15","95946","List2B","white","man","","","","","{""Q0"":""mike kate""}","<img src=""stim_listB/shout4.gif""style=""height:400px;""></stim_listB>","is being shouted at by","","","","","",""
"null","<div style=""font-size:60px;"">+</div>","","html-keyboard-response","290","698584","0.0-17.0-0.16","95946","List2B","white","man","","","","null","","","","","","","","",""
"null","<img src=""stim_listB/oppose3.gif""style=""height:400px;""></stim_listB>","","html-keyboard-response","291","700590","0.0-17.0-1.16","95946","List2B","white","man","","","","null","","","","","","","","",""
"null","is opposing","","html-keyboard-response","292","702594","0.0-17.0-2.16","95946","List2B","white","man","","","","null","","","","","","","","",""
"1954","","","survey-text","293","704550","0.0-17.0-3.16","95946","List2B","white","man","","","","","{""Q0"":""mike kate""}","<img src=""stim_listB/oppose3.gif""style=""height:400px;""></stim_listB>","is opposing","","","","","",""
"null","<div style=""font-size:60px;"">+</div>","","html-keyboard-response","294","705052","0.0-17.0-0.17","95946","List2B","white","man","","","","null","","","","","","","","",""
"null","<img src=""stim_listB/oppose2.gif""style=""height:400px;""></stim_listB>","","html-keyboard-response","295","707056","0.0-17.0-1.17","95946","List2B","white","man","","","","null","","","","","","","","",""
"null","is being opposed by","","html-keyboard-response","296","709059","0.0-17.0-2.17","95946","List2B","white","man","","","","null","","","","","","","","",""
"2136.699999999255","","","survey-text","297","711199","0.0-17.0-3.17","95946","List2B","white","man","","","","","{""Q0"":""ruth luke""}","<img src=""stim_listB/oppose2.gif""style=""height:400px;""></stim_listB>","is being opposed by","","","","","",""
"null","<div style=""font-size:60px;"">+</div>","","html-keyboard-response","298","711700","0.0-17.0-0.18","95946","List2B","white","man","","","","null","","","","","","","","",""
"null","<img src=""stim_listB/hug4.gif""style=""height:400px;""></stim_listB>","","html-keyboard-response","299","713704","0.0-17.0-1.18","95946","List2B","white","man","","","","null","","","","","","","","",""
"null","is being hugged by","","html-keyboard-response","300","715709","0.0-17.0-2.18","95946","List2B","white","man","","","","null","","","","","","","","",""
"1245.699999999255","","","survey-text","301","716959","0.0-17.0-3.18","95946","List2B","white","man","","","","","{""Q0"":""kate mike""}","<img src=""stim_listB/hug4.gif""style=""height:400px;""></stim_listB>","is being hugged by","","","","","",""
"null","<div style=""font-size:60px;"">+</div>","","html-keyboard-response","302","717461","0.0-17.0-0.19","95946","List2B","white","man","","","","null","","","","","","","","",""
"null","<img src=""stim_listB/hug8.gif""style=""height:400px;""></stim_listB>","","html-keyboard-response","303","719464","0.0-17.0-1.19","95946","List2B","white","man","","","","null","","","","","","","","",""
"null","is being hugged by","","html-keyboard-response","304","721470","0.0-17.0-2.19","95946","List2B","white","man","","","","null","","","","","","","","",""
"4789.60000000149","","","survey-text","305","726263","0.0-17.0-3.19","95946","List2B","white","man","","","","","{""Q0"":""mike kate""}","<img src=""stim_listB/hug8.gif""style=""height:400px;""></stim_listB>","is being hugged by","","","","","",""
"1852.199999999255","<img src='img/portrait_matrix_list2.jpg' style='width:900px;height:500px;''></img><p>If you have memorised all the portraits and names and are ready to start, press Continue.</p><p><strong>Please note: Your memory of these faces will be tested 4 times during this experiment.</strong></p>","0","html-button-response","306","728118","0.0-18.0-0.0","95946","List2B","white","man","","","","","","","","","","","","",""
"1896","<img src=""portrait/WM1.jpg""style=""height:400px;""></img>","6","html-button-response","307","731019","0.0-18.0-1.0","95946","List2B","white","man","","true","6","","","","","","","","","",""
"null","CORRECT","","html-keyboard-response","308","732523","0.0-18.0-2.0-0.0","95946","List2B","white","man","","","","null","","","","","","","","",""
"1555.699999999255","<img src=""portrait/WM2.jpg""style=""height:400px;""></img>","7","html-button-response","309","734082","0.0-18.0-4.0","95946","List2B","white","man","","true","7","","","","","","","","","",""
"null","CORRECT","","html-keyboard-response","310","735590","0.0-18.0-5.0-0.0","95946","List2B","white","man","","","","null","","","","","","","","",""
"2150","<img src=""portrait/BM1.jpg""style=""height:400px;""></img>","4","html-button-response","311","737744","0.0-18.0-7.0","95946","List2B","white","man","","true","4","","","","","","","","","",""
"null","CORRECT","","html-keyboard-response","312","739250","0.0-18.0-8.0-0.0","95946","List2B","white","man","","","","null","","","","","","","","",""
"2393.5","<img src=""portrait/BW2.jpg""style=""height:400px;""></img>","2","html-button-response","313","741647","0.0-18.0-10.0","95946","List2B","white","man","","true","2","","","","","","","","","",""
"null","CORRECT","","html-keyboard-response","314","743154","0.0-18.0-11.0-0.0","95946","List2B","white","man","","","","null","","","","","","","","",""
"1893.6000000014901","<img src=""portrait/WW2.jpg""style=""height:400px;""></img>","3","html-button-response","315","745049","0.0-18.0-13.0","95946","List2B","white","man","","true","3","","","","","","","","","",""
"null","CORRECT","","html-keyboard-response","316","746553","0.0-18.0-14.0-0.0","95946","List2B","white","man","","","","null","","","","","","","","",""
"2254.300000000745","<img src=""portrait/WW1.jpg""style=""height:400px;""></img>","1","html-button-response","317","748810","0.0-18.0-16.0","95946","List2B","white","man","","true","1","","","","","","","","","",""
"null","CORRECT","","html-keyboard-response","318","750317","0.0-18.0-17.0-0.0","95946","List2B","white","man","","","","null","","","","","","","","",""
"5636","<img src=""portrait/BM2.jpg""style=""height:400px;""></img>","5","html-button-response","319","755957","0.0-18.0-19.0","95946","List2B","white","man","","true","5","","","","","","","","","",""
"null","CORRECT","","html-keyboard-response","320","757461","0.0-18.0-20.0-0.0","95946","List2B","white","man","","","","null","","","","","","","","",""
"2974.699999999255","<img src=""portrait/BW1.jpg""style=""height:400px;""></img>","1","html-button-response","321","760439","0.0-18.0-22.0","95946","List2B","white","man","","true","0","","","","","","","","","",""
"8215.89999999851","<img src=""portrait/BW1.jpg""style=""height:400px;""></img>","0","html-button-response","322","769663","0.0-18.0-24.0-0.0","95946","List2B","white","man","","false","0","","","","","","","","","",""
"null","CORRECT","","html-keyboard-response","323","771172","0.0-18.0-24.0-1.0-0.0","95946","List2B","white","man","","","","null","","","","","","","","",""
"1139.300000000745","<p>You got 7 out of 8 right first time. Press Continue.</p>","0","html-button-response","324","772313","0.0-18.0-25.0","95946","List2B","white","man","","","","","","","","","","","","",""
"2177.400000002235","As you did not score 100%, the memory game will repeat. Press Continue.","0","html-button-response","325","775498","0.0-18.0-26.0-0.0","95946","List2B","white","man","","","","","","","","","","","","",""
"1567","<img src='img/portrait_matrix_list2.jpg' style='width:900px;height:500px;''></img><p>If you have memorised all the portraits and names and are ready to start, press Continue.</p><p><strong>Please note: Your memory of these faces will be tested 4 times during this experiment.</strong></p>","0","html-button-response","326","778071","0.0-18.1-0.1","95946","List2B","white","man","","","","","","","","","","","","",""
"2349.800000000745","<img src=""portrait/WM1.jpg""style=""height:400px;""></img>","6","html-button-response","327","781427","0.0-18.1-1.1","95946","List2B","white","man","","true","6","","","","","","","","","",""
"null","CORRECT","","html-keyboard-response","328","782937","0.0-18.1-2.1-0.1","95946","List2B","white","man","","","","null","","","","","","","","",""
"1652.6000000014901","<img src=""portrait/WM2.jpg""style=""height:400px;""></img>","7","html-button-response","329","784593","0.0-18.1-4.1","95946","List2B","white","man","","true","7","","","","","","","","","",""
"null","CORRECT","","html-keyboard-response","330","786095","0.0-18.1-5.1-0.1","95946","List2B","white","man","","","","null","","","","","","","","",""
"1865.2999999970198","<img src=""portrait/BM1.jpg""style=""height:400px;""></img>","4","html-button-response","331","787962","0.0-18.1-7.1","95946","List2B","white","man","","true","4","","","","","","","","","",""
"null","CORRECT","","html-keyboard-response","332","789466","0.0-18.1-8.1-0.1","95946","List2B","white","man","","","","null","","","","","","","","",""
"3492.699999999255","<img src=""portrait/BW2.jpg""style=""height:400px;""></img>","2","html-button-response","333","792961","0.0-18.1-10.1","95946","List2B","white","man","","true","2","","","","","","","","","",""
"null","CORRECT","","html-keyboard-response","334","794468","0.0-18.1-11.1-0.1","95946","List2B","white","man","","","","null","","","","","","","","",""
"1331.0999999977648","<img src=""portrait/WW2.jpg""style=""height:400px;""></img>","3","html-button-response","335","795802","0.0-18.1-13.1","95946","List2B","white","man","","true","3","","","","","","","","","",""
"null","CORRECT","","html-keyboard-response","336","797306","0.0-18.1-14.1-0.1","95946","List2B","white","man","","","","null","","","","","","","","",""
"1471.2999999970198","<img src=""portrait/WW1.jpg""style=""height:400px;""></img>","1","html-button-response","337","798780","0.0-18.1-16.1","95946","List2B","white","man","","true","1","","","","","","","","","",""
"null","CORRECT","","html-keyboard-response","338","800285","0.0-18.1-17.1-0.1","95946","List2B","white","man","","","","null","","","","","","","","",""
"1560.8999999985099","<img src=""portrait/BM2.jpg""style=""height:400px;""></img>","5","html-button-response","339","801849","0.0-18.1-19.1","95946","List2B","white","man","","true","5","","","","","","","","","",""
"null","CORRECT","","html-keyboard-response","340","803359","0.0-18.1-20.1-0.1","95946","List2B","white","man","","","","null","","","","","","","","",""
"4673.199999999255","<img src=""portrait/BW1.jpg""style=""height:400px;""></img>","0","html-button-response","341","808035","0.0-18.1-22.1","95946","List2B","white","man","","true","0","","","","","","","","","",""
"null","CORRECT","","html-keyboard-response","342","809540","0.0-18.1-23.1-0.1","95946","List2B","white","man","","","","null","","","","","","","","",""
"1369","<p>You got 8 out of 8 right first time. Press Continue.</p>","0","html-button-response","343","810912","0.0-18.1-25.1","95946","List2B","white","man","","","","","","","","","","","","",""
"null","<div style=""font-size:60px;"">+</div>","","html-keyboard-response","344","812421","0.0-19.0-0.0","95946","List2B","white","man","","","","null","","","","","","","","",""
"null","<img src=""stim_listB/kiss7.gif""style=""height:400px;""></stim_listB>","","html-keyboard-response","345","814425","0.0-19.0-1.0","95946","List2B","white","man","","","","null","","","","","","","","",""
"null","is kissing","","html-keyboard-response","346","816431","0.0-19.0-2.0","95946","List2B","white","man","","","","null","","","","","","","","",""
"1984.9000000022352","","","survey-text","347","818421","0.0-19.0-3.0","95946","List2B","white","man","","","","","{""Q0"":""ruth beth""}","<img src=""stim_listB/kiss7.gif""style=""height:400px;""></stim_listB>","is kissing","","","","","",""
"null","<div style=""font-size:60px;"">+</div>","","html-keyboard-response","348","818923","0.0-19.0-0.1","95946","List2B","white","man","","","","null","","","","","","","","",""
"null","<img src=""stim_listB/challenge8.gif""style=""height:400px;""></stim_listB>","","html-keyboard-response","349","820927","0.0-19.0-1.1","95946","List2B","white","man","","","","null","","","","","","","","",""
"null","is being challenged by","","html-keyboard-response","350","822933","0.0-19.0-2.1","95946","List2B","white","man","","","","null","","","","","","","","",""
"1377.300000000745","","","survey-text","351","824315","0.0-19.0-3.1","95946","List2B","white","man","","","","","{""Q0"":""kate ruth""}","<img src=""stim_listB/challenge8.gif""style=""height:400px;""></stim_listB>","is being challenged by","","","","","",""
"null","<div style=""font-size:60px;"">+</div>","","html-keyboard-response","352","824816","0.0-19.0-0.2","95946","List2B","white","man","","","","null","","","","","","","","",""
"null","<img src=""stim_listB/greet8.gif""style=""height:400px;""></stim_listB>","","html-keyboard-response","353","826820","0.0-19.0-1.2","95946","List2B","white","man","","","","null","","","","","","","","",""
"null","is being greeted by","","html-keyboard-response","354","828826","0.0-19.0-2.2","95946","List2B","white","man","","","","null","","","","","","","","",""
"1237.5999999977648","","","survey-text","355","830068","0.0-19.0-3.2","95946","List2B","white","man","","","","","{""Q0"":""kate ruth""}","<img src=""stim_listB/greet8.gif""style=""height:400px;""></stim_listB>","is being greeted by","","","","","",""
"null","<div style=""font-size:60px;"">+</div>","","html-keyboard-response","356","830570","0.0-19.0-0.3","95946","List2B","white","man","","","","null","","","","","","","","",""
"null","<img src=""stim_listB/seduce4.gif""style=""height:400px;""></stim_listB>","","html-keyboard-response","357","832575","0.0-19.0-1.3","95946","List2B","white","man","","","","null","","","","","","","","",""
"null","is being seduced by","","html-keyboard-response","358","834581","0.0-19.0-2.3","95946","List2B","white","man","","","","null","","","","","","","","",""
"1504.4000000022352","","","survey-text","359","836089","0.0-19.0-3.3","95946","List2B","white","man","","","","","{""Q0"":""mike beth""}","<img src=""stim_listB/seduce4.gif""style=""height:400px;""></stim_listB>","is being seduced by","","","","","",""
"null","<div style=""font-size:60px;"">+</div>","","html-keyboard-response","360","836591","0.0-19.0-0.4","95946","List2B","white","man","","","","null","","","","","","","","",""
"null","<img src=""stim_listB/challenge5.gif""style=""height:400px;""></stim_listB>","","html-keyboard-response","361","838597","0.0-19.0-1.4","95946","List2B","white","man","","","","null","","","","","","","","",""
"null","is challenging","","html-keyboard-response","362","840602","0.0-19.0-2.4","95946","List2B","white","man","","","","null","","","","","","","","",""
"1507.6000000014901","","","survey-text","363","842113","0.0-19.0-3.4","95946","List2B","white","man","","","","","{""Q0"":""dave freed""}","<img src=""stim_listB/challenge5.gif""style=""height:400px;""></stim_listB>","is challenging","","","","","",""
"null","<div style=""font-size:60px;"">+</div>","","html-keyboard-response","364","842615","0.0-19.0-0.5","95946","List2B","white","man","","","","null","","","","","","","","",""
"null","<img src=""stim_listB/copy7.gif""style=""height:400px;""></stim_listB>","","html-keyboard-response","365","844618","0.0-19.0-1.5","95946","List2B","white","man","","","","null","","","","","","","","",""
"null","is copying","","html-keyboard-response","366","846623","0.0-19.0-2.5","95946","List2B","white","man","","","","null","","","","","","","","",""
"2186.5","","","survey-text","367","848814","0.0-19.0-3.5","95946","List2B","white","man","","","","","{""Q0"":""beth jane""}","<img src=""stim_listB/copy7.gif""style=""height:400px;""></stim_listB>","is copying","","","","","",""
"null","<div style=""font-size:60px;"">+</div>","","html-keyboard-response","368","849317","0.0-19.0-0.6","95946","List2B","white","man","","","","null","","","","","","","","",""
"null","<img src=""stim_listB/kiss3.gif""style=""height:400px;""></stim_listB>","","html-keyboard-response","369","851322","0.0-19.0-1.6","95946","List2B","white","man","","","","null","","","","","","","","",""
"null","is kissing","","html-keyboard-response","370","853327","0.0-19.0-2.6","95946","List2B","white","man","","","","null","","","","","","","","",""
"3418.699999999255","","","survey-text","371","856747","0.0-19.0-3.6","95946","List2B","white","man","","","","","{""Q0"":""fred ruth""}","<img src=""stim_listB/kiss3.gif""style=""height:400px;""></stim_listB>","is kissing","","","","","",""
"null","<div style=""font-size:60px;"">+</div>","","html-keyboard-response","372","857249","0.0-19.0-0.7","95946","List2B","white","man","","","","null","","","","","","","","",""
"null","<img src=""stim_listB/copy3.gif""style=""height:400px;""></stim_listB>","","html-keyboard-response","373","859252","0.0-19.0-1.7","95946","List2B","white","man","","","","null","","","","","","","","",""
"null","is copying","","html-keyboard-response","374","861257","0.0-19.0-2.7","95946","List2B","white","man","","","","null","","","","","","","","",""
"5063.10000000149","","","survey-text","375","866324","0.0-19.0-3.7","95946","List2B","white","man","","","","","{""Q0"":""ruth fred""}","<img src=""stim_listB/copy3.gif""style=""height:400px;""></stim_listB>","is copying","","","","","",""
"null","<div style=""font-size:60px;"">+</div>","","html-keyboard-response","376","866825","0.0-19.0-0.8","95946","List2B","white","man","","","","null","","","","","","","","",""
"null","<img src=""stim_listB/copy4.gif""style=""height:400px;""></stim_listB>","","html-keyboard-response","377","868831","0.0-19.0-1.8","95946","List2B","white","man","","","","null","","","","","","","","",""
"null","is being copied by","","html-keyboard-response","378","870836","0.0-19.0-2.8","95946","List2B","white","man","","","","null","","","","","","","","",""
"1317.8999999985099","","","survey-text","379","872157","0.0-19.0-3.8","95946","List2B","white","man","","","","","{""Q0"":""fred kate""}","<img src=""stim_listB/copy4.gif""style=""height:400px;""></stim_listB>","is being copied by","","","","","",""
"null","<div style=""font-size:60px;"">+</div>","","html-keyboard-response","380","872660","0.0-19.0-0.9","95946","List2B","white","man","","","","null","","","","","","","","",""
"null","<img src=""stim_listB/seduce5.gif""style=""height:400px;""></stim_listB>","","html-keyboard-response","381","874667","0.0-19.0-1.9","95946","List2B","white","man","","","","null","","","","","","","","",""
"null","is seducing","","html-keyboard-response","382","876671","0.0-19.0-2.9","95946","List2B","white","man","","","","null","","","","","","","","",""
"1679.2000000029802","","","survey-text","383","878354","0.0-19.0-3.9","95946","List2B","white","man","","","","","{""Q0"":""mike luke""}","<img src=""stim_listB/seduce5.gif""style=""height:400px;""></stim_listB>","is seducing","","","","","",""
"null","<div style=""font-size:60px;"">+</div>","","html-keyboard-response","384","878857","0.0-19.0-0.10","95946","List2B","white","man","","","","null","","","","","","","","",""
"null","<img src=""stim_listB/look8.gif""style=""height:400px;""></stim_listB>","","html-keyboard-response","385","880863","0.0-19.0-1.10","95946","List2B","white","man","","","","null","","","","","","","","",""
"null","is being looked at by","","html-keyboard-response","386","882868","0.0-19.0-2.10","95946","List2B","white","man","","","","null","","","","","","","","",""
"3782.199999999255","","","survey-text","387","886656","0.0-19.0-3.10","95946","List2B","white","man","","","","","{""Q0"":""luke mike""}","<img src=""stim_listB/look8.gif""style=""height:400px;""></stim_listB>","is being looked at by","","","","","",""
"null","<div style=""font-size:60px;"">+</div>","","html-keyboard-response","388","887159","0.0-19.0-0.11","95946","List2B","white","man","","","","null","","","","","","","","",""
"null","<img src=""stim_listB/kiss4.gif""style=""height:400px;""></stim_listB>","","html-keyboard-response","389","889161","0.0-19.0-1.11","95946","List2B","white","man","","","","null","","","","","","","","",""
"null","is being kissed by","","html-keyboard-response","390","891166","0.0-19.0-2.11","95946","List2B","white","man","","","","null","","","","","","","","",""
"1619.7999999970198","","","survey-text","391","892789","0.0-19.0-3.11","95946","List2B","white","man","","","","","{""Q0"":""mike kate""}","<img src=""stim_listB/kiss4.gif""style=""height:400px;""></stim_listB>","is being kissed by","","","","","",""
"null","<div style=""font-size:60px;"">+</div>","","html-keyboard-response","392","893290","0.0-19.0-0.12","95946","List2B","white","man","","","","null","","","","","","","","",""
"null","<img src=""stim_listB/touch3.gif""style=""height:400px;""></stim_listB>","","html-keyboard-response","393","895294","0.0-19.0-1.12","95946","List2B","white","man","","","","null","","","","","","","","",""
"null","is touching","","html-keyboard-response","394","897300","0.0-19.0-2.12","95946","List2B","white","man","","","","null","","","","","","","","",""
"1190.9000000022352","","","survey-text","395","898495","0.0-19.0-3.12","95946","List2B","white","man","","","","","{""Q0"":""mike kate""}","<img src=""stim_listB/touch3.gif""style=""height:400px;""></stim_listB>","is touching","","","","","",""
"null","<div style=""font-size:60px;"">+</div>","","html-keyboard-response","396","898996","0.0-19.0-0.13","95946","List2B","white","man","","","","null","","","","","","","","",""
"null","<img src=""stim_listB/hug6.gif""style=""height:400px;""></stim_listB>","","html-keyboard-response","397","901002","0.0-19.0-1.13","95946","List2B","white","man","","","","null","","","","","","","","",""
"null","is being hugged by","","html-keyboard-response","398","903007","0.0-19.0-2.13","95946","List2B","white","man","","","","null","","","","","","","","",""
"1567.7000000029802","","","survey-text","399","904578","0.0-19.0-3.13","95946","List2B","white","man","","","","","{""Q0"":""dave mike""}","<img src=""stim_listB/hug6.gif""style=""height:400px;""></stim_listB>","is being hugged by","","","","","",""
"null","<div style=""font-size:60px;"">+</div>","","html-keyboard-response","400","905081","0.0-19.0-0.14","95946","List2B","white","man","","","","null","","","","","","","","",""
"null","<img src=""stim_listB/oppose8.gif""style=""height:400px;""></stim_listB>","","html-keyboard-response","401","907086","0.0-19.0-1.14","95946","List2B","white","man","","","","null","","","","","","","","",""
"null","is being opposed by","","html-keyboard-response","402","909092","0.0-19.0-2.14","95946","List2B","white","man","","","","null","","","","","","","","",""
"1698","","","survey-text","403","910793","0.0-19.0-3.14","95946","List2B","white","man","","","","","{""Q0"":""beth ruth""}","<img src=""stim_listB/oppose8.gif""style=""height:400px;""></stim_listB>","is being opposed by","","","","","",""
"null","<div style=""font-size:60px;"">+</div>","","html-keyboard-response","404","911295","0.0-19.0-0.15","95946","List2B","white","man","","","","null","","","","","","","","",""
"null","<img src=""stim_listB/seduce6.gif""style=""height:400px;""></stim_listB>","","html-keyboard-response","405","913300","0.0-19.0-1.15","95946","List2B","white","man","","","","null","","","","","","","","",""
"null","is being seduced by","","html-keyboard-response","406","915305","0.0-19.0-2.15","95946","List2B","white","man","","","","null","","","","","","","","",""
"2554","","","survey-text","407","917862","0.0-19.0-3.15","95946","List2B","white","man","","","","","{""Q0"":""dave mike""}","<img src=""stim_listB/seduce6.gif""style=""height:400px;""></stim_listB>","is being seduced by","","","","","",""
"null","<div style=""font-size:60px;"">+</div>","","html-keyboard-response","408","918364","0.0-19.0-0.16","95946","List2B","white","man","","","","null","","","","","","","","",""
"null","<img src=""stim_listB/hug5.gif""style=""height:400px;""></stim_listB>","","html-keyboard-response","409","920369","0.0-19.0-1.16","95946","List2B","white","man","","","","null","","","","","","","","",""
"null","is hugging","","html-keyboard-response","410","922371","0.0-19.0-2.16","95946","List2B","white","man","","","","null","","","","","","","","",""
"1751.8999999985099","","","survey-text","411","924128","0.0-19.0-3.16","95946","List2B","white","man","","","","","{""Q0"":""luke fred""}","<img src=""stim_listB/hug5.gif""style=""height:400px;""></stim_listB>","is hugging","","","","","",""
"null","<div style=""font-size:60px;"">+</div>","","html-keyboard-response","412","924630","0.0-19.0-0.17","95946","List2B","white","man","","","","null","","","","","","","","",""
"null","<img src=""stim_listB/kiss8.gif""style=""height:400px;""></stim_listB>","","html-keyboard-response","413","926633","0.0-19.0-1.17","95946","List2B","white","man","","","","null","","","","","","","","",""
"null","is being kissed by","","html-keyboard-response","414","928638","0.0-19.0-2.17","95946","List2B","white","man","","","","null","","","","","","","","",""
"1249.2999999970198","","","survey-text","415","929889","0.0-19.0-3.17","95946","List2B","white","man","","","","","{""Q0"":""jane kate""}","<img src=""stim_listB/kiss8.gif""style=""height:400px;""></stim_listB>","is being kissed by","","","","","",""
"null","<div style=""font-size:60px;"">+</div>","","html-keyboard-response","416","930392","0.0-19.0-0.18","95946","List2B","white","man","","","","null","","","","","","","","",""
"null","<img src=""stim_listB/oppose6.gif""style=""height:400px;""></stim_listB>","","html-keyboard-response","417","932398","0.0-19.0-1.18","95946","List2B","white","man","","","","null","","","","","","","","",""
"null","is being opposed by","","html-keyboard-response","418","934404","0.0-19.0-2.18","95946","List2B","white","man","","","","null","","","","","","","","",""
"4113","","","survey-text","419","938520","0.0-19.0-3.18","95946","List2B","white","man","","","","","{""Q0"":""luke fred""}","<img src=""stim_listB/oppose6.gif""style=""height:400px;""></stim_listB>","is being opposed by","","","","","",""
"null","<div style=""font-size:60px;"">+</div>","","html-keyboard-response","420","939023","0.0-19.0-0.19","95946","List2B","white","man","","","","null","","","","","","","","",""
"null","<img src=""stim_listB/hug1.gif""style=""height:400px;""></stim_listB>","","html-keyboard-response","421","941028","0.0-19.0-1.19","95946","List2B","white","man","","","","null","","","","","","","","",""
"null","is hugging","","html-keyboard-response","422","943033","0.0-19.0-2.19","95946","List2B","white","man","","","","null","","","","","","","","",""
"2084","","","survey-text","423","945121","0.0-19.0-3.19","95946","List2B","white","man","","","","","{""Q0"":""luke ruth""}","<img src=""stim_listB/hug1.gif""style=""height:400px;""></stim_listB>","is hugging","","","","","",""
"2297.800000000745","<p>Thank you for completing that task.</p><p>The final part of this session is a questionnaire that will take about 4 minutes.</p><p>Press Continue.</p>","0","html-button-response","424","947421","0.0-20.0","95946","List2B","white","man","","","","","","","","","","","","",""
"15863.39999999851","","","survey-text","425","964295","0.0-21.0","95946","List2B","white","man","","","","","{""Q0"":""31"",""Q1"":""English"",""Q2"":""English"",""Q3"":""US"",""Q4"":""US"",""Q5"":""White"",""Q6"":""Male""}","","","demographics","","","","",""
"1752.0999999977648","<p>Have you lived in the USA for the last 5 years or more?</p>","0","html-button-response","426","966050","0.0-22.0","95946","List2B","white","man","","","","","","","","fiveyears","","","","",""
"1999.8999999985099","<p>Move the slider to show the extent to which you agree with the following statements.</p>","0","html-button-response","427","969053","0.0-23.0","95946","List2B","white","man","","","","","","","","","","","","",""
"3842.2000000029802","","","html-slider-response","428","973902","0.0-24.0-0.0-0.0","95946","List2B","white","man","","","","","","","","survey_race","63","","","My age is not an important part of who I am.","filler"
"5297.5","","","html-slider-response","429","979202","0.0-24.0-0.0-0.1","95946","List2B","white","man","","","","","","","","survey_race","52","","","The older I get, the wiser I feel.","filler"
"5048.10000000149","","","html-slider-response","430","984252","0.0-24.0-0.0-0.2","95946","List2B","white","man","","","","","","","","survey_race","12","","","I enjoy being in large groups.","filler"
"4450.599999997765","","","html-slider-response","431","988706","0.0-24.0-0.0-0.3","95946","List2B","white","man","","","","","","","","survey_race","11","","","Being my race is an important part of how I see myself.","important"
"5006.10000000149","","","html-slider-response","432","993714","0.0-24.0-0.0-0.4","95946","List2B","white","man","","","","","","","","survey_race","55","","","People of my race have a lot in common with each other.","common"
"5693.699999999255","","","html-slider-response","433","999411","0.0-24.0-0.0-0.5","95946","List2B","white","man","","","","","","","","survey_race","61","","","I have a lot in common with the average person of my race.","average"
"3847.5","","","html-slider-response","434","1003261","0.0-24.0-0.0-0.6","95946","List2B","white","man","","","","","","","","survey_race","73","","","People my age have a lot in common with each other.","filler"
"4119","","","html-slider-response","435","1007382","0.0-24.0-0.0-0.7","95946","List2B","white","man","","","","","","","","survey_race","59","","","I am glad to be my race.","glad"
"6761","","","html-slider-response","436","1014146","0.0-24.0-0.0-0.8","95946","List2B","white","man","","","","","","","","survey_race","18","","","I often think about the fact that I am my race.","often"
"2992.400000002235","","","html-slider-response","437","1017141","0.0-24.0-0.0-0.9","95946","List2B","white","man","","","","","","","","survey_race","60","","","It is pleasant to be my race.","pleasant"
"2993.599999997765","","","html-slider-response","438","1020138","0.0-24.0-0.0-0.10","95946","List2B","white","man","","","","","","","","survey_race","71","","","I think that my race has a lot to be proud of.","proud"
"7664.89999999851","","","html-slider-response","439","1027806","0.0-24.0-0.0-0.11","95946","List2B","white","man","","","","","","","","survey_race","71","","","Being my race gives me a good feeling.","feeling"
"4587.89999999851","","","html-slider-response","440","1032397","0.0-24.0-0.0-0.12","95946","List2B","white","man","","","","","","","","survey_race","59","","","Being my age gives me a good feeling.","filler"
"3798.5","","","html-slider-response","441","1036198","0.0-24.0-0.0-0.13","95946","List2B","white","man","","","","","","","","survey_race","54","","","I feel solidarity with my race.","solidarity"
"2205","","","html-slider-response","442","1038405","0.0-24.0-0.0-0.14","95946","List2B","white","man","","","","","","","","survey_race","58","","","I feel a bond with people the same age as me.","filler"
"3871.89999999851","","","html-slider-response","443","1042280","0.0-24.0-0.0-0.15","95946","List2B","white","man","","","","","","","","survey_race","0","","","Getting older does not worry me.","filler"
"3292.400000002235","","","html-slider-response","444","1045573","0.0-24.0-0.0-0.16","95946","List2B","white","man","","","","","","","","survey_race","77","","","I feel solidarity with people the same age as me.","filler"
"3017.699999999255","","","html-slider-response","445","1048592","0.0-24.0-0.0-0.17","95946","List2B","white","man","","","","","","","","survey_race","70","","","I am glad to be the age I am.","filler"
"4423","","","html-slider-response","446","1053017","0.0-24.0-0.0-0.18","95946","List2B","white","man","","","","","","","","survey_race","15","","","The fact that I am my race is an important part of my identity.","identity"
"2994.5","","","html-slider-response","447","1056014","0.0-24.0-0.0-0.19","95946","List2B","white","man","","","","","","","","survey_race","100","","","I consider myself an introvert.","filler"
"2912.60000000149","","","html-slider-response","448","1058929","0.0-24.0-0.0-0.20","95946","List2B","white","man","","","","","","","","survey_race","0","","","I consider myself an extrovert.","filler"
"5694.29999999702","","","html-slider-response","449","1064627","0.0-24.0-0.0-0.21","95946","List2B","white","man","","","","","","","","survey_race","26","","","I am similar to the average person of my race.","similar"
"3906.10000000149","","","html-slider-response","450","1068536","0.0-24.0-0.0-0.22","95946","List2B","white","man","","","","","","","","survey_race","80","","","I have a lot in common with people of a similar age to me.","filler"
"3667.39999999851","","","html-slider-response","451","1072207","0.0-24.0-0.0-0.23","95946","List2B","white","man","","","","","","","","survey_race","64","","","I often think about the fact that I am my age.","filler"
"3272.699999999255","","","html-slider-response","452","1075482","0.0-24.0-0.0-0.24","95946","List2B","white","man","","","","","","","","survey_race","68","","","I am glad to be my age.","filler"
"4123.199999999255","","","html-slider-response","453","1079608","0.0-24.0-0.0-0.25","95946","List2B","white","man","","","","","","","","survey_race","60","","","I feel committed to my race.","committed"
"2185.800000000745","","","html-slider-response","454","1081797","0.0-24.0-0.0-0.26","95946","List2B","white","man","","","","","","","","survey_race","40","","","I feel a bond with my race.","bond"
"4803.60000000149","","","html-slider-response","455","1086603","0.0-24.0-0.0-0.27","95946","List2B","white","man","","","","","","","","survey_race","61","","","People of my race are very similar to each other.","verysimilar"
"4748.699999999255","","","html-slider-response","456","1091354","0.0-24.0-1.0-0.0","95946","List2B","white","man","","","","","","","","survey_gender","59","","","People of my gender have a lot in common with each other.","common"
"4828.10000000149","","","html-slider-response","457","1096186","0.0-24.0-1.0-0.1","95946","List2B","white","man","","","","","","","","survey_gender","66","","","I am glad to be my gender.","glad"
"4684.39999999851","","","html-slider-response","458","1100874","0.0-24.0-1.0-0.2","95946","List2B","white","man","","","","","","","","survey_gender","44","","","I consider myself a highly empathetic person.","filler"
"7373.900000002235","","","html-slider-response","459","1108250","0.0-24.0-1.0-0.3","95946","List2B","white","man","","","","","","","","survey_gender","69","","","My friends understand me.","filler"
"3636.39999999851","","","html-slider-response","460","1111888","0.0-24.0-1.0-0.4","95946","List2B","white","man","","","","","","","","survey_gender","87","","","I would say I am an animal person.","filler"
"4438.900000002235","","","html-slider-response","461","1116329","0.0-24.0-1.0-0.5","95946","List2B","white","man","","","","","","","","survey_gender","81","","","It is not always easy for people to know what I am thinking.","filler"
"4233","","","html-slider-response","462","1120566","0.0-24.0-1.0-0.6","95946","List2B","white","man","","","","","","","","survey_gender","74","","","Most of the friends in my life are very similar to me.","filler"
"3128.800000000745","","","html-slider-response","463","1123697","0.0-24.0-1.0-0.7","95946","List2B","white","man","","","","","","","","survey_gender","30","","","I feel a bond with my gender.","bond"
"3291","","","html-slider-response","464","1126990","0.0-24.0-1.0-0.8","95946","List2B","white","man","","","","","","","","survey_gender","27","","","I often think about my actions.","filler"
"3435.89999999851","","","html-slider-response","465","1130429","0.0-24.0-1.0-0.9","95946","List2B","white","man","","","","","","","","survey_gender","68","","","I have a lot in common with my friends.","filler"
"2825","","","html-slider-response","466","1133255","0.0-24.0-1.0-0.10","95946","List2B","white","man","","","","","","","","survey_gender","15","","","I often think about the fact that I am my gender.","often"
"2626.599999997765","","","html-slider-response","467","1135884","0.0-24.0-1.0-0.11","95946","List2B","white","man","","","","","","","","survey_gender","73","","","I feel solidarity with my friends.","filler"
"5750.199999999255","","","html-slider-response","468","1141637","0.0-24.0-1.0-0.12","95946","List2B","white","man","","","","","","","","survey_gender","43","","","Family is not more important to me than friendship.","filler"
"4418.79999999702","","","html-slider-response","469","1146059","0.0-24.0-1.0-0.13","95946","List2B","white","man","","","","","","","","survey_gender","71","","","The fact that I am my gender is an important part of my identity.","identity"
"7760","","","html-slider-response","470","1153822","0.0-24.0-1.0-0.14","95946","List2B","white","man","","","","","","","","survey_gender","25","","","Routine is not important to me.","filler"
"2550.900000002235","","","html-slider-response","471","1156376","0.0-24.0-1.0-0.15","95946","List2B","white","man","","","","","","","","survey_gender","68","","","I feel committed to my gender.","committed"
"3725.300000000745","","","html-slider-response","472","1160103","0.0-24.0-1.0-0.16","95946","List2B","white","man","","","","","","","","survey_gender","72","","","I have a lot in common with the average person of my gender.","average"
"3490.7999999970198","","","html-slider-response","473","1163597","0.0-24.0-1.0-0.17","95946","List2B","white","man","","","","","","","","survey_gender","76","","","I think that my gender has a lot to be proud of.","proud"
"3017.7999999970198","","","html-slider-response","474","1166617","0.0-24.0-1.0-0.18","95946","List2B","white","man","","","","","","","","survey_gender","66","","","It is pleasant to be my gender.","pleasant"
"2368.5","","","html-slider-response","475","1168989","0.0-24.0-1.0-0.19","95946","List2B","white","man","","","","","","","","survey_gender","72","","","I feel a bond with my friends.","filler"
"2617","","","html-slider-response","476","1171609","0.0-24.0-1.0-0.20","95946","List2B","white","man","","","","","","","","survey_gender","80","","","People of my gender are very similar to each other.","verysimilar"
"3465.599999997765","","","html-slider-response","477","1175078","0.0-24.0-1.0-0.21","95946","List2B","white","man","","","","","","","","survey_gender","71","","","Being my gender is an important part of how I see myself.","important"
"4482.39999999851","","","html-slider-response","478","1179563","0.0-24.0-1.0-0.22","95946","List2B","white","man","","","","","","","","survey_gender","80","","","Being around my friends gives me a good feeling.","filler"
"10637.800000000745","","","html-slider-response","479","1190204","0.0-24.0-1.0-0.23","95946","List2B","white","man","","","","","","","","survey_gender","66","","","Being my gender gives me a good feeling.","feeling"
"3842.5","","","html-slider-response","480","1194050","0.0-24.0-1.0-0.24","95946","List2B","white","man","","","","","","","","survey_gender","68","","","I am similar to the average person of my gender.","similar"
"2056","","","html-slider-response","481","1196109","0.0-24.0-1.0-0.25","95946","List2B","white","man","","","","","","","","survey_gender","68","","","I feel solidarity with my gender.","solidarity"
"2713.5","","","html-slider-response","482","1198824","0.0-24.0-1.0-0.26","95946","List2B","white","man","","","","","","","","survey_gender","79","","","I am glad to have the friends that I have.","filler"
"5814.800000000745","","","html-slider-response","483","1204641","0.0-24.0-1.0-0.27","95946","List2B","white","man","","","","","","","","survey_gender","20","","","My friends have a lot in common with each other.","filler"
"7101.300000000745","","","survey-text","484","1211747","0.0-25.0","95946","List2B","white","man","","","","","{""Q0"":""61613d22aaa3703ab8cf95e7""}","","","worker_id","","","","",""
"6930.400000002235","","","external-html","485","1219032","0.0-26.0","95946","List2B","white","man","debrief.html","","","","","","","","","","","",""
