"rt","stimulus","button_pressed","trial_type","trial_index","time_elapsed","internal_node_id","subject","list","ppt_race","ppt_gender","url","first_guess","correct","key_press","responses","image_type","phrase_type","test_part","response","stimulus1","stimulus2","question_type","survey_item"
"4017.2999999970198","Welcome to the experiment. Press Continue to begin.","0","html-button-response","0","4024","0.0-0.0","97303","List1B","black","woman","","","","","","","","","","","","",""
"14860.89999999106","","","external-html","1","20431","0.0-1.0","97303","List1B","black","woman","consent.html","","","","","","","","","","","",""
"38885.40000000596","<p>On the next page, you will see portraits of 8 people and their names.</p><p>Your first task is to take a few minutes to memorise the names of these people.</p><p>You will have to recall their names during the rest of the experiment, so it is</p><p>essential that you try to memorise these people and their names as best as you can.</p><br><p><strong>You will then be tested on your memory of these names and portraits.</strong></p><br><p>The experiment will start after you have completed this memory test.</p><br><p>Ready?</p>","0","html-button-response","2","59319","0.0-2.0","97303","List1B","black","woman","","","","","","","","","","","","",""
"71085.70000000298","<img src='img/portrait_matrix_list1.jpg' style='width:900px;height:500px;''></img><p>If you have memorised all the portraits and names and are ready to start, press Continue.</p><p><strong>Please note: Your memory of these faces will be tested 4 times during this experiment.</strong></p>","0","html-button-response","3","131414","0.0-3.0-0.0","97303","List1B","black","woman","","","","","","","","","","","","",""
"11035.10000000894","<img src=""portrait/WM2.jpg""style=""height:400px;""></img>","7","html-button-response","4","143454","0.0-3.0-1.0","97303","List1B","black","woman","","true","7","","","","","","","","","",""
"null","CORRECT","","html-keyboard-response","5","144977","0.0-3.0-2.0-0.0","97303","List1B","black","woman","","","","null","","","","","","","","",""
"10538.39999999106","<img src=""portrait/BW2.jpg""style=""height:400px;""></img>","2","html-button-response","6","155521","0.0-3.0-4.0","97303","List1B","black","woman","","true","2","","","","","","","","","",""
"null","CORRECT","","html-keyboard-response","7","157035","0.0-3.0-5.0-0.0","97303","List1B","black","woman","","","","null","","","","","","","","",""
"8060.9000000059605","<img src=""portrait/WW1.jpg""style=""height:400px;""></img>","1","html-button-response","8","165098","0.0-3.0-7.0","97303","List1B","black","woman","","true","1","","","","","","","","","",""
"null","CORRECT","","html-keyboard-response","9","166602","0.0-3.0-8.0-0.0","97303","List1B","black","woman","","","","null","","","","","","","","",""
"8177","<img src=""portrait/BM1.jpg""style=""height:400px;""></img>","4","html-button-response","10","174782","0.0-3.0-10.0","97303","List1B","black","woman","","true","4","","","","","","","","","",""
"null","CORRECT","","html-keyboard-response","11","176288","0.0-3.0-11.0-0.0","97303","List1B","black","woman","","","","null","","","","","","","","",""
"7354.29999999702","<img src=""portrait/WM1.jpg""style=""height:400px;""></img>","6","html-button-response","12","183645","0.0-3.0-13.0","97303","List1B","black","woman","","true","6","","","","","","","","","",""
"null","CORRECT","","html-keyboard-response","13","185148","0.0-3.0-14.0-0.0","97303","List1B","black","woman","","","","null","","","","","","","","",""
"9002.90000000596","<img src=""portrait/BM2.jpg""style=""height:400px;""></img>","5","html-button-response","14","194153","0.0-3.0-16.0","97303","List1B","black","woman","","true","5","","","","","","","","","",""
"null","CORRECT","","html-keyboard-response","15","195675","0.0-3.0-17.0-0.0","97303","List1B","black","woman","","","","null","","","","","","","","",""
"13731.5","<img src=""portrait/BW1.jpg""style=""height:400px;""></img>","3","html-button-response","16","209409","0.0-3.0-19.0","97303","List1B","black","woman","","true","0","","","","","","","","","",""
"9802.90000000596","<img src=""portrait/BW1.jpg""style=""height:400px;""></img>","0","html-button-response","17","220217","0.0-3.0-21.0-0.0","97303","List1B","black","woman","","false","0","","","","","","","","","",""
"null","CORRECT","","html-keyboard-response","18","221721","0.0-3.0-21.0-1.0-0.0","97303","List1B","black","woman","","","","null","","","","","","","","",""
"8461.800000011921","<img src=""portrait/WW2.jpg""style=""height:400px;""></img>","3","html-button-response","19","230185","0.0-3.0-22.0","97303","List1B","black","woman","","true","3","","","","","","","","","",""
"null","CORRECT","","html-keyboard-response","20","231701","0.0-3.0-23.0-0.0","97303","List1B","black","woman","","","","null","","","","","","","","",""
"2412.9000000059605","<p>You got 7 out of 8 right first time. Press Continue.</p>","0","html-button-response","21","234117","0.0-3.0-25.0","97303","List1B","black","woman","","","","","","","","","","","","",""
"8581.70000000298","As you did not score 100%, the memory game will repeat. Press Continue.","0","html-button-response","22","243705","0.0-3.0-26.0-0.0","97303","List1B","black","woman","","","","","","","","","","","","",""
"10098.79999999702","<img src='img/portrait_matrix_list1.jpg' style='width:900px;height:500px;''></img><p>If you have memorised all the portraits and names and are ready to start, press Continue.</p><p><strong>Please note: Your memory of these faces will be tested 4 times during this experiment.</strong></p>","0","html-button-response","23","254808","0.0-3.1-0.1","97303","List1B","black","woman","","","","","","","","","","","","",""
"4069.5999999940395","<img src=""portrait/WM2.jpg""style=""height:400px;""></img>","7","html-button-response","24","259897","0.0-3.1-1.1","97303","List1B","black","woman","","true","7","","","","","","","","","",""
"null","CORRECT","","html-keyboard-response","25","261419","0.0-3.1-2.1-0.1","97303","List1B","black","woman","","","","null","","","","","","","","",""
"3234.5999999940395","<img src=""portrait/BW2.jpg""style=""height:400px;""></img>","2","html-button-response","26","264656","0.0-3.1-4.1","97303","List1B","black","woman","","true","2","","","","","","","","","",""
"null","CORRECT","","html-keyboard-response","27","266161","0.0-3.1-5.1-0.1","97303","List1B","black","woman","","","","null","","","","","","","","",""
"3900.0999999940395","<img src=""portrait/WW1.jpg""style=""height:400px;""></img>","1","html-button-response","28","270064","0.0-3.1-7.1","97303","List1B","black","woman","","true","1","","","","","","","","","",""
"null","CORRECT","","html-keyboard-response","29","271568","0.0-3.1-8.1-0.1","97303","List1B","black","woman","","","","null","","","","","","","","",""
"7037.4000000059605","<img src=""portrait/BM1.jpg""style=""height:400px;""></img>","4","html-button-response","30","278608","0.0-3.1-10.1","97303","List1B","black","woman","","true","4","","","","","","","","","",""
"null","CORRECT","","html-keyboard-response","31","280132","0.0-3.1-11.1-0.1","97303","List1B","black","woman","","","","null","","","","","","","","",""
"5148.4000000059605","<img src=""portrait/WM1.jpg""style=""height:400px;""></img>","6","html-button-response","32","285284","0.0-3.1-13.1","97303","List1B","black","woman","","true","6","","","","","","","","","",""
"null","CORRECT","","html-keyboard-response","33","286797","0.0-3.1-14.1-0.1","97303","List1B","black","woman","","","","null","","","","","","","","",""
"2880.2000000029802","<img src=""portrait/BM2.jpg""style=""height:400px;""></img>","5","html-button-response","34","289680","0.0-3.1-16.1","97303","List1B","black","woman","","true","5","","","","","","","","","",""
"null","CORRECT","","html-keyboard-response","35","291205","0.0-3.1-17.1-0.1","97303","List1B","black","woman","","","","null","","","","","","","","",""
"3263.5","<img src=""portrait/BW1.jpg""style=""height:400px;""></img>","0","html-button-response","36","294472","0.0-3.1-19.1","97303","List1B","black","woman","","true","0","","","","","","","","","",""
"null","CORRECT","","html-keyboard-response","37","295978","0.0-3.1-20.1-0.1","97303","List1B","black","woman","","","","null","","","","","","","","",""
"3459.5999999940395","<img src=""portrait/WW2.jpg""style=""height:400px;""></img>","3","html-button-response","38","299440","0.0-3.1-22.1","97303","List1B","black","woman","","true","3","","","","","","","","","",""
"null","CORRECT","","html-keyboard-response","39","300949","0.0-3.1-23.1-0.1","97303","List1B","black","woman","","","","null","","","","","","","","",""
"3718.5","<p>You got 8 out of 8 right first time. Press Continue.</p>","0","html-button-response","40","304671","0.0-3.1-25.1","97303","List1B","black","woman","","","","","","","","","","","","",""
"74340.59999999404","<p>In this experiment, you will view photographs of the people from the memory game interacting.</p><p>By using the <strong>exact</strong> phrase given <i>after</i> the photograph appears and recalling the correct names of the people in the photographs, form a sentence describing the interaction. You do not need to capitalise names.</p><p>Type your answer in the space provided. Please complete every sentence before moving onto the next trial.</p><p>You will only have a few seconds to memorise each given photograph and phrase before you can respond, so try your best to focus.</p><p>An example is given below. Press 'Continue' when you are ready.</p><img src='img/speaking_example.jpg' style='width:800px;height:460px;''></img>","0","html-button-response","41","380020","0.0-4.0","97303","List1B","black","woman","","","","","","","","","","","","",""
"8017.5999999940395","<p>Before the experiment starts, you will watch two example trials. Press 'Continue'.</p>","0","html-button-response","42","389047","0.0-5.0","97303","List1B","black","woman","","","","","","","","","","","","",""
"null","<img src='img/play_eg.gif' style='height:400px;''></img>","","html-keyboard-response","43","392068","0.0-6.0","97303","List1B","black","woman","","","","null","","","","","","","","",""
"null","<p>is playing with</p>","","html-keyboard-response","44","394071","0.0-7.0","97303","List1B","black","woman","","","","null","","","","","","","","",""
"15590.59999999404","<p><b>Answer:</b> kate is playing with beth</p>","0","html-button-response","45","409663","0.0-8.0","97303","List1B","black","woman","","","","","","","","","","","","",""
"null","<img src='img/dance_eg.gif' style='height:400px;''></img>","","html-keyboard-response","46","412688","0.0-9.0","97303","List1B","black","woman","","","","null","","","","","","","","",""
"null","<p>is being entertained by</p>","","html-keyboard-response","47","414696","0.0-10.0","97303","List1B","black","woman","","","","null","","","","","","","","",""
"9436.70000000298","<p><b>Answer:</b> luke is being entertained by dave</p>","0","html-button-response","48","424135","0.0-11.0","97303","List1B","black","woman","","","","","","","","","","","","",""
"12320.89999999106","<p>Ready to start the experiment?</p><br><p><strong>Remember to describe the picture using a full sentence,</strong></p><p><strong>that combines the names of the people with the <i>exact</i> phrase given.</strong></p><p><strong>To receive full payment you must do this correctly.</strong></p><p><strong> You do not need to capitalise names or use punctuation.</strong></p><br><p>Press 'Continue' to begin.</p>","0","html-button-response","49","437459","0.0-12.0","97303","List1B","black","woman","","","","","","","","","","","","",""
"null","<div style=""font-size:60px;"">+</div>","","html-keyboard-response","50","438974","0.0-13.0-0.0","97303","List1B","black","woman","","","","null","","","","","","","","",""
"null","<img src=""stim_listB/kiss2.gif""style=""height:400px;""></stim_listB>","","html-keyboard-response","51","440983","0.0-13.0-1.0","97303","List1B","black","woman","","","","null","","","","","","","","",""
"null","is being kissed by","","html-keyboard-response","52","442996","0.0-13.0-2.0","97303","List1B","black","woman","","","","null","","","","","","","","",""
"22572.40000000596","","","survey-text","53","465576","0.0-13.0-3.0","97303","List1B","black","woman","","","","","{""Q0"":""kate is trying to kiss Mike""}","<img src=""stim_listB/kiss2.gif""style=""height:400px;""></stim_listB>","is being kissed by","","","","","",""
"null","<div style=""font-size:60px;"">+</div>","","html-keyboard-response","54","466083","0.0-13.0-0.1","97303","List1B","black","woman","","","","null","","","","","","","","",""
"null","<img src=""stim_listB/hug4.gif""style=""height:400px;""></stim_listB>","","html-keyboard-response","55","468099","0.0-13.0-1.1","97303","List1B","black","woman","","","","null","","","","","","","","",""
"null","is being hugged by","","html-keyboard-response","56","470111","0.0-13.0-2.1","97303","List1B","black","woman","","","","null","","","","","","","","",""
"38890.40000000596","","","survey-text","57","509007","0.0-13.0-3.1","97303","List1B","black","woman","","","","","{""Q0"":""jane is trying to hug luke""}","<img src=""stim_listB/hug4.gif""style=""height:400px;""></stim_listB>","is being hugged by","","","","","",""
"null","<div style=""font-size:60px;"">+</div>","","html-keyboard-response","58","509516","0.0-13.0-0.2","97303","List1B","black","woman","","","","null","","","","","","","","",""
"null","<img src=""stim_listB/shout4.gif""style=""height:400px;""></stim_listB>","","html-keyboard-response","59","511531","0.0-13.0-1.2","97303","List1B","black","woman","","","","null","","","","","","","","",""
"null","is being shouted at by","","html-keyboard-response","60","513541","0.0-13.0-2.2","97303","List1B","black","woman","","","","null","","","","","","","","",""
"28855.70000000298","","","survey-text","61","542408","0.0-13.0-3.2","97303","List1B","black","woman","","","","","{""Q0"":""jane is screaming at  dave""}","<img src=""stim_listB/shout4.gif""style=""height:400px;""></stim_listB>","is being shouted at by","","","","","",""
"null","<div style=""font-size:60px;"">+</div>","","html-keyboard-response","62","542920","0.0-13.0-0.3","97303","List1B","black","woman","","","","null","","","","","","","","",""
"null","<img src=""stim_listB/shout6.gif""style=""height:400px;""></stim_listB>","","html-keyboard-response","63","544930","0.0-13.0-1.3","97303","List1B","black","woman","","","","null","","","","","","","","",""
"null","is being shouted at by","","html-keyboard-response","64","546936","0.0-13.0-2.3","97303","List1B","black","woman","","","","null","","","","","","","","",""
"21796.29999999702","","","survey-text","65","568734","0.0-13.0-3.3","97303","List1B","black","woman","","","","","{""Q0"":""mike is shouting at dave""}","<img src=""stim_listB/shout6.gif""style=""height:400px;""></stim_listB>","is being shouted at by","","","","","",""
"null","<div style=""font-size:60px;"">+</div>","","html-keyboard-response","66","569238","0.0-13.0-0.4","97303","List1B","black","woman","","","","null","","","","","","","","",""
"null","<img src=""stim_listB/oppose2.gif""style=""height:400px;""></stim_listB>","","html-keyboard-response","67","571256","0.0-13.0-1.4","97303","List1B","black","woman","","","","null","","","","","","","","",""
"null","is being opposed by","","html-keyboard-response","68","573261","0.0-13.0-2.4","97303","List1B","black","woman","","","","null","","","","","","","","",""
"37829.90000000596","","","survey-text","69","611096","0.0-13.0-3.4","97303","List1B","black","woman","","","","","{""Q0"":""beth is trying to punch Fred""}","<img src=""stim_listB/oppose2.gif""style=""height:400px;""></stim_listB>","is being opposed by","","","","","",""
"null","<div style=""font-size:60px;"">+</div>","","html-keyboard-response","70","611602","0.0-13.0-0.5","97303","List1B","black","woman","","","","null","","","","","","","","",""
"null","<img src=""stim_listB/challenge3.gif""style=""height:400px;""></stim_listB>","","html-keyboard-response","71","613620","0.0-13.0-1.5","97303","List1B","black","woman","","","","null","","","","","","","","",""
"null","is challenging","","html-keyboard-response","72","615632","0.0-13.0-2.5","97303","List1B","black","woman","","","","null","","","","","","","","",""
"34786.29999999702","","","survey-text","73","650423","0.0-13.0-3.5","97303","List1B","black","woman","","","","","{""Q0"":""ruth is challenging dave""}","<img src=""stim_listB/challenge3.gif""style=""height:400px;""></stim_listB>","is challenging","","","","","",""
"null","<div style=""font-size:60px;"">+</div>","","html-keyboard-response","74","650933","0.0-13.0-0.6","97303","List1B","black","woman","","","","null","","","","","","","","",""
"null","<img src=""stim_listB/look6.gif""style=""height:400px;""></stim_listB>","","html-keyboard-response","75","652946","0.0-13.0-1.6","97303","List1B","black","woman","","","","null","","","","","","","","",""
"null","is being looked at by","","html-keyboard-response","76","654961","0.0-13.0-2.6","97303","List1B","black","woman","","","","null","","","","","","","","",""
"23879.70000000298","","","survey-text","77","678846","0.0-13.0-3.6","97303","List1B","black","woman","","","","","{""Q0"":""Mike is stirring at dave""}","<img src=""stim_listB/look6.gif""style=""height:400px;""></stim_listB>","is being looked at by","","","","","",""
"null","<div style=""font-size:60px;"">+</div>","","html-keyboard-response","78","679360","0.0-13.0-0.7","97303","List1B","black","woman","","","","null","","","","","","","","",""
"null","<img src=""stim_listB/touch8.gif""style=""height:400px;""></stim_listB>","","html-keyboard-response","79","681376","0.0-13.0-1.7","97303","List1B","black","woman","","","","null","","","","","","","","",""
"null","is being touched by","","html-keyboard-response","80","683388","0.0-13.0-2.7","97303","List1B","black","woman","","","","null","","","","","","","","",""
"27300.79999999702","","","survey-text","81","710693","0.0-13.0-3.7","97303","List1B","black","woman","","","","","{""Q0"":""ruth is being touched by beth""}","<img src=""stim_listB/touch8.gif""style=""height:400px;""></stim_listB>","is being touched by","","","","","",""
"null","<div style=""font-size:60px;"">+</div>","","html-keyboard-response","82","711202","0.0-13.0-0.8","97303","List1B","black","woman","","","","null","","","","","","","","",""
"null","<img src=""stim_listB/oppose1.gif""style=""height:400px;""></stim_listB>","","html-keyboard-response","83","713219","0.0-13.0-1.8","97303","List1B","black","woman","","","","null","","","","","","","","",""
"null","is opposing","","html-keyboard-response","84","715223","0.0-13.0-2.8","97303","List1B","black","woman","","","","null","","","","","","","","",""
"16206.5","","","survey-text","85","731435","0.0-13.0-3.8","97303","List1B","black","woman","","","","","{""Q0"":""mike is opposing kate""}","<img src=""stim_listB/oppose1.gif""style=""height:400px;""></stim_listB>","is opposing","","","","","",""
"null","<div style=""font-size:60px;"">+</div>","","html-keyboard-response","86","731941","0.0-13.0-0.9","97303","List1B","black","woman","","","","null","","","","","","","","",""
"null","<img src=""stim_listB/touch4.gif""style=""height:400px;""></stim_listB>","","html-keyboard-response","87","733948","0.0-13.0-1.9","97303","List1B","black","woman","","","","null","","","","","","","","",""
"null","is being touched by","","html-keyboard-response","88","735954","0.0-13.0-2.9","97303","List1B","black","woman","","","","null","","","","","","","","",""
"23435.19999998808","","","survey-text","89","759395","0.0-13.0-3.9","97303","List1B","black","woman","","","","","{""Q0"":""luke is being touched by ruth""}","<img src=""stim_listB/touch4.gif""style=""height:400px;""></stim_listB>","is being touched by","","","","","",""
"null","<div style=""font-size:60px;"">+</div>","","html-keyboard-response","90","759907","0.0-13.0-0.10","97303","List1B","black","woman","","","","null","","","","","","","","",""
"null","<img src=""stim_listB/seduce4.gif""style=""height:400px;""></stim_listB>","","html-keyboard-response","91","761912","0.0-13.0-1.10","97303","List1B","black","woman","","","","null","","","","","","","","",""
"null","is being seduced by","","html-keyboard-response","92","763921","0.0-13.0-2.10","97303","List1B","black","woman","","","","null","","","","","","","","",""
"40464.80000001192","","","survey-text","93","804390","0.0-13.0-3.10","97303","List1B","black","woman","","","","","{""Q0"":""dave is looking at ruth""}","<img src=""stim_listB/seduce4.gif""style=""height:400px;""></stim_listB>","is being seduced by","","","","","",""
"null","<div style=""font-size:60px;"">+</div>","","html-keyboard-response","94","804898","0.0-13.0-0.11","97303","List1B","black","woman","","","","null","","","","","","","","",""
"null","<img src=""stim_listB/greet8.gif""style=""height:400px;""></stim_listB>","","html-keyboard-response","95","806913","0.0-13.0-1.11","97303","List1B","black","woman","","","","null","","","","","","","","",""
"null","is being greeted by","","html-keyboard-response","96","808916","0.0-13.0-2.11","97303","List1B","black","woman","","","","null","","","","","","","","",""
"29560.29999999702","","","survey-text","97","838482","0.0-13.0-3.11","97303","List1B","black","woman","","","","","{""Q0"":""Beth is being greeted by kate""}","<img src=""stim_listB/greet8.gif""style=""height:400px;""></stim_listB>","is being greeted by","","","","","",""
"null","<div style=""font-size:60px;"">+</div>","","html-keyboard-response","98","838986","0.0-13.0-0.12","97303","List1B","black","woman","","","","null","","","","","","","","",""
"null","<img src=""stim_listB/shout2.gif""style=""height:400px;""></stim_listB>","","html-keyboard-response","99","840998","0.0-13.0-1.12","97303","List1B","black","woman","","","","null","","","","","","","","",""
"null","is being shouted at by","","html-keyboard-response","100","843012","0.0-13.0-2.12","97303","List1B","black","woman","","","","null","","","","","","","","",""
"18096.10000000894","","","survey-text","101","861110","0.0-13.0-3.12","97303","List1B","black","woman","","","","","{""Q0"":""mike is shouting at kate""}","<img src=""stim_listB/shout2.gif""style=""height:400px;""></stim_listB>","is being shouted at by","","","","","",""
"null","<div style=""font-size:60px;"">+</div>","","html-keyboard-response","102","861622","0.0-13.0-0.13","97303","List1B","black","woman","","","","null","","","","","","","","",""
"null","<img src=""stim_listB/seduce2.gif""style=""height:400px;""></stim_listB>","","html-keyboard-response","103","863640","0.0-13.0-1.13","97303","List1B","black","woman","","","","null","","","","","","","","",""
"null","is being seduced by","","html-keyboard-response","104","865645","0.0-13.0-2.13","97303","List1B","black","woman","","","","null","","","","","","","","",""
"26134.79999999702","","","survey-text","105","891788","0.0-13.0-3.13","97303","List1B","black","woman","","","","","{""Q0"":""mike is being seduced by beth ""}","<img src=""stim_listB/seduce2.gif""style=""height:400px;""></stim_listB>","is being seduced by","","","","","",""
"null","<div style=""font-size:60px;"">+</div>","","html-keyboard-response","106","892302","0.0-13.0-0.14","97303","List1B","black","woman","","","","null","","","","","","","","",""
"null","<img src=""stim_listB/seduce7.gif""style=""height:400px;""></stim_listB>","","html-keyboard-response","107","894316","0.0-13.0-1.14","97303","List1B","black","woman","","","","null","","","","","","","","",""
"null","is seducing","","html-keyboard-response","108","896329","0.0-13.0-2.14","97303","List1B","black","woman","","","","null","","","","","","","","",""
"18438.20000000298","","","survey-text","109","914772","0.0-13.0-3.14","97303","List1B","black","woman","","","","","{""Q0"":""jane is seducing beth""}","<img src=""stim_listB/seduce7.gif""style=""height:400px;""></stim_listB>","is seducing","","","","","",""
"null","<div style=""font-size:60px;"">+</div>","","html-keyboard-response","110","915281","0.0-13.0-0.15","97303","List1B","black","woman","","","","null","","","","","","","","",""
"null","<img src=""stim_listB/kiss5.gif""style=""height:400px;""></stim_listB>","","html-keyboard-response","111","917296","0.0-13.0-1.15","97303","List1B","black","woman","","","","null","","","","","","","","",""
"null","is kissing","","html-keyboard-response","112","919300","0.0-13.0-2.15","97303","List1B","black","woman","","","","null","","","","","","","","",""
"23830.70000000298","","","survey-text","113","943137","0.0-13.0-3.15","97303","List1B","black","woman","","","","","{""Q0"":""luke is kissing fred""}","<img src=""stim_listB/kiss5.gif""style=""height:400px;""></stim_listB>","is kissing","","","","","",""
"null","<div style=""font-size:60px;"">+</div>","","html-keyboard-response","114","943648","0.0-13.0-0.16","97303","List1B","black","woman","","","","null","","","","","","","","",""
"null","<img src=""stim_listB/seduce5.gif""style=""height:400px;""></stim_listB>","","html-keyboard-response","115","945670","0.0-13.0-1.16","97303","List1B","black","woman","","","","null","","","","","","","","",""
"null","is seducing","","html-keyboard-response","116","947681","0.0-13.0-2.16","97303","List1B","black","woman","","","","null","","","","","","","","",""
"30738.29999999702","","","survey-text","117","978424","0.0-13.0-3.16","97303","List1B","black","woman","","","","","{""Q0"":""fred is seducing dave""}","<img src=""stim_listB/seduce5.gif""style=""height:400px;""></stim_listB>","is seducing","","","","","",""
"null","<div style=""font-size:60px;"">+</div>","","html-keyboard-response","118","978935","0.0-13.0-0.17","97303","List1B","black","woman","","","","null","","","","","","","","",""
"null","<img src=""stim_listB/kiss4.gif""style=""height:400px;""></stim_listB>","","html-keyboard-response","119","980953","0.0-13.0-1.17","97303","List1B","black","woman","","","","null","","","","","","","","",""
"null","is being kissed by","","html-keyboard-response","120","982964","0.0-13.0-2.17","97303","List1B","black","woman","","","","null","","","","","","","","",""
"36523.60000000894","","","survey-text","121","1019492","0.0-13.0-3.17","97303","List1B","black","woman","","","","","{""Q0"":""jane is being kissed by dave""}","<img src=""stim_listB/kiss4.gif""style=""height:400px;""></stim_listB>","is being kissed by","","","","","",""
"null","<div style=""font-size:60px;"">+</div>","","html-keyboard-response","122","1020009","0.0-13.0-0.18","97303","List1B","black","woman","","","","null","","","","","","","","",""
"null","<img src=""stim_listB/greet5.gif""style=""height:400px;""></stim_listB>","","html-keyboard-response","123","1022028","0.0-13.0-1.18","97303","List1B","black","woman","","","","null","","","","","","","","",""
"null","is greeting","","html-keyboard-response","124","1024029","0.0-13.0-2.18","97303","List1B","black","woman","","","","null","","","","","","","","",""
"15658","","","survey-text","125","1039690","0.0-13.0-3.18","97303","List1B","black","woman","","","","","{""Q0"":""mike is greeting luke""}","<img src=""stim_listB/greet5.gif""style=""height:400px;""></stim_listB>","is greeting","","","","","",""
"null","<div style=""font-size:60px;"">+</div>","","html-keyboard-response","126","1040196","0.0-13.0-0.19","97303","List1B","black","woman","","","","null","","","","","","","","",""
"null","<img src=""stim_listB/seduce8.gif""style=""height:400px;""></stim_listB>","","html-keyboard-response","127","1042206","0.0-13.0-1.19","97303","List1B","black","woman","","","","null","","","","","","","","",""
"null","is being seduced by","","html-keyboard-response","128","1044217","0.0-13.0-2.19","97303","List1B","black","woman","","","","null","","","","","","","","",""
"39240.29999999702","","","survey-text","129","1083462","0.0-13.0-3.19","97303","List1B","black","woman","","","","","{""Q0"":""jane is being seduced by ruth""}","<img src=""stim_listB/seduce8.gif""style=""height:400px;""></stim_listB>","is being seduced by","","","","","",""
"34430.70000000298","<img src='img/portrait_matrix_list1.jpg' style='width:900px;height:500px;''></img><p>If you have memorised all the portraits and names and are ready to start, press Continue.</p><p><strong>Please note: Your memory of these faces will be tested 4 times during this experiment.</strong></p>","0","html-button-response","130","1117896","0.0-14.0-0.0","97303","List1B","black","woman","","","","","","","","","","","","",""
"6286.199999988079","<img src=""portrait/BM1.jpg""style=""height:400px;""></img>","4","html-button-response","131","1125186","0.0-14.0-1.0","97303","List1B","black","woman","","true","4","","","","","","","","","",""
"null","CORRECT","","html-keyboard-response","132","1126699","0.0-14.0-2.0-0.0","97303","List1B","black","woman","","","","null","","","","","","","","",""
"3439.2999999970198","<img src=""portrait/BW2.jpg""style=""height:400px;""></img>","2","html-button-response","133","1130141","0.0-14.0-4.0","97303","List1B","black","woman","","true","2","","","","","","","","","",""
"null","CORRECT","","html-keyboard-response","134","1131658","0.0-14.0-5.0-0.0","97303","List1B","black","woman","","","","null","","","","","","","","",""
"2627.0999999940395","<img src=""portrait/BW1.jpg""style=""height:400px;""></img>","0","html-button-response","135","1134288","0.0-14.0-7.0","97303","List1B","black","woman","","true","0","","","","","","","","","",""
"null","CORRECT","","html-keyboard-response","136","1135812","0.0-14.0-8.0-0.0","97303","List1B","black","woman","","","","null","","","","","","","","",""
"6178","<img src=""portrait/WM1.jpg""style=""height:400px;""></img>","6","html-button-response","137","1141993","0.0-14.0-10.0","97303","List1B","black","woman","","true","6","","","","","","","","","",""
"null","CORRECT","","html-keyboard-response","138","1143507","0.0-14.0-11.0-0.0","97303","List1B","black","woman","","","","null","","","","","","","","",""
"6222.20000000298","<img src=""portrait/WW1.jpg""style=""height:400px;""></img>","1","html-button-response","139","1149732","0.0-14.0-13.0","97303","List1B","black","woman","","true","1","","","","","","","","","",""
"null","CORRECT","","html-keyboard-response","140","1151242","0.0-14.0-14.0-0.0","97303","List1B","black","woman","","","","null","","","","","","","","",""
"4972","<img src=""portrait/WM2.jpg""style=""height:400px;""></img>","7","html-button-response","141","1156216","0.0-14.0-16.0","97303","List1B","black","woman","","true","7","","","","","","","","","",""
"null","CORRECT","","html-keyboard-response","142","1157724","0.0-14.0-17.0-0.0","97303","List1B","black","woman","","","","null","","","","","","","","",""
"4024.5999999940395","<img src=""portrait/WW2.jpg""style=""height:400px;""></img>","3","html-button-response","143","1161751","0.0-14.0-19.0","97303","List1B","black","woman","","true","3","","","","","","","","","",""
"null","CORRECT","","html-keyboard-response","144","1163265","0.0-14.0-20.0-0.0","97303","List1B","black","woman","","","","null","","","","","","","","",""
"4964.800000011921","<img src=""portrait/BM2.jpg""style=""height:400px;""></img>","5","html-button-response","145","1168233","0.0-14.0-22.0","97303","List1B","black","woman","","true","5","","","","","","","","","",""
"null","CORRECT","","html-keyboard-response","146","1169759","0.0-14.0-23.0-0.0","97303","List1B","black","woman","","","","null","","","","","","","","",""
"1764.800000011921","<p>You got 8 out of 8 right first time. Press Continue.</p>","0","html-button-response","147","1171527","0.0-14.0-25.0","97303","List1B","black","woman","","","","","","","","","","","","",""
"null","<div style=""font-size:60px;"">+</div>","","html-keyboard-response","148","1173042","0.0-15.0-0.0","97303","List1B","black","woman","","","","null","","","","","","","","",""
"null","<img src=""stim_listB/copy1.gif""style=""height:400px;""></stim_listB>","","html-keyboard-response","149","1175050","0.0-15.0-1.0","97303","List1B","black","woman","","","","null","","","","","","","","",""
"null","is copying","","html-keyboard-response","150","1177056","0.0-15.0-2.0","97303","List1B","black","woman","","","","null","","","","","","","","",""
"10252","","","survey-text","151","1187314","0.0-15.0-3.0","97303","List1B","black","woman","","","","","{""Q0"":""mike is copying beth""}","<img src=""stim_listB/copy1.gif""style=""height:400px;""></stim_listB>","is copying","","","","","",""
"null","<div style=""font-size:60px;"">+</div>","","html-keyboard-response","152","1187822","0.0-15.0-0.1","97303","List1B","black","woman","","","","null","","","","","","","","",""
"null","<img src=""stim_listB/copy5.gif""style=""height:400px;""></stim_listB>","","html-keyboard-response","153","1189828","0.0-15.0-1.1","97303","List1B","black","woman","","","","null","","","","","","","","",""
"null","is copying","","html-keyboard-response","154","1191831","0.0-15.0-2.1","97303","List1B","black","woman","","","","null","","","","","","","","",""
"13314.5","","","survey-text","155","1205150","0.0-15.0-3.1","97303","List1B","black","woman","","","","","{""Q0"":""mike is copying luke""}","<img src=""stim_listB/copy5.gif""style=""height:400px;""></stim_listB>","is copying","","","","","",""
"null","<div style=""font-size:60px;"">+</div>","","html-keyboard-response","156","1205660","0.0-15.0-0.2","97303","List1B","black","woman","","","","null","","","","","","","","",""
"null","<img src=""stim_listB/shout7.gif""style=""height:400px;""></stim_listB>","","html-keyboard-response","157","1207674","0.0-15.0-1.2","97303","List1B","black","woman","","","","null","","","","","","","","",""
"null","is shouting at","","html-keyboard-response","158","1209691","0.0-15.0-2.2","97303","List1B","black","woman","","","","null","","","","","","","","",""
"24859.10000000894","","","survey-text","159","1234556","0.0-15.0-3.2","97303","List1B","black","woman","","","","","{""Q0"":""ruth is shouting at beth""}","<img src=""stim_listB/shout7.gif""style=""height:400px;""></stim_listB>","is shouting at","","","","","",""
"null","<div style=""font-size:60px;"">+</div>","","html-keyboard-response","160","1235063","0.0-15.0-0.3","97303","List1B","black","woman","","","","null","","","","","","","","",""
"null","<img src=""stim_listB/kiss6.gif""style=""height:400px;""></stim_listB>","","html-keyboard-response","161","1237068","0.0-15.0-1.3","97303","List1B","black","woman","","","","null","","","","","","","","",""
"null","is being kissed by","","html-keyboard-response","162","1239085","0.0-15.0-2.3","97303","List1B","black","woman","","","","null","","","","","","","","",""
"13183.5","","","survey-text","163","1252274","0.0-15.0-3.3","97303","List1B","black","woman","","","","","{""Q0"":""mike is being kissed by dave""}","<img src=""stim_listB/kiss6.gif""style=""height:400px;""></stim_listB>","is being kissed by","","","","","",""
"null","<div style=""font-size:60px;"">+</div>","","html-keyboard-response","164","1252790","0.0-15.0-0.4","97303","List1B","black","woman","","","","null","","","","","","","","",""
"null","<img src=""stim_listB/look3.gif""style=""height:400px;""></stim_listB>","","html-keyboard-response","165","1254807","0.0-15.0-1.4","97303","List1B","black","woman","","","","null","","","","","","","","",""
"null","is looking at","","html-keyboard-response","166","1256810","0.0-15.0-2.4","97303","List1B","black","woman","","","","null","","","","","","","","",""
"17706.20000000298","","","survey-text","167","1274521","0.0-15.0-3.4","97303","List1B","black","woman","","","","","{""Q0"":""luke is looking at ruth""}","<img src=""stim_listB/look3.gif""style=""height:400px;""></stim_listB>","is looking at","","","","","",""
"null","<div style=""font-size:60px;"">+</div>","","html-keyboard-response","168","1275031","0.0-15.0-0.5","97303","List1B","black","woman","","","","null","","","","","","","","",""
"null","<img src=""stim_listB/look1.gif""style=""height:400px;""></stim_listB>","","html-keyboard-response","169","1277037","0.0-15.0-1.5","97303","List1B","black","woman","","","","null","","","","","","","","",""
"null","is looking at","","html-keyboard-response","170","1279041","0.0-15.0-2.5","97303","List1B","black","woman","","","","null","","","","","","","","",""
"10598.40000000596","","","survey-text","171","1289644","0.0-15.0-3.5","97303","List1B","black","woman","","","","","{""Q0"":""Fred is looking at beth""}","<img src=""stim_listB/look1.gif""style=""height:400px;""></stim_listB>","is looking at","","","","","",""
"null","<div style=""font-size:60px;"">+</div>","","html-keyboard-response","172","1290146","0.0-15.0-0.6","97303","List1B","black","woman","","","","null","","","","","","","","",""
"null","<img src=""stim_listB/hug7.gif""style=""height:400px;""></stim_listB>","","html-keyboard-response","173","1292168","0.0-15.0-1.6","97303","List1B","black","woman","","","","null","","","","","","","","",""
"null","is hugging","","html-keyboard-response","174","1294171","0.0-15.0-2.6","97303","List1B","black","woman","","","","null","","","","","","","","",""
"16337.40000000596","","","survey-text","175","1310514","0.0-15.0-3.6","97303","List1B","black","woman","","","","","{""Q0"":""beth is hugging ruth""}","<img src=""stim_listB/hug7.gif""style=""height:400px;""></stim_listB>","is hugging","","","","","",""
"null","<div style=""font-size:60px;"">+</div>","","html-keyboard-response","176","1311017","0.0-15.0-0.7","97303","List1B","black","woman","","","","null","","","","","","","","",""
"null","<img src=""stim_listB/oppose6.gif""style=""height:400px;""></stim_listB>","","html-keyboard-response","177","1313024","0.0-15.0-1.7","97303","List1B","black","woman","","","","null","","","","","","","","",""
"null","is being opposed by","","html-keyboard-response","178","1315038","0.0-15.0-2.7","97303","List1B","black","woman","","","","null","","","","","","","","",""
"14647.5","","","survey-text","179","1329690","0.0-15.0-3.7","97303","List1B","black","woman","","","","","{""Q0"":""luke is being opposed by fred""}","<img src=""stim_listB/oppose6.gif""style=""height:400px;""></stim_listB>","is being opposed by","","","","","",""
"null","<div style=""font-size:60px;"">+</div>","","html-keyboard-response","180","1330199","0.0-15.0-0.8","97303","List1B","black","woman","","","","null","","","","","","","","",""
"null","<img src=""stim_listB/greet3.gif""style=""height:400px;""></stim_listB>","","html-keyboard-response","181","1332205","0.0-15.0-1.8","97303","List1B","black","woman","","","","null","","","","","","","","",""
"null","is greeting","","html-keyboard-response","182","1334211","0.0-15.0-2.8","97303","List1B","black","woman","","","","null","","","","","","","","",""
"11238","","","survey-text","183","1345454","0.0-15.0-3.8","97303","List1B","black","woman","","","","","{""Q0"":""dave is greeting ruth""}","<img src=""stim_listB/greet3.gif""style=""height:400px;""></stim_listB>","is greeting","","","","","",""
"null","<div style=""font-size:60px;"">+</div>","","html-keyboard-response","184","1345967","0.0-15.0-0.9","97303","List1B","black","woman","","","","null","","","","","","","","",""
"null","<img src=""stim_listB/greet2.gif""style=""height:400px;""></stim_listB>","","html-keyboard-response","185","1347973","0.0-15.0-1.9","97303","List1B","black","woman","","","","null","","","","","","","","",""
"null","is being greeted by","","html-keyboard-response","186","1349976","0.0-15.0-2.9","97303","List1B","black","woman","","","","null","","","","","","","","",""
"16957.80000001192","","","survey-text","187","1366940","0.0-15.0-3.9","97303","List1B","black","woman","","","","","{""Q0"":""fred is being greeted by kate""}","<img src=""stim_listB/greet2.gif""style=""height:400px;""></stim_listB>","is being greeted by","","","","","",""
"null","<div style=""font-size:60px;"">+</div>","","html-keyboard-response","188","1367454","0.0-15.0-0.10","97303","List1B","black","woman","","","","null","","","","","","","","",""
"null","<img src=""stim_listB/challenge5.gif""style=""height:400px;""></stim_listB>","","html-keyboard-response","189","1369461","0.0-15.0-1.10","97303","List1B","black","woman","","","","null","","","","","","","","",""
"null","is challenging","","html-keyboard-response","190","1371464","0.0-15.0-2.10","97303","List1B","black","woman","","","","null","","","","","","","","",""
"19114.40000000596","","","survey-text","191","1390583","0.0-15.0-3.10","97303","List1B","black","woman","","","","","{""Q0"":""Mike is challenging luke""}","<img src=""stim_listB/challenge5.gif""style=""height:400px;""></stim_listB>","is challenging","","","","","",""
"null","<div style=""font-size:60px;"">+</div>","","html-keyboard-response","192","1391096","0.0-15.0-0.11","97303","List1B","black","woman","","","","null","","","","","","","","",""
"null","<img src=""stim_listB/oppose4.gif""style=""height:400px;""></stim_listB>","","html-keyboard-response","193","1393112","0.0-15.0-1.11","97303","List1B","black","woman","","","","null","","","","","","","","",""
"null","is being opposed by","","html-keyboard-response","194","1395115","0.0-15.0-2.11","97303","List1B","black","woman","","","","null","","","","","","","","",""
"14484.89999999106","","","survey-text","195","1409605","0.0-15.0-3.11","97303","List1B","black","woman","","","","","{""Q0"":""ruth is being opposed by luke""}","<img src=""stim_listB/oppose4.gif""style=""height:400px;""></stim_listB>","is being opposed by","","","","","",""
"null","<div style=""font-size:60px;"">+</div>","","html-keyboard-response","196","1410113","0.0-15.0-0.12","97303","List1B","black","woman","","","","null","","","","","","","","",""
"null","<img src=""stim_listB/copy6.gif""style=""height:400px;""></stim_listB>","","html-keyboard-response","197","1412121","0.0-15.0-1.12","97303","List1B","black","woman","","","","null","","","","","","","","",""
"null","is being copied by","","html-keyboard-response","198","1414135","0.0-15.0-2.12","97303","List1B","black","woman","","","","null","","","","","","","","",""
"14487","","","survey-text","199","1428627","0.0-15.0-3.12","97303","List1B","black","woman","","","","","{""Q0"":""Dave is being copied by fred""}","<img src=""stim_listB/copy6.gif""style=""height:400px;""></stim_listB>","is being copied by","","","","","",""
"null","<div style=""font-size:60px;"">+</div>","","html-keyboard-response","200","1429129","0.0-15.0-0.13","97303","List1B","black","woman","","","","null","","","","","","","","",""
"null","<img src=""stim_listB/look2.gif""style=""height:400px;""></stim_listB>","","html-keyboard-response","201","1431149","0.0-15.0-1.13","97303","List1B","black","woman","","","","null","","","","","","","","",""
"null","is being looked at by","","html-keyboard-response","202","1433152","0.0-15.0-2.13","97303","List1B","black","woman","","","","null","","","","","","","","",""
"11672.39999999106","","","survey-text","203","1444830","0.0-15.0-3.13","97303","List1B","black","woman","","","","","{""Q0"":""mike is being looked at by kate""}","<img src=""stim_listB/look2.gif""style=""height:400px;""></stim_listB>","is being looked at by","","","","","",""
"null","<div style=""font-size:60px;"">+</div>","","html-keyboard-response","204","1445341","0.0-15.0-0.14","97303","List1B","black","woman","","","","null","","","","","","","","",""
"null","<img src=""stim_listB/seduce1.gif""style=""height:400px;""></stim_listB>","","html-keyboard-response","205","1447346","0.0-15.0-1.14","97303","List1B","black","woman","","","","null","","","","","","","","",""
"null","is seducing","","html-keyboard-response","206","1449349","0.0-15.0-2.14","97303","List1B","black","woman","","","","null","","","","","","","","",""
"10432.800000011921","","","survey-text","207","1459787","0.0-15.0-3.14","97303","List1B","black","woman","","","","","{""Q0"":""kate is seducing fred""}","<img src=""stim_listB/seduce1.gif""style=""height:400px;""></stim_listB>","is seducing","","","","","",""
"null","<div style=""font-size:60px;"">+</div>","","html-keyboard-response","208","1460304","0.0-15.0-0.15","97303","List1B","black","woman","","","","null","","","","","","","","",""
"null","<img src=""stim_listB/touch1.gif""style=""height:400px;""></stim_listB>","","html-keyboard-response","209","1462309","0.0-15.0-1.15","97303","List1B","black","woman","","","","null","","","","","","","","",""
"null","is touching","","html-keyboard-response","210","1464317","0.0-15.0-2.15","97303","List1B","black","woman","","","","null","","","","","","","","",""
"9368.70000000298","","","survey-text","211","1473691","0.0-15.0-3.15","97303","List1B","black","woman","","","","","{""Q0"":""Mike is touching kate""}","<img src=""stim_listB/touch1.gif""style=""height:400px;""></stim_listB>","is touching","","","","","",""
"null","<div style=""font-size:60px;"">+</div>","","html-keyboard-response","212","1474204","0.0-15.0-0.16","97303","List1B","black","woman","","","","null","","","","","","","","",""
"null","<img src=""stim_listB/oppose3.gif""style=""height:400px;""></stim_listB>","","html-keyboard-response","213","1476218","0.0-15.0-1.16","97303","List1B","black","woman","","","","null","","","","","","","","",""
"null","is opposing","","html-keyboard-response","214","1478221","0.0-15.0-2.16","97303","List1B","black","woman","","","","null","","","","","","","","",""
"12106.199999988079","","","survey-text","215","1490333","0.0-15.0-3.16","97303","List1B","black","woman","","","","","{""Q0"":""Dave is opposing jane""}","<img src=""stim_listB/oppose3.gif""style=""height:400px;""></stim_listB>","is opposing","","","","","",""
"null","<div style=""font-size:60px;"">+</div>","","html-keyboard-response","216","1490848","0.0-15.0-0.17","97303","List1B","black","woman","","","","null","","","","","","","","",""
"null","<img src=""stim_listB/look5.gif""style=""height:400px;""></stim_listB>","","html-keyboard-response","217","1492864","0.0-15.0-1.17","97303","List1B","black","woman","","","","null","","","","","","","","",""
"null","is looking at","","html-keyboard-response","218","1494872","0.0-15.0-2.17","97303","List1B","black","woman","","","","null","","","","","","","","",""
"10092.09999999404","","","survey-text","219","1504970","0.0-15.0-3.17","97303","List1B","black","woman","","","","","{""Q0"":""Fred is looking at luke""}","<img src=""stim_listB/look5.gif""style=""height:400px;""></stim_listB>","is looking at","","","","","",""
"null","<div style=""font-size:60px;"">+</div>","","html-keyboard-response","220","1505475","0.0-15.0-0.18","97303","List1B","black","woman","","","","null","","","","","","","","",""
"null","<img src=""stim_listB/hug5.gif""style=""height:400px;""></stim_listB>","","html-keyboard-response","221","1507479","0.0-15.0-1.18","97303","List1B","black","woman","","","","null","","","","","","","","",""
"null","is hugging","","html-keyboard-response","222","1509481","0.0-15.0-2.18","97303","List1B","black","woman","","","","null","","","","","","","","",""
"22557.59999999404","","","survey-text","223","1532041","0.0-15.0-3.18","97303","List1B","black","woman","","","","","{""Q0"":""luke is hugging fred""}","<img src=""stim_listB/hug5.gif""style=""height:400px;""></stim_listB>","is hugging","","","","","",""
"null","<div style=""font-size:60px;"">+</div>","","html-keyboard-response","224","1532552","0.0-15.0-0.19","97303","List1B","black","woman","","","","null","","","","","","","","",""
"null","<img src=""stim_listB/challenge1.gif""style=""height:400px;""></stim_listB>","","html-keyboard-response","225","1534570","0.0-15.0-1.19","97303","List1B","black","woman","","","","null","","","","","","","","",""
"null","is challenging","","html-keyboard-response","226","1536588","0.0-15.0-2.19","97303","List1B","black","woman","","","","null","","","","","","","","",""
"24640.70000000298","","","survey-text","227","1561233","0.0-15.0-3.19","97303","List1B","black","woman","","","","","{""Q0"":""Mike is challenging beth""}","<img src=""stim_listB/challenge1.gif""style=""height:400px;""></stim_listB>","is challenging","","","","","",""
"12205.300000011921","<img src='img/portrait_matrix_list1.jpg' style='width:900px;height:500px;''></img><p>If you have memorised all the portraits and names and are ready to start, press Continue.</p><p><strong>Please note: Your memory of these faces will be tested 4 times during this experiment.</strong></p>","0","html-button-response","228","1573440","0.0-16.0-0.0","97303","List1B","black","woman","","","","","","","","","","","","",""
"4567.5999999940395","<img src=""portrait/BW1.jpg""style=""height:400px;""></img>","0","html-button-response","229","1579012","0.0-16.0-1.0","97303","List1B","black","woman","","true","0","","","","","","","","","",""
"null","CORRECT","","html-keyboard-response","230","1580518","0.0-16.0-2.0-0.0","97303","List1B","black","woman","","","","null","","","","","","","","",""
"2543.5999999940395","<img src=""portrait/WM1.jpg""style=""height:400px;""></img>","6","html-button-response","231","1583065","0.0-16.0-4.0","97303","List1B","black","woman","","true","6","","","","","","","","","",""
"null","CORRECT","","html-keyboard-response","232","1584583","0.0-16.0-5.0-0.0","97303","List1B","black","woman","","","","null","","","","","","","","",""
"2568.9000000059605","<img src=""portrait/BM1.jpg""style=""height:400px;""></img>","4","html-button-response","233","1587155","0.0-16.0-7.0","97303","List1B","black","woman","","true","4","","","","","","","","","",""
"null","CORRECT","","html-keyboard-response","234","1588668","0.0-16.0-8.0-0.0","97303","List1B","black","woman","","","","null","","","","","","","","",""
"1825.699999988079","<img src=""portrait/WW2.jpg""style=""height:400px;""></img>","3","html-button-response","235","1590496","0.0-16.0-10.0","97303","List1B","black","woman","","true","3","","","","","","","","","",""
"null","CORRECT","","html-keyboard-response","236","1592010","0.0-16.0-11.0-0.0","97303","List1B","black","woman","","","","null","","","","","","","","",""
"2512.4000000059605","<img src=""portrait/WM2.jpg""style=""height:400px;""></img>","7","html-button-response","237","1594525","0.0-16.0-13.0","97303","List1B","black","woman","","true","7","","","","","","","","","",""
"null","CORRECT","","html-keyboard-response","238","1596052","0.0-16.0-14.0-0.0","97303","List1B","black","woman","","","","null","","","","","","","","",""
"2133.7999999970198","<img src=""portrait/BW2.jpg""style=""height:400px;""></img>","2","html-button-response","239","1598188","0.0-16.0-16.0","97303","List1B","black","woman","","true","2","","","","","","","","","",""
"null","CORRECT","","html-keyboard-response","240","1599716","0.0-16.0-17.0-0.0","97303","List1B","black","woman","","","","null","","","","","","","","",""
"2724.5999999940395","<img src=""portrait/WW1.jpg""style=""height:400px;""></img>","1","html-button-response","241","1602443","0.0-16.0-19.0","97303","List1B","black","woman","","true","1","","","","","","","","","",""
"null","CORRECT","","html-keyboard-response","242","1603962","0.0-16.0-20.0-0.0","97303","List1B","black","woman","","","","null","","","","","","","","",""
"2661","<img src=""portrait/BM2.jpg""style=""height:400px;""></img>","5","html-button-response","243","1606626","0.0-16.0-22.0","97303","List1B","black","woman","","true","5","","","","","","","","","",""
"null","CORRECT","","html-keyboard-response","244","1608140","0.0-16.0-23.0-0.0","97303","List1B","black","woman","","","","null","","","","","","","","",""
"2287.9000000059605","<p>You got 8 out of 8 right first time. Press Continue.</p>","0","html-button-response","245","1610431","0.0-16.0-25.0","97303","List1B","black","woman","","","","","","","","","","","","",""
"null","<div style=""font-size:60px;"">+</div>","","html-keyboard-response","246","1611946","0.0-17.0-0.0","97303","List1B","black","woman","","","","null","","","","","","","","",""
"null","<img src=""stim_listB/challenge4.gif""style=""height:400px;""></stim_listB>","","html-keyboard-response","247","1613951","0.0-17.0-1.0","97303","List1B","black","woman","","","","null","","","","","","","","",""
"null","is being challenged by","","html-keyboard-response","248","1615954","0.0-17.0-2.0","97303","List1B","black","woman","","","","null","","","","","","","","",""
"17157.90000000596","","","survey-text","249","1633117","0.0-17.0-3.0","97303","List1B","black","woman","","","","","{""Q0"":""jane is being challenged by luke""}","<img src=""stim_listB/challenge4.gif""style=""height:400px;""></stim_listB>","is being challenged by","","","","","",""
"null","<div style=""font-size:60px;"">+</div>","","html-keyboard-response","250","1633627","0.0-17.0-0.1","97303","List1B","black","woman","","","","null","","","","","","","","",""
"null","<img src=""stim_listB/touch5.gif""style=""height:400px;""></stim_listB>","","html-keyboard-response","251","1635637","0.0-17.0-1.1","97303","List1B","black","woman","","","","null","","","","","","","","",""
"null","is touching","","html-keyboard-response","252","1637640","0.0-17.0-2.1","97303","List1B","black","woman","","","","null","","","","","","","","",""
"9111.70000000298","","","survey-text","253","1646758","0.0-17.0-3.1","97303","List1B","black","woman","","","","","{""Q0"":""Mike is touching dave""}","<img src=""stim_listB/touch5.gif""style=""height:400px;""></stim_listB>","is touching","","","","","",""
"null","<div style=""font-size:60px;"">+</div>","","html-keyboard-response","254","1647264","0.0-17.0-0.2","97303","List1B","black","woman","","","","null","","","","","","","","",""
"null","<img src=""stim_listB/oppose7.gif""style=""height:400px;""></stim_listB>","","html-keyboard-response","255","1649279","0.0-17.0-1.2","97303","List1B","black","woman","","","","null","","","","","","","","",""
"null","is opposing","","html-keyboard-response","256","1651282","0.0-17.0-2.2","97303","List1B","black","woman","","","","null","","","","","","","","",""
"9562","","","survey-text","257","1660850","0.0-17.0-3.2","97303","List1B","black","woman","","","","","{""Q0"":""kate is opposing jane""}","<img src=""stim_listB/oppose7.gif""style=""height:400px;""></stim_listB>","is opposing","","","","","",""
"null","<div style=""font-size:60px;"">+</div>","","html-keyboard-response","258","1661363","0.0-17.0-0.3","97303","List1B","black","woman","","","","null","","","","","","","","",""
"null","<img src=""stim_listB/shout3.gif""style=""height:400px;""></stim_listB>","","html-keyboard-response","259","1663377","0.0-17.0-1.3","97303","List1B","black","woman","","","","null","","","","","","","","",""
"null","is shouting at","","html-keyboard-response","260","1665386","0.0-17.0-2.3","97303","List1B","black","woman","","","","null","","","","","","","","",""
"19685.30000001192","","","survey-text","261","1685077","0.0-17.0-3.3","97303","List1B","black","woman","","","","","{""Q0"":""ruth is shouting at luke""}","<img src=""stim_listB/shout3.gif""style=""height:400px;""></stim_listB>","is shouting at","","","","","",""
"null","<div style=""font-size:60px;"">+</div>","","html-keyboard-response","262","1685588","0.0-17.0-0.4","97303","List1B","black","woman","","","","null","","","","","","","","",""
"null","<img src=""stim_listB/copy7.gif""style=""height:400px;""></stim_listB>","","html-keyboard-response","263","1687593","0.0-17.0-1.4","97303","List1B","black","woman","","","","null","","","","","","","","",""
"null","is copying","","html-keyboard-response","264","1689597","0.0-17.0-2.4","97303","List1B","black","woman","","","","null","","","","","","","","",""
"13809.79999999702","","","survey-text","265","1703413","0.0-17.0-3.4","97303","List1B","black","woman","","","","","{""Q0"":""Ruth is copying kate""}","<img src=""stim_listB/copy7.gif""style=""height:400px;""></stim_listB>","is copying","","","","","",""
"null","<div style=""font-size:60px;"">+</div>","","html-keyboard-response","266","1703922","0.0-17.0-0.5","97303","List1B","black","woman","","","","null","","","","","","","","",""
"null","<img src=""stim_listB/shout8.gif""style=""height:400px;""></stim_listB>","","html-keyboard-response","267","1705941","0.0-17.0-1.5","97303","List1B","black","woman","","","","null","","","","","","","","",""
"null","is being shouted at by","","html-keyboard-response","268","1707951","0.0-17.0-2.5","97303","List1B","black","woman","","","","null","","","","","","","","",""
"15439.90000000596","","","survey-text","269","1723397","0.0-17.0-3.5","97303","List1B","black","woman","","","","","{""Q0"":""jane is being shouted at by kate""}","<img src=""stim_listB/shout8.gif""style=""height:400px;""></stim_listB>","is being shouted at by","","","","","",""
"null","<div style=""font-size:60px;"">+</div>","","html-keyboard-response","270","1723914","0.0-17.0-0.6","97303","List1B","black","woman","","","","null","","","","","","","","",""
"null","<img src=""stim_listB/oppose8.gif""style=""height:400px;""></stim_listB>","","html-keyboard-response","271","1725926","0.0-17.0-1.6","97303","List1B","black","woman","","","","null","","","","","","","","",""
"null","is being opposed by","","html-keyboard-response","272","1727929","0.0-17.0-2.6","97303","List1B","black","woman","","","","null","","","","","","","","",""
"19939.09999999404","","","survey-text","273","1747871","0.0-17.0-3.6","97303","List1B","black","woman","","","","","{""Q0"":""beth is being opposed by ruth""}","<img src=""stim_listB/oppose8.gif""style=""height:400px;""></stim_listB>","is being opposed by","","","","","",""
"null","<div style=""font-size:60px;"">+</div>","","html-keyboard-response","274","1748381","0.0-17.0-0.7","97303","List1B","black","woman","","","","null","","","","","","","","",""
"null","<img src=""stim_listB/hug6.gif""style=""height:400px;""></stim_listB>","","html-keyboard-response","275","1750391","0.0-17.0-1.7","97303","List1B","black","woman","","","","null","","","","","","","","",""
"null","is being hugged by","","html-keyboard-response","276","1752394","0.0-17.0-2.7","97303","List1B","black","woman","","","","null","","","","","","","","",""
"16330.20000000298","","","survey-text","277","1768730","0.0-17.0-3.7","97303","List1B","black","woman","","","","","{""Q0"":""Dave is being hugged by Mike""}","<img src=""stim_listB/hug6.gif""style=""height:400px;""></stim_listB>","is being hugged by","","","","","",""
"null","<div style=""font-size:60px;"">+</div>","","html-keyboard-response","278","1769243","0.0-17.0-0.8","97303","List1B","black","woman","","","","null","","","","","","","","",""
"null","<img src=""stim_listB/seduce3.gif""style=""height:400px;""></stim_listB>","","html-keyboard-response","279","1771250","0.0-17.0-1.8","97303","List1B","black","woman","","","","null","","","","","","","","",""
"null","is seducing","","html-keyboard-response","280","1773253","0.0-17.0-2.8","97303","List1B","black","woman","","","","null","","","","","","","","",""
"11521.20000000298","","","survey-text","281","1784777","0.0-17.0-3.8","97303","List1B","black","woman","","","","","{""Q0"":""Luke is seducing jane""}","<img src=""stim_listB/seduce3.gif""style=""height:400px;""></stim_listB>","is seducing","","","","","",""
"null","<div style=""font-size:60px;"">+</div>","","html-keyboard-response","282","1785283","0.0-17.0-0.9","97303","List1B","black","woman","","","","null","","","","","","","","",""
"null","<img src=""stim_listB/look8.gif""style=""height:400px;""></stim_listB>","","html-keyboard-response","283","1787287","0.0-17.0-1.9","97303","List1B","black","woman","","","","null","","","","","","","","",""
"null","is being looked at by","","html-keyboard-response","284","1789289","0.0-17.0-2.9","97303","List1B","black","woman","","","","null","","","","","","","","",""
"24783.09999999404","","","survey-text","285","1814078","0.0-17.0-3.9","97303","List1B","black","woman","","","","","{""Q0"":""Jane is being looked at by kate""}","<img src=""stim_listB/look8.gif""style=""height:400px;""></stim_listB>","is being looked at by","","","","","",""
"null","<div style=""font-size:60px;"">+</div>","","html-keyboard-response","286","1814588","0.0-17.0-0.10","97303","List1B","black","woman","","","","null","","","","","","","","",""
"null","<img src=""stim_listB/greet7.gif""style=""height:400px;""></stim_listB>","","html-keyboard-response","287","1816592","0.0-17.0-1.10","97303","List1B","black","woman","","","","null","","","","","","","","",""
"null","is greeting","","html-keyboard-response","288","1818596","0.0-17.0-2.10","97303","List1B","black","woman","","","","null","","","","","","","","",""
"13209.699999988079","","","survey-text","289","1831810","0.0-17.0-3.10","97303","List1B","black","woman","","","","","{""Q0"":""ruth is greeting kate""}","<img src=""stim_listB/greet7.gif""style=""height:400px;""></stim_listB>","is greeting","","","","","",""
"null","<div style=""font-size:60px;"">+</div>","","html-keyboard-response","290","1832321","0.0-17.0-0.11","97303","List1B","black","woman","","","","null","","","","","","","","",""
"null","<img src=""stim_listB/seduce6.gif""style=""height:400px;""></stim_listB>","","html-keyboard-response","291","1834339","0.0-17.0-1.11","97303","List1B","black","woman","","","","null","","","","","","","","",""
"null","is being seduced by","","html-keyboard-response","292","1836351","0.0-17.0-2.11","97303","List1B","black","woman","","","","null","","","","","","","","",""
"17356.09999999404","","","survey-text","293","1853712","0.0-17.0-3.11","97303","List1B","black","woman","","","","","{""Q0"":""mike is being seduced by luke""}","<img src=""stim_listB/seduce6.gif""style=""height:400px;""></stim_listB>","is being seduced by","","","","","",""
"null","<div style=""font-size:60px;"">+</div>","","html-keyboard-response","294","1854221","0.0-17.0-0.12","97303","List1B","black","woman","","","","null","","","","","","","","",""
"null","<img src=""stim_listB/kiss7.gif""style=""height:400px;""></stim_listB>","","html-keyboard-response","295","1856232","0.0-17.0-1.12","97303","List1B","black","woman","","","","null","","","","","","","","",""
"null","is kissing","","html-keyboard-response","296","1858241","0.0-17.0-2.12","97303","List1B","black","woman","","","","null","","","","","","","","",""
"8171.100000008941","","","survey-text","297","1866417","0.0-17.0-3.12","97303","List1B","black","woman","","","","","{""Q0"":""Beth is kissing ruth""}","<img src=""stim_listB/kiss7.gif""style=""height:400px;""></stim_listB>","is kissing","","","","","",""
"null","<div style=""font-size:60px;"">+</div>","","html-keyboard-response","298","1866923","0.0-17.0-0.13","97303","List1B","black","woman","","","","null","","","","","","","","",""
"null","<img src=""stim_listB/shout1.gif""style=""height:400px;""></stim_listB>","","html-keyboard-response","299","1868927","0.0-17.0-1.13","97303","List1B","black","woman","","","","null","","","","","","","","",""
"null","is shouting at","","html-keyboard-response","300","1870944","0.0-17.0-2.13","97303","List1B","black","woman","","","","null","","","","","","","","",""
"13286.29999999702","","","survey-text","301","1884233","0.0-17.0-3.13","97303","List1B","black","woman","","","","","{""Q0"":""Fred is shouting at beth""}","<img src=""stim_listB/shout1.gif""style=""height:400px;""></stim_listB>","is shouting at","","","","","",""
"null","<div style=""font-size:60px;"">+</div>","","html-keyboard-response","302","1884740","0.0-17.0-0.14","97303","List1B","black","woman","","","","null","","","","","","","","",""
"null","<img src=""stim_listB/hug1.gif""style=""height:400px;""></stim_listB>","","html-keyboard-response","303","1886753","0.0-17.0-1.14","97303","List1B","black","woman","","","","null","","","","","","","","",""
"null","is hugging","","html-keyboard-response","304","1888765","0.0-17.0-2.14","97303","List1B","black","woman","","","","null","","","","","","","","",""
"11499.5","","","survey-text","305","1900269","0.0-17.0-3.14","97303","List1B","black","woman","","","","","{""Q0"":""Fred is hugging beth""}","<img src=""stim_listB/hug1.gif""style=""height:400px;""></stim_listB>","is hugging","","","","","",""
"null","<div style=""font-size:60px;"">+</div>","","html-keyboard-response","306","1900772","0.0-17.0-0.15","97303","List1B","black","woman","","","","null","","","","","","","","",""
"null","<img src=""stim_listB/challenge7.gif""style=""height:400px;""></stim_listB>","","html-keyboard-response","307","1902790","0.0-17.0-1.15","97303","List1B","black","woman","","","","null","","","","","","","","",""
"null","is challenging","","html-keyboard-response","308","1904795","0.0-17.0-2.15","97303","List1B","black","woman","","","","null","","","","","","","","",""
"10664.40000000596","","","survey-text","309","1915465","0.0-17.0-3.15","97303","List1B","black","woman","","","","","{""Q0"":""kate is challenging ruth""}","<img src=""stim_listB/challenge7.gif""style=""height:400px;""></stim_listB>","is challenging","","","","","",""
"null","<div style=""font-size:60px;"">+</div>","","html-keyboard-response","310","1915976","0.0-17.0-0.16","97303","List1B","black","woman","","","","null","","","","","","","","",""
"null","<img src=""stim_listB/copy2.gif""style=""height:400px;""></stim_listB>","","html-keyboard-response","311","1917991","0.0-17.0-1.16","97303","List1B","black","woman","","","","null","","","","","","","","",""
"null","is being copied by","","html-keyboard-response","312","1919996","0.0-17.0-2.16","97303","List1B","black","woman","","","","null","","","","","","","","",""
"15766.199999988079","","","survey-text","313","1935768","0.0-17.0-3.16","97303","List1B","black","woman","","","","","{""Q0"":""Fred is being copied by kate""}","<img src=""stim_listB/copy2.gif""style=""height:400px;""></stim_listB>","is being copied by","","","","","",""
"null","<div style=""font-size:60px;"">+</div>","","html-keyboard-response","314","1936286","0.0-17.0-0.17","97303","List1B","black","woman","","","","null","","","","","","","","",""
"null","<img src=""stim_listB/challenge6.gif""style=""height:400px;""></stim_listB>","","html-keyboard-response","315","1938295","0.0-17.0-1.17","97303","List1B","black","woman","","","","null","","","","","","","","",""
"null","is being challenged by","","html-keyboard-response","316","1940300","0.0-17.0-2.17","97303","List1B","black","woman","","","","null","","","","","","","","",""
"23279.10000000894","","","survey-text","317","1963584","0.0-17.0-3.17","97303","List1B","black","woman","","","","","{""Q0"":""dave is being challenged by Fred""}","<img src=""stim_listB/challenge6.gif""style=""height:400px;""></stim_listB>","is being challenged by","","","","","",""
"null","<div style=""font-size:60px;"">+</div>","","html-keyboard-response","318","1964100","0.0-17.0-0.18","97303","List1B","black","woman","","","","null","","","","","","","","",""
"null","<img src=""stim_listB/look7.gif""style=""height:400px;""></stim_listB>","","html-keyboard-response","319","1966116","0.0-17.0-1.18","97303","List1B","black","woman","","","","null","","","","","","","","",""
"null","is looking at","","html-keyboard-response","320","1968135","0.0-17.0-2.18","97303","List1B","black","woman","","","","null","","","","","","","","",""
"8613.5","","","survey-text","321","1976753","0.0-17.0-3.18","97303","List1B","black","woman","","","","","{""Q0"":""Beth is looking at ruth""}","<img src=""stim_listB/look7.gif""style=""height:400px;""></stim_listB>","is looking at","","","","","",""
"null","<div style=""font-size:60px;"">+</div>","","html-keyboard-response","322","1977257","0.0-17.0-0.19","97303","List1B","black","woman","","","","null","","","","","","","","",""
"null","<img src=""stim_listB/copy4.gif""style=""height:400px;""></stim_listB>","","html-keyboard-response","323","1979273","0.0-17.0-1.19","97303","List1B","black","woman","","","","null","","","","","","","","",""
"null","is being copied by","","html-keyboard-response","324","1981275","0.0-17.0-2.19","97303","List1B","black","woman","","","","null","","","","","","","","",""
"15678.60000000894","","","survey-text","325","1996960","0.0-17.0-3.19","97303","List1B","black","woman","","","","","{""Q0"":""Jane is being copied by luke""}","<img src=""stim_listB/copy4.gif""style=""height:400px;""></stim_listB>","is being copied by","","","","","",""
"3126.7000000029802","<img src='img/portrait_matrix_list1.jpg' style='width:900px;height:500px;''></img><p>If you have memorised all the portraits and names and are ready to start, press Continue.</p><p><strong>Please note: Your memory of these faces will be tested 4 times during this experiment.</strong></p>","0","html-button-response","326","2000089","0.0-18.0-0.0","97303","List1B","black","woman","","","","","","","","","","","","",""
"6310","<img src=""portrait/WM1.jpg""style=""height:400px;""></img>","6","html-button-response","327","2007414","0.0-18.0-1.0","97303","List1B","black","woman","","true","6","","","","","","","","","",""
"null","CORRECT","","html-keyboard-response","328","2008924","0.0-18.0-2.0-0.0","97303","List1B","black","woman","","","","null","","","","","","","","",""
"1865.9000000059605","<img src=""portrait/WM2.jpg""style=""height:400px;""></img>","7","html-button-response","329","2010793","0.0-18.0-4.0","97303","List1B","black","woman","","true","7","","","","","","","","","",""
"null","CORRECT","","html-keyboard-response","330","2012302","0.0-18.0-5.0-0.0","97303","List1B","black","woman","","","","null","","","","","","","","",""
"2042.9000000059605","<img src=""portrait/BW2.jpg""style=""height:400px;""></img>","2","html-button-response","331","2014348","0.0-18.0-7.0","97303","List1B","black","woman","","true","2","","","","","","","","","",""
"null","CORRECT","","html-keyboard-response","332","2015860","0.0-18.0-8.0-0.0","97303","List1B","black","woman","","","","null","","","","","","","","",""
"2134.8999999910593","<img src=""portrait/BM1.jpg""style=""height:400px;""></img>","4","html-button-response","333","2017998","0.0-18.0-10.0","97303","List1B","black","woman","","true","4","","","","","","","","","",""
"null","CORRECT","","html-keyboard-response","334","2019504","0.0-18.0-11.0-0.0","97303","List1B","black","woman","","","","null","","","","","","","","",""
"2308.4000000059605","<img src=""portrait/WW1.jpg""style=""height:400px;""></img>","1","html-button-response","335","2021814","0.0-18.0-13.0","97303","List1B","black","woman","","true","1","","","","","","","","","",""
"null","CORRECT","","html-keyboard-response","336","2023319","0.0-18.0-14.0-0.0","97303","List1B","black","woman","","","","null","","","","","","","","",""
"2557.5999999940395","<img src=""portrait/BW1.jpg""style=""height:400px;""></img>","0","html-button-response","337","2025879","0.0-18.0-16.0","97303","List1B","black","woman","","true","0","","","","","","","","","",""
"null","CORRECT","","html-keyboard-response","338","2027405","0.0-18.0-17.0-0.0","97303","List1B","black","woman","","","","null","","","","","","","","",""
"1849.8999999910593","<img src=""portrait/WW2.jpg""style=""height:400px;""></img>","3","html-button-response","339","2029258","0.0-18.0-19.0","97303","List1B","black","woman","","true","3","","","","","","","","","",""
"null","CORRECT","","html-keyboard-response","340","2030763","0.0-18.0-20.0-0.0","97303","List1B","black","woman","","","","null","","","","","","","","",""
"2699.9000000059605","<img src=""portrait/BM2.jpg""style=""height:400px;""></img>","5","html-button-response","341","2033466","0.0-18.0-22.0","97303","List1B","black","woman","","true","5","","","","","","","","","",""
"null","CORRECT","","html-keyboard-response","342","2034981","0.0-18.0-23.0-0.0","97303","List1B","black","woman","","","","null","","","","","","","","",""
"1349","<p>You got 8 out of 8 right first time. Press Continue.</p>","0","html-button-response","343","2036333","0.0-18.0-25.0","97303","List1B","black","woman","","","","","","","","","","","","",""
"null","<div style=""font-size:60px;"">+</div>","","html-keyboard-response","344","2037864","0.0-19.0-0.0","97303","List1B","black","woman","","","","null","","","","","","","","",""
"null","<img src=""stim_listB/hug2.gif""style=""height:400px;""></stim_listB>","","html-keyboard-response","345","2039876","0.0-19.0-1.0","97303","List1B","black","woman","","","","null","","","","","","","","",""
"null","is being hugged by","","html-keyboard-response","346","2041883","0.0-19.0-2.0","97303","List1B","black","woman","","","","null","","","","","","","","",""
"12152.40000000596","","","survey-text","347","2054040","0.0-19.0-3.0","97303","List1B","black","woman","","","","","{""Q0"":""Mike is being hugged by kate""}","<img src=""stim_listB/hug2.gif""style=""height:400px;""></stim_listB>","is being hugged by","","","","","",""
"null","<div style=""font-size:60px;"">+</div>","","html-keyboard-response","348","2054551","0.0-19.0-0.1","97303","List1B","black","woman","","","","null","","","","","","","","",""
"null","<img src=""stim_listB/copy8.gif""style=""height:400px;""></stim_listB>","","html-keyboard-response","349","2056556","0.0-19.0-1.1","97303","List1B","black","woman","","","","null","","","","","","","","",""
"null","is being copied by","","html-keyboard-response","350","2058558","0.0-19.0-2.1","97303","List1B","black","woman","","","","null","","","","","","","","",""
"15519.39999999106","","","survey-text","351","2074083","0.0-19.0-3.1","97303","List1B","black","woman","","","","","{""Q0"":""jane is being copied by beth""}","<img src=""stim_listB/copy8.gif""style=""height:400px;""></stim_listB>","is being copied by","","","","","",""
"null","<div style=""font-size:60px;"">+</div>","","html-keyboard-response","352","2074589","0.0-19.0-0.2","97303","List1B","black","woman","","","","null","","","","","","","","",""
"null","<img src=""stim_listB/look4.gif""style=""height:400px;""></stim_listB>","","html-keyboard-response","353","2076607","0.0-19.0-1.2","97303","List1B","black","woman","","","","null","","","","","","","","",""
"null","is being looked at by","","html-keyboard-response","354","2078619","0.0-19.0-2.2","97303","List1B","black","woman","","","","null","","","","","","","","",""
"14077","","","survey-text","355","2092703","0.0-19.0-3.2","97303","List1B","black","woman","","","","","{""Q0"":""dave is being looked at by jane""}","<img src=""stim_listB/look4.gif""style=""height:400px;""></stim_listB>","is being looked at by","","","","","",""
"null","<div style=""font-size:60px;"">+</div>","","html-keyboard-response","356","2093214","0.0-19.0-0.3","97303","List1B","black","woman","","","","null","","","","","","","","",""
"null","<img src=""stim_listB/touch7.gif""style=""height:400px;""></stim_listB>","","html-keyboard-response","357","2095229","0.0-19.0-1.3","97303","List1B","black","woman","","","","null","","","","","","","","",""
"null","is touching","","html-keyboard-response","358","2097244","0.0-19.0-2.3","97303","List1B","black","woman","","","","null","","","","","","","","",""
"9924.39999999106","","","survey-text","359","2107174","0.0-19.0-3.3","97303","List1B","black","woman","","","","","{""Q0"":""kate is touching jane""}","<img src=""stim_listB/touch7.gif""style=""height:400px;""></stim_listB>","is touching","","","","","",""
"null","<div style=""font-size:60px;"">+</div>","","html-keyboard-response","360","2107685","0.0-19.0-0.4","97303","List1B","black","woman","","","","null","","","","","","","","",""
"null","<img src=""stim_listB/challenge2.gif""style=""height:400px;""></stim_listB>","","html-keyboard-response","361","2109688","0.0-19.0-1.4","97303","List1B","black","woman","","","","null","","","","","","","","",""
"null","is being challenged by","","html-keyboard-response","362","2111702","0.0-19.0-2.4","97303","List1B","black","woman","","","","null","","","","","","","","",""
"17967","","","survey-text","363","2129672","0.0-19.0-3.4","97303","List1B","black","woman","","","","","{""Q0"":""kate is being challenged by fred""}","<img src=""stim_listB/challenge2.gif""style=""height:400px;""></stim_listB>","is being challenged by","","","","","",""
"null","<div style=""font-size:60px;"">+</div>","","html-keyboard-response","364","2130176","0.0-19.0-0.5","97303","List1B","black","woman","","","","null","","","","","","","","",""
"null","<img src=""stim_listB/kiss8.gif""style=""height:400px;""></stim_listB>","","html-keyboard-response","365","2132193","0.0-19.0-1.5","97303","List1B","black","woman","","","","null","","","","","","","","",""
"null","is being kissed by","","html-keyboard-response","366","2134196","0.0-19.0-2.5","97303","List1B","black","woman","","","","null","","","","","","","","",""
"11457.5","","","survey-text","367","2145661","0.0-19.0-3.5","97303","List1B","black","woman","","","","","{""Q0"":""kate is being kissed by jane""}","<img src=""stim_listB/kiss8.gif""style=""height:400px;""></stim_listB>","is being kissed by","","","","","",""
"null","<div style=""font-size:60px;"">+</div>","","html-keyboard-response","368","2146176","0.0-19.0-0.6","97303","List1B","black","woman","","","","null","","","","","","","","",""
"null","<img src=""stim_listB/shout5.gif""style=""height:400px;""></stim_listB>","","html-keyboard-response","369","2148193","0.0-19.0-1.6","97303","List1B","black","woman","","","","null","","","","","","","","",""
"null","is shouting at","","html-keyboard-response","370","2150202","0.0-19.0-2.6","97303","List1B","black","woman","","","","null","","","","","","","","",""
"9463.699999988079","","","survey-text","371","2159670","0.0-19.0-3.6","97303","List1B","black","woman","","","","","{""Q0"":""Fred is shouting at luke""}","<img src=""stim_listB/shout5.gif""style=""height:400px;""></stim_listB>","is shouting at","","","","","",""
"null","<div style=""font-size:60px;"">+</div>","","html-keyboard-response","372","2160173","0.0-19.0-0.7","97303","List1B","black","woman","","","","null","","","","","","","","",""
"null","<img src=""stim_listB/kiss1.gif""style=""height:400px;""></stim_listB>","","html-keyboard-response","373","2162179","0.0-19.0-1.7","97303","List1B","black","woman","","","","null","","","","","","","","",""
"null","is kissing","","html-keyboard-response","374","2164188","0.0-19.0-2.7","97303","List1B","black","woman","","","","null","","","","","","","","",""
"9142.79999999702","","","survey-text","375","2173337","0.0-19.0-3.7","97303","List1B","black","woman","","","","","{""Q0"":""Fred is kissing beth""}","<img src=""stim_listB/kiss1.gif""style=""height:400px;""></stim_listB>","is kissing","","","","","",""
"null","<div style=""font-size:60px;"">+</div>","","html-keyboard-response","376","2173846","0.0-19.0-0.8","97303","List1B","black","woman","","","","null","","","","","","","","",""
"null","<img src=""stim_listB/touch6.gif""style=""height:400px;""></stim_listB>","","html-keyboard-response","377","2175851","0.0-19.0-1.8","97303","List1B","black","woman","","","","null","","","","","","","","",""
"null","is being touched by","","html-keyboard-response","378","2177866","0.0-19.0-2.8","97303","List1B","black","woman","","","","null","","","","","","","","",""
"15663","","","survey-text","379","2193534","0.0-19.0-3.8","97303","List1B","black","woman","","","","","{""Q0"":""Fred is being touched by luke""}","<img src=""stim_listB/touch6.gif""style=""height:400px;""></stim_listB>","is being touched by","","","","","",""
"null","<div style=""font-size:60px;"">+</div>","","html-keyboard-response","380","2194039","0.0-19.0-0.9","97303","List1B","black","woman","","","","null","","","","","","","","",""
"null","<img src=""stim_listB/copy3.gif""style=""height:400px;""></stim_listB>","","html-keyboard-response","381","2196045","0.0-19.0-1.9","97303","List1B","black","woman","","","","null","","","","","","","","",""
"null","is copying","","html-keyboard-response","382","2198049","0.0-19.0-2.9","97303","List1B","black","woman","","","","null","","","","","","","","",""
"11481.79999999702","","","survey-text","383","2209537","0.0-19.0-3.9","97303","List1B","black","woman","","","","","{""Q0"":""Dave is copying ruth""}","<img src=""stim_listB/copy3.gif""style=""height:400px;""></stim_listB>","is copying","","","","","",""
"null","<div style=""font-size:60px;"">+</div>","","html-keyboard-response","384","2210055","0.0-19.0-0.10","97303","List1B","black","woman","","","","null","","","","","","","","",""
"null","<img src=""stim_listB/challenge8.gif""style=""height:400px;""></stim_listB>","","html-keyboard-response","385","2212064","0.0-19.0-1.10","97303","List1B","black","woman","","","","null","","","","","","","","",""
"null","is being challenged by","","html-keyboard-response","386","2214067","0.0-19.0-2.10","97303","List1B","black","woman","","","","null","","","","","","","","",""
"16841.29999999702","","","survey-text","387","2230920","0.0-19.0-3.10","97303","List1B","black","woman","","","","","{""Q0"":""Beth is being challenged by jane""}","<img src=""stim_listB/challenge8.gif""style=""height:400px;""></stim_listB>","is being challenged by","","","","","",""
"null","<div style=""font-size:60px;"">+</div>","","html-keyboard-response","388","2231429","0.0-19.0-0.11","97303","List1B","black","woman","","","","null","","","","","","","","",""
"null","<img src=""stim_listB/oppose5.gif""style=""height:400px;""></stim_listB>","","html-keyboard-response","389","2233434","0.0-19.0-1.11","97303","List1B","black","woman","","","","null","","","","","","","","",""
"null","is opposing","","html-keyboard-response","390","2235436","0.0-19.0-2.11","97303","List1B","black","woman","","","","null","","","","","","","","",""
"8849","","","survey-text","391","2244290","0.0-19.0-3.11","97303","List1B","black","woman","","","","","{""Q0"":""Dave is opposing mike""}","<img src=""stim_listB/oppose5.gif""style=""height:400px;""></stim_listB>","is opposing","","","","","",""
"null","<div style=""font-size:60px;"">+</div>","","html-keyboard-response","392","2244797","0.0-19.0-0.12","97303","List1B","black","woman","","","","null","","","","","","","","",""
"null","<img src=""stim_listB/kiss3.gif""style=""height:400px;""></stim_listB>","","html-keyboard-response","393","2246808","0.0-19.0-1.12","97303","List1B","black","woman","","","","null","","","","","","","","",""
"null","is kissing","","html-keyboard-response","394","2248811","0.0-19.0-2.12","97303","List1B","black","woman","","","","null","","","","","","","","",""
"11700.79999999702","","","survey-text","395","2260517","0.0-19.0-3.12","97303","List1B","black","woman","","","","","{""Q0"":""luke is kissing ruth""}","<img src=""stim_listB/kiss3.gif""style=""height:400px;""></stim_listB>","is kissing","","","","","",""
"null","<div style=""font-size:60px;"">+</div>","","html-keyboard-response","396","2261023","0.0-19.0-0.13","97303","List1B","black","woman","","","","null","","","","","","","","",""
"null","<img src=""stim_listB/touch3.gif""style=""height:400px;""></stim_listB>","","html-keyboard-response","397","2263033","0.0-19.0-1.13","97303","List1B","black","woman","","","","null","","","","","","","","",""
"null","is touching","","html-keyboard-response","398","2265050","0.0-19.0-2.13","97303","List1B","black","woman","","","","null","","","","","","","","",""
"13266.20000000298","","","survey-text","399","2278321","0.0-19.0-3.13","97303","List1B","black","woman","","","","","{""Q0"":""dave is touching jane""}","<img src=""stim_listB/touch3.gif""style=""height:400px;""></stim_listB>","is touching","","","","","",""
"null","<div style=""font-size:60px;"">+</div>","","html-keyboard-response","400","2278829","0.0-19.0-0.14","97303","List1B","black","woman","","","","null","","","","","","","","",""
"null","<img src=""stim_listB/greet1.gif""style=""height:400px;""></stim_listB>","","html-keyboard-response","401","2280836","0.0-19.0-1.14","97303","List1B","black","woman","","","","null","","","","","","","","",""
"null","is greeting","","html-keyboard-response","402","2282839","0.0-19.0-2.14","97303","List1B","black","woman","","","","null","","","","","","","","",""
"6928.79999999702","","","survey-text","403","2289771","0.0-19.0-3.14","97303","List1B","black","woman","","","","","{""Q0"":""mike is greeting beth""}","<img src=""stim_listB/greet1.gif""style=""height:400px;""></stim_listB>","is greeting","","","","","",""
"null","<div style=""font-size:60px;"">+</div>","","html-keyboard-response","404","2290284","0.0-19.0-0.15","97303","List1B","black","woman","","","","null","","","","","","","","",""
"null","<img src=""stim_listB/greet4.gif""style=""height:400px;""></stim_listB>","","html-keyboard-response","405","2292296","0.0-19.0-1.15","97303","List1B","black","woman","","","","null","","","","","","","","",""
"null","is being greeted by","","html-keyboard-response","406","2294298","0.0-19.0-2.15","97303","List1B","black","woman","","","","null","","","","","","","","",""
"12914.89999999106","","","survey-text","407","2307218","0.0-19.0-3.15","97303","List1B","black","woman","","","","","{""Q0"":""luke is being greeted by jane""}","<img src=""stim_listB/greet4.gif""style=""height:400px;""></stim_listB>","is being greeted by","","","","","",""
"null","<div style=""font-size:60px;"">+</div>","","html-keyboard-response","408","2307723","0.0-19.0-0.16","97303","List1B","black","woman","","","","null","","","","","","","","",""
"null","<img src=""stim_listB/hug3.gif""style=""height:400px;""></stim_listB>","","html-keyboard-response","409","2309729","0.0-19.0-1.16","97303","List1B","black","woman","","","","null","","","","","","","","",""
"null","is hugging","","html-keyboard-response","410","2311732","0.0-19.0-2.16","97303","List1B","black","woman","","","","null","","","","","","","","",""
"11256.70000000298","","","survey-text","411","2322993","0.0-19.0-3.16","97303","List1B","black","woman","","","","","{""Q0"":""ruth is hugging luke""}","<img src=""stim_listB/hug3.gif""style=""height:400px;""></stim_listB>","is hugging","","","","","",""
"null","<div style=""font-size:60px;"">+</div>","","html-keyboard-response","412","2323508","0.0-19.0-0.17","97303","List1B","black","woman","","","","null","","","","","","","","",""
"null","<img src=""stim_listB/touch2.gif""style=""height:400px;""></stim_listB>","","html-keyboard-response","413","2325522","0.0-19.0-1.17","97303","List1B","black","woman","","","","null","","","","","","","","",""
"null","is being touched by","","html-keyboard-response","414","2327525","0.0-19.0-2.17","97303","List1B","black","woman","","","","null","","","","","","","","",""
"19714.5","","","survey-text","415","2347246","0.0-19.0-3.17","97303","List1B","black","woman","","","","","{""Q0"":""Beth is being touched by fred""}","<img src=""stim_listB/touch2.gif""style=""height:400px;""></stim_listB>","is being touched by","","","","","",""
"null","<div style=""font-size:60px;"">+</div>","","html-keyboard-response","416","2347760","0.0-19.0-0.18","97303","List1B","black","woman","","","","null","","","","","","","","",""
"null","<img src=""stim_listB/hug8.gif""style=""height:400px;""></stim_listB>","","html-keyboard-response","417","2349774","0.0-19.0-1.18","97303","List1B","black","woman","","","","null","","","","","","","","",""
"null","is being hugged by","","html-keyboard-response","418","2351791","0.0-19.0-2.18","97303","List1B","black","woman","","","","null","","","","","","","","",""
"12519.20000000298","","","survey-text","419","2364314","0.0-19.0-3.18","97303","List1B","black","woman","","","","","{""Q0"":""jane is being hugged by kate""}","<img src=""stim_listB/hug8.gif""style=""height:400px;""></stim_listB>","is being hugged by","","","","","",""
"null","<div style=""font-size:60px;"">+</div>","","html-keyboard-response","420","2364817","0.0-19.0-0.19","97303","List1B","black","woman","","","","null","","","","","","","","",""
"null","<img src=""stim_listB/greet6.gif""style=""height:400px;""></stim_listB>","","html-keyboard-response","421","2366830","0.0-19.0-1.19","97303","List1B","black","woman","","","","null","","","","","","","","",""
"null","is being greeted by","","html-keyboard-response","422","2368833","0.0-19.0-2.19","97303","List1B","black","woman","","","","null","","","","","","","","",""
"14001","","","survey-text","423","2382840","0.0-19.0-3.19","97303","List1B","black","woman","","","","","{""Q0"":""dave is being greeted by fred""}","<img src=""stim_listB/greet6.gif""style=""height:400px;""></stim_listB>","is being greeted by","","","","","",""
"5201.20000000298","<p>Thank you for completing that task.</p><p>The final part of this session is a questionnaire that will take about 4 minutes.</p><p>Press Continue.</p>","0","html-button-response","424","2388043","0.0-20.0","97303","List1B","black","woman","","","","","","","","","","","","",""
"86343.5","","","survey-text","425","2475399","0.0-21.0","97303","List1B","black","woman","","","","","{""Q0"":""27"",""Q1"":""English"",""Q2"":""English"",""Q3"":""United state of American"",""Q4"":""American"",""Q5"":""black American"",""Q6"":""female""}","","","demographics","","","","",""
"4347.70000000298","<p>Have you lived in the USA for the last 5 years or more?</p>","0","html-button-response","426","2479750","0.0-22.0","97303","List1B","black","woman","","","","","","","","fiveyears","","","","",""
"4704.5","<p>Move the slider to show the extent to which you agree with the following statements.</p>","0","html-button-response","427","2485470","0.0-23.0","97303","List1B","black","woman","","","","","","","","","","","","",""
"7724.300000011921","","","html-slider-response","428","2494211","0.0-24.0-0.0-0.0","97303","List1B","black","woman","","","","","","","","survey_race","77","","","I have a lot in common with the average person of my race.","average"
"3553","","","html-slider-response","429","2497767","0.0-24.0-0.0-0.1","97303","List1B","black","woman","","","","","","","","survey_race","80","","","I feel solidarity with people the same age as me.","filler"
"4593.5","","","html-slider-response","430","2502363","0.0-24.0-0.0-0.2","97303","List1B","black","woman","","","","","","","","survey_race","85","","","I am glad to be the age I am.","filler"
"6048.70000000298","","","html-slider-response","431","2508415","0.0-24.0-0.0-0.3","97303","List1B","black","woman","","","","","","","","survey_race","79","","","I often think about the fact that I am my race.","often"
"5236.9000000059605","","","html-slider-response","432","2513655","0.0-24.0-0.0-0.4","97303","List1B","black","woman","","","","","","","","survey_race","82","","","The fact that I am my race is an important part of my identity.","identity"
"2801.2000000029802","","","html-slider-response","433","2516459","0.0-24.0-0.0-0.5","97303","List1B","black","woman","","","","","","","","survey_race","87","","","I feel solidarity with my race.","solidarity"
"4362.29999999702","","","html-slider-response","434","2520824","0.0-24.0-0.0-0.6","97303","List1B","black","woman","","","","","","","","survey_race","84","","","The older I get, the wiser I feel.","filler"
"4040.2999999970198","","","html-slider-response","435","2524867","0.0-24.0-0.0-0.7","97303","List1B","black","woman","","","","","","","","survey_race","84","","","I am similar to the average person of my race.","similar"
"3797.7000000029802","","","html-slider-response","436","2528667","0.0-24.0-0.0-0.8","97303","List1B","black","woman","","","","","","","","survey_race","89","","","I have a lot in common with people of a similar age to me.","filler"
"8069","","","html-slider-response","437","2536739","0.0-24.0-0.0-0.9","97303","List1B","black","woman","","","","","","","","survey_race","41","","","I consider myself an introvert.","filler"
"3497.9000000059605","","","html-slider-response","438","2540239","0.0-24.0-0.0-0.10","97303","List1B","black","woman","","","","","","","","survey_race","79","","","I feel a bond with people the same age as me.","filler"
"3025.6000000089407","","","html-slider-response","439","2543266","0.0-24.0-0.0-0.11","97303","List1B","black","woman","","","","","","","","survey_race","86","","","I am glad to be my race.","glad"
"2721.8999999910593","","","html-slider-response","440","2545991","0.0-24.0-0.0-0.12","97303","List1B","black","woman","","","","","","","","survey_race","79","","","I am glad to be my age.","filler"
"4070","","","html-slider-response","441","2550063","0.0-24.0-0.0-0.13","97303","List1B","black","woman","","","","","","","","survey_race","72","","","I enjoy being in large groups.","filler"
"3929.5999999940395","","","html-slider-response","442","2553994","0.0-24.0-0.0-0.14","97303","List1B","black","woman","","","","","","","","survey_race","79","","","I think that my race has a lot to be proud of.","proud"
"4202","","","html-slider-response","443","2558199","0.0-24.0-0.0-0.15","97303","List1B","black","woman","","","","","","","","survey_race","83","","","It is pleasant to be my race.","pleasant"
"6165.29999999702","","","html-slider-response","444","2564367","0.0-24.0-0.0-0.16","97303","List1B","black","woman","","","","","","","","survey_race","71","","","I often think about the fact that I am my age.","filler"
"3540.5","","","html-slider-response","445","2567910","0.0-24.0-0.0-0.17","97303","List1B","black","woman","","","","","","","","survey_race","80","","","Being my race is an important part of how I see myself.","important"
"2461.5","","","html-slider-response","446","2570374","0.0-24.0-0.0-0.18","97303","List1B","black","woman","","","","","","","","survey_race","78","","","People of my race are very similar to each other.","verysimilar"
"4462.0999999940395","","","html-slider-response","447","2574838","0.0-24.0-0.0-0.19","97303","List1B","black","woman","","","","","","","","survey_race","83","","","Getting older does not worry me.","filler"
"4921.20000000298","","","html-slider-response","448","2579762","0.0-24.0-0.0-0.20","97303","List1B","black","woman","","","","","","","","survey_race","84","","","Being my race gives me a good feeling.","feeling"
"2865.1000000089407","","","html-slider-response","449","2582630","0.0-24.0-0.0-0.21","97303","List1B","black","woman","","","","","","","","survey_race","87","","","I feel committed to my race.","committed"
"4677.20000000298","","","html-slider-response","450","2587310","0.0-24.0-0.0-0.22","97303","List1B","black","woman","","","","","","","","survey_race","86","","","People my age have a lot in common with each other.","filler"
"3489","","","html-slider-response","451","2590802","0.0-24.0-0.0-0.23","97303","List1B","black","woman","","","","","","","","survey_race","74","","","I consider myself an extrovert.","filler"
"3201.7000000029802","","","html-slider-response","452","2594006","0.0-24.0-0.0-0.24","97303","List1B","black","woman","","","","","","","","survey_race","82","","","I feel a bond with my race.","bond"
"4117.600000008941","","","html-slider-response","453","2598126","0.0-24.0-0.0-0.25","97303","List1B","black","woman","","","","","","","","survey_race","80","","","Being my age gives me a good feeling.","filler"
"3561.4000000059605","","","html-slider-response","454","2601690","0.0-24.0-0.0-0.26","97303","List1B","black","woman","","","","","","","","survey_race","80","","","People of my race have a lot in common with each other.","common"
"3153.5999999940395","","","html-slider-response","455","2604846","0.0-24.0-0.0-0.27","97303","List1B","black","woman","","","","","","","","survey_race","86","","","My age is not an important part of who I am.","filler"
"3257.7000000029802","","","html-slider-response","456","2608106","0.0-24.0-1.0-0.0","97303","List1B","black","woman","","","","","","","","survey_gender","86","","","I often think about my actions.","filler"
"13005.29999999702","","","html-slider-response","457","2621113","0.0-24.0-1.0-0.1","97303","List1B","black","woman","","","","","","","","survey_gender","53","","","It is not always easy for people to know what I am thinking.","filler"
"6405.70000000298","","","html-slider-response","458","2627522","0.0-24.0-1.0-0.2","97303","List1B","black","woman","","","","","","","","survey_gender","74","","","I am similar to the average person of my gender.","similar"
"4701.0999999940395","","","html-slider-response","459","2632225","0.0-24.0-1.0-0.3","97303","List1B","black","woman","","","","","","","","survey_gender","84","","","It is pleasant to be my gender.","pleasant"
"2569.0999999940395","","","html-slider-response","460","2634798","0.0-24.0-1.0-0.4","97303","List1B","black","woman","","","","","","","","survey_gender","83","","","I feel a bond with my gender.","bond"
"3953.3999999910593","","","html-slider-response","461","2638753","0.0-24.0-1.0-0.5","97303","List1B","black","woman","","","","","","","","survey_gender","53","","","I feel solidarity with my friends.","filler"
"15225.29999999702","","","html-slider-response","462","2653982","0.0-24.0-1.0-0.6","97303","List1B","black","woman","","","","","","","","survey_gender","67","","","I feel solidarity with my gender.","solidarity"
"2680.800000011921","","","html-slider-response","463","2656665","0.0-24.0-1.0-0.7","97303","List1B","black","woman","","","","","","","","survey_gender","73","","","I feel a bond with my friends.","filler"
"1970","","","html-slider-response","464","2658637","0.0-24.0-1.0-0.8","97303","List1B","black","woman","","","","","","","","survey_gender","71","","","Being around my friends gives me a good feeling.","filler"
"4634.9000000059605","","","html-slider-response","465","2663274","0.0-24.0-1.0-0.9","97303","List1B","black","woman","","","","","","","","survey_gender","55","","","My friends have a lot in common with each other.","filler"
"4492.899999991059","","","html-slider-response","466","2667769","0.0-24.0-1.0-0.10","97303","List1B","black","woman","","","","","","","","survey_gender","50","","","I have a lot in common with my friends.","filler"
"1985.7000000029802","","","html-slider-response","467","2669757","0.0-24.0-1.0-0.11","97303","List1B","black","woman","","","","","","","","survey_gender","66","","","People of my gender are very similar to each other.","verysimilar"
"5038.399999991059","","","html-slider-response","468","2674797","0.0-24.0-1.0-0.12","97303","List1B","black","woman","","","","","","","","survey_gender","86","","","The fact that I am my gender is an important part of my identity.","identity"
"2621.7999999970198","","","html-slider-response","469","2677421","0.0-24.0-1.0-0.13","97303","List1B","black","woman","","","","","","","","survey_gender","75","","","I feel committed to my gender.","committed"
"3638.4000000059605","","","html-slider-response","470","2681061","0.0-24.0-1.0-0.14","97303","List1B","black","woman","","","","","","","","survey_gender","73","","","Being my gender gives me a good feeling.","feeling"
"3961.7000000029802","","","html-slider-response","471","2685025","0.0-24.0-1.0-0.15","97303","List1B","black","woman","","","","","","","","survey_gender","84","","","I consider myself a highly empathetic person.","filler"
"3513.5","","","html-slider-response","472","2688541","0.0-24.0-1.0-0.16","97303","List1B","black","woman","","","","","","","","survey_gender","86","","","My friends understand me.","filler"
"3249.7999999970198","","","html-slider-response","473","2691793","0.0-24.0-1.0-0.17","97303","List1B","black","woman","","","","","","","","survey_gender","75","","","I am glad to have the friends that I have.","filler"
"4766.29999999702","","","html-slider-response","474","2696561","0.0-24.0-1.0-0.18","97303","List1B","black","woman","","","","","","","","survey_gender","80","","","Being my gender is an important part of how I see myself.","important"
