rt,stimulus,button_pressed,trial_type,trial_index,time_elapsed,internal_node_id,subject,list,ppt_race,ppt_gender,url,first_guess,correct,key_press,responses,image_type,phrase_type,test_part,response,stimulus1,stimulus2,question_type,survey_item
7733.6,Welcome to the experiment. Press Continue to begin.,0,html-button-response,0,7738,0.0-0.0,97545,List1B,black,woman,,,,,,,,,,,,,
26971.7,,,external-html,1,36204,0.0-1.0,97545,List1B,black,woman,consent.html,,,,,,,,,,,,
13799.5,"<p>On the next page, you will see portraits of 8 people and their names.</p><p>Your first task is to take a few minutes to memorise the names of these people.</p><p>You will have to recall their names during the rest of the experiment, so it is</p><p>essential that you try to memorise these people and their names as best as you can.</p><br><p><strong>You will then be tested on your memory of these names and portraits.</strong></p><br><p>The experiment will start after you have completed this memory test.</p><br><p>Ready?</p>",0,html-button-response,2,50007,0.0-2.0,97545,List1B,black,woman,,,,,,,,,,,,,
108588,"<img src='img/portrait_matrix_list1.jpg' style='width:900px;height:500px;''></img><p>If you have memorised all the portraits and names and are ready to start, press Continue.</p><p><strong>Please note: Your memory of these faces will be tested 4 times during this experiment.</strong></p>",0,html-button-response,3,159597,0.0-3.0-0.0,97545,List1B,black,woman,,,,,,,,,,,,,
8817.1,"<img src=""portrait/WW1.jpg""style=""height:400px;""></img>",1,html-button-response,4,169422,0.0-3.0-1.0,97545,List1B,black,woman,,TRUE,1,,,,,,,,,,
null,CORRECT,,html-keyboard-response,5,170936,0.0-3.0-2.0-0.0,97545,List1B,black,woman,,,,null,,,,,,,,,
2307,"<img src=""portrait/WM2.jpg""style=""height:400px;""></img>",7,html-button-response,6,173248,0.0-3.0-4.0,97545,List1B,black,woman,,TRUE,7,,,,,,,,,,
null,CORRECT,,html-keyboard-response,7,174761,0.0-3.0-5.0-0.0,97545,List1B,black,woman,,,,null,,,,,,,,,
1962.4,"<img src=""portrait/BW1.jpg""style=""height:400px;""></img>",2,html-button-response,8,176727,0.0-3.0-7.0,97545,List1B,black,woman,,TRUE,0,,,,,,,,,,
6944.3,"<img src=""portrait/BW1.jpg""style=""height:400px;""></img>",0,html-button-response,9,184677,0.0-3.0-9.0-0.0,97545,List1B,black,woman,,FALSE,0,,,,,,,,,,
null,CORRECT,,html-keyboard-response,10,186188,0.0-3.0-9.0-1.0-0.0,97545,List1B,black,woman,,,,null,,,,,,,,,
4350.1,"<img src=""portrait/BM1.jpg""style=""height:400px;""></img>",4,html-button-response,11,190541,0.0-3.0-10.0,97545,List1B,black,woman,,TRUE,4,,,,,,,,,,
null,CORRECT,,html-keyboard-response,12,192045,0.0-3.0-11.0-0.0,97545,List1B,black,woman,,,,null,,,,,,,,,
2423.9,"<img src=""portrait/BW2.jpg""style=""height:400px;""></img>",2,html-button-response,13,194471,0.0-3.0-13.0,97545,List1B,black,woman,,TRUE,2,,,,,,,,,,
null,CORRECT,,html-keyboard-response,14,195974,0.0-3.0-14.0-0.0,97545,List1B,black,woman,,,,null,,,,,,,,,
2873.2,"<img src=""portrait/WM1.jpg""style=""height:400px;""></img>",6,html-button-response,15,198850,0.0-3.0-16.0,97545,List1B,black,woman,,TRUE,6,,,,,,,,,,
null,CORRECT,,html-keyboard-response,16,200358,0.0-3.0-17.0-0.0,97545,List1B,black,woman,,,,null,,,,,,,,,
1641,"<img src=""portrait/BM2.jpg""style=""height:400px;""></img>",5,html-button-response,17,202002,0.0-3.0-19.0,97545,List1B,black,woman,,TRUE,5,,,,,,,,,,
null,CORRECT,,html-keyboard-response,18,203506,0.0-3.0-20.0-0.0,97545,List1B,black,woman,,,,null,,,,,,,,,
4193.1,"<img src=""portrait/WW2.jpg""style=""height:400px;""></img>",3,html-button-response,19,207702,0.0-3.0-22.0,97545,List1B,black,woman,,TRUE,3,,,,,,,,,,
null,CORRECT,,html-keyboard-response,20,209208,0.0-3.0-23.0-0.0,97545,List1B,black,woman,,,,null,,,,,,,,,
2404.4,<p>You got 7 out of 8 right first time. Press Continue.</p>,0,html-button-response,21,211616,0.0-3.0-25.0,97545,List1B,black,woman,,,,,,,,,,,,,
2745.1,"As you did not score 100%, the memory game will repeat. Press Continue.",0,html-button-response,22,215366,0.0-3.0-26.0-0.0,97545,List1B,black,woman,,,,,,,,,,,,,
35355.1,"<img src='img/portrait_matrix_list1.jpg' style='width:900px;height:500px;''></img><p>If you have memorised all the portraits and names and are ready to start, press Continue.</p><p><strong>Please note: Your memory of these faces will be tested 4 times during this experiment.</strong></p>",0,html-button-response,23,251728,0.0-3.1-0.1,97545,List1B,black,woman,,,,,,,,,,,,,
2052.1,"<img src=""portrait/WW1.jpg""style=""height:400px;""></img>",3,html-button-response,24,254788,0.0-3.1-1.1,97545,List1B,black,woman,,TRUE,1,,,,,,,,,,
6044.3,"<img src=""portrait/WW1.jpg""style=""height:400px;""></img>",1,html-button-response,25,261838,0.0-3.1-3.1-0.1,97545,List1B,black,woman,,FALSE,1,,,,,,,,,,
null,CORRECT,,html-keyboard-response,26,263344,0.0-3.1-3.1-1.1-0.1,97545,List1B,black,woman,,,,null,,,,,,,,,
1938.7,"<img src=""portrait/WM2.jpg""style=""height:400px;""></img>",7,html-button-response,27,265285,0.0-3.1-4.1,97545,List1B,black,woman,,TRUE,7,,,,,,,,,,
null,CORRECT,,html-keyboard-response,28,266794,0.0-3.1-5.1-0.1,97545,List1B,black,woman,,,,null,,,,,,,,,
7819.9,"<img src=""portrait/BW1.jpg""style=""height:400px;""></img>",0,html-button-response,29,274616,0.0-3.1-7.1,97545,List1B,black,woman,,TRUE,0,,,,,,,,,,
null,CORRECT,,html-keyboard-response,30,276127,0.0-3.1-8.1-0.1,97545,List1B,black,woman,,,,null,,,,,,,,,
4338.2,"<img src=""portrait/BM1.jpg""style=""height:400px;""></img>",4,html-button-response,31,280468,0.0-3.1-10.1,97545,List1B,black,woman,,TRUE,4,,,,,,,,,,
null,CORRECT,,html-keyboard-response,32,281975,0.0-3.1-11.1-0.1,97545,List1B,black,woman,,,,null,,,,,,,,,
2345.3,"<img src=""portrait/BW2.jpg""style=""height:400px;""></img>",2,html-button-response,33,284324,0.0-3.1-13.1,97545,List1B,black,woman,,TRUE,2,,,,,,,,,,
null,CORRECT,,html-keyboard-response,34,285833,0.0-3.1-14.1-0.1,97545,List1B,black,woman,,,,null,,,,,,,,,
2041.1,"<img src=""portrait/WM1.jpg""style=""height:400px;""></img>",5,html-button-response,35,287878,0.0-3.1-16.1,97545,List1B,black,woman,,TRUE,6,,,,,,,,,,
6105,"<img src=""portrait/WM1.jpg""style=""height:400px;""></img>",6,html-button-response,36,294988,0.0-3.1-18.1-0.1,97545,List1B,black,woman,,FALSE,6,,,,,,,,,,
null,CORRECT,,html-keyboard-response,37,296492,0.0-3.1-18.1-1.1-0.1,97545,List1B,black,woman,,,,null,,,,,,,,,
1598.2,"<img src=""portrait/BM2.jpg""style=""height:400px;""></img>",5,html-button-response,38,298093,0.0-3.1-19.1,97545,List1B,black,woman,,TRUE,5,,,,,,,,,,
null,CORRECT,,html-keyboard-response,39,299603,0.0-3.1-20.1-0.1,97545,List1B,black,woman,,,,null,,,,,,,,,
3272.9,"<img src=""portrait/WW2.jpg""style=""height:400px;""></img>",3,html-button-response,40,302878,0.0-3.1-22.1,97545,List1B,black,woman,,TRUE,3,,,,,,,,,,
null,CORRECT,,html-keyboard-response,41,304382,0.0-3.1-23.1-0.1,97545,List1B,black,woman,,,,null,,,,,,,,,
1956.8,<p>You got 6 out of 8 right first time. Press Continue.</p>,0,html-button-response,42,306343,0.0-3.1-25.1,97545,List1B,black,woman,,,,,,,,,,,,,
1948.7,"As you did not score 100%, the memory game will repeat. Press Continue.",0,html-button-response,43,309297,0.0-3.1-26.1-0.1,97545,List1B,black,woman,,,,,,,,,,,,,
15735.8,"<img src='img/portrait_matrix_list1.jpg' style='width:900px;height:500px;''></img><p>If you have memorised all the portraits and names and are ready to start, press Continue.</p><p><strong>Please note: Your memory of these faces will be tested 4 times during this experiment.</strong></p>",0,html-button-response,44,326039,0.0-3.2-0.2,97545,List1B,black,woman,,,,,,,,,,,,,
1979.4,"<img src=""portrait/WW1.jpg""style=""height:400px;""></img>",1,html-button-response,45,329023,0.0-3.2-1.2,97545,List1B,black,woman,,TRUE,1,,,,,,,,,,
null,CORRECT,,html-keyboard-response,46,330535,0.0-3.2-2.2-0.2,97545,List1B,black,woman,,,,null,,,,,,,,,
1875.8,"<img src=""portrait/WM2.jpg""style=""height:400px;""></img>",7,html-button-response,47,332414,0.0-3.2-4.2,97545,List1B,black,woman,,TRUE,7,,,,,,,,,,
null,CORRECT,,html-keyboard-response,48,333918,0.0-3.2-5.2-0.2,97545,List1B,black,woman,,,,null,,,,,,,,,
6759.8,"<img src=""portrait/BW1.jpg""style=""height:400px;""></img>",0,html-button-response,49,340680,0.0-3.2-7.2,97545,List1B,black,woman,,TRUE,0,,,,,,,,,,
null,CORRECT,,html-keyboard-response,50,342189,0.0-3.2-8.2-0.2,97545,List1B,black,woman,,,,null,,,,,,,,,
1787,"<img src=""portrait/BM1.jpg""style=""height:400px;""></img>",4,html-button-response,51,343979,0.0-3.2-10.2,97545,List1B,black,woman,,TRUE,4,,,,,,,,,,
null,CORRECT,,html-keyboard-response,52,345488,0.0-3.2-11.2-0.2,97545,List1B,black,woman,,,,null,,,,,,,,,
1682.8,"<img src=""portrait/BW2.jpg""style=""height:400px;""></img>",2,html-button-response,53,347174,0.0-3.2-13.2,97545,List1B,black,woman,,TRUE,2,,,,,,,,,,
null,CORRECT,,html-keyboard-response,54,348684,0.0-3.2-14.2-0.2,97545,List1B,black,woman,,,,null,,,,,,,,,
2278.2,"<img src=""portrait/WM1.jpg""style=""height:400px;""></img>",6,html-button-response,55,350968,0.0-3.2-16.2,97545,List1B,black,woman,,TRUE,6,,,,,,,,,,
null,CORRECT,,html-keyboard-response,56,352470,0.0-3.2-17.2-0.2,97545,List1B,black,woman,,,,null,,,,,,,,,
1706.2,"<img src=""portrait/BM2.jpg""style=""height:400px;""></img>",5,html-button-response,57,354179,0.0-3.2-19.2,97545,List1B,black,woman,,TRUE,5,,,,,,,,,,
null,CORRECT,,html-keyboard-response,58,355688,0.0-3.2-20.2-0.2,97545,List1B,black,woman,,,,null,,,,,,,,,
1937.8,"<img src=""portrait/WW2.jpg""style=""height:400px;""></img>",3,html-button-response,59,357629,0.0-3.2-22.2,97545,List1B,black,woman,,TRUE,3,,,,,,,,,,
null,CORRECT,,html-keyboard-response,60,359137,0.0-3.2-23.2-0.2,97545,List1B,black,woman,,,,null,,,,,,,,,
3571.9,<p>You got 8 out of 8 right first time. Press Continue.</p>,0,html-button-response,61,362714,0.0-3.2-25.2,97545,List1B,black,woman,,,,,,,,,,,,,
30581.2,"<p>In this experiment, you will view photographs of the people from the memory game interacting.</p><p>By using the <strong>exact</strong> phrase given <i>after</i> the photograph appears and recalling the correct names of the people in the photographs, form a sentence describing the interaction. You do not need to capitalise names.</p><p>Type your answer in the space provided. Please complete every sentence before moving onto the next trial.</p><p>You will only have a few seconds to memorise each given photograph and phrase before you can respond, so try your best to focus.</p><p>An example is given below. Press 'Continue' when you are ready.</p><img src='img/speaking_example.jpg' style='width:800px;height:460px;''></img>",0,html-button-response,62,394301,0.0-4.0,97545,List1B,black,woman,,,,,,,,,,,,,
2374.5,"<p>Before the experiment starts, you will watch two example trials. Press 'Continue'.</p>",0,html-button-response,63,397678,0.0-5.0,97545,List1B,black,woman,,,,,,,,,,,,,
null,<img src='img/play_eg.gif' style='height:400px;''></img>,,html-keyboard-response,64,400688,0.0-6.0,97545,List1B,black,woman,,,,null,,,,,,,,,
null,<p>is playing with</p>,,html-keyboard-response,65,402694,0.0-7.0,97545,List1B,black,woman,,,,null,,,,,,,,,
5243.3,<p><b>Answer:</b> kate is playing with beth</p>,0,html-button-response,66,407939,0.0-8.0,97545,List1B,black,woman,,,,,,,,,,,,,
null,<img src='img/dance_eg.gif' style='height:400px;''></img>,,html-keyboard-response,67,410951,0.0-9.0,97545,List1B,black,woman,,,,null,,,,,,,,,
null,<p>is being entertained by</p>,,html-keyboard-response,68,412958,0.0-10.0,97545,List1B,black,woman,,,,null,,,,,,,,,
3724.2,<p><b>Answer:</b> luke is being entertained by dave</p>,0,html-button-response,69,416685,0.0-11.0,97545,List1B,black,woman,,,,,,,,,,,,,
6416.5,"<p>Ready to start the experiment?</p><br><p><strong>Remember to describe the picture using a full sentence,</strong></p><p><strong>that combines the names of the people with the <i>exact</i> phrase given.</strong></p><p><strong>To receive full payment you must do this correctly.</strong></p><p><strong> You do not need to capitalise names or use punctuation.</strong></p><br><p>Press 'Continue' to begin.</p>",0,html-button-response,70,424108,0.0-12.0,97545,List1B,black,woman,,,,,,,,,,,,,
null,"<div style=""font-size:60px;"">+</div>",,html-keyboard-response,71,425618,0.0-13.0-0.0,97545,List1B,black,woman,,,,null,,,,,,,,,
null,"<img src=""stim_listB/oppose4.gif""style=""height:400px;""></stim_listB>",,html-keyboard-response,72,427625,0.0-13.0-1.0,97545,List1B,black,woman,,,,null,,,,,,,,,
null,is being opposed by,,html-keyboard-response,73,429626,0.0-13.0-2.0,97545,List1B,black,woman,,,,null,,,,,,,,,
15484.2,,,survey-text,74,445119,0.0-13.0-3.0,97545,List1B,black,woman,,,,,"{""Q0"":""Luke is being opposed by Ruth""}","<img src=""stim_listB/oppose4.gif""style=""height:400px;""></stim_listB>",is being opposed by,,,,,,
null,"<div style=""font-size:60px;"">+</div>",,html-keyboard-response,75,445623,0.0-13.0-0.1,97545,List1B,black,woman,,,,null,,,,,,,,,
null,"<img src=""stim_listB/kiss3.gif""style=""height:400px;""></stim_listB>",,html-keyboard-response,76,447625,0.0-13.0-1.1,97545,List1B,black,woman,,,,null,,,,,,,,,
null,is kissing,,html-keyboard-response,77,449630,0.0-13.0-2.1,97545,List1B,black,woman,,,,null,,,,,,,,,
5741,,,survey-text,78,455377,0.0-13.0-3.1,97545,List1B,black,woman,,,,,"{""Q0"":""ruth is kissing luke""}","<img src=""stim_listB/kiss3.gif""style=""height:400px;""></stim_listB>",is kissing,,,,,,
null,"<div style=""font-size:60px;"">+</div>",,html-keyboard-response,79,455879,0.0-13.0-0.2,97545,List1B,black,woman,,,,null,,,,,,,,,
null,"<img src=""stim_listB/look7.gif""style=""height:400px;""></stim_listB>",,html-keyboard-response,80,457886,0.0-13.0-1.2,97545,List1B,black,woman,,,,null,,,,,,,,,
null,is looking at,,html-keyboard-response,81,459888,0.0-13.0-2.2,97545,List1B,black,woman,,,,null,,,,,,,,,
12282.5,,,survey-text,82,472176,0.0-13.0-3.2,97545,List1B,black,woman,,,,,"{""Q0"":""ruth is looking at beth""}","<img src=""stim_listB/look7.gif""style=""height:400px;""></stim_listB>",is looking at,,,,,,
null,"<div style=""font-size:60px;"">+</div>",,html-keyboard-response,83,472678,0.0-13.0-0.3,97545,List1B,black,woman,,,,null,,,,,,,,,
null,"<img src=""stim_listB/kiss5.gif""style=""height:400px;""></stim_listB>",,html-keyboard-response,84,474685,0.0-13.0-1.3,97545,List1B,black,woman,,,,null,,,,,,,,,
null,is kissing,,html-keyboard-response,85,476687,0.0-13.0-2.3,97545,List1B,black,woman,,,,null,,,,,,,,,
7928.4,,,survey-text,86,484621,0.0-13.0-3.3,97545,List1B,black,woman,,,,,"{""Q0"":""luke is kissing fred""}","<img src=""stim_listB/kiss5.gif""style=""height:400px;""></stim_listB>",is kissing,,,,,,
null,"<div style=""font-size:60px;"">+</div>",,html-keyboard-response,87,485124,0.0-13.0-0.4,97545,List1B,black,woman,,,,null,,,,,,,,,
null,"<img src=""stim_listB/look8.gif""style=""height:400px;""></stim_listB>",,html-keyboard-response,88,487128,0.0-13.0-1.4,97545,List1B,black,woman,,,,null,,,,,,,,,
null,is being looked at by,,html-keyboard-response,89,489133,0.0-13.0-2.4,97545,List1B,black,woman,,,,null,,,,,,,,,
11355.2,,,survey-text,90,500493,0.0-13.0-3.4,97545,List1B,black,woman,,,,,"{""Q0"":""jane is being looked at by kate""}","<img src=""stim_listB/look8.gif""style=""height:400px;""></stim_listB>",is being looked at by,,,,,,
null,"<div style=""font-size:60px;"">+</div>",,html-keyboard-response,91,500994,0.0-13.0-0.5,97545,List1B,black,woman,,,,null,,,,,,,,,
null,"<img src=""stim_listB/greet3.gif""style=""height:400px;""></stim_listB>",,html-keyboard-response,92,502999,0.0-13.0-1.5,97545,List1B,black,woman,,,,null,,,,,,,,,
null,is greeting,,html-keyboard-response,93,505001,0.0-13.0-2.5,97545,List1B,black,woman,,,,null,,,,,,,,,
9351.3,,,survey-text,94,514358,0.0-13.0-3.5,97545,List1B,black,woman,,,,,"{""Q0"":""ruth is greeted by dave""}","<img src=""stim_listB/greet3.gif""style=""height:400px;""></stim_listB>",is greeting,,,,,,
null,"<div style=""font-size:60px;"">+</div>",,html-keyboard-response,95,514860,0.0-13.0-0.6,97545,List1B,black,woman,,,,null,,,,,,,,,
null,"<img src=""stim_listB/look6.gif""style=""height:400px;""></stim_listB>",,html-keyboard-response,96,516865,0.0-13.0-1.6,97545,List1B,black,woman,,,,null,,,,,,,,,
null,is being looked at by,,html-keyboard-response,97,518867,0.0-13.0-2.6,97545,List1B,black,woman,,,,null,,,,,,,,,
9718.5,,,survey-text,98,528590,0.0-13.0-3.6,97545,List1B,black,woman,,,,,"{""Q0"":""mike is being looked at by dave""}","<img src=""stim_listB/look6.gif""style=""height:400px;""></stim_listB>",is being looked at by,,,,,,
null,"<div style=""font-size:60px;"">+</div>",,html-keyboard-response,99,529094,0.0-13.0-0.7,97545,List1B,black,woman,,,,null,,,,,,,,,
null,"<img src=""stim_listB/hug5.gif""style=""height:400px;""></stim_listB>",,html-keyboard-response,100,531100,0.0-13.0-1.7,97545,List1B,black,woman,,,,null,,,,,,,,,
null,is hugging,,html-keyboard-response,101,533105,0.0-13.0-2.7,97545,List1B,black,woman,,,,null,,,,,,,,,
8925.9,,,survey-text,102,542036,0.0-13.0-3.7,97545,List1B,black,woman,,,,,"{""Q0"":""luke is being hugged by fred""}","<img src=""stim_listB/hug5.gif""style=""height:400px;""></stim_listB>",is hugging,,,,,,
null,"<div style=""font-size:60px;"">+</div>",,html-keyboard-response,103,542539,0.0-13.0-0.8,97545,List1B,black,woman,,,,null,,,,,,,,,
null,"<img src=""stim_listB/copy7.gif""style=""height:400px;""></stim_listB>",,html-keyboard-response,104,544546,0.0-13.0-1.8,97545,List1B,black,woman,,,,null,,,,,,,,,
null,is copying,,html-keyboard-response,105,546550,0.0-13.0-2.8,97545,List1B,black,woman,,,,null,,,,,,,,,
5663.1,,,survey-text,106,552218,0.0-13.0-3.8,97545,List1B,black,woman,,,,,"{""Q0"":""ruth is copying kate""}","<img src=""stim_listB/copy7.gif""style=""height:400px;""></stim_listB>",is copying,,,,,,
null,"<div style=""font-size:60px;"">+</div>",,html-keyboard-response,107,552720,0.0-13.0-0.9,97545,List1B,black,woman,,,,null,,,,,,,,,
null,"<img src=""stim_listB/seduce1.gif""style=""height:400px;""></stim_listB>",,html-keyboard-response,108,554726,0.0-13.0-1.9,97545,List1B,black,woman,,,,null,,,,,,,,,
null,is seducing,,html-keyboard-response,109,556729,0.0-13.0-2.9,97545,List1B,black,woman,,,,null,,,,,,,,,
10706.5,,,survey-text,110,567441,0.0-13.0-3.9,97545,List1B,black,woman,,,,,"{""Q0"":""fred is seducing kate""}","<img src=""stim_listB/seduce1.gif""style=""height:400px;""></stim_listB>",is seducing,,,,,,
null,"<div style=""font-size:60px;"">+</div>",,html-keyboard-response,111,567943,0.0-13.0-0.10,97545,List1B,black,woman,,,,null,,,,,,,,,
null,"<img src=""stim_listB/oppose5.gif""style=""height:400px;""></stim_listB>",,html-keyboard-response,112,569949,0.0-13.0-1.10,97545,List1B,black,woman,,,,null,,,,,,,,,
null,is opposing,,html-keyboard-response,113,571952,0.0-13.0-2.10,97545,List1B,black,woman,,,,null,,,,,,,,,
6105.7,,,survey-text,114,578062,0.0-13.0-3.10,97545,List1B,black,woman,,,,,"{""Q0"":""dave is opposing mike""}","<img src=""stim_listB/oppose5.gif""style=""height:400px;""></stim_listB>",is opposing,,,,,,
null,"<div style=""font-size:60px;"">+</div>",,html-keyboard-response,115,578565,0.0-13.0-0.11,97545,List1B,black,woman,,,,null,,,,,,,,,
null,"<img src=""stim_listB/oppose8.gif""style=""height:400px;""></stim_listB>",,html-keyboard-response,116,580570,0.0-13.0-1.11,97545,List1B,black,woman,,,,null,,,,,,,,,
null,is being opposed by,,html-keyboard-response,117,582575,0.0-13.0-2.11,97545,List1B,black,woman,,,,null,,,,,,,,,
9976.1,,,survey-text,118,592557,0.0-13.0-3.11,97545,List1B,black,woman,,,,,"{""Q0"":""beth is being opposed by ruth""}","<img src=""stim_listB/oppose8.gif""style=""height:400px;""></stim_listB>",is being opposed by,,,,,,
null,"<div style=""font-size:60px;"">+</div>",,html-keyboard-response,119,593060,0.0-13.0-0.12,97545,List1B,black,woman,,,,null,,,,,,,,,
null,"<img src=""stim_listB/copy3.gif""style=""height:400px;""></stim_listB>",,html-keyboard-response,120,595066,0.0-13.0-1.12,97545,List1B,black,woman,,,,null,,,,,,,,,
null,is copying,,html-keyboard-response,121,597071,0.0-13.0-2.12,97545,List1B,black,woman,,,,null,,,,,,,,,
11617.3,,,survey-text,122,608693,0.0-13.0-3.12,97545,List1B,black,woman,,,,,"{""Q0"":""ruth is copying dave""}","<img src=""stim_listB/copy3.gif""style=""height:400px;""></stim_listB>",is copying,,,,,,
null,"<div style=""font-size:60px;"">+</div>",,html-keyboard-response,123,609196,0.0-13.0-0.13,97545,List1B,black,woman,,,,null,,,,,,,,,
null,"<img src=""stim_listB/greet4.gif""style=""height:400px;""></stim_listB>",,html-keyboard-response,124,611199,0.0-13.0-1.13,97545,List1B,black,woman,,,,null,,,,,,,,,
null,is being greeted by,,html-keyboard-response,125,613203,0.0-13.0-2.13,97545,List1B,black,woman,,,,null,,,,,,,,,
11652.7,,,survey-text,126,624862,0.0-13.0-3.13,97545,List1B,black,woman,,,,,"{""Q0"":""jane is being greeted by luke""}","<img src=""stim_listB/greet4.gif""style=""height:400px;""></stim_listB>",is being greeted by,,,,,,
null,"<div style=""font-size:60px;"">+</div>",,html-keyboard-response,127,625365,0.0-13.0-0.14,97545,List1B,black,woman,,,,null,,,,,,,,,
null,"<img src=""stim_listB/oppose1.gif""style=""height:400px;""></stim_listB>",,html-keyboard-response,128,627369,0.0-13.0-1.14,97545,List1B,black,woman,,,,null,,,,,,,,,
null,is opposing,,html-keyboard-response,129,629371,0.0-13.0-2.14,97545,List1B,black,woman,,,,null,,,,,,,,,
10030.5,,,survey-text,130,639407,0.0-13.0-3.14,97545,List1B,black,woman,,,,,"{""Q0"":""kate is opposing mike""}","<img src=""stim_listB/oppose1.gif""style=""height:400px;""></stim_listB>",is opposing,,,,,,
null,"<div style=""font-size:60px;"">+</div>",,html-keyboard-response,131,639910,0.0-13.0-0.15,97545,List1B,black,woman,,,,null,,,,,,,,,
null,"<img src=""stim_listB/shout1.gif""style=""height:400px;""></stim_listB>",,html-keyboard-response,132,641917,0.0-13.0-1.15,97545,List1B,black,woman,,,,null,,,,,,,,,
null,is shouting at,,html-keyboard-response,133,643919,0.0-13.0-2.15,97545,List1B,black,woman,,,,null,,,,,,,,,
7271.4,,,survey-text,134,651196,0.0-13.0-3.15,97545,List1B,black,woman,,,,,"{""Q0"":""beth is shouting at james""}","<img src=""stim_listB/shout1.gif""style=""height:400px;""></stim_listB>",is shouting at,,,,,,
null,"<div style=""font-size:60px;"">+</div>",,html-keyboard-response,135,651699,0.0-13.0-0.16,97545,List1B,black,woman,,,,null,,,,,,,,,
null,"<img src=""stim_listB/shout8.gif""style=""height:400px;""></stim_listB>",,html-keyboard-response,136,653704,0.0-13.0-1.16,97545,List1B,black,woman,,,,null,,,,,,,,,
null,is being shouted at by,,html-keyboard-response,137,655709,0.0-13.0-2.16,97545,List1B,black,woman,,,,null,,,,,,,,,
15074,,,survey-text,138,670789,0.0-13.0-3.16,97545,List1B,black,woman,,,,,"{""Q0"":""jane is being shouted at by kate""}","<img src=""stim_listB/shout8.gif""style=""height:400px;""></stim_listB>",is being shouted at by,,,,,,
null,"<div style=""font-size:60px;"">+</div>",,html-keyboard-response,139,671293,0.0-13.0-0.17,97545,List1B,black,woman,,,,null,,,,,,,,,
null,"<img src=""stim_listB/kiss8.gif""style=""height:400px;""></stim_listB>",,html-keyboard-response,140,673298,0.0-13.0-1.17,97545,List1B,black,woman,,,,null,,,,,,,,,
null,is being kissed by,,html-keyboard-response,141,675303,0.0-13.0-2.17,97545,List1B,black,woman,,,,null,,,,,,,,,
8593.1,,,survey-text,142,683902,0.0-13.0-3.17,97545,List1B,black,woman,,,,,"{""Q0"":""jane is being kissed by kate""}","<img src=""stim_listB/kiss8.gif""style=""height:400px;""></stim_listB>",is being kissed by,,,,,,
null,"<div style=""font-size:60px;"">+</div>",,html-keyboard-response,143,684404,0.0-13.0-0.18,97545,List1B,black,woman,,,,null,,,,,,,,,
null,"<img src=""stim_listB/look4.gif""style=""height:400px;""></stim_listB>",,html-keyboard-response,144,686412,0.0-13.0-1.18,97545,List1B,black,woman,,,,null,,,,,,,,,
null,is being looked at by,,html-keyboard-response,145,688417,0.0-13.0-2.18,97545,List1B,black,woman,,,,null,,,,,,,,,
9251.8,,,survey-text,146,697674,0.0-13.0-3.18,97545,List1B,black,woman,,,,,"{""Q0"":""dave is being looked at by jane""}","<img src=""stim_listB/look4.gif""style=""height:400px;""></stim_listB>",is being looked at by,,,,,,
null,"<div style=""font-size:60px;"">+</div>",,html-keyboard-response,147,698177,0.0-13.0-0.19,97545,List1B,black,woman,,,,null,,,,,,,,,
null,"<img src=""stim_listB/greet7.gif""style=""height:400px;""></stim_listB>",,html-keyboard-response,148,700183,0.0-13.0-1.19,97545,List1B,black,woman,,,,null,,,,,,,,,
null,is greeting,,html-keyboard-response,149,702185,0.0-13.0-2.19,97545,List1B,black,woman,,,,null,,,,,,,,,
7705.8,,,survey-text,150,709897,0.0-13.0-3.19,97545,List1B,black,woman,,,,,"{""Q0"":""ruth is greeted by kate""}","<img src=""stim_listB/greet7.gif""style=""height:400px;""></stim_listB>",is greeting,,,,,,
22491.1,"<img src='img/portrait_matrix_list1.jpg' style='width:900px;height:500px;''></img><p>If you have memorised all the portraits and names and are ready to start, press Continue.</p><p><strong>Please note: Your memory of these faces will be tested 4 times during this experiment.</strong></p>",0,html-button-response,151,732390,0.0-14.0-0.0,97545,List1B,black,woman,,,,,,,,,,,,,
3197.9,"<img src=""portrait/BW1.jpg""style=""height:400px;""></img>",0,html-button-response,152,736591,0.0-14.0-1.0,97545,List1B,black,woman,,TRUE,0,,,,,,,,,,
null,CORRECT,,html-keyboard-response,153,738096,0.0-14.0-2.0-0.0,97545,List1B,black,woman,,,,null,,,,,,,,,
2796.7,"<img src=""portrait/WW2.jpg""style=""height:400px;""></img>",3,html-button-response,154,740895,0.0-14.0-4.0,97545,List1B,black,woman,,TRUE,3,,,,,,,,,,
null,CORRECT,,html-keyboard-response,155,742402,0.0-14.0-5.0-0.0,97545,List1B,black,woman,,,,null,,,,,,,,,
2252.4,"<img src=""portrait/BW2.jpg""style=""height:400px;""></img>",2,html-button-response,156,744656,0.0-14.0-7.0,97545,List1B,black,woman,,TRUE,2,,,,,,,,,,
null,CORRECT,,html-keyboard-response,157,746162,0.0-14.0-8.0-0.0,97545,List1B,black,woman,,,,null,,,,,,,,,
2446.3,"<img src=""portrait/WM2.jpg""style=""height:400px;""></img>",7,html-button-response,158,748611,0.0-14.0-10.0,97545,List1B,black,woman,,TRUE,7,,,,,,,,,,
null,CORRECT,,html-keyboard-response,159,750116,0.0-14.0-11.0-0.0,97545,List1B,black,woman,,,,null,,,,,,,,,
2077.2,"<img src=""portrait/BM2.jpg""style=""height:400px;""></img>",5,html-button-response,160,752195,0.0-14.0-13.0,97545,List1B,black,woman,,TRUE,5,,,,,,,,,,
null,CORRECT,,html-keyboard-response,161,753705,0.0-14.0-14.0-0.0,97545,List1B,black,woman,,,,null,,,,,,,,,
2817.2,"<img src=""portrait/WM1.jpg""style=""height:400px;""></img>",6,html-button-response,162,756525,0.0-14.0-16.0,97545,List1B,black,woman,,TRUE,6,,,,,,,,,,
null,CORRECT,,html-keyboard-response,163,758036,0.0-14.0-17.0-0.0,97545,List1B,black,woman,,,,null,,,,,,,,,
1688,"<img src=""portrait/BM1.jpg""style=""height:400px;""></img>",4,html-button-response,164,759727,0.0-14.0-19.0,97545,List1B,black,woman,,TRUE,4,,,,,,,,,,
null,CORRECT,,html-keyboard-response,165,761236,0.0-14.0-20.0-0.0,97545,List1B,black,woman,,,,null,,,,,,,,,
2424.5,"<img src=""portrait/WW1.jpg""style=""height:400px;""></img>",1,html-button-response,166,763663,0.0-14.0-22.0,97545,List1B,black,woman,,TRUE,1,,,,,,,,,,
null,CORRECT,,html-keyboard-response,167,765168,0.0-14.0-23.0-0.0,97545,List1B,black,woman,,,,null,,,,,,,,,
6718.8,<p>You got 8 out of 8 right first time. Press Continue.</p>,0,html-button-response,168,771890,0.0-14.0-25.0,97545,List1B,black,woman,,,,,,,,,,,,,
null,"<div style=""font-size:60px;"">+</div>",,html-keyboard-response,169,773401,0.0-15.0-0.0,97545,List1B,black,woman,,,,null,,,,,,,,,
null,"<img src=""stim_listB/seduce4.gif""style=""height:400px;""></stim_listB>",,html-keyboard-response,170,775406,0.0-15.0-1.0,97545,List1B,black,woman,,,,null,,,,,,,,,
null,is being seduced by,,html-keyboard-response,171,777411,0.0-15.0-2.0,97545,List1B,black,woman,,,,null,,,,,,,,,
8132.2,,,survey-text,172,785549,0.0-15.0-3.0,97545,List1B,black,woman,,,,,"{""Q0"":""ruth is being seduced by dave""}","<img src=""stim_listB/seduce4.gif""style=""height:400px;""></stim_listB>",is being seduced by,,,,,,
null,"<div style=""font-size:60px;"">+</div>",,html-keyboard-response,173,786051,0.0-15.0-0.1,97545,List1B,black,woman,,,,null,,,,,,,,,
null,"<img src=""stim_listB/hug2.gif""style=""height:400px;""></stim_listB>",,html-keyboard-response,174,788056,0.0-15.0-1.1,97545,List1B,black,woman,,,,null,,,,,,,,,
null,is being hugged by,,html-keyboard-response,175,790062,0.0-15.0-2.1,97545,List1B,black,woman,,,,null,,,,,,,,,
8207.1,,,survey-text,176,798275,0.0-15.0-3.1,97545,List1B,black,woman,,,,,"{""Q0"":""kate is being hugged by mike""}","<img src=""stim_listB/hug2.gif""style=""height:400px;""></stim_listB>",is being hugged by,,,,,,
null,"<div style=""font-size:60px;"">+</div>",,html-keyboard-response,177,798776,0.0-15.0-0.2,97545,List1B,black,woman,,,,null,,,,,,,,,
null,"<img src=""stim_listB/oppose3.gif""style=""height:400px;""></stim_listB>",,html-keyboard-response,178,800782,0.0-15.0-1.2,97545,List1B,black,woman,,,,null,,,,,,,,,
null,is opposing,,html-keyboard-response,179,802787,0.0-15.0-2.2,97545,List1B,black,woman,,,,null,,,,,,,,,
7367.1,,,survey-text,180,810160,0.0-15.0-3.2,97545,List1B,black,woman,,,,,"{""Q0"":""jane is opposing dave""}","<img src=""stim_listB/oppose3.gif""style=""height:400px;""></stim_listB>",is opposing,,,,,,
null,"<div style=""font-size:60px;"">+</div>",,html-keyboard-response,181,810662,0.0-15.0-0.3,97545,List1B,black,woman,,,,null,,,,,,,,,
null,"<img src=""stim_listB/copy4.gif""style=""height:400px;""></stim_listB>",,html-keyboard-response,182,812669,0.0-15.0-1.3,97545,List1B,black,woman,,,,null,,,,,,,,,
null,is being copied by,,html-keyboard-response,183,814674,0.0-15.0-2.3,97545,List1B,black,woman,,,,null,,,,,,,,,
8475,,,survey-text,184,823155,0.0-15.0-3.3,97545,List1B,black,woman,,,,,"{""Q0"":""luke is being copied by jane""}","<img src=""stim_listB/copy4.gif""style=""height:400px;""></stim_listB>",is being copied by,,,,,,
null,"<div style=""font-size:60px;"">+</div>",,html-keyboard-response,185,823657,0.0-15.0-0.4,97545,List1B,black,woman,,,,null,,,,,,,,,
null,"<img src=""stim_listB/touch8.gif""style=""height:400px;""></stim_listB>",,html-keyboard-response,186,825661,0.0-15.0-1.4,97545,List1B,black,woman,,,,null,,,,,,,,,
null,is being touched by,,html-keyboard-response,187,827664,0.0-15.0-2.4,97545,List1B,black,woman,,,,null,,,,,,,,,
10239.2,,,survey-text,188,837909,0.0-15.0-3.4,97545,List1B,black,woman,,,,,"{""Q0"":""ruth is being touched by beth""}","<img src=""stim_listB/touch8.gif""style=""height:400px;""></stim_listB>",is being touched by,,,,,,
null,"<div style=""font-size:60px;"">+</div>",,html-keyboard-response,189,838412,0.0-15.0-0.5,97545,List1B,black,woman,,,,null,,,,,,,,,
null,"<img src=""stim_listB/seduce7.gif""style=""height:400px;""></stim_listB>",,html-keyboard-response,190,840418,0.0-15.0-1.5,97545,List1B,black,woman,,,,null,,,,,,,,,
null,is seducing,,html-keyboard-response,191,842423,0.0-15.0-2.5,97545,List1B,black,woman,,,,null,,,,,,,,,
15793.9,,,survey-text,192,858222,0.0-15.0-3.5,97545,List1B,black,woman,,,,,"{""Q0"":""beth is seducing jane""}","<img src=""stim_listB/seduce7.gif""style=""height:400px;""></stim_listB>",is seducing,,,,,,
null,"<div style=""font-size:60px;"">+</div>",,html-keyboard-response,193,858726,0.0-15.0-0.6,97545,List1B,black,woman,,,,null,,,,,,,,,
null,"<img src=""stim_listB/look5.gif""style=""height:400px;""></stim_listB>",,html-keyboard-response,194,860732,0.0-15.0-1.6,97545,List1B,black,woman,,,,null,,,,,,,,,
null,is looking at,,html-keyboard-response,195,862737,0.0-15.0-2.6,97545,List1B,black,woman,,,,null,,,,,,,,,
5892.3,,,survey-text,196,868635,0.0-15.0-3.6,97545,List1B,black,woman,,,,,"{""Q0"":""mike is looking at luke""}","<img src=""stim_listB/look5.gif""style=""height:400px;""></stim_listB>",is looking at,,,,,,
null,"<div style=""font-size:60px;"">+</div>",,html-keyboard-response,197,869138,0.0-15.0-0.7,97545,List1B,black,woman,,,,null,,,,,,,,,
null,"<img src=""stim_listB/kiss2.gif""style=""height:400px;""></stim_listB>",,html-keyboard-response,198,871142,0.0-15.0-1.7,97545,List1B,black,woman,,,,null,,,,,,,,,
null,is being kissed by,,html-keyboard-response,199,873147,0.0-15.0-2.7,97545,List1B,black,woman,,,,null,,,,,,,,,
14725.3,,,survey-text,200,887878,0.0-15.0-3.7,97545,List1B,black,woman,,,,,"{""Q0"":""mike is being kissed by kate""}","<img src=""stim_listB/kiss2.gif""style=""height:400px;""></stim_listB>",is being kissed by,,,,,,
null,"<div style=""font-size:60px;"">+</div>",,html-keyboard-response,201,888381,0.0-15.0-0.8,97545,List1B,black,woman,,,,null,,,,,,,,,
null,"<img src=""stim_listB/seduce8.gif""style=""height:400px;""></stim_listB>",,html-keyboard-response,202,890384,0.0-15.0-1.8,97545,List1B,black,woman,,,,null,,,,,,,,,
null,is being seduced by,,html-keyboard-response,203,892389,0.0-15.0-2.8,97545,List1B,black,woman,,,,null,,,,,,,,,
9727,,,survey-text,204,902122,0.0-15.0-3.8,97545,List1B,black,woman,,,,,"{""Q0"":""ruth is being seduced by kate""}","<img src=""stim_listB/seduce8.gif""style=""height:400px;""></stim_listB>",is being seduced by,,,,,,
null,"<div style=""font-size:60px;"">+</div>",,html-keyboard-response,205,902625,0.0-15.0-0.9,97545,List1B,black,woman,,,,null,,,,,,,,,
null,"<img src=""stim_listB/challenge3.gif""style=""height:400px;""></stim_listB>",,html-keyboard-response,206,904629,0.0-15.0-1.9,97545,List1B,black,woman,,,,null,,,,,,,,,
null,is challenging,,html-keyboard-response,207,906632,0.0-15.0-2.9,97545,List1B,black,woman,,,,null,,,,,,,,,
7866.7,,,survey-text,208,914505,0.0-15.0-3.9,97545,List1B,black,woman,,,,,"{""Q0"":""dave is challenging ruth""}","<img src=""stim_listB/challenge3.gif""style=""height:400px;""></stim_listB>",is challenging,,,,,,
null,"<div style=""font-size:60px;"">+</div>",,html-keyboard-response,209,915007,0.0-15.0-0.10,97545,List1B,black,woman,,,,null,,,,,,,,,
null,"<img src=""stim_listB/shout6.gif""style=""height:400px;""></stim_listB>",,html-keyboard-response,210,917015,0.0-15.0-1.10,97545,List1B,black,woman,,,,null,,,,,,,,,
null,is being shouted at by,,html-keyboard-response,211,919018,0.0-15.0-2.10,97545,List1B,black,woman,,,,null,,,,,,,,,
7925.3,,,survey-text,212,926949,0.0-15.0-3.10,97545,List1B,black,woman,,,,,"{""Q0"":""dave is being shouted at by mike""}","<img src=""stim_listB/shout6.gif""style=""height:400px;""></stim_listB>",is being shouted at by,,,,,,
null,"<div style=""font-size:60px;"">+</div>",,html-keyboard-response,213,927452,0.0-15.0-0.11,97545,List1B,black,woman,,,,null,,,,,,,,,
null,"<img src=""stim_listB/touch1.gif""style=""height:400px;""></stim_listB>",,html-keyboard-response,214,929460,0.0-15.0-1.11,97545,List1B,black,woman,,,,null,,,,,,,,,
null,is touching,,html-keyboard-response,215,931465,0.0-15.0-2.11,97545,List1B,black,woman,,,,null,,,,,,,,,
5024,,,survey-text,216,936496,0.0-15.0-3.11,97545,List1B,black,woman,,,,,"{""Q0"":""mike is touching kate""}","<img src=""stim_listB/touch1.gif""style=""height:400px;""></stim_listB>",is touching,,,,,,
null,"<div style=""font-size:60px;"">+</div>",,html-keyboard-response,217,936999,0.0-15.0-0.12,97545,List1B,black,woman,,,,null,,,,,,,,,
null,"<img src=""stim_listB/challenge6.gif""style=""height:400px;""></stim_listB>",,html-keyboard-response,218,939007,0.0-15.0-1.12,97545,List1B,black,woman,,,,null,,,,,,,,,
null,is being challenged by,,html-keyboard-response,219,941012,0.0-15.0-2.12,97545,List1B,black,woman,,,,null,,,,,,,,,
8125.6,,,survey-text,220,949143,0.0-15.0-3.12,97545,List1B,black,woman,,,,,"{""Q0"":""fred is being challenged by dave""}","<img src=""stim_listB/challenge6.gif""style=""height:400px;""></stim_listB>",is being challenged by,,,,,,
null,"<div style=""font-size:60px;"">+</div>",,html-keyboard-response,221,949646,0.0-15.0-0.13,97545,List1B,black,woman,,,,null,,,,,,,,,
null,"<img src=""stim_listB/challenge1.gif""style=""height:400px;""></stim_listB>",,html-keyboard-response,222,951652,0.0-15.0-1.13,97545,List1B,black,woman,,,,null,,,,,,,,,
null,is challenging,,html-keyboard-response,223,953657,0.0-15.0-2.13,97545,List1B,black,woman,,,,null,,,,,,,,,
6734.6,,,survey-text,224,960397,0.0-15.0-3.13,97545,List1B,black,woman,,,,,"{""Q0"":""beth is challenging mike""}","<img src=""stim_listB/challenge1.gif""style=""height:400px;""></stim_listB>",is challenging,,,,,,
null,"<div style=""font-size:60px;"">+</div>",,html-keyboard-response,225,960899,0.0-15.0-0.14,97545,List1B,black,woman,,,,null,,,,,,,,,
null,"<img src=""stim_listB/copy8.gif""style=""height:400px;""></stim_listB>",,html-keyboard-response,226,962906,0.0-15.0-1.14,97545,List1B,black,woman,,,,null,,,,,,,,,
null,is being copied by,,html-keyboard-response,227,964909,0.0-15.0-2.14,97545,List1B,black,woman,,,,null,,,,,,,,,
8918.9,,,survey-text,228,973834,0.0-15.0-3.14,97545,List1B,black,woman,,,,,"{""Q0"":""jane is being copied by beth""}","<img src=""stim_listB/copy8.gif""style=""height:400px;""></stim_listB>",is being copied by,,,,,,
null,"<div style=""font-size:60px;"">+</div>",,html-keyboard-response,229,974336,0.0-15.0-0.15,97545,List1B,black,woman,,,,null,,,,,,,,,
null,"<img src=""stim_listB/touch5.gif""style=""height:400px;""></stim_listB>",,html-keyboard-response,230,976343,0.0-15.0-1.15,97545,List1B,black,woman,,,,null,,,,,,,,,
null,is touching,,html-keyboard-response,231,978349,0.0-15.0-2.15,97545,List1B,black,woman,,,,null,,,,,,,,,
6170.2,,,survey-text,232,984525,0.0-15.0-3.15,97545,List1B,black,woman,,,,,"{""Q0"":""dave is touching mike""}","<img src=""stim_listB/touch5.gif""style=""height:400px;""></stim_listB>",is touching,,,,,,
null,"<div style=""font-size:60px;"">+</div>",,html-keyboard-response,233,985026,0.0-15.0-0.16,97545,List1B,black,woman,,,,null,,,,,,,,,
null,"<img src=""stim_listB/touch6.gif""style=""height:400px;""></stim_listB>",,html-keyboard-response,234,987033,0.0-15.0-1.16,97545,List1B,black,woman,,,,null,,,,,,,,,
null,is being touched by,,html-keyboard-response,235,989036,0.0-15.0-2.16,97545,List1B,black,woman,,,,null,,,,,,,,,
9418.8,,,survey-text,236,998461,0.0-15.0-3.16,97545,List1B,black,woman,,,,,"{""Q0"":""luke is being touched by fred""}","<img src=""stim_listB/touch6.gif""style=""height:400px;""></stim_listB>",is being touched by,,,,,,
null,"<div style=""font-size:60px;"">+</div>",,html-keyboard-response,237,998963,0.0-15.0-0.17,97545,List1B,black,woman,,,,null,,,,,,,,,
null,"<img src=""stim_listB/copy6.gif""style=""height:400px;""></stim_listB>",,html-keyboard-response,238,1000968,0.0-15.0-1.17,97545,List1B,black,woman,,,,null,,,,,,,,,
null,is being copied by,,html-keyboard-response,239,1002972,0.0-15.0-2.17,97545,List1B,black,woman,,,,null,,,,,,,,,
8102.8,,,survey-text,240,1011080,0.0-15.0-3.17,97545,List1B,black,woman,,,,,"{""Q0"":""fred is being copied by dave""}","<img src=""stim_listB/copy6.gif""style=""height:400px;""></stim_listB>",is being copied by,,,,,,
null,"<div style=""font-size:60px;"">+</div>",,html-keyboard-response,241,1011583,0.0-15.0-0.18,97545,List1B,black,woman,,,,null,,,,,,,,,
null,"<img src=""stim_listB/touch4.gif""style=""height:400px;""></stim_listB>",,html-keyboard-response,242,1013585,0.0-15.0-1.18,97545,List1B,black,woman,,,,null,,,,,,,,,
null,is being touched by,,html-keyboard-response,243,1015590,0.0-15.0-2.18,97545,List1B,black,woman,,,,null,,,,,,,,,
6091.8,,,survey-text,244,1021688,0.0-15.0-3.18,97545,List1B,black,woman,,,,,"{""Q0"":""ruth is being touched by luke""}","<img src=""stim_listB/touch4.gif""style=""height:400px;""></stim_listB>",is being touched by,,,,,,
null,"<div style=""font-size:60px;"">+</div>",,html-keyboard-response,245,1022190,0.0-15.0-0.19,97545,List1B,black,woman,,,,null,,,,,,,,,
null,"<img src=""stim_listB/touch3.gif""style=""height:400px;""></stim_listB>",,html-keyboard-response,246,1024194,0.0-15.0-1.19,97545,List1B,black,woman,,,,null,,,,,,,,,
null,is touching,,html-keyboard-response,247,1026198,0.0-15.0-2.19,97545,List1B,black,woman,,,,null,,,,,,,,,
5657.4,,,survey-text,248,1031861,0.0-15.0-3.19,97545,List1B,black,woman,,,,,"{""Q0"":""dave is touching jane""}","<img src=""stim_listB/touch3.gif""style=""height:400px;""></stim_listB>",is touching,,,,,,
49654.9,"<img src='img/portrait_matrix_list1.jpg' style='width:900px;height:500px;''></img><p>If you have memorised all the portraits and names and are ready to start, press Continue.</p><p><strong>Please note: Your memory of these faces will be tested 4 times during this experiment.</strong></p>",0,html-button-response,249,1081517,0.0-16.0-0.0,97545,List1B,black,woman,,,,,,,,,,,,,
2742.5,"<img src=""portrait/WM1.jpg""style=""height:400px;""></img>",6,html-button-response,250,1085269,0.0-16.0-1.0,97545,List1B,black,woman,,TRUE,6,,,,,,,,,,
null,CORRECT,,html-keyboard-response,251,1086774,0.0-16.0-2.0-0.0,97545,List1B,black,woman,,,,null,,,,,,,,,
1537,"<img src=""portrait/BW2.jpg""style=""height:400px;""></img>",2,html-button-response,252,1088314,0.0-16.0-4.0,97545,List1B,black,woman,,TRUE,2,,,,,,,,,,
null,CORRECT,,html-keyboard-response,253,1089819,0.0-16.0-5.0-0.0,97545,List1B,black,woman,,,,null,,,,,,,,,
2001.1,"<img src=""portrait/WW2.jpg""style=""height:400px;""></img>",3,html-button-response,254,1091823,0.0-16.0-7.0,97545,List1B,black,woman,,TRUE,3,,,,,,,,,,
null,CORRECT,,html-keyboard-response,255,1093327,0.0-16.0-8.0-0.0,97545,List1B,black,woman,,,,null,,,,,,,,,
3684.4,"<img src=""portrait/BW1.jpg""style=""height:400px;""></img>",0,html-button-response,256,1097014,0.0-16.0-10.0,97545,List1B,black,woman,,TRUE,0,,,,,,,,,,
null,CORRECT,,html-keyboard-response,257,1098526,0.0-16.0-11.0-0.0,97545,List1B,black,woman,,,,null,,,,,,,,,
1693.7,"<img src=""portrait/WW1.jpg""style=""height:400px;""></img>",1,html-button-response,258,1100224,0.0-16.0-13.0,97545,List1B,black,woman,,TRUE,1,,,,,,,,,,
null,CORRECT,,html-keyboard-response,259,1101731,0.0-16.0-14.0-0.0,97545,List1B,black,woman,,,,null,,,,,,,,,
1969.8,"<img src=""portrait/BM2.jpg""style=""height:400px;""></img>",5,html-button-response,260,1103705,0.0-16.0-16.0,97545,List1B,black,woman,,TRUE,5,,,,,,,,,,
null,CORRECT,,html-keyboard-response,261,1105214,0.0-16.0-17.0-0.0,97545,List1B,black,woman,,,,null,,,,,,,,,
1530.6,"<img src=""portrait/WM2.jpg""style=""height:400px;""></img>",7,html-button-response,262,1106748,0.0-16.0-19.0,97545,List1B,black,woman,,TRUE,7,,,,,,,,,,
null,CORRECT,,html-keyboard-response,263,1108259,0.0-16.0-20.0-0.0,97545,List1B,black,woman,,,,null,,,,,,,,,
1666.2,"<img src=""portrait/BM1.jpg""style=""height:400px;""></img>",4,html-button-response,264,1109928,0.0-16.0-22.0,97545,List1B,black,woman,,TRUE,4,,,,,,,,,,
null,CORRECT,,html-keyboard-response,265,1111438,0.0-16.0-23.0-0.0,97545,List1B,black,woman,,,,null,,,,,,,,,
1170.2,<p>You got 8 out of 8 right first time. Press Continue.</p>,0,html-button-response,266,1112613,0.0-16.0-25.0,97545,List1B,black,woman,,,,,,,,,,,,,
null,"<div style=""font-size:60px;"">+</div>",,html-keyboard-response,267,1114120,0.0-17.0-0.0,97545,List1B,black,woman,,,,null,,,,,,,,,
null,"<img src=""stim_listB/oppose6.gif""style=""height:400px;""></stim_listB>",,html-keyboard-response,268,1116126,0.0-17.0-1.0,97545,List1B,black,woman,,,,null,,,,,,,,,
null,is being opposed by,,html-keyboard-response,269,1118131,0.0-17.0-2.0,97545,List1B,black,woman,,,,null,,,,,,,,,
8015.1,,,survey-text,270,1126153,0.0-17.0-3.0,97545,List1B,black,woman,,,,,"{""Q0"":""fred is being opposed by luke""}","<img src=""stim_listB/oppose6.gif""style=""height:400px;""></stim_listB>",is being opposed by,,,,,,
null,"<div style=""font-size:60px;"">+</div>",,html-keyboard-response,271,1126655,0.0-17.0-0.1,97545,List1B,black,woman,,,,null,,,,,,,,,
null,"<img src=""stim_listB/look3.gif""style=""height:400px;""></stim_listB>",,html-keyboard-response,272,1128662,0.0-17.0-1.1,97545,List1B,black,woman,,,,null,,,,,,,,,
null,is looking at,,html-keyboard-response,273,1130667,0.0-17.0-2.1,97545,List1B,black,woman,,,,null,,,,,,,,,
4232.3,,,survey-text,274,1134905,0.0-17.0-3.1,97545,List1B,black,woman,,,,,"{""Q0"":""ruth is looking at luke""}","<img src=""stim_listB/look3.gif""style=""height:400px;""></stim_listB>",is looking at,,,,,,
null,"<div style=""font-size:60px;"">+</div>",,html-keyboard-response,275,1135408,0.0-17.0-0.2,97545,List1B,black,woman,,,,null,,,,,,,,,
null,"<img src=""stim_listB/hug4.gif""style=""height:400px;""></stim_listB>",,html-keyboard-response,276,1137416,0.0-17.0-1.2,97545,List1B,black,woman,,,,null,,,,,,,,,
null,is being hugged by,,html-keyboard-response,277,1139421,0.0-17.0-2.2,97545,List1B,black,woman,,,,null,,,,,,,,,
9173.9,,,survey-text,278,1148601,0.0-17.0-3.2,97545,List1B,black,woman,,,,,"{""Q0"":""jane is being hugged by dave""}","<img src=""stim_listB/hug4.gif""style=""height:400px;""></stim_listB>",is being hugged by,,,,,,
null,"<div style=""font-size:60px;"">+</div>",,html-keyboard-response,279,1149104,0.0-17.0-0.3,97545,List1B,black,woman,,,,null,,,,,,,,,
null,"<img src=""stim_listB/greet2.gif""style=""height:400px;""></stim_listB>",,html-keyboard-response,280,1151110,0.0-17.0-1.3,97545,List1B,black,woman,,,,null,,,,,,,,,
null,is being greeted by,,html-keyboard-response,281,1153112,0.0-17.0-2.3,97545,List1B,black,woman,,,,null,,,,,,,,,
5959.9,,,survey-text,282,1159078,0.0-17.0-3.3,97545,List1B,black,woman,,,,,"{""Q0"":""fred is being greeted by kate""}","<img src=""stim_listB/greet2.gif""style=""height:400px;""></stim_listB>",is being greeted by,,,,,,
null,"<div style=""font-size:60px;"">+</div>",,html-keyboard-response,283,1159581,0.0-17.0-0.4,97545,List1B,black,woman,,,,null,,,,,,,,,
null,"<img src=""stim_listB/shout5.gif""style=""height:400px;""></stim_listB>",,html-keyboard-response,284,1161586,0.0-17.0-1.4,97545,List1B,black,woman,,,,null,,,,,,,,,
null,is shouting at,,html-keyboard-response,285,1163591,0.0-17.0-2.4,97545,List1B,black,woman,,,,null,,,,,,,,,
7231.8,,,survey-text,286,1170828,0.0-17.0-3.4,97545,List1B,black,woman,,,,,"{""Q0"":""luke is shouting at fred""}","<img src=""stim_listB/shout5.gif""style=""height:400px;""></stim_listB>",is shouting at,,,,,,
null,"<div style=""font-size:60px;"">+</div>",,html-keyboard-response,287,1171331,0.0-17.0-0.5,97545,List1B,black,woman,,,,null,,,,,,,,,
null,"<img src=""stim_listB/copy5.gif""style=""height:400px;""></stim_listB>",,html-keyboard-response,288,1173337,0.0-17.0-1.5,97545,List1B,black,woman,,,,null,,,,,,,,,
null,is copying,,html-keyboard-response,289,1175342,0.0-17.0-2.5,97545,List1B,black,woman,,,,null,,,,,,,,,
6373.8,,,survey-text,290,1181720,0.0-17.0-3.5,97545,List1B,black,woman,,,,,"{""Q0"":""luke is copying mike""}","<img src=""stim_listB/copy5.gif""style=""height:400px;""></stim_listB>",is copying,,,,,,
null,"<div style=""font-size:60px;"">+</div>",,html-keyboard-response,291,1182222,0.0-17.0-0.6,97545,List1B,black,woman,,,,null,,,,,,,,,
null,"<img src=""stim_listB/challenge8.gif""style=""height:400px;""></stim_listB>",,html-keyboard-response,292,1184225,0.0-17.0-1.6,97545,List1B,black,woman,,,,null,,,,,,,,,
null,is being challenged by,,html-keyboard-response,293,1186230,0.0-17.0-2.6,97545,List1B,black,woman,,,,null,,,,,,,,,
8960.8,,,survey-text,294,1195196,0.0-17.0-3.6,97545,List1B,black,woman,,,,,"{""Q0"":""beth is being challenged by jane""}","<img src=""stim_listB/challenge8.gif""style=""height:400px;""></stim_listB>",is being challenged by,,,,,,
null,"<div style=""font-size:60px;"">+</div>",,html-keyboard-response,295,1195698,0.0-17.0-0.7,97545,List1B,black,woman,,,,null,,,,,,,,,
null,"<img src=""stim_listB/challenge7.gif""style=""height:400px;""></stim_listB>",,html-keyboard-response,296,1197702,0.0-17.0-1.7,97545,List1B,black,woman,,,,null,,,,,,,,,
null,is challenging,,html-keyboard-response,297,1199703,0.0-17.0-2.7,97545,List1B,black,woman,,,,null,,,,,,,,,
7563.7,,,survey-text,298,1207272,0.0-17.0-3.7,97545,List1B,black,woman,,,,,"{""Q0"":""ruth is challenging kate""}","<img src=""stim_listB/challenge7.gif""style=""height:400px;""></stim_listB>",is challenging,,,,,,
null,"<div style=""font-size:60px;"">+</div>",,html-keyboard-response,299,1207774,0.0-17.0-0.8,97545,List1B,black,woman,,,,null,,,,,,,,,
null,"<img src=""stim_listB/challenge4.gif""style=""height:400px;""></stim_listB>",,html-keyboard-response,300,1209781,0.0-17.0-1.8,97545,List1B,black,woman,,,,null,,,,,,,,,
null,is being challenged by,,html-keyboard-response,301,1211786,0.0-17.0-2.8,97545,List1B,black,woman,,,,null,,,,,,,,,
9875.1,,,survey-text,302,1221667,0.0-17.0-3.8,97545,List1B,black,woman,,,,,"{""Q0"":""luke is being challenged by jane""}","<img src=""stim_listB/challenge4.gif""style=""height:400px;""></stim_listB>",is being challenged by,,,,,,
null,"<div style=""font-size:60px;"">+</div>",,html-keyboard-response,303,1222170,0.0-17.0-0.9,97545,List1B,black,woman,,,,null,,,,,,,,,
null,"<img src=""stim_listB/kiss4.gif""style=""height:400px;""></stim_listB>",,html-keyboard-response,304,1224176,0.0-17.0-1.9,97545,List1B,black,woman,,,,null,,,,,,,,,
null,is being kissed by,,html-keyboard-response,305,1226178,0.0-17.0-2.9,97545,List1B,black,woman,,,,null,,,,,,,,,
5666.2,,,survey-text,306,1231850,0.0-17.0-3.9,97545,List1B,black,woman,,,,,"{""Q0"":""dave is being kissed by jane""}","<img src=""stim_listB/kiss4.gif""style=""height:400px;""></stim_listB>",is being kissed by,,,,,,
null,"<div style=""font-size:60px;"">+</div>",,html-keyboard-response,307,1232352,0.0-17.0-0.10,97545,List1B,black,woman,,,,null,,,,,,,,,
null,"<img src=""stim_listB/oppose7.gif""style=""height:400px;""></stim_listB>",,html-keyboard-response,308,1234358,0.0-17.0-1.10,97545,List1B,black,woman,,,,null,,,,,,,,,
null,is opposing,,html-keyboard-response,309,1236362,0.0-17.0-2.10,97545,List1B,black,woman,,,,null,,,,,,,,,
4979.9,,,survey-text,310,1241346,0.0-17.0-3.10,97545,List1B,black,woman,,,,,"{""Q0"":""jane is opposing kate""}","<img src=""stim_listB/oppose7.gif""style=""height:400px;""></stim_listB>",is opposing,,,,,,
null,"<div style=""font-size:60px;"">+</div>",,html-keyboard-response,311,1241848,0.0-17.0-0.11,97545,List1B,black,woman,,,,null,,,,,,,,,
null,"<img src=""stim_listB/kiss7.gif""style=""height:400px;""></stim_listB>",,html-keyboard-response,312,1243853,0.0-17.0-1.11,97545,List1B,black,woman,,,,null,,,,,,,,,
null,is kissing,,html-keyboard-response,313,1245856,0.0-17.0-2.11,97545,List1B,black,woman,,,,null,,,,,,,,,
7694.4,,,survey-text,314,1253555,0.0-17.0-3.11,97545,List1B,black,woman,,,,,"{""Q0"":""ruth is kissing beth""}","<img src=""stim_listB/kiss7.gif""style=""height:400px;""></stim_listB>",is kissing,,,,,,
null,"<div style=""font-size:60px;"">+</div>",,html-keyboard-response,315,1254057,0.0-17.0-0.12,97545,List1B,black,woman,,,,null,,,,,,,,,
null,"<img src=""stim_listB/kiss6.gif""style=""height:400px;""></stim_listB>",,html-keyboard-response,316,1256064,0.0-17.0-1.12,97545,List1B,black,woman,,,,null,,,,,,,,,
null,is being kissed by,,html-keyboard-response,317,1258068,0.0-17.0-2.12,97545,List1B,black,woman,,,,null,,,,,,,,,
7207.3,,,survey-text,318,1265281,0.0-17.0-3.12,97545,List1B,black,woman,,,,,"{""Q0"":""mike is being kissed by dave""}","<img src=""stim_listB/kiss6.gif""style=""height:400px;""></stim_listB>",is being kissed by,,,,,,
null,"<div style=""font-size:60px;"">+</div>",,html-keyboard-response,319,1265783,0.0-17.0-0.13,97545,List1B,black,woman,,,,null,,,,,,,,,
null,"<img src=""stim_listB/shout3.gif""style=""height:400px;""></stim_listB>",,html-keyboard-response,320,1267790,0.0-17.0-1.13,97545,List1B,black,woman,,,,null,,,,,,,,,
null,is shouting at,,html-keyboard-response,321,1269795,0.0-17.0-2.13,97545,List1B,black,woman,,,,null,,,,,,,,,
6128.6,,,survey-text,322,1275929,0.0-17.0-3.13,97545,List1B,black,woman,,,,,"{""Q0"":""ruth is shouting at luke""}","<img src=""stim_listB/shout3.gif""style=""height:400px;""></stim_listB>",is shouting at,,,,,,
null,"<div style=""font-size:60px;"">+</div>",,html-keyboard-response,323,1276431,0.0-17.0-0.14,97545,List1B,black,woman,,,,null,,,,,,,,,
null,"<img src=""stim_listB/copy2.gif""style=""height:400px;""></stim_listB>",,html-keyboard-response,324,1278435,0.0-17.0-1.14,97545,List1B,black,woman,,,,null,,,,,,,,,
null,is being copied by,,html-keyboard-response,325,1280440,0.0-17.0-2.14,97545,List1B,black,woman,,,,null,,,,,,,,,
10915.2,,,survey-text,326,1291360,0.0-17.0-3.14,97545,List1B,black,woman,,,,,"{""Q0"":""fred is being copied by kate""}","<img src=""stim_listB/copy2.gif""style=""height:400px;""></stim_listB>",is being copied by,,,,,,
null,"<div style=""font-size:60px;"">+</div>",,html-keyboard-response,327,1291863,0.0-17.0-0.15,97545,List1B,black,woman,,,,null,,,,,,,,,
null,"<img src=""stim_listB/touch7.gif""style=""height:400px;""></stim_listB>",,html-keyboard-response,328,1293869,0.0-17.0-1.15,97545,List1B,black,woman,,,,null,,,,,,,,,
null,is touching,,html-keyboard-response,329,1295872,0.0-17.0-2.15,97545,List1B,black,woman,,,,null,,,,,,,,,
6060.7,,,survey-text,330,1301937,0.0-17.0-3.15,97545,List1B,black,woman,,,,,"{""Q0"":""jane is touching kate""}","<img src=""stim_listB/touch7.gif""style=""height:400px;""></stim_listB>",is touching,,,,,,
null,"<div style=""font-size:60px;"">+</div>",,html-keyboard-response,331,1302440,0.0-17.0-0.16,97545,List1B,black,woman,,,,null,,,,,,,,,
null,"<img src=""stim_listB/greet5.gif""style=""height:400px;""></stim_listB>",,html-keyboard-response,332,1304445,0.0-17.0-1.16,97545,List1B,black,woman,,,,null,,,,,,,,,
null,is greeting,,html-keyboard-response,333,1306450,0.0-17.0-2.16,97545,List1B,black,woman,,,,null,,,,,,,,,
5821,,,survey-text,334,1312277,0.0-17.0-3.16,97545,List1B,black,woman,,,,,"{""Q0"":""luke is greeting mike""}","<img src=""stim_listB/greet5.gif""style=""height:400px;""></stim_listB>",is greeting,,,,,,
null,"<div style=""font-size:60px;"">+</div>",,html-keyboard-response,335,1312781,0.0-17.0-0.17,97545,List1B,black,woman,,,,null,,,,,,,,,
null,"<img src=""stim_listB/copy1.gif""style=""height:400px;""></stim_listB>",,html-keyboard-response,336,1314786,0.0-17.0-1.17,97545,List1B,black,woman,,,,null,,,,,,,,,
null,is copying,,html-keyboard-response,337,1316791,0.0-17.0-2.17,97545,List1B,black,woman,,,,null,,,,,,,,,
7332.6,,,survey-text,338,1324130,0.0-17.0-3.17,97545,List1B,black,woman,,,,,"{""Q0"":""beth is copying mike""}","<img src=""stim_listB/copy1.gif""style=""height:400px;""></stim_listB>",is copying,,,,,,
null,"<div style=""font-size:60px;"">+</div>",,html-keyboard-response,339,1324633,0.0-17.0-0.18,97545,List1B,black,woman,,,,null,,,,,,,,,
null,"<img src=""stim_listB/kiss1.gif""style=""height:400px;""></stim_listB>",,html-keyboard-response,340,1326637,0.0-17.0-1.18,97545,List1B,black,woman,,,,null,,,,,,,,,
null,is kissing,,html-keyboard-response,341,1328642,0.0-17.0-2.18,97545,List1B,black,woman,,,,null,,,,,,,,,
6674.1,,,survey-text,342,1335321,0.0-17.0-3.18,97545,List1B,black,woman,,,,,"{""Q0"":""beth is kissing fred""}","<img src=""stim_listB/kiss1.gif""style=""height:400px;""></stim_listB>",is kissing,,,,,,
null,"<div style=""font-size:60px;"">+</div>",,html-keyboard-response,343,1335825,0.0-17.0-0.19,97545,List1B,black,woman,,,,null,,,,,,,,,
null,"<img src=""stim_listB/seduce5.gif""style=""height:400px;""></stim_listB>",,html-keyboard-response,344,1337831,0.0-17.0-1.19,97545,List1B,black,woman,,,,null,,,,,,,,,
null,is seducing,,html-keyboard-response,345,1339836,0.0-17.0-2.19,97545,List1B,black,woman,,,,null,,,,,,,,,
6597.4,,,survey-text,346,1346439,0.0-17.0-3.19,97545,List1B,black,woman,,,,,"{""Q0"":""dave is seducing fred""}","<img src=""stim_listB/seduce5.gif""style=""height:400px;""></stim_listB>",is seducing,,,,,,
14815,"<img src='img/portrait_matrix_list1.jpg' style='width:900px;height:500px;''></img><p>If you have memorised all the portraits and names and are ready to start, press Continue.</p><p><strong>Please note: Your memory of these faces will be tested 4 times during this experiment.</strong></p>",0,html-button-response,347,1361256,0.0-18.0-0.0,97545,List1B,black,woman,,,,,,,,,,,,,
2590.1,"<img src=""portrait/WM1.jpg""style=""height:400px;""></img>",6,html-button-response,348,1364855,0.0-18.0-1.0,97545,List1B,black,woman,,TRUE,6,,,,,,,,,,
null,CORRECT,,html-keyboard-response,349,1366363,0.0-18.0-2.0-0.0,97545,List1B,black,woman,,,,null,,,,,,,,,
1895.7,"<img src=""portrait/WW2.jpg""style=""height:400px;""></img>",3,html-button-response,350,1368262,0.0-18.0-4.0,97545,List1B,black,woman,,TRUE,3,,,,,,,,,,
null,CORRECT,,html-keyboard-response,351,1369771,0.0-18.0-5.0-0.0,97545,List1B,black,woman,,,,null,,,,,,,,,
1831.9,"<img src=""portrait/BM1.jpg""style=""height:400px;""></img>",4,html-button-response,352,1371606,0.0-18.0-7.0,97545,List1B,black,woman,,TRUE,4,,,,,,,,,,
null,CORRECT,,html-keyboard-response,353,1373115,0.0-18.0-8.0-0.0,97545,List1B,black,woman,,,,null,,,,,,,,,
1488.6,"<img src=""portrait/WW1.jpg""style=""height:400px;""></img>",1,html-button-response,354,1374607,0.0-18.0-10.0,97545,List1B,black,woman,,TRUE,1,,,,,,,,,,
null,CORRECT,,html-keyboard-response,355,1376117,0.0-18.0-11.0-0.0,97545,List1B,black,woman,,,,null,,,,,,,,,
1575.3,"<img src=""portrait/WM2.jpg""style=""height:400px;""></img>",7,html-button-response,356,1377697,0.0-18.0-13.0,97545,List1B,black,woman,,TRUE,7,,,,,,,,,,
null,CORRECT,,html-keyboard-response,357,1379206,0.0-18.0-14.0-0.0,97545,List1B,black,woman,,,,null,,,,,,,,,
1771.8,"<img src=""portrait/BW2.jpg""style=""height:400px;""></img>",2,html-button-response,358,1380981,0.0-18.0-16.0,97545,List1B,black,woman,,TRUE,2,,,,,,,,,,
null,CORRECT,,html-keyboard-response,359,1382491,0.0-18.0-17.0-0.0,97545,List1B,black,woman,,,,null,,,,,,,,,
1561.2,"<img src=""portrait/BW1.jpg""style=""height:400px;""></img>",0,html-button-response,360,1384056,0.0-18.0-19.0,97545,List1B,black,woman,,TRUE,0,,,,,,,,,,
null,CORRECT,,html-keyboard-response,361,1385564,0.0-18.0-20.0-0.0,97545,List1B,black,woman,,,,null,,,,,,,,,
1383.7,"<img src=""portrait/BM2.jpg""style=""height:400px;""></img>",4,html-button-response,362,1386951,0.0-18.0-22.0,97545,List1B,black,woman,,TRUE,5,,,,,,,,,,
2874.8,"<img src=""portrait/BM2.jpg""style=""height:400px;""></img>",5,html-button-response,363,1390835,0.0-18.0-24.0-0.0,97545,List1B,black,woman,,FALSE,5,,,,,,,,,,
null,CORRECT,,html-keyboard-response,364,1392340,0.0-18.0-24.0-1.0-0.0,97545,List1B,black,woman,,,,null,,,,,,,,,
1505.5,<p>You got 7 out of 8 right first time. Press Continue.</p>,0,html-button-response,365,1393848,0.0-18.0-25.0,97545,List1B,black,woman,,,,,,,,,,,,,
2582.8,"As you did not score 100%, the memory game will repeat. Press Continue.",0,html-button-response,366,1397434,0.0-18.0-26.0-0.0,97545,List1B,black,woman,,,,,,,,,,,,,
1695.8,"<img src='img/portrait_matrix_list1.jpg' style='width:900px;height:500px;''></img><p>If you have memorised all the portraits and names and are ready to start, press Continue.</p><p><strong>Please note: Your memory of these faces will be tested 4 times during this experiment.</strong></p>",0,html-button-response,367,1400135,0.0-18.1-0.1,97545,List1B,black,woman,,,,,,,,,,,,,
2142.6,"<img src=""portrait/WM1.jpg""style=""height:400px;""></img>",6,html-button-response,368,1403285,0.0-18.1-1.1,97545,List1B,black,woman,,TRUE,6,,,,,,,,,,
null,CORRECT,,html-keyboard-response,369,1404793,0.0-18.1-2.1-0.1,97545,List1B,black,woman,,,,null,,,,,,,,,
1414.8,"<img src=""portrait/WW2.jpg""style=""height:400px;""></img>",3,html-button-response,370,1406211,0.0-18.1-4.1,97545,List1B,black,woman,,TRUE,3,,,,,,,,,,
null,CORRECT,,html-keyboard-response,371,1407721,0.0-18.1-5.1-0.1,97545,List1B,black,woman,,,,null,,,,,,,,,
1981.9,"<img src=""portrait/BM1.jpg""style=""height:400px;""></img>",4,html-button-response,372,1409704,0.0-18.1-7.1,97545,List1B,black,woman,,TRUE,4,,,,,,,,,,
null,CORRECT,,html-keyboard-response,373,1411207,0.0-18.1-8.1-0.1,97545,List1B,black,woman,,,,null,,,,,,,,,
2887.6,"<img src=""portrait/WW1.jpg""style=""height:400px;""></img>",1,html-button-response,374,1414096,0.0-18.1-10.1,97545,List1B,black,woman,,TRUE,1,,,,,,,,,,
null,CORRECT,,html-keyboard-response,375,1415601,0.0-18.1-11.1-0.1,97545,List1B,black,woman,,,,null,,,,,,,,,
1852.6,"<img src=""portrait/WM2.jpg""style=""height:400px;""></img>",7,html-button-response,376,1417455,0.0-18.1-13.1,97545,List1B,black,woman,,TRUE,7,,,,,,,,,,
null,CORRECT,,html-keyboard-response,377,1418964,0.0-18.1-14.1-0.1,97545,List1B,black,woman,,,,null,,,,,,,,,
2673.6,"<img src=""portrait/BW2.jpg""style=""height:400px;""></img>",2,html-button-response,378,1421639,0.0-18.1-16.1,97545,List1B,black,woman,,TRUE,2,,,,,,,,,,
null,CORRECT,,html-keyboard-response,379,1423144,0.0-18.1-17.1-0.1,97545,List1B,black,woman,,,,null,,,,,,,,,
1552.6,"<img src=""portrait/BW1.jpg""style=""height:400px;""></img>",0,html-button-response,380,1424699,0.0-18.1-19.1,97545,List1B,black,woman,,TRUE,0,,,,,,,,,,
null,CORRECT,,html-keyboard-response,381,1426212,0.0-18.1-20.1-0.1,97545,List1B,black,woman,,,,null,,,,,,,,,
1993.6,"<img src=""portrait/BM2.jpg""style=""height:400px;""></img>",5,html-button-response,382,1428208,0.0-18.1-22.1,97545,List1B,black,woman,,TRUE,5,,,,,,,,,,
null,CORRECT,,html-keyboard-response,383,1429713,0.0-18.1-23.1-0.1,97545,List1B,black,woman,,,,null,,,,,,,,,
1371.4,<p>You got 8 out of 8 right first time. Press Continue.</p>,0,html-button-response,384,1431087,0.0-18.1-25.1,97545,List1B,black,woman,,,,,,,,,,,,,
null,"<div style=""font-size:60px;"">+</div>",,html-keyboard-response,385,1432598,0.0-19.0-0.0,97545,List1B,black,woman,,,,null,,,,,,,,,
null,"<img src=""stim_listB/hug8.gif""style=""height:400px;""></stim_listB>",,html-keyboard-response,386,1434603,0.0-19.0-1.0,97545,List1B,black,woman,,,,null,,,,,,,,,
null,is being hugged by,,html-keyboard-response,387,1436608,0.0-19.0-2.0,97545,List1B,black,woman,,,,null,,,,,,,,,
6837.3,,,survey-text,388,1443449,0.0-19.0-3.0,97545,List1B,black,woman,,,,,"{""Q0"":""kate is being hugged by jane""}","<img src=""stim_listB/hug8.gif""style=""height:400px;""></stim_listB>",is being hugged by,,,,,,
null,"<div style=""font-size:60px;"">+</div>",,html-keyboard-response,389,1443951,0.0-19.0-0.1,97545,List1B,black,woman,,,,null,,,,,,,,,
null,"<img src=""stim_listB/seduce3.gif""style=""height:400px;""></stim_listB>",,html-keyboard-response,390,1445956,0.0-19.0-1.1,97545,List1B,black,woman,,,,null,,,,,,,,,
null,is seducing,,html-keyboard-response,391,1447962,0.0-19.0-2.1,97545,List1B,black,woman,,,,null,,,,,,,,,
4681.8,,,survey-text,392,1452649,0.0-19.0-3.1,97545,List1B,black,woman,,,,,"{""Q0"":""jane is seducing luke""}","<img src=""stim_listB/seduce3.gif""style=""height:400px;""></stim_listB>",is seducing,,,,,,
null,"<div style=""font-size:60px;"">+</div>",,html-keyboard-response,393,1453151,0.0-19.0-0.2,97545,List1B,black,woman,,,,null,,,,,,,,,
null,"<img src=""stim_listB/shout7.gif""style=""height:400px;""></stim_listB>",,html-keyboard-response,394,1455156,0.0-19.0-1.2,97545,List1B,black,woman,,,,null,,,,,,,,,
null,is shouting at,,html-keyboard-response,395,1457160,0.0-19.0-2.2,97545,List1B,black,woman,,,,null,,,,,,,,,
9912.1,,,survey-text,396,1467075,0.0-19.0-3.2,97545,List1B,black,woman,,,,,"{""Q0"":""ruth is shouting at beth""}","<img src=""stim_listB/shout7.gif""style=""height:400px;""></stim_listB>",is shouting at,,,,,,
null,"<div style=""font-size:60px;"">+</div>",,html-keyboard-response,397,1467578,0.0-19.0-0.3,97545,List1B,black,woman,,,,null,,,,,,,,,
null,"<img src=""stim_listB/greet1.gif""style=""height:400px;""></stim_listB>",,html-keyboard-response,398,1469582,0.0-19.0-1.3,97545,List1B,black,woman,,,,null,,,,,,,,,
null,is greeting,,html-keyboard-response,399,1471584,0.0-19.0-2.3,97545,List1B,black,woman,,,,null,,,,,,,,,
6640.7,,,survey-text,400,1478229,0.0-19.0-3.3,97545,List1B,black,woman,,,,,"{""Q0"":""beth is greeting mike""}","<img src=""stim_listB/greet1.gif""style=""height:400px;""></stim_listB>",is greeting,,,,,,
null,"<div style=""font-size:60px;"">+</div>",,html-keyboard-response,401,1478732,0.0-19.0-0.4,97545,List1B,black,woman,,,,null,,,,,,,,,
null,"<img src=""stim_listB/shout4.gif""style=""height:400px;""></stim_listB>",,html-keyboard-response,402,1480739,0.0-19.0-1.4,97545,List1B,black,woman,,,,null,,,,,,,,,
null,is being shouted at by,,html-keyboard-response,403,1482744,0.0-19.0-2.4,97545,List1B,black,woman,,,,null,,,,,,,,,
9517,,,survey-text,404,1492267,0.0-19.0-3.4,97545,List1B,black,woman,,,,,"{""Q0"":""dave is being shouted at by dave""}","<img src=""stim_listB/shout4.gif""style=""height:400px;""></stim_listB>",is being shouted at by,,,,,,
null,"<div style=""font-size:60px;"">+</div>",,html-keyboard-response,405,1492770,0.0-19.0-0.5,97545,List1B,black,woman,,,,null,,,,,,,,,
null,"<img src=""stim_listB/oppose2.gif""style=""height:400px;""></stim_listB>",,html-keyboard-response,406,1494775,0.0-19.0-1.5,97545,List1B,black,woman,,,,null,,,,,,,,,
null,is being opposed by,,html-keyboard-response,407,1496777,0.0-19.0-2.5,97545,List1B,black,woman,,,,null,,,,,,,,,
11663.8,,,survey-text,408,1508446,0.0-19.0-3.5,97545,List1B,black,woman,,,,,"{""Q0"":""beth is being opposed by fred""}","<img src=""stim_listB/oppose2.gif""style=""height:400px;""></stim_listB>",is being opposed by,,,,,,
null,"<div style=""font-size:60px;"">+</div>",,html-keyboard-response,409,1508950,0.0-19.0-0.6,97545,List1B,black,woman,,,,null,,,,,,,,,
null,"<img src=""stim_listB/hug6.gif""style=""height:400px;""></stim_listB>",,html-keyboard-response,410,1510956,0.0-19.0-1.6,97545,List1B,black,woman,,,,null,,,,,,,,,
null,is being hugged by,,html-keyboard-response,411,1512961,0.0-19.0-2.6,97545,List1B,black,woman,,,,null,,,,,,,,,
5919.5,,,survey-text,412,1518887,0.0-19.0-3.6,97545,List1B,black,woman,,,,,"{""Q0"":""mike is being hugged by dave""}","<img src=""stim_listB/hug6.gif""style=""height:400px;""></stim_listB>",is being hugged by,,,,,,
null,"<div style=""font-size:60px;"">+</div>",,html-keyboard-response,413,1519389,0.0-19.0-0.7,97545,List1B,black,woman,,,,null,,,,,,,,,
null,"<img src=""stim_listB/greet8.gif""style=""height:400px;""></stim_listB>",,html-keyboard-response,414,1521394,0.0-19.0-1.7,97545,List1B,black,woman,,,,null,,,,,,,,,
null,is being greeted by,,html-keyboard-response,415,1523398,0.0-19.0-2.7,97545,List1B,black,woman,,,,null,,,,,,,,,
6187,,,survey-text,416,1529591,0.0-19.0-3.7,97545,List1B,black,woman,,,,,"{""Q0"":""beth is being greeted by jane""}","<img src=""stim_listB/greet8.gif""style=""height:400px;""></stim_listB>",is being greeted by,,,,,,
null,"<div style=""font-size:60px;"">+</div>",,html-keyboard-response,417,1530093,0.0-19.0-0.8,97545,List1B,black,woman,,,,null,,,,,,,,,
null,"<img src=""stim_listB/seduce6.gif""style=""height:400px;""></stim_listB>",,html-keyboard-response,418,1532102,0.0-19.0-1.8,97545,List1B,black,woman,,,,null,,,,,,,,,
null,is being seduced by,,html-keyboard-response,419,1534107,0.0-19.0-2.8,97545,List1B,black,woman,,,,null,,,,,,,,,
6847.7,,,survey-text,420,1540961,0.0-19.0-3.8,97545,List1B,black,woman,,,,,"{""Q0"":""mike is being seduced by luke""}","<img src=""stim_listB/seduce6.gif""style=""height:400px;""></stim_listB>",is being seduced by,,,,,,
null,"<div style=""font-size:60px;"">+</div>",,html-keyboard-response,421,1541464,0.0-19.0-0.9,97545,List1B,black,woman,,,,null,,,,,,,,,
null,"<img src=""stim_listB/challenge2.gif""style=""height:400px;""></stim_listB>",,html-keyboard-response,422,1543472,0.0-19.0-1.9,97545,List1B,black,woman,,,,null,,,,,,,,,
null,is being challenged by,,html-keyboard-response,423,1545478,0.0-19.0-2.9,97545,List1B,black,woman,,,,null,,,,,,,,,
9843.5,,,survey-text,424,1555326,0.0-19.0-3.9,97545,List1B,black,woman,,,,,"{""Q0"":""fred is being challenged by kate""}","<img src=""stim_listB/challenge2.gif""style=""height:400px;""></stim_listB>",is being challenged by,,,,,,
null,"<div style=""font-size:60px;"">+</div>",,html-keyboard-response,425,1555829,0.0-19.0-0.10,97545,List1B,black,woman,,,,null,,,,,,,,,
null,"<img src=""stim_listB/touch2.gif""style=""height:400px;""></stim_listB>",,html-keyboard-response,426,1557833,0.0-19.0-1.10,97545,List1B,black,woman,,,,null,,,,,,,,,
null,is being touched by,,html-keyboard-response,427,1559835,0.0-19.0-2.10,97545,List1B,black,woman,,,,null,,,,,,,,,
7035.3,,,survey-text,428,1566876,0.0-19.0-3.10,97545,List1B,black,woman,,,,,"{""Q0"":""fred is being touched by beth""}","<img src=""stim_listB/touch2.gif""style=""height:400px;""></stim_listB>",is being touched by,,,,,,
null,"<div style=""font-size:60px;"">+</div>",,html-keyboard-response,429,1567379,0.0-19.0-0.11,97545,List1B,black,woman,,,,null,,,,,,,,,
null,"<img src=""stim_listB/hug1.gif""style=""height:400px;""></stim_listB>",,html-keyboard-response,430,1569386,0.0-19.0-1.11,97545,List1B,black,woman,,,,null,,,,,,,,,
null,is hugging,,html-keyboard-response,431,1571391,0.0-19.0-2.11,97545,List1B,black,woman,,,,null,,,,,,,,,
6884.2,,,survey-text,432,1578282,0.0-19.0-3.11,97545,List1B,black,woman,,,,,"{""Q0"":""beth is hugging fred""}","<img src=""stim_listB/hug1.gif""style=""height:400px;""></stim_listB>",is hugging,,,,,,
null,"<div style=""font-size:60px;"">+</div>",,html-keyboard-response,433,1578784,0.0-19.0-0.12,97545,List1B,black,woman,,,,null,,,,,,,,,
null,"<img src=""stim_listB/look1.gif""style=""height:400px;""></stim_listB>",,html-keyboard-response,434,1580788,0.0-19.0-1.12,97545,List1B,black,woman,,,,null,,,,,,,,,
null,is looking at,,html-keyboard-response,435,1582793,0.0-19.0-2.12,97545,List1B,black,woman,,,,null,,,,,,,,,
8276.8,,,survey-text,436,1591074,0.0-19.0-3.12,97545,List1B,black,woman,,,,,"{""Q0"":""beth is looking at fred""}","<img src=""stim_listB/look1.gif""style=""height:400px;""></stim_listB>",is looking at,,,,,,
null,"<div style=""font-size:60px;"">+</div>",,html-keyboard-response,437,1591578,0.0-19.0-0.13,97545,List1B,black,woman,,,,null,,,,,,,,,
null,"<img src=""stim_listB/challenge5.gif""style=""height:400px;""></stim_listB>",,html-keyboard-response,438,1593582,0.0-19.0-1.13,97545,List1B,black,woman,,,,null,,,,,,,,,
null,is challenging,,html-keyboard-response,439,1595587,0.0-19.0-2.13,97545,List1B,black,woman,,,,null,,,,,,,,,
6769.3,,,survey-text,440,1602362,0.0-19.0-3.13,97545,List1B,black,woman,,,,,"{""Q0"":""luke is challenging mike""}","<img src=""stim_listB/challenge5.gif""style=""height:400px;""></stim_listB>",is challenging,,,,,,
null,"<div style=""font-size:60px;"">+</div>",,html-keyboard-response,441,1602864,0.0-19.0-0.14,97545,List1B,black,woman,,,,null,,,,,,,,,
null,"<img src=""stim_listB/look2.gif""style=""height:400px;""></stim_listB>",,html-keyboard-response,442,1604870,0.0-19.0-1.14,97545,List1B,black,woman,,,,null,,,,,,,,,
null,is being looked at by,,html-keyboard-response,443,1606872,0.0-19.0-2.14,97545,List1B,black,woman,,,,null,,,,,,,,,
8079.3,,,survey-text,444,1614955,0.0-19.0-3.14,97545,List1B,black,woman,,,,,"{""Q0"":""mike is being looked at by kate""}","<img src=""stim_listB/look2.gif""style=""height:400px;""></stim_listB>",is being looked at by,,,,,,
null,"<div style=""font-size:60px;"">+</div>",,html-keyboard-response,445,1615458,0.0-19.0-0.15,97545,List1B,black,woman,,,,null,,,,,,,,,
null,"<img src=""stim_listB/hug3.gif""style=""height:400px;""></stim_listB>",,html-keyboard-response,446,1617464,0.0-19.0-1.15,97545,List1B,black,woman,,,,null,,,,,,,,,
null,is hugging,,html-keyboard-response,447,1619469,0.0-19.0-2.15,97545,List1B,black,woman,,,,null,,,,,,,,,
5320.2,,,survey-text,448,1624795,0.0-19.0-3.15,97545,List1B,black,woman,,,,,"{""Q0"":""ruth is hugging luke""}","<img src=""stim_listB/hug3.gif""style=""height:400px;""></stim_listB>",is hugging,,,,,,
null,"<div style=""font-size:60px;"">+</div>",,html-keyboard-response,449,1625298,0.0-19.0-0.16,97545,List1B,black,woman,,,,null,,,,,,,,,
null,"<img src=""stim_listB/seduce2.gif""style=""height:400px;""></stim_listB>",,html-keyboard-response,450,1627303,0.0-19.0-1.16,97545,List1B,black,woman,,,,null,,,,,,,,,
null,is being seduced by,,html-keyboard-response,451,1629308,0.0-19.0-2.16,97545,List1B,black,woman,,,,null,,,,,,,,,
7292.8,,,survey-text,452,1636606,0.0-19.0-3.16,97545,List1B,black,woman,,,,,"{""Q0"":""mike is being seduced by beth""}","<img src=""stim_listB/seduce2.gif""style=""height:400px;""></stim_listB>",is being seduced by,,,,,,
null,"<div style=""font-size:60px;"">+</div>",,html-keyboard-response,453,1637110,0.0-19.0-0.17,97545,List1B,black,woman,,,,null,,,,,,,,,
null,"<img src=""stim_listB/shout2.gif""style=""height:400px;""></stim_listB>",,html-keyboard-response,454,1639117,0.0-19.0-1.17,97545,List1B,black,woman,,,,null,,,,,,,,,
null,is being shouted at by,,html-keyboard-response,455,1641121,0.0-19.0-2.17,97545,List1B,black,woman,,,,null,,,,,,,,,
8614.3,,,survey-text,456,1649740,0.0-19.0-3.17,97545,List1B,black,woman,,,,,"{""Q0"":""mike is being shouted at by kate""}","<img src=""stim_listB/shout2.gif""style=""height:400px;""></stim_listB>",is being shouted at by,,,,,,
null,"<div style=""font-size:60px;"">+</div>",,html-keyboard-response,457,1650242,0.0-19.0-0.18,97545,List1B,black,woman,,,,null,,,,,,,,,
null,"<img src=""stim_listB/hug7.gif""style=""height:400px;""></stim_listB>",,html-keyboard-response,458,1652246,0.0-19.0-1.18,97545,List1B,black,woman,,,,null,,,,,,,,,
null,is hugging,,html-keyboard-response,459,1654252,0.0-19.0-2.18,97545,List1B,black,woman,,,,null,,,,,,,,,
7289.6,,,survey-text,460,1661547,0.0-19.0-3.18,97545,List1B,black,woman,,,,,"{""Q0"":""beth is hugging ruth""}","<img src=""stim_listB/hug7.gif""style=""height:400px;""></stim_listB>",is hugging,,,,,,
null,"<div style=""font-size:60px;"">+</div>",,html-keyboard-response,461,1662049,0.0-19.0-0.19,97545,List1B,black,woman,,,,null,,,,,,,,,
null,"<img src=""stim_listB/greet6.gif""style=""height:400px;""></stim_listB>",,html-keyboard-response,462,1664056,0.0-19.0-1.19,97545,List1B,black,woman,,,,null,,,,,,,,,
null,is being greeted by,,html-keyboard-response,463,1666060,0.0-19.0-2.19,97545,List1B,black,woman,,,,null,,,,,,,,,
6466.6,,,survey-text,464,1672533,0.0-19.0-3.19,97545,List1B,black,woman,,,,,"{""Q0"":""fred is being greeted by dave""}","<img src=""stim_listB/greet6.gif""style=""height:400px;""></stim_listB>",is being greeted by,,,,,,
3638,<p>Thank you for completing that task.</p><p>The final part of this session is a questionnaire that will take about 4 minutes.</p><p>Press Continue.</p>,0,html-button-response,465,1676172,0.0-20.0,97545,List1B,black,woman,,,,,,,,,,,,,
27679.8,,,survey-text,466,1704865,0.0-21.0,97545,List1B,black,woman,,,,,"{""Q0"":""39"",""Q1"":""English"",""Q2"":""English"",""Q3"":""United States"",""Q4"":""American"",""Q5"":""Black"",""Q6"":""Female""}",,,demographics,,,,,
1796.8,<p>Have you lived in the USA for the last 5 years or more?</p>,0,html-button-response,467,1706667,0.0-22.0,97545,List1B,black,woman,,,,,,,,fiveyears,,,,,
1904.5,<p>Move the slider to show the extent to which you agree with the following statements.</p>,0,html-button-response,468,1709575,0.0-23.0,97545,List1B,black,woman,,,,,,,,,,,,,
8230.6,,,html-slider-response,469,1718816,0.0-24.0-0.0-0.0,97545,List1B,black,woman,,,,,,,,survey_gender,71,,,My friends have a lot in common with each other.,filler
45687.4,,,html-slider-response,470,1764508,0.0-24.0-0.0-0.1,97545,List1B,black,woman,,,,,,,,survey_gender,100,,,I feel solidarity with my gender.,solidarity
4269.6,,,html-slider-response,471,1768781,0.0-24.0-0.0-0.2,97545,List1B,black,woman,,,,,,,,survey_gender,100,,,The fact that I am my gender is an important part of my identity.,identity
3536.1,,,html-slider-response,472,1772321,0.0-24.0-0.0-0.3,97545,List1B,black,woman,,,,,,,,survey_gender,93,,,I often think about my actions.,filler
6732,,,html-slider-response,473,1779055,0.0-24.0-0.0-0.4,97545,List1B,black,woman,,,,,,,,survey_gender,47,,,People of my gender have a lot in common with each other.,common
3205,,,html-slider-response,474,1782265,0.0-24.0-0.0-0.5,97545,List1B,black,woman,,,,,,,,survey_gender,86,,,I feel a bond with my gender.,bond
9224.6,,,html-slider-response,475,1791492,0.0-24.0-0.0-0.6,97545,List1B,black,woman,,,,,,,,survey_gender,100,,,I am glad to have the friends that I have.,filler
10210.3,,,html-slider-response,476,1801705,0.0-24.0-0.0-0.7,97545,List1B,black,woman,,,,,,,,survey_gender,100,,,Being my gender gives me a good feeling.,feeling
3207.8,,,html-slider-response,477,1804917,0.0-24.0-0.0-0.8,97545,List1B,black,woman,,,,,,,,survey_gender,100,,,Being around my friends gives me a good feeling.,filler
2875.6,,,html-slider-response,478,1807796,0.0-24.0-0.0-0.9,97545,List1B,black,woman,,,,,,,,survey_gender,95,,,I think that my gender has a lot to be proud of.,proud
4348.1,,,html-slider-response,479,1812147,0.0-24.0-0.0-0.10,97545,List1B,black,woman,,,,,,,,survey_gender,96,,,I have a lot in common with my friends.,filler
9837.2,,,html-slider-response,480,1821986,0.0-24.0-0.0-0.11,97545,List1B,black,woman,,,,,,,,survey_gender,38,,,Family is not more important to me than friendship.,filler
4451.4,,,html-slider-response,481,1826441,0.0-24.0-0.0-0.12,97545,List1B,black,woman,,,,,,,,survey_gender,100,,,It is pleasant to be my gender.,pleasant
4287.9,,,html-slider-response,482,1830732,0.0-24.0-0.0-0.13,97545,List1B,black,woman,,,,,,,,survey_gender,100,,,I feel committed to my gender.,committed
4226.8,,,html-slider-response,483,1834961,0.0-24.0-0.0-0.14,97545,List1B,black,woman,,,,,,,,survey_gender,100,,,I feel a bond with my friends.,filler
25722.7,,,html-slider-response,484,1860686,0.0-24.0-0.0-0.15,97545,List1B,black,woman,,,,,,,,survey_gender,84,,,I have a lot in common with the average person of my gender.,average
8830,,,html-slider-response,485,1869521,0.0-24.0-0.0-0.16,97545,List1B,black,woman,,,,,,,,survey_gender,79,,,It is not always easy for people to know what I am thinking.,filler
13601.9,,,html-slider-response,486,1883126,0.0-24.0-0.0-0.17,97545,List1B,black,woman,,,,,,,,survey_gender,97,,,I would say I am an animal person.,filler
3642.4,,,html-slider-response,487,1886772,0.0-24.0-0.0-0.18,97545,List1B,black,woman,,,,,,,,survey_gender,83,,,Most of the friends in my life are very similar to me.,filler
3207.5,,,html-slider-response,488,1889982,0.0-24.0-0.0-0.19,97545,List1B,black,woman,,,,,,,,survey_gender,100,,,I consider myself a highly empathetic person.,filler
5995.8,,,html-slider-response,489,1895981,0.0-24.0-0.0-0.20,97545,List1B,black,woman,,,,,,,,survey_gender,0,,,I often think about the fact that I am my gender.,often
4481.9,,,html-slider-response,490,1900466,0.0-24.0-0.0-0.21,97545,List1B,black,woman,,,,,,,,survey_gender,99,,,I feel solidarity with my friends.,filler
4079.6,,,html-slider-response,491,1904549,0.0-24.0-0.0-0.22,97545,List1B,black,woman,,,,,,,,survey_gender,100,,,I am glad to be my gender.,glad
4255.2,,,html-slider-response,492,1908807,0.0-24.0-0.0-0.23,97545,List1B,black,woman,,,,,,,,survey_gender,67,,,I am similar to the average person of my gender.,similar
3671,,,html-slider-response,493,1912481,0.0-24.0-0.0-0.24,97545,List1B,black,woman,,,,,,,,survey_gender,76,,,People of my gender are very similar to each other.,verysimilar
5217.7,,,html-slider-response,494,1917702,0.0-24.0-0.0-0.25,97545,List1B,black,woman,,,,,,,,survey_gender,100,,,Routine is not important to me.,filler
6551.9,,,html-slider-response,495,1924257,0.0-24.0-0.0-0.26,97545,List1B,black,woman,,,,,,,,survey_gender,100,,,Being my gender is an important part of how I see myself.,important
3971.9,,,html-slider-response,496,1928232,0.0-24.0-0.0-0.27,97545,List1B,black,woman,,,,,,,,survey_gender,99,,,My friends understand me.,filler
4496.7,,,html-slider-response,497,1932732,0.0-24.0-1.0-0.0,97545,List1B,black,woman,,,,,,,,survey_race,0,,,I enjoy being in large groups.,filler
6446.9,,,html-slider-response,498,1939183,0.0-24.0-1.0-0.1,97545,List1B,black,woman,,,,,,,,survey_race,71,,,I have a lot in common with the average person of my race.,average
4059.4,,,html-slider-response,499,1943246,0.0-24.0-1.0-0.2,97545,List1B,black,woman,,,,,,,,survey_race,100,,,Being my race gives me a good feeling.,feeling
4437.8,,,html-slider-response,500,1947687,0.0-24.0-1.0-0.3,97545,List1B,black,woman,,,,,,,,survey_race,92,,,I feel a bond with my race.,bond
3792,,,html-slider-response,501,1951482,0.0-24.0-1.0-0.4,97545,List1B,black,woman,,,,,,,,survey_race,100,,,The fact that I am my race is an important part of my identity.,identity
3357.2,,,html-slider-response,502,1954842,0.0-24.0-1.0-0.5,97545,List1B,black,woman,,,,,,,,survey_race,100,,,"The older I get, the wiser I feel.",filler
3521.2,,,html-slider-response,503,1958366,0.0-24.0-1.0-0.6,97545,List1B,black,woman,,,,,,,,survey_race,79,,,People of my race have a lot in common with each other.,common
4916,,,html-slider-response,504,1963287,0.0-24.0-1.0-0.7,97545,List1B,black,woman,,,,,,,,survey_race,93,,,I feel a bond with people the same age as me.,filler
3805.5,,,html-slider-response,505,1967096,0.0-24.0-1.0-0.8,97545,List1B,black,woman,,,,,,,,survey_race,100,,,I am glad to be my race.,glad
4273.8,,,html-slider-response,506,1971372,0.0-24.0-1.0-0.9,97545,List1B,black,woman,,,,,,,,survey_race,100,,,I often think about the fact that I am my age.,filler
5608.3,,,html-slider-response,507,1976983,0.0-24.0-1.0-0.10,97545,List1B,black,woman,,,,,,,,survey_race,94,,,I feel committed to my race.,committed
6551.8,,,html-slider-response,508,1983537,0.0-24.0-1.0-0.11,97545,List1B,black,woman,,,,,,,,survey_race,100,,,I am glad to be the age I am.,filler
6115.3,,,html-slider-response,509,1989656,0.0-24.0-1.0-0.12,97545,List1B,black,woman,,,,,,,,survey_race,100,,,Being my age gives me a good feeling.,filler
5473.3,,,html-slider-response,510,1995132,0.0-24.0-1.0-0.13,97545,List1B,black,woman,,,,,,,,survey_race,100,,,Being my race is an important part of how I see myself.,important
5833.1,,,html-slider-response,511,2000968,0.0-24.0-1.0-0.14,97545,List1B,black,woman,,,,,,,,survey_race,88,,,People my age have a lot in common with each other.,filler
4195.8,,,html-slider-response,512,2005167,0.0-24.0-1.0-0.15,97545,List1B,black,woman,,,,,,,,survey_race,93,,,I feel solidarity with people the same age as me.,filler
5502,,,html-slider-response,513,2010672,0.0-24.0-1.0-0.16,97545,List1B,black,woman,,,,,,,,survey_race,100,,,I think that my race has a lot to be proud of.,proud
4316.9,,,html-slider-response,514,2014993,0.0-24.0-1.0-0.17,97545,List1B,black,woman,,,,,,,,survey_race,71,,,I consider myself an extrovert.,filler
3731,,,html-slider-response,515,2018727,0.0-24.0-1.0-0.18,97545,List1B,black,woman,,,,,,,,survey_race,88,,,I feel solidarity with my race.,solidarity
4377.9,,,html-slider-response,516,2023108,0.0-24.0-1.0-0.19,97545,List1B,black,woman,,,,,,,,survey_race,14,,,My age is not an important part of who I am.,filler
4675.2,,,html-slider-response,517,2027786,0.0-24.0-1.0-0.20,97545,List1B,black,woman,,,,,,,,survey_race,13,,,People of my race are very similar to each other.,verysimilar
6343.3,,,html-slider-response,518,2034133,0.0-24.0-1.0-0.21,97545,List1B,black,woman,,,,,,,,survey_race,9,,,I am similar to the average person of my race.,similar
5396.4,,,html-slider-response,519,2039532,0.0-24.0-1.0-0.22,97545,List1B,black,woman,,,,,,,,survey_race,43,,,I often think about the fact that I am my race.,often
3881.9,,,html-slider-response,520,2043417,0.0-24.0-1.0-0.23,97545,List1B,black,woman,,,,,,,,survey_race,100,,,I consider myself an introvert.,filler
7228.7,,,html-slider-response,521,2050648,0.0-24.0-1.0-0.24,97545,List1B,black,woman,,,,,,,,survey_race,90,,,I have a lot in common with people of a similar age to me.,filler
3055.9,,,html-slider-response,522,2053708,0.0-24.0-1.0-0.25,97545,List1B,black,woman,,,,,,,,survey_race,100,,,I am glad to be my age.,filler
4122,,,html-slider-response,523,2057833,0.0-24.0-1.0-0.26,97545,List1B,black,woman,,,,,,,,survey_race,100,,,It is pleasant to be my race.,pleasant
4062.1,,,html-slider-response,524,2061897,0.0-24.0-1.0-0.27,97545,List1B,black,woman,,,,,,,,survey_race,100,,,Getting older does not worry me.,filler
8604.9,,,survey-text,525,2070508,0.0-25.0,97545,List1B,black,woman,,,,,"{""Q0"":""ccc""}",,,worker_id,,,,,
45090.3,,,external-html,526,2116080,0.0-26.0,97545,List1B,black,woman,debrief.html,,,,,,,,,,,,
