rt,stimulus,button_pressed,trial_type,trial_index,time_elapsed,internal_node_id,subject,list,ppt_race,ppt_gender,url,first_guess,correct,key_press,responses,image_type,phrase_type,test_part,response,stimulus1,stimulus2,question_type,survey_item
2921,Welcome to the experiment. Press Continue to begin.,0,html-button-response,0,2935,0.0-0.0,97984,List1A,black,woman,,,,,,,,,,,,,
9177.6,,,external-html,1,13267,0.0-1.0,97984,List1A,black,woman,consent.html,,,,,,,,,,,,
5694.6,"<p>On the next page, you will see portraits of 8 people and their names.</p><p>Your first task is to take a few minutes to memorise the names of these people.</p><p>You will have to recall their names during the rest of the experiment, so it is</p><p>essential that you try to memorise these people and their names as best as you can.</p><br><p><strong>You will then be tested on your memory of these names and portraits.</strong></p><br><p>The experiment will start after you have completed this memory test.</p><br><p>Ready?</p>",0,html-button-response,2,18981,0.0-2.0,97984,List1A,black,woman,,,,,,,,,,,,,
12737.2,"<img src='img/portrait_matrix_list1.jpg' style='width:900px;height:500px;''></img><p>If you have memorised all the portraits and names and are ready to start, press Continue.</p><p><strong>Please note: Your memory of these faces will be tested 4 times during this experiment.</strong></p>",0,html-button-response,3,32741,0.0-3.0-0.0,97984,List1A,black,woman,,,,,,,,,,,,,
5422.2,"<img src=""portrait/WM2.jpg""style=""height:400px;""></img>",7,html-button-response,4,39181,0.0-3.0-1.0,97984,List1A,black,woman,,TRUE,7,,,,,,,,,,
null,CORRECT,,html-keyboard-response,5,40726,0.0-3.0-2.0-0.0,97984,List1A,black,woman,,,,null,,,,,,,,,
3966,"<img src=""portrait/BM1.jpg""style=""height:400px;""></img>",5,html-button-response,6,44698,0.0-3.0-4.0,97984,List1A,black,woman,,TRUE,4,,,,,,,,,,
2901.5,"<img src=""portrait/BM1.jpg""style=""height:400px;""></img>",4,html-button-response,7,48641,0.0-3.0-6.0-0.0,97984,List1A,black,woman,,FALSE,4,,,,,,,,,,
null,CORRECT,,html-keyboard-response,8,50165,0.0-3.0-6.0-1.0-0.0,97984,List1A,black,woman,,,,null,,,,,,,,,
3721.1,"<img src=""portrait/WW2.jpg""style=""height:400px;""></img>",3,html-button-response,9,53891,0.0-3.0-7.0,97984,List1A,black,woman,,TRUE,3,,,,,,,,,,
null,CORRECT,,html-keyboard-response,10,55412,0.0-3.0-8.0-0.0,97984,List1A,black,woman,,,,null,,,,,,,,,
5294.7,"<img src=""portrait/WM1.jpg""style=""height:400px;""></img>",5,html-button-response,11,60711,0.0-3.0-10.0,97984,List1A,black,woman,,TRUE,6,,,,,,,,,,
3079.3,"<img src=""portrait/WM1.jpg""style=""height:400px;""></img>",6,html-button-response,12,64812,0.0-3.0-12.0-0.0,97984,List1A,black,woman,,FALSE,6,,,,,,,,,,
null,CORRECT,,html-keyboard-response,13,66330,0.0-3.0-12.0-1.0-0.0,97984,List1A,black,woman,,,,null,,,,,,,,,
2274.3,"<img src=""portrait/BM2.jpg""style=""height:400px;""></img>",5,html-button-response,14,68613,0.0-3.0-13.0,97984,List1A,black,woman,,TRUE,5,,,,,,,,,,
null,CORRECT,,html-keyboard-response,15,70144,0.0-3.0-14.0-0.0,97984,List1A,black,woman,,,,null,,,,,,,,,
4119.5,"<img src=""portrait/BW2.jpg""style=""height:400px;""></img>",2,html-button-response,16,74285,0.0-3.0-16.0,97984,List1A,black,woman,,TRUE,2,,,,,,,,,,
null,CORRECT,,html-keyboard-response,17,75810,0.0-3.0-17.0-0.0,97984,List1A,black,woman,,,,null,,,,,,,,,
4256.3,"<img src=""portrait/BW1.jpg""style=""height:400px;""></img>",1,html-button-response,18,80085,0.0-3.0-19.0,97984,List1A,black,woman,,TRUE,0,,,,,,,,,,
1652.6,"<img src=""portrait/BW1.jpg""style=""height:400px;""></img>",0,html-button-response,19,82763,0.0-3.0-21.0-0.0,97984,List1A,black,woman,,FALSE,0,,,,,,,,,,
null,CORRECT,,html-keyboard-response,20,84278,0.0-3.0-21.0-1.0-0.0,97984,List1A,black,woman,,,,null,,,,,,,,,
2086.2,"<img src=""portrait/WW1.jpg""style=""height:400px;""></img>",1,html-button-response,21,86369,0.0-3.0-22.0,97984,List1A,black,woman,,TRUE,1,,,,,,,,,,
null,CORRECT,,html-keyboard-response,22,87895,0.0-3.0-23.0-0.0,97984,List1A,black,woman,,,,null,,,,,,,,,
1620.5,<p>You got 5 out of 8 right first time. Press Continue.</p>,0,html-button-response,23,89521,0.0-3.0-25.0,97984,List1A,black,woman,,,,,,,,,,,,,
2014.9,"As you did not score 100%, the memory game will repeat. Press Continue.",0,html-button-response,24,92548,0.0-3.0-26.0-0.0,97984,List1A,black,woman,,,,,,,,,,,,,
16978.5,"<img src='img/portrait_matrix_list1.jpg' style='width:900px;height:500px;''></img><p>If you have memorised all the portraits and names and are ready to start, press Continue.</p><p><strong>Please note: Your memory of these faces will be tested 4 times during this experiment.</strong></p>",0,html-button-response,25,110541,0.0-3.1-0.1,97984,List1A,black,woman,,,,,,,,,,,,,
18339.4,"<img src=""portrait/WM2.jpg""style=""height:400px;""></img>",7,html-button-response,26,129890,0.0-3.1-1.1,97984,List1A,black,woman,,TRUE,7,,,,,,,,,,
null,CORRECT,,html-keyboard-response,27,131412,0.0-3.1-2.1-0.1,97984,List1A,black,woman,,,,null,,,,,,,,,
3841.3,"<img src=""portrait/BM1.jpg""style=""height:400px;""></img>",4,html-button-response,28,135277,0.0-3.1-4.1,97984,List1A,black,woman,,TRUE,4,,,,,,,,,,
null,CORRECT,,html-keyboard-response,29,136792,0.0-3.1-5.1-0.1,97984,List1A,black,woman,,,,null,,,,,,,,,
2302,"<img src=""portrait/WW2.jpg""style=""height:400px;""></img>",3,html-button-response,30,139100,0.0-3.1-7.1,97984,List1A,black,woman,,TRUE,3,,,,,,,,,,
null,CORRECT,,html-keyboard-response,31,140629,0.0-3.1-8.1-0.1,97984,List1A,black,woman,,,,null,,,,,,,,,
8400.8,"<img src=""portrait/WM1.jpg""style=""height:400px;""></img>",6,html-button-response,32,149037,0.0-3.1-10.1,97984,List1A,black,woman,,TRUE,6,,,,,,,,,,
null,CORRECT,,html-keyboard-response,33,150570,0.0-3.1-11.1-0.1,97984,List1A,black,woman,,,,null,,,,,,,,,
8071.7,"<img src=""portrait/BM2.jpg""style=""height:400px;""></img>",5,html-button-response,34,158647,0.0-3.1-13.1,97984,List1A,black,woman,,TRUE,5,,,,,,,,,,
null,CORRECT,,html-keyboard-response,35,160156,0.0-3.1-14.1-0.1,97984,List1A,black,woman,,,,null,,,,,,,,,
2419.3,"<img src=""portrait/BW2.jpg""style=""height:400px;""></img>",0,html-button-response,36,162604,0.0-3.1-16.1,97984,List1A,black,woman,,TRUE,2,,,,,,,,,,
1509.4,"<img src=""portrait/BW2.jpg""style=""height:400px;""></img>",2,html-button-response,37,165136,0.0-3.1-18.1-0.1,97984,List1A,black,woman,,FALSE,2,,,,,,,,,,
null,CORRECT,,html-keyboard-response,38,166655,0.0-3.1-18.1-1.1-0.1,97984,List1A,black,woman,,,,null,,,,,,,,,
2255,"<img src=""portrait/BW1.jpg""style=""height:400px;""></img>",0,html-button-response,39,168916,0.0-3.1-19.1,97984,List1A,black,woman,,TRUE,0,,,,,,,,,,
99.70000005,CORRECT,,html-keyboard-response,40,170435,0.0-3.1-20.1-0.1,97984,List1A,black,woman,,,,175,,,,,,,,,
2221.3,"<img src=""portrait/WW1.jpg""style=""height:400px;""></img>",1,html-button-response,41,172661,0.0-3.1-22.1,97984,List1A,black,woman,,TRUE,1,,,,,,,,,,
null,CORRECT,,html-keyboard-response,42,174196,0.0-3.1-23.1-0.1,97984,List1A,black,woman,,,,null,,,,,,,,,
1912.7,<p>You got 7 out of 8 right first time. Press Continue.</p>,0,html-button-response,43,176122,0.0-3.1-25.1,97984,List1A,black,woman,,,,,,,,,,,,,
2172.7,"As you did not score 100%, the memory game will repeat. Press Continue.",0,html-button-response,44,179318,0.0-3.1-26.1-0.1,97984,List1A,black,woman,,,,,,,,,,,,,
2834.3,"<img src='img/portrait_matrix_list1.jpg' style='width:900px;height:500px;''></img><p>If you have memorised all the portraits and names and are ready to start, press Continue.</p><p><strong>Please note: Your memory of these faces will be tested 4 times during this experiment.</strong></p>",0,html-button-response,45,183160,0.0-3.2-0.2,97984,List1A,black,woman,,,,,,,,,,,,,
2214.1,"<img src=""portrait/WM2.jpg""style=""height:400px;""></img>",7,html-button-response,46,186404,0.0-3.2-1.2,97984,List1A,black,woman,,TRUE,7,,,,,,,,,,
null,CORRECT,,html-keyboard-response,47,187942,0.0-3.2-2.2-0.2,97984,List1A,black,woman,,,,null,,,,,,,,,
3686.4,"<img src=""portrait/BM1.jpg""style=""height:400px;""></img>",4,html-button-response,48,191638,0.0-3.2-4.2,97984,List1A,black,woman,,TRUE,4,,,,,,,,,,
null,CORRECT,,html-keyboard-response,49,193161,0.0-3.2-5.2-0.2,97984,List1A,black,woman,,,,null,,,,,,,,,
1497,"<img src=""portrait/WW2.jpg""style=""height:400px;""></img>",3,html-button-response,50,194667,0.0-3.2-7.2,97984,List1A,black,woman,,TRUE,3,,,,,,,,,,
null,CORRECT,,html-keyboard-response,51,196211,0.0-3.2-8.2-0.2,97984,List1A,black,woman,,,,null,,,,,,,,,
2412.7,"<img src=""portrait/WM1.jpg""style=""height:400px;""></img>",6,html-button-response,52,198630,0.0-3.2-10.2,97984,List1A,black,woman,,TRUE,6,,,,,,,,,,
null,CORRECT,,html-keyboard-response,53,200155,0.0-3.2-11.2-0.2,97984,List1A,black,woman,,,,null,,,,,,,,,
2251.1,"<img src=""portrait/BM2.jpg""style=""height:400px;""></img>",5,html-button-response,54,202410,0.0-3.2-13.2,97984,List1A,black,woman,,TRUE,5,,,,,,,,,,
null,CORRECT,,html-keyboard-response,55,203949,0.0-3.2-14.2-0.2,97984,List1A,black,woman,,,,null,,,,,,,,,
3117.3,"<img src=""portrait/BW2.jpg""style=""height:400px;""></img>",2,html-button-response,56,207071,0.0-3.2-16.2,97984,List1A,black,woman,,TRUE,2,,,,,,,,,,
null,CORRECT,,html-keyboard-response,57,208579,0.0-3.2-17.2-0.2,97984,List1A,black,woman,,,,null,,,,,,,,,
4820.7,"<img src=""portrait/BW1.jpg""style=""height:400px;""></img>",0,html-button-response,58,213405,0.0-3.2-19.2,97984,List1A,black,woman,,TRUE,0,,,,,,,,,,
null,CORRECT,,html-keyboard-response,59,214935,0.0-3.2-20.2-0.2,97984,List1A,black,woman,,,,null,,,,,,,,,
1329.7,"<img src=""portrait/WW1.jpg""style=""height:400px;""></img>",1,html-button-response,60,216280,0.0-3.2-22.2,97984,List1A,black,woman,,TRUE,1,,,,,,,,,,
null,CORRECT,,html-keyboard-response,61,217820,0.0-3.2-23.2-0.2,97984,List1A,black,woman,,,,null,,,,,,,,,
1928.1,<p>You got 8 out of 8 right first time. Press Continue.</p>,0,html-button-response,62,219753,0.0-3.2-25.2,97984,List1A,black,woman,,,,,,,,,,,,,
16101.4,"<p>In this experiment, you will view photographs of the people from the memory game interacting.</p><p>By using the <strong>exact</strong> phrase given <i>after</i> the photograph appears and recalling the correct names of the people in the photographs, form a sentence describing the interaction. You do not need to capitalise names.</p><p>Type your answer in the space provided. Please complete every sentence before moving onto the next trial.</p><p>You will only have a few seconds to memorise each given photograph and phrase before you can respond, so try your best to focus.</p><p>An example is given below. Press 'Continue' when you are ready.</p><img src='img/speaking_example.jpg' style='width:800px;height:460px;''></img>",0,html-button-response,63,236897,0.0-4.0,97984,List1A,black,woman,,,,,,,,,,,,,
2950.7,"<p>Before the experiment starts, you will watch two example trials. Press 'Continue'.</p>",0,html-button-response,64,240881,0.0-5.0,97984,List1A,black,woman,,,,,,,,,,,,,
null,<img src='img/play_eg.gif' style='height:400px;''></img>,,html-keyboard-response,65,243926,0.0-6.0,97984,List1A,black,woman,,,,null,,,,,,,,,
null,<p>is playing with</p>,,html-keyboard-response,66,245934,0.0-7.0,97984,List1A,black,woman,,,,null,,,,,,,,,
2031.3,<p><b>Answer:</b> kate is playing with beth</p>,0,html-button-response,67,247969,0.0-8.0,97984,List1A,black,woman,,,,,,,,,,,,,
null,<img src='img/dance_eg.gif' style='height:400px;''></img>,,html-keyboard-response,68,250999,0.0-9.0,97984,List1A,black,woman,,,,null,,,,,,,,,
null,<p>is being entertained by</p>,,html-keyboard-response,69,253009,0.0-10.0,97984,List1A,black,woman,,,,null,,,,,,,,,
1211.5,<p><b>Answer:</b> luke is being entertained by dave</p>,0,html-button-response,70,254237,0.0-11.0,97984,List1A,black,woman,,,,,,,,,,,,,
2445.4,"<p>Ready to start the experiment?</p><br><p><strong>Remember to describe the picture using a full sentence,</strong></p><p><strong>that combines the names of the people with the <i>exact</i> phrase given.</strong></p><p><strong>To receive full payment you must do this correctly.</strong></p><p><strong> You do not need to capitalise names or use punctuation.</strong></p><br><p>Press 'Continue' to begin.</p>",0,html-button-response,71,257695,0.0-12.0,97984,List1A,black,woman,,,,,,,,,,,,,
null,"<div style=""font-size:60px;"">+</div>",,html-keyboard-response,72,259224,0.0-13.0-0.0,97984,List1A,black,woman,,,,null,,,,,,,,,
null,"<img src=""stim_listA/oppose2.gif""style=""height:400px;""></stim_listA>",,html-keyboard-response,73,261234,0.0-13.0-1.0,97984,List1A,black,woman,,,,null,,,,,,,,,
null,is being opposed by,,html-keyboard-response,74,263254,0.0-13.0-2.0,97984,List1A,black,woman,,,,null,,,,,,,,,
10002.9,,,survey-text,75,273284,0.0-13.0-3.0,97984,List1A,black,woman,,,,,"{""Q0"":""Fred is being opposed by Beth""}","<img src=""stim_listA/oppose2.gif""style=""height:400px;""></stim_listA>",is being opposed by,,,,,,
null,"<div style=""font-size:60px;"">+</div>",,html-keyboard-response,76,273794,0.0-13.0-0.1,97984,List1A,black,woman,,,,null,,,,,,,,,
null,"<img src=""stim_listA/greet2.gif""style=""height:400px;""></stim_listA>",,html-keyboard-response,77,275814,0.0-13.0-1.1,97984,List1A,black,woman,,,,null,,,,,,,,,
null,is being greeted by,,html-keyboard-response,78,277835,0.0-13.0-2.1,97984,List1A,black,woman,,,,null,,,,,,,,,
10857.7,,,survey-text,79,288716,0.0-13.0-3.1,97984,List1A,black,woman,,,,,"{""Q0"":""Kate is being greeted by Fred.""}","<img src=""stim_listA/greet2.gif""style=""height:400px;""></stim_listA>",is being greeted by,,,,,,
null,"<div style=""font-size:60px;"">+</div>",,html-keyboard-response,80,289225,0.0-13.0-0.2,97984,List1A,black,woman,,,,null,,,,,,,,,
null,"<img src=""stim_listA/challenge8.gif""style=""height:400px;""></stim_listA>",,html-keyboard-response,81,291238,0.0-13.0-1.2,97984,List1A,black,woman,,,,null,,,,,,,,,
null,is being challenged by,,html-keyboard-response,82,293260,0.0-13.0-2.2,97984,List1A,black,woman,,,,null,,,,,,,,,
9370.2,,,survey-text,83,302659,0.0-13.0-3.2,97984,List1A,black,woman,,,,,"{""Q0"":""Jane is being challenged by Beth.""}","<img src=""stim_listA/challenge8.gif""style=""height:400px;""></stim_listA>",is being challenged by,,,,,,
null,"<div style=""font-size:60px;"">+</div>",,html-keyboard-response,84,303185,0.0-13.0-0.3,97984,List1A,black,woman,,,,null,,,,,,,,,
null,"<img src=""stim_listA/kiss1.gif""style=""height:400px;""></stim_listA>",,html-keyboard-response,85,305200,0.0-13.0-1.3,97984,List1A,black,woman,,,,null,,,,,,,,,
null,is kissing,,html-keyboard-response,86,307219,0.0-13.0-2.3,97984,List1A,black,woman,,,,null,,,,,,,,,
5475.1,,,survey-text,87,312720,0.0-13.0-3.3,97984,List1A,black,woman,,,,,"{""Q0"":""Fred is kissing Beth.""}","<img src=""stim_listA/kiss1.gif""style=""height:400px;""></stim_listA>",is kissing,,,,,,
null,"<div style=""font-size:60px;"">+</div>",,html-keyboard-response,88,313231,0.0-13.0-0.4,97984,List1A,black,woman,,,,null,,,,,,,,,
null,"<img src=""stim_listA/challenge2.gif""style=""height:400px;""></stim_listA>",,html-keyboard-response,89,315240,0.0-13.0-1.4,97984,List1A,black,woman,,,,null,,,,,,,,,
null,is being challenged by,,html-keyboard-response,90,317255,0.0-13.0-2.4,97984,List1A,black,woman,,,,null,,,,,,,,,
4136,,,survey-text,91,321416,0.0-13.0-3.4,97984,List1A,black,woman,,,,,"{""Q0"":""is being challenged by""}","<img src=""stim_listA/challenge2.gif""style=""height:400px;""></stim_listA>",is being challenged by,,,,,,
null,"<div style=""font-size:60px;"">+</div>",,html-keyboard-response,92,321936,0.0-13.0-0.5,97984,List1A,black,woman,,,,null,,,,,,,,,
null,"<img src=""stim_listA/hug6.gif""style=""height:400px;""></stim_listA>",,html-keyboard-response,93,323945,0.0-13.0-1.5,97984,List1A,black,woman,,,,null,,,,,,,,,
null,is being hugged by,,html-keyboard-response,94,325950,0.0-13.0-2.5,97984,List1A,black,woman,,,,null,,,,,,,,,
15442.4,,,survey-text,95,341419,0.0-13.0-3.5,97984,List1A,black,woman,,,,,"{""Q0"":""Mike is being hugged by Dave.""}","<img src=""stim_listA/hug6.gif""style=""height:400px;""></stim_listA>",is being hugged by,,,,,,
null,"<div style=""font-size:60px;"">+</div>",,html-keyboard-response,96,341935,0.0-13.0-0.6,97984,List1A,black,woman,,,,null,,,,,,,,,
null,"<img src=""stim_listA/oppose3.gif""style=""height:400px;""></stim_listA>",,html-keyboard-response,97,343960,0.0-13.0-1.6,97984,List1A,black,woman,,,,null,,,,,,,,,
null,is opposing,,html-keyboard-response,98,345976,0.0-13.0-2.6,97984,List1A,black,woman,,,,null,,,,,,,,,
10524.5,,,survey-text,99,356530,0.0-13.0-3.6,97984,List1A,black,woman,,,,,"{""Q0"":""Jane is opposing Dave. ""}","<img src=""stim_listA/oppose3.gif""style=""height:400px;""></stim_listA>",is opposing,,,,,,
null,"<div style=""font-size:60px;"">+</div>",,html-keyboard-response,100,357039,0.0-13.0-0.7,97984,List1A,black,woman,,,,null,,,,,,,,,
null,"<img src=""stim_listA/greet8.gif""style=""height:400px;""></stim_listA>",,html-keyboard-response,101,359044,0.0-13.0-1.7,97984,List1A,black,woman,,,,null,,,,,,,,,
null,is being greeted by,,html-keyboard-response,102,361053,0.0-13.0-2.7,97984,List1A,black,woman,,,,null,,,,,,,,,
7754.1,,,survey-text,103,368830,0.0-13.0-3.7,97984,List1A,black,woman,,,,,"{""Q0"":""Jane is being greeted by Beth.""}","<img src=""stim_listA/greet8.gif""style=""height:400px;""></stim_listA>",is being greeted by,,,,,,
null,"<div style=""font-size:60px;"">+</div>",,html-keyboard-response,104,369342,0.0-13.0-0.8,97984,List1A,black,woman,,,,null,,,,,,,,,
null,"<img src=""stim_listA/seduce7.gif""style=""height:400px;""></stim_listA>",,html-keyboard-response,105,371362,0.0-13.0-1.8,97984,List1A,black,woman,,,,null,,,,,,,,,
null,is seducing,,html-keyboard-response,106,373367,0.0-13.0-2.8,97984,List1A,black,woman,,,,null,,,,,,,,,
4138.9,,,survey-text,107,377535,0.0-13.0-3.8,97984,List1A,black,woman,,,,,"{""Q0"":""Jane is seducing Beth.""}","<img src=""stim_listA/seduce7.gif""style=""height:400px;""></stim_listA>",is seducing,,,,,,
null,"<div style=""font-size:60px;"">+</div>",,html-keyboard-response,108,378046,0.0-13.0-0.9,97984,List1A,black,woman,,,,null,,,,,,,,,
null,"<img src=""stim_listA/shout8.gif""style=""height:400px;""></stim_listA>",,html-keyboard-response,109,380051,0.0-13.0-1.9,97984,List1A,black,woman,,,,null,,,,,,,,,
null,is being shouted at by,,html-keyboard-response,110,382057,0.0-13.0-2.9,97984,List1A,black,woman,,,,null,,,,,,,,,
10965.6,,,survey-text,111,393055,0.0-13.0-3.9,97984,List1A,black,woman,,,,,"{""Q0"":""Jane is being shouted at by Kate.""}","<img src=""stim_listA/shout8.gif""style=""height:400px;""></stim_listA>",is being shouted at by,,,,,,
null,"<div style=""font-size:60px;"">+</div>",,html-keyboard-response,112,393579,0.0-13.0-0.10,97984,List1A,black,woman,,,,null,,,,,,,,,
null,"<img src=""stim_listA/kiss4.gif""style=""height:400px;""></stim_listA>",,html-keyboard-response,113,395584,0.0-13.0-1.10,97984,List1A,black,woman,,,,null,,,,,,,,,
null,is being kissed by,,html-keyboard-response,114,397589,0.0-13.0-2.10,97984,List1A,black,woman,,,,null,,,,,,,,,
37049.4,,,survey-text,115,434664,0.0-13.0-3.10,97984,List1A,black,woman,,,,,"{""Q0"":""is blank blank""}","<img src=""stim_listA/kiss4.gif""style=""height:400px;""></stim_listA>",is being kissed by,,,,,,
null,"<div style=""font-size:60px;"">+</div>",,html-keyboard-response,116,435177,0.0-13.0-0.11,97984,List1A,black,woman,,,,null,,,,,,,,,
null,"<img src=""stim_listA/oppose7.gif""style=""height:400px;""></stim_listA>",,html-keyboard-response,117,437189,0.0-13.0-1.11,97984,List1A,black,woman,,,,null,,,,,,,,,
null,is opposing,,html-keyboard-response,118,439195,0.0-13.0-2.11,97984,List1A,black,woman,,,,null,,,,,,,,,
4423.5,,,survey-text,119,443650,0.0-13.0-3.11,97984,List1A,black,woman,,,,,"{""Q0"":""is blank blank""}","<img src=""stim_listA/oppose7.gif""style=""height:400px;""></stim_listA>",is opposing,,,,,,
null,"<div style=""font-size:60px;"">+</div>",,html-keyboard-response,120,444180,0.0-13.0-0.12,97984,List1A,black,woman,,,,null,,,,,,,,,
null,"<img src=""stim_listA/look6.gif""style=""height:400px;""></stim_listA>",,html-keyboard-response,121,446193,0.0-13.0-1.12,97984,List1A,black,woman,,,,null,,,,,,,,,
null,is being looked at by,,html-keyboard-response,122,448203,0.0-13.0-2.12,97984,List1A,black,woman,,,,null,,,,,,,,,
6217.6,,,survey-text,123,454449,0.0-13.0-3.12,97984,List1A,black,woman,,,,,"{""Q0"":""Dave is being looked at by Mike.""}","<img src=""stim_listA/look6.gif""style=""height:400px;""></stim_listA>",is being looked at by,,,,,,
null,"<div style=""font-size:60px;"">+</div>",,html-keyboard-response,124,454969,0.0-13.0-0.13,97984,List1A,black,woman,,,,null,,,,,,,,,
null,"<img src=""stim_listA/copy4.gif""style=""height:400px;""></stim_listA>",,html-keyboard-response,125,457065,0.0-13.0-1.13,97984,List1A,black,woman,,,,null,,,,,,,,,
null,is being copied by,,html-keyboard-response,126,459092,0.0-13.0-2.13,97984,List1A,black,woman,,,,null,,,,,,,,,
7887,,,survey-text,127,467013,0.0-13.0-3.13,97984,List1A,black,woman,,,,,"{""Q0"":""Jane is being copied by Luke.""}","<img src=""stim_listA/copy4.gif""style=""height:400px;""></stim_listA>",is being copied by,,,,,,
null,"<div style=""font-size:60px;"">+</div>",,html-keyboard-response,128,467523,0.0-13.0-0.14,97984,List1A,black,woman,,,,null,,,,,,,,,
null,"<img src=""stim_listA/challenge6.gif""style=""height:400px;""></stim_listA>",,html-keyboard-response,129,469560,0.0-13.0-1.14,97984,List1A,black,woman,,,,null,,,,,,,,,
null,is being challenged by,,html-keyboard-response,130,471585,0.0-13.0-2.14,97984,List1A,black,woman,,,,null,,,,,,,,,
20970.4,,,survey-text,131,492583,0.0-13.0-3.14,97984,List1A,black,woman,,,,,"{""Q0"":""Fred is being challenged by Mike?""}","<img src=""stim_listA/challenge6.gif""style=""height:400px;""></stim_listA>",is being challenged by,,,,,,
null,"<div style=""font-size:60px;"">+</div>",,html-keyboard-response,132,493115,0.0-13.0-0.15,97984,List1A,black,woman,,,,null,,,,,,,,,
null,"<img src=""stim_listA/greet1.gif""style=""height:400px;""></stim_listA>",,html-keyboard-response,133,495124,0.0-13.0-1.15,97984,List1A,black,woman,,,,null,,,,,,,,,
null,is greeting,,html-keyboard-response,134,497134,0.0-13.0-2.15,97984,List1A,black,woman,,,,null,,,,,,,,,
5182.2,,,survey-text,135,502342,0.0-13.0-3.15,97984,List1A,black,woman,,,,,"{""Q0"":""Mike is greeting Beth.""}","<img src=""stim_listA/greet1.gif""style=""height:400px;""></stim_listA>",is greeting,,,,,,
null,"<div style=""font-size:60px;"">+</div>",,html-keyboard-response,136,502854,0.0-13.0-0.16,97984,List1A,black,woman,,,,null,,,,,,,,,
null,"<img src=""stim_listA/kiss5.gif""style=""height:400px;""></stim_listA>",,html-keyboard-response,137,504864,0.0-13.0-1.16,97984,List1A,black,woman,,,,null,,,,,,,,,
null,is kissing,,html-keyboard-response,138,506884,0.0-13.0-2.16,97984,List1A,black,woman,,,,null,,,,,,,,,
5619.4,,,survey-text,139,512536,0.0-13.0-3.16,97984,List1A,black,woman,,,,,"{""Q0"":""Luke is kissing Fred. ""}","<img src=""stim_listA/kiss5.gif""style=""height:400px;""></stim_listA>",is kissing,,,,,,
null,"<div style=""font-size:60px;"">+</div>",,html-keyboard-response,140,513055,0.0-13.0-0.17,97984,List1A,black,woman,,,,null,,,,,,,,,
null,"<img src=""stim_listA/challenge3.gif""style=""height:400px;""></stim_listA>",,html-keyboard-response,141,515074,0.0-13.0-1.17,97984,List1A,black,woman,,,,null,,,,,,,,,
null,is challenging,,html-keyboard-response,142,517088,0.0-13.0-2.17,97984,List1A,black,woman,,,,null,,,,,,,,,
12385.8,,,survey-text,143,529512,0.0-13.0-3.17,97984,List1A,black,woman,,,,,"{""Q0"":""Ruth is challenging Luke.""}","<img src=""stim_listA/challenge3.gif""style=""height:400px;""></stim_listA>",is challenging,,,,,,
null,"<div style=""font-size:60px;"">+</div>",,html-keyboard-response,144,530031,0.0-13.0-0.18,97984,List1A,black,woman,,,,null,,,,,,,,,
null,"<img src=""stim_listA/kiss6.gif""style=""height:400px;""></stim_listA>",,html-keyboard-response,145,532044,0.0-13.0-1.18,97984,List1A,black,woman,,,,null,,,,,,,,,
null,is being kissed by,,html-keyboard-response,146,534060,0.0-13.0-2.18,97984,List1A,black,woman,,,,null,,,,,,,,,
11971.4,,,survey-text,147,546060,0.0-13.0-3.18,97984,List1A,black,woman,,,,,"{""Q0"":""Dave is being kissed by Mike. ""}","<img src=""stim_listA/kiss6.gif""style=""height:400px;""></stim_listA>",is being kissed by,,,,,,
null,"<div style=""font-size:60px;"">+</div>",,html-keyboard-response,148,546579,0.0-13.0-0.19,97984,List1A,black,woman,,,,null,,,,,,,,,
null,"<img src=""stim_listA/kiss8.gif""style=""height:400px;""></stim_listA>",,html-keyboard-response,149,548584,0.0-13.0-1.19,97984,List1A,black,woman,,,,null,,,,,,,,,
null,is being kissed by,,html-keyboard-response,150,550600,0.0-13.0-2.19,97984,List1A,black,woman,,,,null,,,,,,,,,
6975.9,,,survey-text,151,557607,0.0-13.0-3.19,97984,List1A,black,woman,,,,,"{""Q0"":""Kate is being kissed by Jane.""}","<img src=""stim_listA/kiss8.gif""style=""height:400px;""></stim_listA>",is being kissed by,,,,,,
3716.6,"<img src='img/portrait_matrix_list1.jpg' style='width:900px;height:500px;''></img><p>If you have memorised all the portraits and names and are ready to start, press Continue.</p><p><strong>Please note: Your memory of these faces will be tested 4 times during this experiment.</strong></p>",0,html-button-response,152,561337,0.0-14.0-0.0,97984,List1A,black,woman,,,,,,,,,,,,,
2383.1,"<img src=""portrait/BM1.jpg""style=""height:400px;""></img>",4,html-button-response,153,564745,0.0-14.0-1.0,97984,List1A,black,woman,,TRUE,4,,,,,,,,,,
null,CORRECT,,html-keyboard-response,154,566270,0.0-14.0-2.0-0.0,97984,List1A,black,woman,,,,null,,,,,,,,,
4269.8,"<img src=""portrait/WM1.jpg""style=""height:400px;""></img>",6,html-button-response,155,570547,0.0-14.0-4.0,97984,List1A,black,woman,,TRUE,6,,,,,,,,,,
null,CORRECT,,html-keyboard-response,156,572113,0.0-14.0-5.0-0.0,97984,List1A,black,woman,,,,null,,,,,,,,,
2951.2,"<img src=""portrait/WM2.jpg""style=""height:400px;""></img>",7,html-button-response,157,575095,0.0-14.0-7.0,97984,List1A,black,woman,,TRUE,7,,,,,,,,,,
null,CORRECT,,html-keyboard-response,158,576624,0.0-14.0-8.0-0.0,97984,List1A,black,woman,,,,null,,,,,,,,,
2900.8,"<img src=""portrait/WW2.jpg""style=""height:400px;""></img>",3,html-button-response,159,579531,0.0-14.0-10.0,97984,List1A,black,woman,,TRUE,3,,,,,,,,,,
null,CORRECT,,html-keyboard-response,160,581054,0.0-14.0-11.0-0.0,97984,List1A,black,woman,,,,null,,,,,,,,,
2685.3,"<img src=""portrait/BM2.jpg""style=""height:400px;""></img>",5,html-button-response,161,583745,0.0-14.0-13.0,97984,List1A,black,woman,,TRUE,5,,,,,,,,,,
null,CORRECT,,html-keyboard-response,162,585275,0.0-14.0-14.0-0.0,97984,List1A,black,woman,,,,null,,,,,,,,,
2862.5,"<img src=""portrait/BW2.jpg""style=""height:400px;""></img>",2,html-button-response,163,588142,0.0-14.0-16.0,97984,List1A,black,woman,,TRUE,2,,,,,,,,,,
null,CORRECT,,html-keyboard-response,164,589665,0.0-14.0-17.0-0.0,97984,List1A,black,woman,,,,null,,,,,,,,,
3130.4,"<img src=""portrait/BW1.jpg""style=""height:400px;""></img>",0,html-button-response,165,592800,0.0-14.0-19.0,97984,List1A,black,woman,,TRUE,0,,,,,,,,,,
null,CORRECT,,html-keyboard-response,166,594315,0.0-14.0-20.0-0.0,97984,List1A,black,woman,,,,null,,,,,,,,,
2015,"<img src=""portrait/WW1.jpg""style=""height:400px;""></img>",1,html-button-response,167,596337,0.0-14.0-22.0,97984,List1A,black,woman,,TRUE,1,,,,,,,,,,
null,CORRECT,,html-keyboard-response,168,597875,0.0-14.0-23.0-0.0,97984,List1A,black,woman,,,,null,,,,,,,,,
1677,<p>You got 8 out of 8 right first time. Press Continue.</p>,0,html-button-response,169,599557,0.0-14.0-25.0,97984,List1A,black,woman,,,,,,,,,,,,,
null,"<div style=""font-size:60px;"">+</div>",,html-keyboard-response,170,601085,0.0-15.0-0.0,97984,List1A,black,woman,,,,null,,,,,,,,,
null,"<img src=""stim_listA/challenge5.gif""style=""height:400px;""></stim_listA>",,html-keyboard-response,171,603105,0.0-15.0-1.0,97984,List1A,black,woman,,,,null,,,,,,,,,
null,is challenging,,html-keyboard-response,172,605125,0.0-15.0-2.0,97984,List1A,black,woman,,,,null,,,,,,,,,
5947.7,,,survey-text,173,611107,0.0-15.0-3.0,97984,List1A,black,woman,,,,,"{""Q0"":""Luke is challenging Mike.""}","<img src=""stim_listA/challenge5.gif""style=""height:400px;""></stim_listA>",is challenging,,,,,,
null,"<div style=""font-size:60px;"">+</div>",,html-keyboard-response,174,611632,0.0-15.0-0.1,97984,List1A,black,woman,,,,null,,,,,,,,,
null,"<img src=""stim_listA/touch2.gif""style=""height:400px;""></stim_listA>",,html-keyboard-response,175,613640,0.0-15.0-1.1,97984,List1A,black,woman,,,,null,,,,,,,,,
null,is being touched by,,html-keyboard-response,176,615655,0.0-15.0-2.1,97984,List1A,black,woman,,,,null,,,,,,,,,
7189.1,,,survey-text,177,622873,0.0-15.0-3.1,97984,List1A,black,woman,,,,,"{""Q0"":""Beth is being touched by Fred. ""}","<img src=""stim_listA/touch2.gif""style=""height:400px;""></stim_listA>",is being touched by,,,,,,
null,"<div style=""font-size:60px;"">+</div>",,html-keyboard-response,178,623385,0.0-15.0-0.2,97984,List1A,black,woman,,,,null,,,,,,,,,
null,"<img src=""stim_listA/touch7.gif""style=""height:400px;""></stim_listA>",,html-keyboard-response,179,625394,0.0-15.0-1.2,97984,List1A,black,woman,,,,null,,,,,,,,,
null,is touching,,html-keyboard-response,180,627415,0.0-15.0-2.2,97984,List1A,black,woman,,,,null,,,,,,,,,
4557.8,,,survey-text,181,632005,0.0-15.0-3.2,97984,List1A,black,woman,,,,,"{""Q0"":""jane is touching Kate.""}","<img src=""stim_listA/touch7.gif""style=""height:400px;""></stim_listA>",is touching,,,,,,
null,"<div style=""font-size:60px;"">+</div>",,html-keyboard-response,182,632525,0.0-15.0-0.3,97984,List1A,black,woman,,,,null,,,,,,,,,
null,"<img src=""stim_listA/seduce2.gif""style=""height:400px;""></stim_listA>",,html-keyboard-response,183,634546,0.0-15.0-1.3,97984,List1A,black,woman,,,,null,,,,,,,,,
null,is being seduced by,,html-keyboard-response,184,636552,0.0-15.0-2.3,97984,List1A,black,woman,,,,null,,,,,,,,,
8008.2,,,survey-text,185,644589,0.0-15.0-3.3,97984,List1A,black,woman,,,,,"{""Q0"":""Mike is being seduced by Beth.""}","<img src=""stim_listA/seduce2.gif""style=""height:400px;""></stim_listA>",is being seduced by,,,,,,
null,"<div style=""font-size:60px;"">+</div>",,html-keyboard-response,186,645115,0.0-15.0-0.4,97984,List1A,black,woman,,,,null,,,,,,,,,
null,"<img src=""stim_listA/oppose1.gif""style=""height:400px;""></stim_listA>",,html-keyboard-response,187,647125,0.0-15.0-1.4,97984,List1A,black,woman,,,,null,,,,,,,,,
null,is opposing,,html-keyboard-response,188,649146,0.0-15.0-2.4,97984,List1A,black,woman,,,,null,,,,,,,,,
4972.8,,,survey-text,189,654151,0.0-15.0-3.4,97984,List1A,black,woman,,,,,"{""Q0"":""Kate is opposing Mike.""}","<img src=""stim_listA/oppose1.gif""style=""height:400px;""></stim_listA>",is opposing,,,,,,
null,"<div style=""font-size:60px;"">+</div>",,html-keyboard-response,190,654670,0.0-15.0-0.5,97984,List1A,black,woman,,,,null,,,,,,,,,
null,"<img src=""stim_listA/touch5.gif""style=""height:400px;""></stim_listA>",,html-keyboard-response,191,656690,0.0-15.0-1.5,97984,List1A,black,woman,,,,null,,,,,,,,,
null,is touching,,html-keyboard-response,192,658715,0.0-15.0-2.5,97984,List1A,black,woman,,,,null,,,,,,,,,
5810.4,,,survey-text,193,664556,0.0-15.0-3.5,97984,List1A,black,woman,,,,,"{""Q0"":""Mike is touching Dave.""}","<img src=""stim_listA/touch5.gif""style=""height:400px;""></stim_listA>",is touching,,,,,,
null,"<div style=""font-size:60px;"">+</div>",,html-keyboard-response,194,665074,0.0-15.0-0.6,97984,List1A,black,woman,,,,null,,,,,,,,,
null,"<img src=""stim_listA/seduce8.gif""style=""height:400px;""></stim_listA>",,html-keyboard-response,195,667096,0.0-15.0-1.6,97984,List1A,black,woman,,,,null,,,,,,,,,
null,is being seduced by,,html-keyboard-response,196,669105,0.0-15.0-2.6,97984,List1A,black,woman,,,,null,,,,,,,,,
13071,,,survey-text,197,682208,0.0-15.0-3.6,97984,List1A,black,woman,,,,,"{""Q0"":""Ruth is being touched by Kate. ""}","<img src=""stim_listA/seduce8.gif""style=""height:400px;""></stim_listA>",is being seduced by,,,,,,
null,"<div style=""font-size:60px;"">+</div>",,html-keyboard-response,198,682726,0.0-15.0-0.7,97984,List1A,black,woman,,,,null,,,,,,,,,
null,"<img src=""stim_listA/look3.gif""style=""height:400px;""></stim_listA>",,html-keyboard-response,199,684740,0.0-15.0-1.7,97984,List1A,black,woman,,,,null,,,,,,,,,
null,is looking at,,html-keyboard-response,200,686760,0.0-15.0-2.7,97984,List1A,black,woman,,,,null,,,,,,,,,
6923.8,,,survey-text,201,693714,0.0-15.0-3.7,97984,List1A,black,woman,,,,,"{""Q0"":""Ruth is looking at Luke. ""}","<img src=""stim_listA/look3.gif""style=""height:400px;""></stim_listA>",is looking at,,,,,,
null,"<div style=""font-size:60px;"">+</div>",,html-keyboard-response,202,694245,0.0-15.0-0.8,97984,List1A,black,woman,,,,null,,,,,,,,,
null,"<img src=""stim_listA/touch3.gif""style=""height:400px;""></stim_listA>",,html-keyboard-response,203,696256,0.0-15.0-1.8,97984,List1A,black,woman,,,,null,,,,,,,,,
null,is touching,,html-keyboard-response,204,698270,0.0-15.0-2.8,97984,List1A,black,woman,,,,null,,,,,,,,,
4488.5,,,survey-text,205,702785,0.0-15.0-3.8,97984,List1A,black,woman,,,,,"{""Q0"":""Dave is touching Jane. ""}","<img src=""stim_listA/touch3.gif""style=""height:400px;""></stim_listA>",is touching,,,,,,
null,"<div style=""font-size:60px;"">+</div>",,html-keyboard-response,206,703316,0.0-15.0-0.9,97984,List1A,black,woman,,,,null,,,,,,,,,
null,"<img src=""stim_listA/seduce1.gif""style=""height:400px;""></stim_listA>",,html-keyboard-response,207,705334,0.0-15.0-1.9,97984,List1A,black,woman,,,,null,,,,,,,,,
null,is seducing,,html-keyboard-response,208,707339,0.0-15.0-2.9,97984,List1A,black,woman,,,,null,,,,,,,,,
7873.9,,,survey-text,209,715243,0.0-15.0-3.9,97984,List1A,black,woman,,,,,"{""Q0"":""Kate is seducing Fred. ""}","<img src=""stim_listA/seduce1.gif""style=""height:400px;""></stim_listA>",is seducing,,,,,,
null,"<div style=""font-size:60px;"">+</div>",,html-keyboard-response,210,715764,0.0-15.0-0.10,97984,List1A,black,woman,,,,null,,,,,,,,,
null,"<img src=""stim_listA/touch6.gif""style=""height:400px;""></stim_listA>",,html-keyboard-response,211,717770,0.0-15.0-1.10,97984,List1A,black,woman,,,,null,,,,,,,,,
null,is being touched by,,html-keyboard-response,212,719785,0.0-15.0-2.10,97984,List1A,black,woman,,,,null,,,,,,,,,
6674.7,,,survey-text,213,726489,0.0-15.0-3.10,97984,List1A,black,woman,,,,,"{""Q0"":""Luke is being touched by Fred. ""}","<img src=""stim_listA/touch6.gif""style=""height:400px;""></stim_listA>",is being touched by,,,,,,
null,"<div style=""font-size:60px;"">+</div>",,html-keyboard-response,214,727020,0.0-15.0-0.11,97984,List1A,black,woman,,,,null,,,,,,,,,
null,"<img src=""stim_listA/touch4.gif""style=""height:400px;""></stim_listA>",,html-keyboard-response,215,729040,0.0-15.0-1.11,97984,List1A,black,woman,,,,null,,,,,,,,,
null,is being touched by,,html-keyboard-response,216,731055,0.0-15.0-2.11,97984,List1A,black,woman,,,,null,,,,,,,,,
12413.5,,,survey-text,217,743512,0.0-15.0-3.11,97984,List1A,black,woman,,,,,"{""Q0"":""Ruth is being touched by Luke.""}","<img src=""stim_listA/touch4.gif""style=""height:400px;""></stim_listA>",is being touched by,,,,,,
null,"<div style=""font-size:60px;"">+</div>",,html-keyboard-response,218,744030,0.0-15.0-0.12,97984,List1A,black,woman,,,,null,,,,,,,,,
null,"<img src=""stim_listA/hug2.gif""style=""height:400px;""></stim_listA>",,html-keyboard-response,219,746061,0.0-15.0-1.12,97984,List1A,black,woman,,,,null,,,,,,,,,
null,is being hugged by,,html-keyboard-response,220,748084,0.0-15.0-2.12,97984,List1A,black,woman,,,,null,,,,,,,,,
5718.5,,,survey-text,221,753861,0.0-15.0-3.12,97984,List1A,black,woman,,,,,"{""Q0"":""Kate is being hugged by Mike. ""}","<img src=""stim_listA/hug2.gif""style=""height:400px;""></stim_listA>",is being hugged by,,,,,,
null,"<div style=""font-size:60px;"">+</div>",,html-keyboard-response,222,754374,0.0-15.0-0.13,97984,List1A,black,woman,,,,null,,,,,,,,,
null,"<img src=""stim_listA/hug3.gif""style=""height:400px;""></stim_listA>",,html-keyboard-response,223,756395,0.0-15.0-1.13,97984,List1A,black,woman,,,,null,,,,,,,,,
null,is hugging,,html-keyboard-response,224,758412,0.0-15.0-2.13,97984,List1A,black,woman,,,,null,,,,,,,,,
4377.7,,,survey-text,225,762815,0.0-15.0-3.13,97984,List1A,black,woman,,,,,"{""Q0"":""is blank blank""}","<img src=""stim_listA/hug3.gif""style=""height:400px;""></stim_listA>",is hugging,,,,,,
null,"<div style=""font-size:60px;"">+</div>",,html-keyboard-response,226,763325,0.0-15.0-0.14,97984,List1A,black,woman,,,,null,,,,,,,,,
null,"<img src=""stim_listA/copy5.gif""style=""height:400px;""></stim_listA>",,html-keyboard-response,227,765339,0.0-15.0-1.14,97984,List1A,black,woman,,,,null,,,,,,,,,
null,is copying,,html-keyboard-response,228,767355,0.0-15.0-2.14,97984,List1A,black,woman,,,,null,,,,,,,,,
6735.7,,,survey-text,229,774119,0.0-15.0-3.14,97984,List1A,black,woman,,,,,"{""Q0"":""Luke is copying Mike.""}","<img src=""stim_listA/copy5.gif""style=""height:400px;""></stim_listA>",is copying,,,,,,
null,"<div style=""font-size:60px;"">+</div>",,html-keyboard-response,230,774634,0.0-15.0-0.15,97984,List1A,black,woman,,,,null,,,,,,,,,
null,"<img src=""stim_listA/kiss3.gif""style=""height:400px;""></stim_listA>",,html-keyboard-response,231,776649,0.0-15.0-1.15,97984,List1A,black,woman,,,,null,,,,,,,,,
null,is kissing,,html-keyboard-response,232,778660,0.0-15.0-2.15,97984,List1A,black,woman,,,,null,,,,,,,,,
5804.8,,,survey-text,233,784496,0.0-15.0-3.15,97984,List1A,black,woman,,,,,"{""Q0"":""Ruth is kissing Luke. ""}","<img src=""stim_listA/kiss3.gif""style=""height:400px;""></stim_listA>",is kissing,,,,,,
null,"<div style=""font-size:60px;"">+</div>",,html-keyboard-response,234,785022,0.0-15.0-0.16,97984,List1A,black,woman,,,,null,,,,,,,,,
null,"<img src=""stim_listA/look7.gif""style=""height:400px;""></stim_listA>",,html-keyboard-response,235,787039,0.0-15.0-1.16,97984,List1A,black,woman,,,,null,,,,,,,,,
null,is looking at,,html-keyboard-response,236,789049,0.0-15.0-2.16,97984,List1A,black,woman,,,,null,,,,,,,,,
13077.6,,,survey-text,237,802154,0.0-15.0-3.16,97984,List1A,black,woman,,,,,"{""Q0"":""Beth is looking at Ruth. ""}","<img src=""stim_listA/look7.gif""style=""height:400px;""></stim_listA>",is looking at,,,,,,
null,"<div style=""font-size:60px;"">+</div>",,html-keyboard-response,238,802682,0.0-15.0-0.17,97984,List1A,black,woman,,,,null,,,,,,,,,
null,"<img src=""stim_listA/seduce3.gif""style=""height:400px;""></stim_listA>",,html-keyboard-response,239,804704,0.0-15.0-1.17,97984,List1A,black,woman,,,,null,,,,,,,,,
null,is seducing,,html-keyboard-response,240,806719,0.0-15.0-2.17,97984,List1A,black,woman,,,,null,,,,,,,,,
7215.6,,,survey-text,241,813943,0.0-15.0-3.17,97984,List1A,black,woman,,,,,"{""Q0"":""Jane is seducing Luke. ""}","<img src=""stim_listA/seduce3.gif""style=""height:400px;""></stim_listA>",is seducing,,,,,,
null,"<div style=""font-size:60px;"">+</div>",,html-keyboard-response,242,814461,0.0-15.0-0.18,97984,List1A,black,woman,,,,null,,,,,,,,,
null,"<img src=""stim_listA/kiss7.gif""style=""height:400px;""></stim_listA>",,html-keyboard-response,243,816481,0.0-15.0-1.18,97984,List1A,black,woman,,,,null,,,,,,,,,
null,is kissing,,html-keyboard-response,244,818491,0.0-15.0-2.18,97984,List1A,black,woman,,,,null,,,,,,,,,
8247.8,,,survey-text,245,826767,0.0-15.0-3.18,97984,List1A,black,woman,,,,,"{""Q0"":""Ruth is kissing Beth. ""}","<img src=""stim_listA/kiss7.gif""style=""height:400px;""></stim_listA>",is kissing,,,,,,
null,"<div style=""font-size:60px;"">+</div>",,html-keyboard-response,246,827284,0.0-15.0-0.19,97984,List1A,black,woman,,,,null,,,,,,,,,
null,"<img src=""stim_listA/shout6.gif""style=""height:400px;""></stim_listA>",,html-keyboard-response,247,829313,0.0-15.0-1.19,97984,List1A,black,woman,,,,null,,,,,,,,,
null,is being shouted at by,,html-keyboard-response,248,831334,0.0-15.0-2.19,97984,List1A,black,woman,,,,null,,,,,,,,,
6514.8,,,survey-text,249,837879,0.0-15.0-3.19,97984,List1A,black,woman,,,,,"{""Q0"":""Mike is being shouted at by Luke.""}","<img src=""stim_listA/shout6.gif""style=""height:400px;""></stim_listA>",is being shouted at by,,,,,,
8074.5,"<img src='img/portrait_matrix_list1.jpg' style='width:900px;height:500px;''></img><p>If you have memorised all the portraits and names and are ready to start, press Continue.</p><p><strong>Please note: Your memory of these faces will be tested 4 times during this experiment.</strong></p>",0,html-button-response,250,845967,0.0-16.0-0.0,97984,List1A,black,woman,,,,,,,,,,,,,
6032.3,"<img src=""portrait/BW1.jpg""style=""height:400px;""></img>",0,html-button-response,251,853017,0.0-16.0-1.0,97984,List1A,black,woman,,TRUE,0,,,,,,,,,,
null,CORRECT,,html-keyboard-response,252,854540,0.0-16.0-2.0-0.0,97984,List1A,black,woman,,,,null,,,,,,,,,
2236.2,"<img src=""portrait/WM2.jpg""style=""height:400px;""></img>",7,html-button-response,253,856793,0.0-16.0-4.0,97984,List1A,black,woman,,TRUE,7,,,,,,,,,,
107.3,CORRECT,,html-keyboard-response,254,858314,0.0-16.0-5.0-0.0,97984,List1A,black,woman,,,,174,,,,,,,,,
2322.8,"<img src=""portrait/WW1.jpg""style=""height:400px;""></img>",1,html-button-response,255,860644,0.0-16.0-7.0,97984,List1A,black,woman,,TRUE,1,,,,,,,,,,
null,CORRECT,,html-keyboard-response,256,862180,0.0-16.0-8.0-0.0,97984,List1A,black,woman,,,,null,,,,,,,,,
2320,"<img src=""portrait/BM2.jpg""style=""height:400px;""></img>",5,html-button-response,257,864514,0.0-16.0-10.0,97984,List1A,black,woman,,TRUE,5,,,,,,,,,,
null,CORRECT,,html-keyboard-response,258,866053,0.0-16.0-11.0-0.0,97984,List1A,black,woman,,,,null,,,,,,,,,
5794.6,"<img src=""portrait/BW2.jpg""style=""height:400px;""></img>",2,html-button-response,259,871860,0.0-16.0-13.0,97984,List1A,black,woman,,TRUE,2,,,,,,,,,,
null,CORRECT,,html-keyboard-response,260,873390,0.0-16.0-14.0-0.0,97984,List1A,black,woman,,,,null,,,,,,,,,
7353.1,"<img src=""portrait/WM1.jpg""style=""height:400px;""></img>",6,html-button-response,261,880750,0.0-16.0-16.0,97984,List1A,black,woman,,TRUE,6,,,,,,,,,,
null,CORRECT,,html-keyboard-response,262,882279,0.0-16.0-17.0-0.0,97984,List1A,black,woman,,,,null,,,,,,,,,
2235,"<img src=""portrait/WW2.jpg""style=""height:400px;""></img>",3,html-button-response,263,884519,0.0-16.0-19.0,97984,List1A,black,woman,,TRUE,3,,,,,,,,,,
null,CORRECT,,html-keyboard-response,264,886039,0.0-16.0-20.0-0.0,97984,List1A,black,woman,,,,null,,,,,,,,,
2255.7,"<img src=""portrait/BM1.jpg""style=""height:400px;""></img>",4,html-button-response,265,888299,0.0-16.0-22.0,97984,List1A,black,woman,,TRUE,4,,,,,,,,,,
null,CORRECT,,html-keyboard-response,266,889833,0.0-16.0-23.0-0.0,97984,List1A,black,woman,,,,null,,,,,,,,,
5281.1,<p>You got 8 out of 8 right first time. Press Continue.</p>,0,html-button-response,267,895132,0.0-16.0-25.0,97984,List1A,black,woman,,,,,,,,,,,,,
null,"<div style=""font-size:60px;"">+</div>",,html-keyboard-response,268,896659,0.0-17.0-0.0,97984,List1A,black,woman,,,,null,,,,,,,,,
null,"<img src=""stim_listA/shout4.gif""style=""height:400px;""></stim_listA>",,html-keyboard-response,269,898680,0.0-17.0-1.0,97984,List1A,black,woman,,,,null,,,,,,,,,
null,is being shouted at by,,html-keyboard-response,270,900694,0.0-17.0-2.0,97984,List1A,black,woman,,,,null,,,,,,,,,
6020.5,,,survey-text,271,906745,0.0-17.0-3.0,97984,List1A,black,woman,,,,,"{""Q0"":""Jane is being shouted at by Dave.""}","<img src=""stim_listA/shout4.gif""style=""height:400px;""></stim_listA>",is being shouted at by,,,,,,
null,"<div style=""font-size:60px;"">+</div>",,html-keyboard-response,272,907264,0.0-17.0-0.1,97984,List1A,black,woman,,,,null,,,,,,,,,
null,"<img src=""stim_listA/look4.gif""style=""height:400px;""></stim_listA>",,html-keyboard-response,273,909274,0.0-17.0-1.1,97984,List1A,black,woman,,,,null,,,,,,,,,
null,is being looked at by,,html-keyboard-response,274,911284,0.0-17.0-2.1,97984,List1A,black,woman,,,,null,,,,,,,,,
8239.2,,,survey-text,275,919554,0.0-17.0-3.1,97984,List1A,black,woman,,,,,"{""Q0"":""Jane is being looked at by Dave. ""}","<img src=""stim_listA/look4.gif""style=""height:400px;""></stim_listA>",is being looked at by,,,,,,
null,"<div style=""font-size:60px;"">+</div>",,html-keyboard-response,276,920090,0.0-17.0-0.2,97984,List1A,black,woman,,,,null,,,,,,,,,
null,"<img src=""stim_listA/copy1.gif""style=""height:400px;""></stim_listA>",,html-keyboard-response,277,922110,0.0-17.0-1.2,97984,List1A,black,woman,,,,null,,,,,,,,,
null,is copying,,html-keyboard-response,278,924114,0.0-17.0-2.2,97984,List1A,black,woman,,,,null,,,,,,,,,
4710.6,,,survey-text,279,928855,0.0-17.0-3.2,97984,List1A,black,woman,,,,,"{""Q0"":""Beth is copying mike. ""}","<img src=""stim_listA/copy1.gif""style=""height:400px;""></stim_listA>",is copying,,,,,,
null,"<div style=""font-size:60px;"">+</div>",,html-keyboard-response,280,929370,0.0-17.0-0.3,97984,List1A,black,woman,,,,null,,,,,,,,,
null,"<img src=""stim_listA/touch8.gif""style=""height:400px;""></stim_listA>",,html-keyboard-response,281,931380,0.0-17.0-1.3,97984,List1A,black,woman,,,,null,,,,,,,,,
null,is being touched by,,html-keyboard-response,282,933401,0.0-17.0-2.3,97984,List1A,black,woman,,,,null,,,,,,,,,
5174.4,,,survey-text,283,938605,0.0-17.0-3.3,97984,List1A,black,woman,,,,,"{""Q0"":""Ruth is being touched by beth.""}","<img src=""stim_listA/touch8.gif""style=""height:400px;""></stim_listA>",is being touched by,,,,,,
null,"<div style=""font-size:60px;"">+</div>",,html-keyboard-response,284,939143,0.0-17.0-0.4,97984,List1A,black,woman,,,,null,,,,,,,,,
null,"<img src=""stim_listA/touch1.gif""style=""height:400px;""></stim_listA>",,html-keyboard-response,285,941165,0.0-17.0-1.4,97984,List1A,black,woman,,,,null,,,,,,,,,
null,is touching,,html-keyboard-response,286,943185,0.0-17.0-2.4,97984,List1A,black,woman,,,,null,,,,,,,,,
9481.4,,,survey-text,287,952697,0.0-17.0-3.4,97984,List1A,black,woman,,,,,"{""Q0"":""Kate is touching Mike. ""}","<img src=""stim_listA/touch1.gif""style=""height:400px;""></stim_listA>",is touching,,,,,,
null,"<div style=""font-size:60px;"">+</div>",,html-keyboard-response,288,953227,0.0-17.0-0.5,97984,List1A,black,woman,,,,null,,,,,,,,,
null,"<img src=""stim_listA/hug4.gif""style=""height:400px;""></stim_listA>",,html-keyboard-response,289,955237,0.0-17.0-1.5,97984,List1A,black,woman,,,,null,,,,,,,,,
null,is being hugged by,,html-keyboard-response,290,957261,0.0-17.0-2.5,97984,List1A,black,woman,,,,null,,,,,,,,,
5552.3,,,survey-text,291,962846,0.0-17.0-3.5,97984,List1A,black,woman,,,,,"{""Q0"":""Jane is being hugged by Dave. ""}","<img src=""stim_listA/hug4.gif""style=""height:400px;""></stim_listA>",is being hugged by,,,,,,
null,"<div style=""font-size:60px;"">+</div>",,html-keyboard-response,292,963364,0.0-17.0-0.6,97984,List1A,black,woman,,,,null,,,,,,,,,
null,"<img src=""stim_listA/oppose4.gif""style=""height:400px;""></stim_listA>",,html-keyboard-response,293,965384,0.0-17.0-1.6,97984,List1A,black,woman,,,,null,,,,,,,,,
null,is being opposed by,,html-keyboard-response,294,967394,0.0-17.0-2.6,97984,List1A,black,woman,,,,null,,,,,,,,,
8853.4,,,survey-text,295,976274,0.0-17.0-3.6,97984,List1A,black,woman,,,,,"{""Q0"":""Luke is being opposed by jane. ""}","<img src=""stim_listA/oppose4.gif""style=""height:400px;""></stim_listA>",is being opposed by,,,,,,
null,"<div style=""font-size:60px;"">+</div>",,html-keyboard-response,296,976784,0.0-17.0-0.7,97984,List1A,black,woman,,,,null,,,,,,,,,
null,"<img src=""stim_listA/shout5.gif""style=""height:400px;""></stim_listA>",,html-keyboard-response,297,978795,0.0-17.0-1.7,97984,List1A,black,woman,,,,null,,,,,,,,,
null,is shouting at,,html-keyboard-response,298,980815,0.0-17.0-2.7,97984,List1A,black,woman,,,,null,,,,,,,,,
11417.1,,,survey-text,299,992263,0.0-17.0-3.7,97984,List1A,black,woman,,,,,"{""Q0"":""Fred is shouting at Luke. ""}","<img src=""stim_listA/shout5.gif""style=""height:400px;""></stim_listA>",is shouting at,,,,,,
null,"<div style=""font-size:60px;"">+</div>",,html-keyboard-response,300,992790,0.0-17.0-0.8,97984,List1A,black,woman,,,,null,,,,,,,,,
null,"<img src=""stim_listA/shout2.gif""style=""height:400px;""></stim_listA>",,html-keyboard-response,301,994805,0.0-17.0-1.8,97984,List1A,black,woman,,,,null,,,,,,,,,
null,is being shouted at by,,html-keyboard-response,302,996825,0.0-17.0-2.8,97984,List1A,black,woman,,,,null,,,,,,,,,
13571.4,,,survey-text,303,1010425,0.0-17.0-3.8,97984,List1A,black,woman,,,,,"{""Q0"":""Kate is being shouted at by Mike. ""}","<img src=""stim_listA/shout2.gif""style=""height:400px;""></stim_listA>",is being shouted at by,,,,,,
null,"<div style=""font-size:60px;"">+</div>",,html-keyboard-response,304,1010954,0.0-17.0-0.9,97984,List1A,black,woman,,,,null,,,,,,,,,
null,"<img src=""stim_listA/oppose5.gif""style=""height:400px;""></stim_listA>",,html-keyboard-response,305,1012965,0.0-17.0-1.9,97984,List1A,black,woman,,,,null,,,,,,,,,
null,is opposing,,html-keyboard-response,306,1014969,0.0-17.0-2.9,97984,List1A,black,woman,,,,null,,,,,,,,,
5156.9,,,survey-text,307,1020149,0.0-17.0-3.9,97984,List1A,black,woman,,,,,"{""Q0"":""Mike is opposing Dave. ""}","<img src=""stim_listA/oppose5.gif""style=""height:400px;""></stim_listA>",is opposing,,,,,,
null,"<div style=""font-size:60px;"">+</div>",,html-keyboard-response,308,1020660,0.0-17.0-0.10,97984,List1A,black,woman,,,,null,,,,,,,,,
null,"<img src=""stim_listA/shout7.gif""style=""height:400px;""></stim_listA>",,html-keyboard-response,309,1022669,0.0-17.0-1.10,97984,List1A,black,woman,,,,null,,,,,,,,,
null,is shouting at,,html-keyboard-response,310,1024684,0.0-17.0-2.10,97984,List1A,black,woman,,,,null,,,,,,,,,
4256.3,,,survey-text,311,1028971,0.0-17.0-3.10,97984,List1A,black,woman,,,,,"{""Q0"":""Beth is shouting at Ruth. ""}","<img src=""stim_listA/shout7.gif""style=""height:400px;""></stim_listA>",is shouting at,,,,,,
null,"<div style=""font-size:60px;"">+</div>",,html-keyboard-response,312,1029485,0.0-17.0-0.11,97984,List1A,black,woman,,,,null,,,,,,,,,
null,"<img src=""stim_listA/seduce5.gif""style=""height:400px;""></stim_listA>",,html-keyboard-response,313,1031501,0.0-17.0-1.11,97984,List1A,black,woman,,,,null,,,,,,,,,
null,is seducing,,html-keyboard-response,314,1033514,0.0-17.0-2.11,97984,List1A,black,woman,,,,null,,,,,,,,,
5230.3,,,survey-text,315,1038777,0.0-17.0-3.11,97984,List1A,black,woman,,,,,"{""Q0"":""Dave is seducing Fred. ""}","<img src=""stim_listA/seduce5.gif""style=""height:400px;""></stim_listA>",is seducing,,,,,,
null,"<div style=""font-size:60px;"">+</div>",,html-keyboard-response,316,1039292,0.0-17.0-0.12,97984,List1A,black,woman,,,,null,,,,,,,,,
null,"<img src=""stim_listA/seduce6.gif""style=""height:400px;""></stim_listA>",,html-keyboard-response,317,1041315,0.0-17.0-1.12,97984,List1A,black,woman,,,,null,,,,,,,,,
null,is being seduced by,,html-keyboard-response,318,1043324,0.0-17.0-2.12,97984,List1A,black,woman,,,,null,,,,,,,,,
5073.8,,,survey-text,319,1048431,0.0-17.0-3.12,97984,List1A,black,woman,,,,,"{""Q0"":""Luke is being seduced by Mike. ""}","<img src=""stim_listA/seduce6.gif""style=""height:400px;""></stim_listA>",is being seduced by,,,,,,
null,"<div style=""font-size:60px;"">+</div>",,html-keyboard-response,320,1048950,0.0-17.0-0.13,97984,List1A,black,woman,,,,null,,,,,,,,,
null,"<img src=""stim_listA/challenge4.gif""style=""height:400px;""></stim_listA>",,html-keyboard-response,321,1050970,0.0-17.0-1.13,97984,List1A,black,woman,,,,null,,,,,,,,,
null,is being challenged by,,html-keyboard-response,322,1052974,0.0-17.0-2.13,97984,List1A,black,woman,,,,null,,,,,,,,,
7204.6,,,survey-text,323,1060212,0.0-17.0-3.13,97984,List1A,black,woman,,,,,"{""Q0"":""Jane is being challenged by Luke. ""}","<img src=""stim_listA/challenge4.gif""style=""height:400px;""></stim_listA>",is being challenged by,,,,,,
null,"<div style=""font-size:60px;"">+</div>",,html-keyboard-response,324,1060741,0.0-17.0-0.14,97984,List1A,black,woman,,,,null,,,,,,,,,
null,"<img src=""stim_listA/copy2.gif""style=""height:400px;""></stim_listA>",,html-keyboard-response,325,1062750,0.0-17.0-1.14,97984,List1A,black,woman,,,,null,,,,,,,,,
null,is being copied by,,html-keyboard-response,326,1064764,0.0-17.0-2.14,97984,List1A,black,woman,,,,null,,,,,,,,,
18009.5,,,survey-text,327,1082808,0.0-17.0-3.14,97984,List1A,black,woman,,,,,"{""Q0"":""Kate is being copied by Fred. ""}","<img src=""stim_listA/copy2.gif""style=""height:400px;""></stim_listA>",is being copied by,,,,,,
null,"<div style=""font-size:60px;"">+</div>",,html-keyboard-response,328,1083336,0.0-17.0-0.15,97984,List1A,black,woman,,,,null,,,,,,,,,
null,"<img src=""stim_listA/copy7.gif""style=""height:400px;""></stim_listA>",,html-keyboard-response,329,1085360,0.0-17.0-1.15,97984,List1A,black,woman,,,,null,,,,,,,,,
null,is copying,,html-keyboard-response,330,1087374,0.0-17.0-2.15,97984,List1A,black,woman,,,,null,,,,,,,,,
10807.1,,,survey-text,331,1098212,0.0-17.0-3.15,97984,List1A,black,woman,,,,,"{""Q0"":""Kate is copying Ruth.""}","<img src=""stim_listA/copy7.gif""style=""height:400px;""></stim_listA>",is copying,,,,,,
null,"<div style=""font-size:60px;"">+</div>",,html-keyboard-response,332,1098733,0.0-17.0-0.16,97984,List1A,black,woman,,,,null,,,,,,,,,
null,"<img src=""stim_listA/challenge7.gif""style=""height:400px;""></stim_listA>",,html-keyboard-response,333,1100743,0.0-17.0-1.16,97984,List1A,black,woman,,,,null,,,,,,,,,
null,is challenging,,html-keyboard-response,334,1102753,0.0-17.0-2.16,97984,List1A,black,woman,,,,null,,,,,,,,,
10057.2,,,survey-text,335,1112834,0.0-17.0-3.16,97984,List1A,black,woman,,,,,"{""Q0"":""Kate is challenging Ruth. ""}","<img src=""stim_listA/challenge7.gif""style=""height:400px;""></stim_listA>",is challenging,,,,,,
null,"<div style=""font-size:60px;"">+</div>",,html-keyboard-response,336,1113349,0.0-17.0-0.17,97984,List1A,black,woman,,,,null,,,,,,,,,
null,"<img src=""stim_listA/copy6.gif""style=""height:400px;""></stim_listA>",,html-keyboard-response,337,1115359,0.0-17.0-1.17,97984,List1A,black,woman,,,,null,,,,,,,,,
null,is being copied by,,html-keyboard-response,338,1117379,0.0-17.0-2.17,97984,List1A,black,woman,,,,null,,,,,,,,,
8376.9,,,survey-text,339,1125789,0.0-17.0-3.17,97984,List1A,black,woman,,,,,"{""Q0"":""Fred is being copied by Dave.""}","<img src=""stim_listA/copy6.gif""style=""height:400px;""></stim_listA>",is being copied by,,,,,,
null,"<div style=""font-size:60px;"">+</div>",,html-keyboard-response,340,1126312,0.0-17.0-0.18,97984,List1A,black,woman,,,,null,,,,,,,,,
null,"<img src=""stim_listA/look1.gif""style=""height:400px;""></stim_listA>",,html-keyboard-response,341,1128329,0.0-17.0-1.18,97984,List1A,black,woman,,,,null,,,,,,,,,
null,is looking at,,html-keyboard-response,342,1130343,0.0-17.0-2.18,97984,List1A,black,woman,,,,null,,,,,,,,,
11089.8,,,survey-text,343,1141465,0.0-17.0-3.18,97984,List1A,black,woman,,,,,"{""Q0"":""Fred is looking at Beth. ""}","<img src=""stim_listA/look1.gif""style=""height:400px;""></stim_listA>",is looking at,,,,,,
null,"<div style=""font-size:60px;"">+</div>",,html-keyboard-response,344,1141993,0.0-17.0-0.19,97984,List1A,black,woman,,,,null,,,,,,,,,
null,"<img src=""stim_listA/hug1.gif""style=""height:400px;""></stim_listA>",,html-keyboard-response,345,1144013,0.0-17.0-1.19,97984,List1A,black,woman,,,,null,,,,,,,,,
null,is hugging,,html-keyboard-response,346,1146020,0.0-17.0-2.19,97984,List1A,black,woman,,,,null,,,,,,,,,
4673.6,,,survey-text,347,1150725,0.0-17.0-3.19,97984,List1A,black,woman,,,,,"{""Q0"":""Fred is hugging Beth. ""}","<img src=""stim_listA/hug1.gif""style=""height:400px;""></stim_listA>",is hugging,,,,,,
3306,"<img src='img/portrait_matrix_list1.jpg' style='width:900px;height:500px;''></img><p>If you have memorised all the portraits and names and are ready to start, press Continue.</p><p><strong>Please note: Your memory of these faces will be tested 4 times during this experiment.</strong></p>",0,html-button-response,348,1154055,0.0-18.0-0.0,97984,List1A,black,woman,,,,,,,,,,,,,
2272.5,"<img src=""portrait/BW2.jpg""style=""height:400px;""></img>",2,html-button-response,349,1157358,0.0-18.0-1.0,97984,List1A,black,woman,,TRUE,2,,,,,,,,,,
null,CORRECT,,html-keyboard-response,350,1158911,0.0-18.0-2.0-0.0,97984,List1A,black,woman,,,,null,,,,,,,,,
3000.1,"<img src=""portrait/WW1.jpg""style=""height:400px;""></img>",1,html-button-response,351,1161918,0.0-18.0-4.0,97984,List1A,black,woman,,TRUE,1,,,,,,,,,,
null,CORRECT,,html-keyboard-response,352,1163428,0.0-18.0-5.0-0.0,97984,List1A,black,woman,,,,null,,,,,,,,,
1958,"<img src=""portrait/BW1.jpg""style=""height:400px;""></img>",0,html-button-response,353,1165390,0.0-18.0-7.0,97984,List1A,black,woman,,TRUE,0,,,,,,,,,,
null,CORRECT,,html-keyboard-response,354,1166927,0.0-18.0-8.0-0.0,97984,List1A,black,woman,,,,null,,,,,,,,,
2264.3,"<img src=""portrait/WM1.jpg""style=""height:400px;""></img>",6,html-button-response,355,1169197,0.0-18.0-10.0,97984,List1A,black,woman,,TRUE,6,,,,,,,,,,
null,CORRECT,,html-keyboard-response,356,1170721,0.0-18.0-11.0-0.0,97984,List1A,black,woman,,,,null,,,,,,,,,
1475.5,"<img src=""portrait/BM2.jpg""style=""height:400px;""></img>",5,html-button-response,357,1172215,0.0-18.0-13.0,97984,List1A,black,woman,,TRUE,5,,,,,,,,,,
210,CORRECT,,html-keyboard-response,358,1173761,0.0-18.0-14.0-0.0,97984,List1A,black,woman,,,,175,,,,,,,,,
2030.6,"<img src=""portrait/WW2.jpg""style=""height:400px;""></img>",3,html-button-response,359,1175811,0.0-18.0-16.0,97984,List1A,black,woman,,TRUE,3,,,,,,,,,,
17.5,CORRECT,,html-keyboard-response,360,1177338,0.0-18.0-17.0-0.0,97984,List1A,black,woman,,,,175,,,,,,,,,
2765.3,"<img src=""portrait/WM2.jpg""style=""height:400px;""></img>",7,html-button-response,361,1180111,0.0-18.0-19.0,97984,List1A,black,woman,,TRUE,7,,,,,,,,,,
null,CORRECT,,html-keyboard-response,362,1181642,0.0-18.0-20.0-0.0,97984,List1A,black,woman,,,,null,,,,,,,,,
2507.9,"<img src=""portrait/BM1.jpg""style=""height:400px;""></img>",4,html-button-response,363,1184155,0.0-18.0-22.0,97984,List1A,black,woman,,TRUE,4,,,,,,,,,,
null,CORRECT,,html-keyboard-response,364,1185671,0.0-18.0-23.0-0.0,97984,List1A,black,woman,,,,null,,,,,,,,,
1486.7,<p>You got 8 out of 8 right first time. Press Continue.</p>,0,html-button-response,365,1187162,0.0-18.0-25.0,97984,List1A,black,woman,,,,,,,,,,,,,
null,"<div style=""font-size:60px;"">+</div>",,html-keyboard-response,366,1188711,0.0-19.0-0.0,97984,List1A,black,woman,,,,null,,,,,,,,,
null,"<img src=""stim_listA/seduce4.gif""style=""height:400px;""></stim_listA>",,html-keyboard-response,367,1190722,0.0-19.0-1.0,97984,List1A,black,woman,,,,null,,,,,,,,,
null,is being seduced by,,html-keyboard-response,368,1192731,0.0-19.0-2.0,97984,List1A,black,woman,,,,null,,,,,,,,,
6026.2,,,survey-text,369,1198785,0.0-19.0-3.0,97984,List1A,black,woman,,,,,"{""Q0"":""Jane is being seduced by Dave.""}","<img src=""stim_listA/seduce4.gif""style=""height:400px;""></stim_listA>",is being seduced by,,,,,,
null,"<div style=""font-size:60px;"">+</div>",,html-keyboard-response,370,1199312,0.0-19.0-0.1,97984,List1A,black,woman,,,,null,,,,,,,,,
null,"<img src=""stim_listA/copy3.gif""style=""height:400px;""></stim_listA>",,html-keyboard-response,371,1201332,0.0-19.0-1.1,97984,List1A,black,woman,,,,null,,,,,,,,,
null,is copying,,html-keyboard-response,372,1203337,0.0-19.0-2.1,97984,List1A,black,woman,,,,null,,,,,,,,,
5088,,,survey-text,373,1208454,0.0-19.0-3.1,97984,List1A,black,woman,,,,,"{""Q0"":""Ruth is copying Dave.""}","<img src=""stim_listA/copy3.gif""style=""height:400px;""></stim_listA>",is copying,,,,,,
null,"<div style=""font-size:60px;"">+</div>",,html-keyboard-response,374,1208973,0.0-19.0-0.2,97984,List1A,black,woman,,,,null,,,,,,,,,
null,"<img src=""stim_listA/oppose6.gif""style=""height:400px;""></stim_listA>",,html-keyboard-response,375,1210987,0.0-19.0-1.2,97984,List1A,black,woman,,,,null,,,,,,,,,
null,is being opposed by,,html-keyboard-response,376,1213001,0.0-19.0-2.2,97984,List1A,black,woman,,,,null,,,,,,,,,
6135.9,,,survey-text,377,1219166,0.0-19.0-3.2,97984,List1A,black,woman,,,,,"{""Q0"":""Luke is being opposed by Fred. ""}","<img src=""stim_listA/oppose6.gif""style=""height:400px;""></stim_listA>",is being opposed by,,,,,,
null,"<div style=""font-size:60px;"">+</div>",,html-keyboard-response,378,1219694,0.0-19.0-0.3,97984,List1A,black,woman,,,,null,,,,,,,,,
null,"<img src=""stim_listA/greet7.gif""style=""height:400px;""></stim_listA>",,html-keyboard-response,379,1221705,0.0-19.0-1.3,97984,List1A,black,woman,,,,null,,,,,,,,,
null,is greeting,,html-keyboard-response,380,1223715,0.0-19.0-2.3,97984,List1A,black,woman,,,,null,,,,,,,,,
3944.7,,,survey-text,381,1227686,0.0-19.0-3.3,97984,List1A,black,woman,,,,,"{""Q0"":""Kate is greeting Ruth. ""}","<img src=""stim_listA/greet7.gif""style=""height:400px;""></stim_listA>",is greeting,,,,,,
null,"<div style=""font-size:60px;"">+</div>",,html-keyboard-response,382,1228203,0.0-19.0-0.4,97984,List1A,black,woman,,,,null,,,,,,,,,
null,"<img src=""stim_listA/hug5.gif""style=""height:400px;""></stim_listA>",,html-keyboard-response,383,1230230,0.0-19.0-1.4,97984,List1A,black,woman,,,,null,,,,,,,,,
null,is hugging,,html-keyboard-response,384,1232244,0.0-19.0-2.4,97984,List1A,black,woman,,,,null,,,,,,,,,
7803.3,,,survey-text,385,1240080,0.0-19.0-3.4,97984,List1A,black,woman,,,,,"{""Q0"":""Luke is hugging Fred. ""}","<img src=""stim_listA/hug5.gif""style=""height:400px;""></stim_listA>",is hugging,,,,,,
null,"<div style=""font-size:60px;"">+</div>",,html-keyboard-response,386,1240606,0.0-19.0-0.5,97984,List1A,black,woman,,,,null,,,,,,,,,
null,"<img src=""stim_listA/look8.gif""style=""height:400px;""></stim_listA>",,html-keyboard-response,387,1242629,0.0-19.0-1.5,97984,List1A,black,woman,,,,null,,,,,,,,,
null,is being looked at by,,html-keyboard-response,388,1244644,0.0-19.0-2.5,97984,List1A,black,woman,,,,null,,,,,,,,,
9282.6,,,survey-text,389,1253962,0.0-19.0-3.5,97984,List1A,black,woman,,,,,"{""Q0"":""Jane is being looked at by Kate. ""}","<img src=""stim_listA/look8.gif""style=""height:400px;""></stim_listA>",is being looked at by,,,,,,
null,"<div style=""font-size:60px;"">+</div>",,html-keyboard-response,390,1254474,0.0-19.0-0.6,97984,List1A,black,woman,,,,null,,,,,,,,,
null,"<img src=""stim_listA/copy8.gif""style=""height:400px;""></stim_listA>",,html-keyboard-response,391,1256494,0.0-19.0-1.6,97984,List1A,black,woman,,,,null,,,,,,,,,
null,is being copied by,,html-keyboard-response,392,1258504,0.0-19.0-2.6,97984,List1A,black,woman,,,,null,,,,,,,,,
19576.3,,,survey-text,393,1278113,0.0-19.0-3.6,97984,List1A,black,woman,,,,,"{""Q0"":""Jane is being copied by Beth.""}","<img src=""stim_listA/copy8.gif""style=""height:400px;""></stim_listA>",is being copied by,,,,,,
null,"<div style=""font-size:60px;"">+</div>",,html-keyboard-response,394,1278634,0.0-19.0-0.7,97984,List1A,black,woman,,,,null,,,,,,,,,
null,"<img src=""stim_listA/greet6.gif""style=""height:400px;""></stim_listA>",,html-keyboard-response,395,1280655,0.0-19.0-1.7,97984,List1A,black,woman,,,,null,,,,,,,,,
null,is being greeted by,,html-keyboard-response,396,1282664,0.0-19.0-2.7,97984,List1A,black,woman,,,,null,,,,,,,,,
5456.4,,,survey-text,397,1288151,0.0-19.0-3.7,97984,List1A,black,woman,,,,,"{""Q0"":""Fred is being greeted by Dave. ""}","<img src=""stim_listA/greet6.gif""style=""height:400px;""></stim_listA>",is being greeted by,,,,,,
null,"<div style=""font-size:60px;"">+</div>",,html-keyboard-response,398,1288666,0.0-19.0-0.8,97984,List1A,black,woman,,,,null,,,,,,,,,
null,"<img src=""stim_listA/hug7.gif""style=""height:400px;""></stim_listA>",,html-keyboard-response,399,1290676,0.0-19.0-1.8,97984,List1A,black,woman,,,,null,,,,,,,,,
null,is hugging,,html-keyboard-response,400,1292694,0.0-19.0-2.8,97984,List1A,black,woman,,,,null,,,,,,,,,
6040.9,,,survey-text,401,1298759,0.0-19.0-3.8,97984,List1A,black,woman,,,,,"{""Q0"":""Beth is hugging Ruth. ""}","<img src=""stim_listA/hug7.gif""style=""height:400px;""></stim_listA>",is hugging,,,,,,
null,"<div style=""font-size:60px;"">+</div>",,html-keyboard-response,402,1299283,0.0-19.0-0.9,97984,List1A,black,woman,,,,null,,,,,,,,,
null,"<img src=""stim_listA/shout3.gif""style=""height:400px;""></stim_listA>",,html-keyboard-response,403,1301299,0.0-19.0-1.9,97984,List1A,black,woman,,,,null,,,,,,,,,
null,is shouting at,,html-keyboard-response,404,1303313,0.0-19.0-2.9,97984,List1A,black,woman,,,,null,,,,,,,,,
4727.7,,,survey-text,405,1308071,0.0-19.0-3.9,97984,List1A,black,woman,,,,,"{""Q0"":""Ruth is shouting at Luke. ""}","<img src=""stim_listA/shout3.gif""style=""height:400px;""></stim_listA>",is shouting at,,,,,,
null,"<div style=""font-size:60px;"">+</div>",,html-keyboard-response,406,1308595,0.0-19.0-0.10,97984,List1A,black,woman,,,,null,,,,,,,,,
null,"<img src=""stim_listA/greet4.gif""style=""height:400px;""></stim_listA>",,html-keyboard-response,407,1310599,0.0-19.0-1.10,97984,List1A,black,woman,,,,null,,,,,,,,,
null,is being greeted by,,html-keyboard-response,408,1312619,0.0-19.0-2.10,97984,List1A,black,woman,,,,null,,,,,,,,,
7835.7,,,survey-text,409,1320483,0.0-19.0-3.10,97984,List1A,black,woman,,,,,"{""Q0"":""Luke is being greeted by Jane/. ""}","<img src=""stim_listA/greet4.gif""style=""height:400px;""></stim_listA>",is being greeted by,,,,,,
null,"<div style=""font-size:60px;"">+</div>",,html-keyboard-response,410,1321014,0.0-19.0-0.11,97984,List1A,black,woman,,,,null,,,,,,,,,
null,"<img src=""stim_listA/greet5.gif""style=""height:400px;""></stim_listA>",,html-keyboard-response,411,1323035,0.0-19.0-1.11,97984,List1A,black,woman,,,,null,,,,,,,,,
null,is greeting,,html-keyboard-response,412,1325054,0.0-19.0-2.11,97984,List1A,black,woman,,,,null,,,,,,,,,
4351.3,,,survey-text,413,1329432,0.0-19.0-3.11,97984,List1A,black,woman,,,,,"{""Q0"":""Mike is greeting Luke. ""}","<img src=""stim_listA/greet5.gif""style=""height:400px;""></stim_listA>",is greeting,,,,,,
null,"<div style=""font-size:60px;"">+</div>",,html-keyboard-response,414,1329946,0.0-19.0-0.12,97984,List1A,black,woman,,,,null,,,,,,,,,
null,"<img src=""stim_listA/shout1.gif""style=""height:400px;""></stim_listA>",,html-keyboard-response,415,1331962,0.0-19.0-1.12,97984,List1A,black,woman,,,,null,,,,,,,,,
null,is shouting at,,html-keyboard-response,416,1333974,0.0-19.0-2.12,97984,List1A,black,woman,,,,null,,,,,,,,,
7117.8,,,survey-text,417,1341119,0.0-19.0-3.12,97984,List1A,black,woman,,,,,"{""Q0"":""Beth is shouting at Fred""}","<img src=""stim_listA/shout1.gif""style=""height:400px;""></stim_listA>",is shouting at,,,,,,
null,"<div style=""font-size:60px;"">+</div>",,html-keyboard-response,418,1341638,0.0-19.0-0.13,97984,List1A,black,woman,,,,null,,,,,,,,,
null,"<img src=""stim_listA/challenge1.gif""style=""height:400px;""></stim_listA>",,html-keyboard-response,419,1343653,0.0-19.0-1.13,97984,List1A,black,woman,,,,null,,,,,,,,,
null,is challenging,,html-keyboard-response,420,1345673,0.0-19.0-2.13,97984,List1A,black,woman,,,,null,,,,,,,,,
5588,,,survey-text,421,1351275,0.0-19.0-3.13,97984,List1A,black,woman,,,,,"{""Q0"":""Beth is challenging Mike.""}","<img src=""stim_listA/challenge1.gif""style=""height:400px;""></stim_listA>",is challenging,,,,,,
null,"<div style=""font-size:60px;"">+</div>",,html-keyboard-response,422,1351798,0.0-19.0-0.14,97984,List1A,black,woman,,,,null,,,,,,,,,
null,"<img src=""stim_listA/oppose8.gif""style=""height:400px;""></stim_listA>",,html-keyboard-response,423,1353808,0.0-19.0-1.14,97984,List1A,black,woman,,,,null,,,,,,,,,
null,is being opposed by,,html-keyboard-response,424,1355824,0.0-19.0-2.14,97984,List1A,black,woman,,,,null,,,,,,,,,
7568.6,,,survey-text,425,1363431,0.0-19.0-3.14,97984,List1A,black,woman,,,,,"{""Q0"":""Ruth is being challenged by Beth. ""}","<img src=""stim_listA/oppose8.gif""style=""height:400px;""></stim_listA>",is being opposed by,,,,,,
null,"<div style=""font-size:60px;"">+</div>",,html-keyboard-response,426,1363948,0.0-19.0-0.15,97984,List1A,black,woman,,,,null,,,,,,,,,
null,"<img src=""stim_listA/hug8.gif""style=""height:400px;""></stim_listA>",,html-keyboard-response,427,1365968,0.0-19.0-1.15,97984,List1A,black,woman,,,,null,,,,,,,,,
null,is being hugged by,,html-keyboard-response,428,1367973,0.0-19.0-2.15,97984,List1A,black,woman,,,,null,,,,,,,,,
12632.6,,,survey-text,429,1380636,0.0-19.0-3.15,97984,List1A,black,woman,,,,,"{""Q0"":""Kate is being hugged by Jane. ""}","<img src=""stim_listA/hug8.gif""style=""height:400px;""></stim_listA>",is being hugged by,,,,,,
null,"<div style=""font-size:60px;"">+</div>",,html-keyboard-response,430,1381164,0.0-19.0-0.16,97984,List1A,black,woman,,,,null,,,,,,,,,
null,"<img src=""stim_listA/greet3.gif""style=""height:400px;""></stim_listA>",,html-keyboard-response,431,1383183,0.0-19.0-1.16,97984,List1A,black,woman,,,,null,,,,,,,,,
null,is greeting,,html-keyboard-response,432,1385199,0.0-19.0-2.16,97984,List1A,black,woman,,,,null,,,,,,,,,
6097.5,,,survey-text,433,1391323,0.0-19.0-3.16,97984,List1A,black,woman,,,,,"{""Q0"":""Dave is greeting Ruth.""}","<img src=""stim_listA/greet3.gif""style=""height:400px;""></stim_listA>",is greeting,,,,,,
null,"<div style=""font-size:60px;"">+</div>",,html-keyboard-response,434,1391843,0.0-19.0-0.17,97984,List1A,black,woman,,,,null,,,,,,,,,
null,"<img src=""stim_listA/look5.gif""style=""height:400px;""></stim_listA>",,html-keyboard-response,435,1393859,0.0-19.0-1.17,97984,List1A,black,woman,,,,null,,,,,,,,,
null,is looking at,,html-keyboard-response,436,1395863,0.0-19.0-2.17,97984,List1A,black,woman,,,,null,,,,,,,,,
6950.6,,,survey-text,437,1402842,0.0-19.0-3.17,97984,List1A,black,woman,,,,,"{""Q0"":""Fred is looking at Luke. ""}","<img src=""stim_listA/look5.gif""style=""height:400px;""></stim_listA>",is looking at,,,,,,
null,"<div style=""font-size:60px;"">+</div>",,html-keyboard-response,438,1403350,0.0-19.0-0.18,97984,List1A,black,woman,,,,null,,,,,,,,,
null,"<img src=""stim_listA/look2.gif""style=""height:400px;""></stim_listA>",,html-keyboard-response,439,1405374,0.0-19.0-1.18,97984,List1A,black,woman,,,,null,,,,,,,,,
null,is being looked at by,,html-keyboard-response,440,1407394,0.0-19.0-2.18,97984,List1A,black,woman,,,,null,,,,,,,,,
39635.2,,,survey-text,441,1447065,0.0-19.0-3.18,97984,List1A,black,woman,,,,,"{""Q0"":""Mike is being looked at by Kate. ""}","<img src=""stim_listA/look2.gif""style=""height:400px;""></stim_listA>",is being looked at by,,,,,,
null,"<div style=""font-size:60px;"">+</div>",,html-keyboard-response,442,1447579,0.0-19.0-0.19,97984,List1A,black,woman,,,,null,,,,,,,,,
null,"<img src=""stim_listA/kiss2.gif""style=""height:400px;""></stim_listA>",,html-keyboard-response,443,1449589,0.0-19.0-1.19,97984,List1A,black,woman,,,,null,,,,,,,,,
null,is being kissed by,,html-keyboard-response,444,1451609,0.0-19.0-2.19,97984,List1A,black,woman,,,,null,,,,,,,,,
8665.6,,,survey-text,445,1460317,0.0-19.0-3.19,97984,List1A,black,woman,,,,,"{""Q0"":""Kate is being kissed by mike. ""}","<img src=""stim_listA/kiss2.gif""style=""height:400px;""></stim_listA>",is being kissed by,,,,,,
2860,<p>Thank you for completing that task.</p><p>The final part of this session is a questionnaire that will take about 4 minutes.</p><p>Press Continue.</p>,0,html-button-response,446,1463202,0.0-20.0,97984,List1A,black,woman,,,,,,,,,,,,,
24538.7,,,survey-text,447,1488814,0.0-21.0,97984,List1A,black,woman,,,,,"{""Q0"":""24"",""Q1"":""English"",""Q2"":""English"",""Q3"":""United States"",""Q4"":""American"",""Q5"":""black"",""Q6"":""female""}",,,demographics,,,,,
7985.4,<p>Have you lived in the USA for the last 5 years or more?</p>,0,html-button-response,448,1496832,0.0-22.0,97984,List1A,black,woman,,,,,,,,fiveyears,,,,,
26994.5,<p>Move the slider to show the extent to which you agree with the following statements.</p>,0,html-button-response,449,1524849,0.0-23.0,97984,List1A,black,woman,,,,,,,,,,,,,
4752.2,,,html-slider-response,450,1530626,0.0-24.0-0.0-0.0,97984,List1A,black,woman,,,,,,,,survey_race,79,,,"The older I get, the wiser I feel.",filler
3499.1,,,html-slider-response,451,1534138,0.0-24.0-0.0-0.1,97984,List1A,black,woman,,,,,,,,survey_race,55,,,I consider myself an extrovert.,filler
2925.8,,,html-slider-response,452,1537075,0.0-24.0-0.0-0.2,97984,List1A,black,woman,,,,,,,,survey_race,52,,,People of my race are very similar to each other.,verysimilar
3113.4,,,html-slider-response,453,1540196,0.0-24.0-0.0-0.3,97984,List1A,black,woman,,,,,,,,survey_race,100,,,I feel committed to my race.,committed
4552.2,,,html-slider-response,454,1544756,0.0-24.0-0.0-0.4,97984,List1A,black,woman,,,,,,,,survey_race,15,,,My age is not an important part of who I am.,filler
4273.8,,,html-slider-response,455,1549038,0.0-24.0-0.0-0.5,97984,List1A,black,woman,,,,,,,,survey_race,100,,,I am glad to be my age.,filler
2963.2,,,html-slider-response,456,1552011,0.0-24.0-0.0-0.6,97984,List1A,black,woman,,,,,,,,survey_race,100,,,I am glad to be the age I am.,filler
3805.6,,,html-slider-response,457,1555825,0.0-24.0-0.0-0.7,97984,List1A,black,woman,,,,,,,,survey_race,86,,,I consider myself an introvert.,filler
3156.5,,,html-slider-response,458,1558990,0.0-24.0-0.0-0.8,97984,List1A,black,woman,,,,,,,,survey_race,100,,,I often think about the fact that I am my race.,often
4010.1,,,html-slider-response,459,1563009,0.0-24.0-0.0-0.9,97984,List1A,black,woman,,,,,,,,survey_race,15,,,Getting older does not worry me.,filler
2947.3,,,html-slider-response,460,1565965,0.0-24.0-0.0-0.10,97984,List1A,black,woman,,,,,,,,survey_race,100,,,I think that my race has a lot to be proud of.,proud
4354.3,,,html-slider-response,461,1570327,0.0-24.0-0.0-0.11,97984,List1A,black,woman,,,,,,,,survey_race,100,,,People of my race have a lot in common with each other.,common
3497.8,,,html-slider-response,462,1573834,0.0-24.0-0.0-0.12,97984,List1A,black,woman,,,,,,,,survey_race,100,,,Being my race gives me a good feeling.,feeling
5138.5,,,html-slider-response,463,1578983,0.0-24.0-0.0-0.13,97984,List1A,black,woman,,,,,,,,survey_race,97,,,Being my age gives me a good feeling.,filler
3881,,,html-slider-response,464,1582873,0.0-24.0-0.0-0.14,97984,List1A,black,woman,,,,,,,,survey_race,81,,,I feel a bond with my race.,bond
3494.9,,,html-slider-response,465,1586376,0.0-24.0-0.0-0.15,97984,List1A,black,woman,,,,,,,,survey_race,100,,,People my age have a lot in common with each other.,filler
4035.8,,,html-slider-response,466,1590421,0.0-24.0-0.0-0.16,97984,List1A,black,woman,,,,,,,,survey_race,100,,,I am glad to be my race.,glad
5919.2,,,html-slider-response,467,1596350,0.0-24.0-0.0-0.17,97984,List1A,black,woman,,,,,,,,survey_race,91,,,I often think about the fact that I am my age.,filler
6764.7,,,html-slider-response,468,1603122,0.0-24.0-0.0-0.18,97984,List1A,black,woman,,,,,,,,survey_race,81,,,It is pleasant to be my race.,pleasant
3118.5,,,html-slider-response,469,1606252,0.0-24.0-0.0-0.19,97984,List1A,black,woman,,,,,,,,survey_race,68,,,I enjoy being in large groups.,filler
3817.1,,,html-slider-response,470,1610080,0.0-24.0-0.0-0.20,97984,List1A,black,woman,,,,,,,,survey_race,100,,,Being my race is an important part of how I see myself.,important
3515.6,,,html-slider-response,471,1613602,0.0-24.0-0.0-0.21,97984,List1A,black,woman,,,,,,,,survey_race,100,,,I feel solidarity with people the same age as me.,filler
3966.3,,,html-slider-response,472,1617578,0.0-24.0-0.0-0.22,97984,List1A,black,woman,,,,,,,,survey_race,81,,,I am similar to the average person of my race.,similar
4277.6,,,html-slider-response,473,1621864,0.0-24.0-0.0-0.23,97984,List1A,black,woman,,,,,,,,survey_race,79,,,I feel a bond with people the same age as me.,filler
4782.6,,,html-slider-response,474,1626655,0.0-24.0-0.0-0.24,97984,List1A,black,woman,,,,,,,,survey_race,100,,,The fact that I am my race is an important part of my identity.,identity
4624.6,,,html-slider-response,475,1631291,0.0-24.0-0.0-0.25,97984,List1A,black,woman,,,,,,,,survey_race,82,,,I have a lot in common with people of a similar age to me.,filler
3266.9,,,html-slider-response,476,1634564,0.0-24.0-0.0-0.26,97984,List1A,black,woman,,,,,,,,survey_race,100,,,I feel solidarity with my race.,solidarity
3600.5,,,html-slider-response,477,1638174,0.0-24.0-0.0-0.27,97984,List1A,black,woman,,,,,,,,survey_race,78,,,I have a lot in common with the average person of my race.,average
3019.2,,,html-slider-response,478,1641202,0.0-24.0-1.0-0.0,97984,List1A,black,woman,,,,,,,,survey_gender,100,,,I feel a bond with my gender.,bond
3940.7,,,html-slider-response,479,1645151,0.0-24.0-1.0-0.1,97984,List1A,black,woman,,,,,,,,survey_gender,79,,,My friends understand me.,filler
12040.9,,,html-slider-response,480,1657198,0.0-24.0-1.0-0.2,97984,List1A,black,woman,,,,,,,,survey_gender,58,,,I am similar to the average person of my gender.,similar
17546.1,,,html-slider-response,481,1674752,0.0-24.0-1.0-0.3,97984,List1A,black,woman,,,,,,,,survey_gender,99,,,I feel solidarity with my friends.,filler
5735.9,,,html-slider-response,482,1680498,0.0-24.0-1.0-0.4,97984,List1A,black,woman,,,,,,,,survey_gender,100,,,The fact that I am my gender is an important part of my identity.,identity
5236.2,,,html-slider-response,483,1685754,0.0-24.0-1.0-0.5,97984,List1A,black,woman,,,,,,,,survey_gender,85,,,Being my gender gives me a good feeling.,feeling
4496.5,,,html-slider-response,484,1690271,0.0-24.0-1.0-0.6,97984,List1A,black,woman,,,,,,,,survey_gender,59,,,Routine is not important to me.,filler
4367,,,html-slider-response,485,1694658,0.0-24.0-1.0-0.7,97984,List1A,black,woman,,,,,,,,survey_gender,70,,,I have a lot in common with the average person of my gender.,average
6061.9,,,html-slider-response,486,1700728,0.0-24.0-1.0-0.8,97984,List1A,black,woman,,,,,,,,survey_gender,100,,,I am glad to be my gender.,glad
3932.3,,,html-slider-response,487,1704666,0.0-24.0-1.0-0.9,97984,List1A,black,woman,,,,,,,,survey_gender,74,,,My friends have a lot in common with each other.,filler
3565.5,,,html-slider-response,488,1708251,0.0-24.0-1.0-0.10,97984,List1A,black,woman,,,,,,,,survey_gender,82,,,I consider myself a highly empathetic person.,filler
3677.6,,,html-slider-response,489,1711937,0.0-24.0-1.0-0.11,97984,List1A,black,woman,,,,,,,,survey_gender,87,,,I feel a bond with my friends.,filler
3701.2,,,html-slider-response,490,1715662,0.0-24.0-1.0-0.12,97984,List1A,black,woman,,,,,,,,survey_gender,100,,,I think that my gender has a lot to be proud of.,proud
2971.4,,,html-slider-response,491,1718661,0.0-24.0-1.0-0.13,97984,List1A,black,woman,,,,,,,,survey_gender,72,,,People of my gender are very similar to each other.,verysimilar
3242.1,,,html-slider-response,492,1721910,0.0-24.0-1.0-0.14,97984,List1A,black,woman,,,,,,,,survey_gender,100,,,I often think about the fact that I am my gender.,often
37345.4,,,html-slider-response,493,1759262,0.0-24.0-1.0-0.15,97984,List1A,black,woman,,,,,,,,survey_gender,66,,,People of my gender have a lot in common with each other.,common
9550.5,,,html-slider-response,494,1768823,0.0-24.0-1.0-0.16,97984,List1A,black,woman,,,,,,,,survey_gender,69,,,It is not always easy for people to know what I am thinking.,filler
4744.3,,,html-slider-response,495,1773578,0.0-24.0-1.0-0.17,97984,List1A,black,woman,,,,,,,,survey_gender,68,,,It is pleasant to be my gender.,pleasant
2798,,,html-slider-response,496,1776382,0.0-24.0-1.0-0.18,97984,List1A,black,woman,,,,,,,,survey_gender,81,,,I have a lot in common with my friends.,filler
8303.5,,,html-slider-response,497,1784708,0.0-24.0-1.0-0.19,97984,List1A,black,woman,,,,,,,,survey_gender,51,,,Family is not more important to me than friendship.,filler
2961.2,,,html-slider-response,498,1787692,0.0-24.0-1.0-0.20,97984,List1A,black,woman,,,,,,,,survey_gender,69,,,Most of the friends in my life are very similar to me.,filler
4091.9,,,html-slider-response,499,1791790,0.0-24.0-1.0-0.21,97984,List1A,black,woman,,,,,,,,survey_gender,100,,,Being my gender is an important part of how I see myself.,important
2966.6,,,html-slider-response,500,1794776,0.0-24.0-1.0-0.22,97984,List1A,black,woman,,,,,,,,survey_gender,100,,,I am glad to have the friends that I have.,filler
3749.2,,,html-slider-response,501,1798532,0.0-24.0-1.0-0.23,97984,List1A,black,woman,,,,,,,,survey_gender,99,,,Being around my friends gives me a good feeling.,filler
5362.6,,,html-slider-response,502,1803903,0.0-24.0-1.0-0.24,97984,List1A,black,woman,,,,,,,,survey_gender,72,,,I often think about my actions.,filler
5715.7,,,html-slider-response,503,1809632,0.0-24.0-1.0-0.25,97984,List1A,black,woman,,,,,,,,survey_gender,28,,,I would say I am an animal person.,filler
3616,,,html-slider-response,504,1813259,0.0-24.0-1.0-0.26,97984,List1A,black,woman,,,,,,,,survey_gender,70,,,I feel solidarity with my gender.,solidarity
4922.1,,,html-slider-response,505,1818201,0.0-24.0-1.0-0.27,97984,List1A,black,woman,,,,,,,,survey_gender,100,,,I feel committed to my gender.,committed
6579.8,,,survey-text,506,1824825,0.0-25.0,97984,List1A,black,woman,,,,,"{""Q0"":""ccc""}",,,worker_id,,,,,
4966.6,,,external-html,507,1831135,0.0-26.0,97984,List1A,black,woman,debrief.html,,,,,,,,,,,,
