rt,stimulus,button_pressed,trial_type,trial_index,time_elapsed,internal_node_id,subject,list,ppt_race,ppt_gender,url,first_guess,correct,key_press,responses,image_type,phrase_type,test_part,response,stimulus1,stimulus2,question_type,survey_item
25677.2,Welcome to the experiment. Press Continue to begin.,0,html-button-response,0,25680,0.0-0.0,98003,List1B,white,man,,,,,,,,,,,,,
10998.3,,,external-html,1,38002,0.0-1.0,98003,List1B,white,man,consent.html,,,,,,,,,,,,
11255.7,"<p>On the next page, you will see portraits of 8 people and their names.</p><p>Your first task is to take a few minutes to memorise the names of these people.</p><p>You will have to recall their names during the rest of the experiment, so it is</p><p>essential that you try to memorise these people and their names as best as you can.</p><br><p><strong>You will then be tested on your memory of these names and portraits.</strong></p><br><p>The experiment will start after you have completed this memory test.</p><br><p>Ready?</p>",0,html-button-response,2,49259,0.0-2.0,98003,List1B,white,man,,,,,,,,,,,,,
31194.9,"<img src='img/portrait_matrix_list1.jpg' style='width:900px;height:500px;''></img><p>If you have memorised all the portraits and names and are ready to start, press Continue.</p><p><strong>Please note: Your memory of these faces will be tested 4 times during this experiment.</strong></p>",0,html-button-response,3,81457,0.0-3.0-0.0,98003,List1B,white,man,,,,,,,,,,,,,
6274.9,"<img src=""portrait/WM2.jpg""style=""height:400px;""></img>",7,html-button-response,4,88736,0.0-3.0-1.0,98003,List1B,white,man,,TRUE,7,,,,,,,,,,
null,CORRECT,,html-keyboard-response,5,90250,0.0-3.0-2.0-0.0,98003,List1B,white,man,,,,null,,,,,,,,,
4615,"<img src=""portrait/WM1.jpg""style=""height:400px;""></img>",6,html-button-response,6,94867,0.0-3.0-4.0,98003,List1B,white,man,,TRUE,6,,,,,,,,,,
null,CORRECT,,html-keyboard-response,7,96384,0.0-3.0-5.0-0.0,98003,List1B,white,man,,,,null,,,,,,,,,
2742,"<img src=""portrait/WW2.jpg""style=""height:400px;""></img>",3,html-button-response,8,99127,0.0-3.0-7.0,98003,List1B,white,man,,TRUE,3,,,,,,,,,,
null,CORRECT,,html-keyboard-response,9,100629,0.0-3.0-8.0-0.0,98003,List1B,white,man,,,,null,,,,,,,,,
3012.8,"<img src=""portrait/BM2.jpg""style=""height:400px;""></img>",5,html-button-response,10,103644,0.0-3.0-10.0,98003,List1B,white,man,,TRUE,5,,,,,,,,,,
null,CORRECT,,html-keyboard-response,11,105167,0.0-3.0-11.0-0.0,98003,List1B,white,man,,,,null,,,,,,,,,
2142.7,"<img src=""portrait/BM1.jpg""style=""height:400px;""></img>",4,html-button-response,12,107311,0.0-3.0-13.0,98003,List1B,white,man,,TRUE,4,,,,,,,,,,
null,CORRECT,,html-keyboard-response,13,108815,0.0-3.0-14.0-0.0,98003,List1B,white,man,,,,null,,,,,,,,,
2885,"<img src=""portrait/BW2.jpg""style=""height:400px;""></img>",2,html-button-response,14,111702,0.0-3.0-16.0,98003,List1B,white,man,,TRUE,2,,,,,,,,,,
null,CORRECT,,html-keyboard-response,15,113204,0.0-3.0-17.0-0.0,98003,List1B,white,man,,,,null,,,,,,,,,
3344.8,"<img src=""portrait/BW1.jpg""style=""height:400px;""></img>",1,html-button-response,16,116550,0.0-3.0-19.0,98003,List1B,white,man,,TRUE,0,,,,,,,,,,
4719.9,"<img src=""portrait/BW1.jpg""style=""height:400px;""></img>",0,html-button-response,17,122285,0.0-3.0-21.0-0.0,98003,List1B,white,man,,FALSE,0,,,,,,,,,,
null,CORRECT,,html-keyboard-response,18,123804,0.0-3.0-21.0-1.0-0.0,98003,List1B,white,man,,,,null,,,,,,,,,
5593.9,"<img src=""portrait/WW1.jpg""style=""height:400px;""></img>",1,html-button-response,19,129399,0.0-3.0-22.0,98003,List1B,white,man,,TRUE,1,,,,,,,,,,
null,CORRECT,,html-keyboard-response,20,130914,0.0-3.0-23.0-0.0,98003,List1B,white,man,,,,null,,,,,,,,,
1915,<p>You got 7 out of 8 right first time. Press Continue.</p>,0,html-button-response,21,132831,0.0-3.0-25.0,98003,List1B,white,man,,,,,,,,,,,,,
3169.1,"As you did not score 100%, the memory game will repeat. Press Continue.",0,html-button-response,22,137006,0.0-3.0-26.0-0.0,98003,List1B,white,man,,,,,,,,,,,,,
1553,"<img src='img/portrait_matrix_list1.jpg' style='width:900px;height:500px;''></img><p>If you have memorised all the portraits and names and are ready to start, press Continue.</p><p><strong>Please note: Your memory of these faces will be tested 4 times during this experiment.</strong></p>",0,html-button-response,23,139568,0.0-3.1-0.1,98003,List1B,white,man,,,,,,,,,,,,,
2464.7,"<img src=""portrait/WM2.jpg""style=""height:400px;""></img>",7,html-button-response,24,143035,0.0-3.1-1.1,98003,List1B,white,man,,TRUE,7,,,,,,,,,,
null,CORRECT,,html-keyboard-response,25,144545,0.0-3.1-2.1-0.1,98003,List1B,white,man,,,,null,,,,,,,,,
3182.3,"<img src=""portrait/WM1.jpg""style=""height:400px;""></img>",6,html-button-response,26,147729,0.0-3.1-4.1,98003,List1B,white,man,,TRUE,6,,,,,,,,,,
null,CORRECT,,html-keyboard-response,27,149250,0.0-3.1-5.1-0.1,98003,List1B,white,man,,,,null,,,,,,,,,
2918.8,"<img src=""portrait/WW2.jpg""style=""height:400px;""></img>",3,html-button-response,28,152170,0.0-3.1-7.1,98003,List1B,white,man,,TRUE,3,,,,,,,,,,
null,CORRECT,,html-keyboard-response,29,153679,0.0-3.1-8.1-0.1,98003,List1B,white,man,,,,null,,,,,,,,,
2969.5,"<img src=""portrait/BM2.jpg""style=""height:400px;""></img>",5,html-button-response,30,156650,0.0-3.1-10.1,98003,List1B,white,man,,TRUE,5,,,,,,,,,,
null,CORRECT,,html-keyboard-response,31,158166,0.0-3.1-11.1-0.1,98003,List1B,white,man,,,,null,,,,,,,,,
2390.1,"<img src=""portrait/BM1.jpg""style=""height:400px;""></img>",4,html-button-response,32,160558,0.0-3.1-13.1,98003,List1B,white,man,,TRUE,4,,,,,,,,,,
null,CORRECT,,html-keyboard-response,33,162073,0.0-3.1-14.1-0.1,98003,List1B,white,man,,,,null,,,,,,,,,
3103.6,"<img src=""portrait/BW2.jpg""style=""height:400px;""></img>",2,html-button-response,34,165178,0.0-3.1-16.1,98003,List1B,white,man,,TRUE,2,,,,,,,,,,
null,CORRECT,,html-keyboard-response,35,166689,0.0-3.1-17.1-0.1,98003,List1B,white,man,,,,null,,,,,,,,,
2427.1,"<img src=""portrait/BW1.jpg""style=""height:400px;""></img>",0,html-button-response,36,169117,0.0-3.1-19.1,98003,List1B,white,man,,TRUE,0,,,,,,,,,,
null,CORRECT,,html-keyboard-response,37,170634,0.0-3.1-20.1-0.1,98003,List1B,white,man,,,,null,,,,,,,,,
798.5999999,"<img src=""portrait/WW1.jpg""style=""height:400px;""></img>",1,html-button-response,38,171435,0.0-3.1-22.1,98003,List1B,white,man,,TRUE,1,,,,,,,,,,
null,CORRECT,,html-keyboard-response,39,172937,0.0-3.1-23.1-0.1,98003,List1B,white,man,,,,null,,,,,,,,,
897.1999998,<p>You got 8 out of 8 right first time. Press Continue.</p>,0,html-button-response,40,173836,0.0-3.1-25.1,98003,List1B,white,man,,,,,,,,,,,,,
35311.1,"<p>In this experiment, you will view photographs of the people from the memory game interacting.</p><p>By using the <strong>exact</strong> phrase given <i>after</i> the photograph appears and recalling the correct names of the people in the photographs, form a sentence describing the interaction. You do not need to capitalise names.</p><p>Type your answer in the space provided. Please complete every sentence before moving onto the next trial.</p><p>You will only have a few seconds to memorise each given photograph and phrase before you can respond, so try your best to focus.</p><p>An example is given below. Press 'Continue' when you are ready.</p><img src='img/speaking_example.jpg' style='width:800px;height:460px;''></img>",0,html-button-response,41,210151,0.0-4.0,98003,List1B,white,man,,,,,,,,,,,,,
3173.2,"<p>Before the experiment starts, you will watch two example trials. Press 'Continue'.</p>",0,html-button-response,42,214341,0.0-5.0,98003,List1B,white,man,,,,,,,,,,,,,
null,<img src='img/play_eg.gif' style='height:400px;''></img>,,html-keyboard-response,43,217361,0.0-6.0,98003,List1B,white,man,,,,null,,,,,,,,,
null,<p>is playing with</p>,,html-keyboard-response,44,219375,0.0-7.0,98003,List1B,white,man,,,,null,,,,,,,,,
7241.5,<p><b>Answer:</b> kate is playing with beth</p>,0,html-button-response,45,226618,0.0-8.0,98003,List1B,white,man,,,,,,,,,,,,,
null,<img src='img/dance_eg.gif' style='height:400px;''></img>,,html-keyboard-response,46,229632,0.0-9.0,98003,List1B,white,man,,,,null,,,,,,,,,
null,<p>is being entertained by</p>,,html-keyboard-response,47,231634,0.0-10.0,98003,List1B,white,man,,,,null,,,,,,,,,
3268.4,<p><b>Answer:</b> luke is being entertained by dave</p>,0,html-button-response,48,234904,0.0-11.0,98003,List1B,white,man,,,,,,,,,,,,,
17730.3,"<p>Ready to start the experiment?</p><br><p><strong>Remember to describe the picture using a full sentence,</strong></p><p><strong>that combines the names of the people with the <i>exact</i> phrase given.</strong></p><p><strong>To receive full payment you must do this correctly.</strong></p><p><strong> You do not need to capitalise names or use punctuation.</strong></p><br><p>Press 'Continue' to begin.</p>",0,html-button-response,49,253649,0.0-12.0,98003,List1B,white,man,,,,,,,,,,,,,
null,"<div style=""font-size:60px;"">+</div>",,html-keyboard-response,50,255170,0.0-13.0-0.0,98003,List1B,white,man,,,,null,,,,,,,,,
null,"<img src=""stim_listB/greet1.gif""style=""height:400px;""></stim_listB>",,html-keyboard-response,51,257173,0.0-13.0-1.0,98003,List1B,white,man,,,,null,,,,,,,,,
null,is greeting,,html-keyboard-response,52,259175,0.0-13.0-2.0,98003,List1B,white,man,,,,null,,,,,,,,,
10302.1,,,survey-text,53,269485,0.0-13.0-3.0,98003,List1B,white,man,,,,,"{""Q0"":""Beth is greeting with Mike.""}","<img src=""stim_listB/greet1.gif""style=""height:400px;""></stim_listB>",is greeting,,,,,,
null,"<div style=""font-size:60px;"">+</div>",,html-keyboard-response,54,269987,0.0-13.0-0.1,98003,List1B,white,man,,,,null,,,,,,,,,
null,"<img src=""stim_listB/greet4.gif""style=""height:400px;""></stim_listB>",,html-keyboard-response,55,271988,0.0-13.0-1.1,98003,List1B,white,man,,,,null,,,,,,,,,
null,is being greeted by,,html-keyboard-response,56,273990,0.0-13.0-2.1,98003,List1B,white,man,,,,null,,,,,,,,,
10258.4,,,survey-text,57,284256,0.0-13.0-3.1,98003,List1B,white,man,,,,,"{""Q0"":""Jane is being greeted by Mike.""}","<img src=""stim_listB/greet4.gif""style=""height:400px;""></stim_listB>",is being greeted by,,,,,,
null,"<div style=""font-size:60px;"">+</div>",,html-keyboard-response,58,284770,0.0-13.0-0.2,98003,List1B,white,man,,,,null,,,,,,,,,
null,"<img src=""stim_listB/look5.gif""style=""height:400px;""></stim_listB>",,html-keyboard-response,59,286774,0.0-13.0-1.2,98003,List1B,white,man,,,,null,,,,,,,,,
null,is looking at,,html-keyboard-response,60,288791,0.0-13.0-2.2,98003,List1B,white,man,,,,null,,,,,,,,,
6122.7,,,survey-text,61,294922,0.0-13.0-3.2,98003,List1B,white,man,,,,,"{""Q0"":""Fred is looking at Luke.""}","<img src=""stim_listB/look5.gif""style=""height:400px;""></stim_listB>",is looking at,,,,,,
null,"<div style=""font-size:60px;"">+</div>",,html-keyboard-response,62,295432,0.0-13.0-0.3,98003,List1B,white,man,,,,null,,,,,,,,,
null,"<img src=""stim_listB/touch5.gif""style=""height:400px;""></stim_listB>",,html-keyboard-response,63,297437,0.0-13.0-1.3,98003,List1B,white,man,,,,null,,,,,,,,,
null,is touching,,html-keyboard-response,64,299442,0.0-13.0-2.3,98003,List1B,white,man,,,,null,,,,,,,,,
5967.2,,,survey-text,65,305415,0.0-13.0-3.3,98003,List1B,white,man,,,,,"{""Q0"":""Dave is touched Fred.""}","<img src=""stim_listB/touch5.gif""style=""height:400px;""></stim_listB>",is touching,,,,,,
null,"<div style=""font-size:60px;"">+</div>",,html-keyboard-response,66,305919,0.0-13.0-0.4,98003,List1B,white,man,,,,null,,,,,,,,,
null,"<img src=""stim_listB/oppose8.gif""style=""height:400px;""></stim_listB>",,html-keyboard-response,67,307921,0.0-13.0-1.4,98003,List1B,white,man,,,,null,,,,,,,,,
null,is being opposed by,,html-keyboard-response,68,309926,0.0-13.0-2.4,98003,List1B,white,man,,,,null,,,,,,,,,
11315.1,,,survey-text,69,321246,0.0-13.0-3.4,98003,List1B,white,man,,,,,"{""Q0"":""Ruth is being opposed by Beth.""}","<img src=""stim_listB/oppose8.gif""style=""height:400px;""></stim_listB>",is being opposed by,,,,,,
null,"<div style=""font-size:60px;"">+</div>",,html-keyboard-response,70,321754,0.0-13.0-0.5,98003,List1B,white,man,,,,null,,,,,,,,,
null,"<img src=""stim_listB/oppose5.gif""style=""height:400px;""></stim_listB>",,html-keyboard-response,71,323771,0.0-13.0-1.5,98003,List1B,white,man,,,,null,,,,,,,,,
null,is opposing,,html-keyboard-response,72,325774,0.0-13.0-2.5,98003,List1B,white,man,,,,null,,,,,,,,,
6501.9,,,survey-text,73,332277,0.0-13.0-3.5,98003,List1B,white,man,,,,,"{""Q0"":""Mike is opposing Dave.""}","<img src=""stim_listB/oppose5.gif""style=""height:400px;""></stim_listB>",is opposing,,,,,,
null,"<div style=""font-size:60px;"">+</div>",,html-keyboard-response,74,332779,0.0-13.0-0.6,98003,List1B,white,man,,,,null,,,,,,,,,
null,"<img src=""stim_listB/kiss3.gif""style=""height:400px;""></stim_listB>",,html-keyboard-response,75,334782,0.0-13.0-1.6,98003,List1B,white,man,,,,null,,,,,,,,,
null,is kissing,,html-keyboard-response,76,336784,0.0-13.0-2.6,98003,List1B,white,man,,,,null,,,,,,,,,
4690.9,,,survey-text,77,341480,0.0-13.0-3.6,98003,List1B,white,man,,,,,"{""Q0"":""Ruth is kissing Luke.""}","<img src=""stim_listB/kiss3.gif""style=""height:400px;""></stim_listB>",is kissing,,,,,,
null,"<div style=""font-size:60px;"">+</div>",,html-keyboard-response,78,341995,0.0-13.0-0.7,98003,List1B,white,man,,,,null,,,,,,,,,
null,"<img src=""stim_listB/look7.gif""style=""height:400px;""></stim_listB>",,html-keyboard-response,79,344012,0.0-13.0-1.7,98003,List1B,white,man,,,,null,,,,,,,,,
null,is looking at,,html-keyboard-response,80,346028,0.0-13.0-2.7,98003,List1B,white,man,,,,null,,,,,,,,,
5985,,,survey-text,81,352019,0.0-13.0-3.7,98003,List1B,white,man,,,,,"{""Q0"":""Ruth is looking at Beth.""}","<img src=""stim_listB/look7.gif""style=""height:400px;""></stim_listB>",is looking at,,,,,,
null,"<div style=""font-size:60px;"">+</div>",,html-keyboard-response,82,352520,0.0-13.0-0.8,98003,List1B,white,man,,,,null,,,,,,,,,
null,"<img src=""stim_listB/shout5.gif""style=""height:400px;""></stim_listB>",,html-keyboard-response,83,354524,0.0-13.0-1.8,98003,List1B,white,man,,,,null,,,,,,,,,
null,is shouting at,,html-keyboard-response,84,356537,0.0-13.0-2.8,98003,List1B,white,man,,,,null,,,,,,,,,
5337.3,,,survey-text,85,361880,0.0-13.0-3.8,98003,List1B,white,man,,,,,"{""Q0"":""Fred is shouting at Luke.""}","<img src=""stim_listB/shout5.gif""style=""height:400px;""></stim_listB>",is shouting at,,,,,,
null,"<div style=""font-size:60px;"">+</div>",,html-keyboard-response,86,362382,0.0-13.0-0.9,98003,List1B,white,man,,,,null,,,,,,,,,
null,"<img src=""stim_listB/greet6.gif""style=""height:400px;""></stim_listB>",,html-keyboard-response,87,364390,0.0-13.0-1.9,98003,List1B,white,man,,,,null,,,,,,,,,
null,is being greeted by,,html-keyboard-response,88,366394,0.0-13.0-2.9,98003,List1B,white,man,,,,null,,,,,,,,,
10372.2,,,survey-text,89,376772,0.0-13.0-3.9,98003,List1B,white,man,,,,,"{""Q0"":""Fred is being greeted by Dave.""}","<img src=""stim_listB/greet6.gif""style=""height:400px;""></stim_listB>",is being greeted by,,,,,,
null,"<div style=""font-size:60px;"">+</div>",,html-keyboard-response,90,377276,0.0-13.0-0.10,98003,List1B,white,man,,,,null,,,,,,,,,
null,"<img src=""stim_listB/oppose1.gif""style=""height:400px;""></stim_listB>",,html-keyboard-response,91,379278,0.0-13.0-1.10,98003,List1B,white,man,,,,null,,,,,,,,,
null,is opposing,,html-keyboard-response,92,381286,0.0-13.0-2.10,98003,List1B,white,man,,,,null,,,,,,,,,
4562,,,survey-text,93,385854,0.0-13.0-3.10,98003,List1B,white,man,,,,,"{""Q0"":""Kate is opposing Mike.""}","<img src=""stim_listB/oppose1.gif""style=""height:400px;""></stim_listB>",is opposing,,,,,,
null,"<div style=""font-size:60px;"">+</div>",,html-keyboard-response,94,386367,0.0-13.0-0.11,98003,List1B,white,man,,,,null,,,,,,,,,
null,"<img src=""stim_listB/copy3.gif""style=""height:400px;""></stim_listB>",,html-keyboard-response,95,388369,0.0-13.0-1.11,98003,List1B,white,man,,,,null,,,,,,,,,
null,is copying,,html-keyboard-response,96,390375,0.0-13.0-2.11,98003,List1B,white,man,,,,null,,,,,,,,,
9792.4,,,survey-text,97,400173,0.0-13.0-3.11,98003,List1B,white,man,,,,,"{""Q0"":""Ruth is Copying Luke.""}","<img src=""stim_listB/copy3.gif""style=""height:400px;""></stim_listB>",is copying,,,,,,
null,"<div style=""font-size:60px;"">+</div>",,html-keyboard-response,98,400678,0.0-13.0-0.12,98003,List1B,white,man,,,,null,,,,,,,,,
null,"<img src=""stim_listB/greet2.gif""style=""height:400px;""></stim_listB>",,html-keyboard-response,99,402683,0.0-13.0-1.12,98003,List1B,white,man,,,,null,,,,,,,,,
null,is being greeted by,,html-keyboard-response,100,404686,0.0-13.0-2.12,98003,List1B,white,man,,,,null,,,,,,,,,
6930.3,,,survey-text,101,411623,0.0-13.0-3.12,98003,List1B,white,man,,,,,"{""Q0"":""Fred is being greeting by Kate.""}","<img src=""stim_listB/greet2.gif""style=""height:400px;""></stim_listB>",is being greeted by,,,,,,
null,"<div style=""font-size:60px;"">+</div>",,html-keyboard-response,102,412127,0.0-13.0-0.13,98003,List1B,white,man,,,,null,,,,,,,,,
null,"<img src=""stim_listB/look6.gif""style=""height:400px;""></stim_listB>",,html-keyboard-response,103,414130,0.0-13.0-1.13,98003,List1B,white,man,,,,null,,,,,,,,,
null,is being looked at by,,html-keyboard-response,104,416133,0.0-13.0-2.13,98003,List1B,white,man,,,,null,,,,,,,,,
8362.3,,,survey-text,105,424501,0.0-13.0-3.13,98003,List1B,white,man,,,,,"{""Q0"":""Mike is being looked at by Dave.""}","<img src=""stim_listB/look6.gif""style=""height:400px;""></stim_listB>",is being looked at by,,,,,,
null,"<div style=""font-size:60px;"">+</div>",,html-keyboard-response,106,425006,0.0-13.0-0.14,98003,List1B,white,man,,,,null,,,,,,,,,
null,"<img src=""stim_listB/touch7.gif""style=""height:400px;""></stim_listB>",,html-keyboard-response,107,427009,0.0-13.0-1.14,98003,List1B,white,man,,,,null,,,,,,,,,
null,is touching,,html-keyboard-response,108,429011,0.0-13.0-2.14,98003,List1B,white,man,,,,null,,,,,,,,,
4588.5,,,survey-text,109,433605,0.0-13.0-3.14,98003,List1B,white,man,,,,,"{""Q0"":""Kate is touching Jane.""}","<img src=""stim_listB/touch7.gif""style=""height:400px;""></stim_listB>",is touching,,,,,,
null,"<div style=""font-size:60px;"">+</div>",,html-keyboard-response,110,434107,0.0-13.0-0.15,98003,List1B,white,man,,,,null,,,,,,,,,
null,"<img src=""stim_listB/hug5.gif""style=""height:400px;""></stim_listB>",,html-keyboard-response,111,436111,0.0-13.0-1.15,98003,List1B,white,man,,,,null,,,,,,,,,
null,is hugging,,html-keyboard-response,112,438117,0.0-13.0-2.15,98003,List1B,white,man,,,,null,,,,,,,,,
4539.9,,,survey-text,113,442664,0.0-13.0-3.15,98003,List1B,white,man,,,,,"{""Q0"":""Fred is hugging Luke.""}","<img src=""stim_listB/hug5.gif""style=""height:400px;""></stim_listB>",is hugging,,,,,,
null,"<div style=""font-size:60px;"">+</div>",,html-keyboard-response,114,443174,0.0-13.0-0.16,98003,List1B,white,man,,,,null,,,,,,,,,
null,"<img src=""stim_listB/challenge5.gif""style=""height:400px;""></stim_listB>",,html-keyboard-response,115,445179,0.0-13.0-1.16,98003,List1B,white,man,,,,null,,,,,,,,,
null,is challenging,,html-keyboard-response,116,447183,0.0-13.0-2.16,98003,List1B,white,man,,,,null,,,,,,,,,
5624.4,,,survey-text,117,452813,0.0-13.0-3.16,98003,List1B,white,man,,,,,"{""Q0"":""Luke is Challenging Mike.""}","<img src=""stim_listB/challenge5.gif""style=""height:400px;""></stim_listB>",is challenging,,,,,,
null,"<div style=""font-size:60px;"">+</div>",,html-keyboard-response,118,453320,0.0-13.0-0.17,98003,List1B,white,man,,,,null,,,,,,,,,
null,"<img src=""stim_listB/kiss4.gif""style=""height:400px;""></stim_listB>",,html-keyboard-response,119,455338,0.0-13.0-1.17,98003,List1B,white,man,,,,null,,,,,,,,,
null,is being kissed by,,html-keyboard-response,120,457344,0.0-13.0-2.17,98003,List1B,white,man,,,,null,,,,,,,,,
9119.5,,,survey-text,121,466466,0.0-13.0-3.17,98003,List1B,white,man,,,,,"{""Q0"":""Jane is being kissed by Dave.""}","<img src=""stim_listB/kiss4.gif""style=""height:400px;""></stim_listB>",is being kissed by,,,,,,
null,"<div style=""font-size:60px;"">+</div>",,html-keyboard-response,122,466974,0.0-13.0-0.18,98003,List1B,white,man,,,,null,,,,,,,,,
null,"<img src=""stim_listB/touch3.gif""style=""height:400px;""></stim_listB>",,html-keyboard-response,123,468978,0.0-13.0-1.18,98003,List1B,white,man,,,,null,,,,,,,,,
null,is touching,,html-keyboard-response,124,470994,0.0-13.0-2.18,98003,List1B,white,man,,,,null,,,,,,,,,
4391.7,,,survey-text,125,475391,0.0-13.0-3.18,98003,List1B,white,man,,,,,"{""Q0"":""Jane is touching Dave.""}","<img src=""stim_listB/touch3.gif""style=""height:400px;""></stim_listB>",is touching,,,,,,
null,"<div style=""font-size:60px;"">+</div>",,html-keyboard-response,126,475903,0.0-13.0-0.19,98003,List1B,white,man,,,,null,,,,,,,,,
null,"<img src=""stim_listB/challenge7.gif""style=""height:400px;""></stim_listB>",,html-keyboard-response,127,477906,0.0-13.0-1.19,98003,List1B,white,man,,,,null,,,,,,,,,
null,is challenging,,html-keyboard-response,128,479921,0.0-13.0-2.19,98003,List1B,white,man,,,,null,,,,,,,,,
9222.1,,,survey-text,129,489149,0.0-13.0-3.19,98003,List1B,white,man,,,,,"{""Q0"":""Kate is challenging Ruth.""}","<img src=""stim_listB/challenge7.gif""style=""height:400px;""></stim_listB>",is challenging,,,,,,
9536.2,"<img src='img/portrait_matrix_list1.jpg' style='width:900px;height:500px;''></img><p>If you have memorised all the portraits and names and are ready to start, press Continue.</p><p><strong>Please note: Your memory of these faces will be tested 4 times during this experiment.</strong></p>",0,html-button-response,130,498686,0.0-14.0-0.0,98003,List1B,white,man,,,,,,,,,,,,,
3323.7,"<img src=""portrait/WM1.jpg""style=""height:400px;""></img>",6,html-button-response,131,503012,0.0-14.0-1.0,98003,List1B,white,man,,TRUE,6,,,,,,,,,,
null,CORRECT,,html-keyboard-response,132,504524,0.0-14.0-2.0-0.0,98003,List1B,white,man,,,,null,,,,,,,,,
1677.2,"<img src=""portrait/WM2.jpg""style=""height:400px;""></img>",7,html-button-response,133,506203,0.0-14.0-4.0,98003,List1B,white,man,,TRUE,7,,,,,,,,,,
null,CORRECT,,html-keyboard-response,134,507721,0.0-14.0-5.0-0.0,98003,List1B,white,man,,,,null,,,,,,,,,
2159.1,"<img src=""portrait/BM1.jpg""style=""height:400px;""></img>",4,html-button-response,135,509882,0.0-14.0-7.0,98003,List1B,white,man,,TRUE,4,,,,,,,,,,
null,CORRECT,,html-keyboard-response,136,511396,0.0-14.0-8.0-0.0,98003,List1B,white,man,,,,null,,,,,,,,,
3325.3,"<img src=""portrait/BW1.jpg""style=""height:400px;""></img>",0,html-button-response,137,514723,0.0-14.0-10.0,98003,List1B,white,man,,TRUE,0,,,,,,,,,,
null,CORRECT,,html-keyboard-response,138,516227,0.0-14.0-11.0-0.0,98003,List1B,white,man,,,,null,,,,,,,,,
2471.1,"<img src=""portrait/BM2.jpg""style=""height:400px;""></img>",5,html-button-response,139,518700,0.0-14.0-13.0,98003,List1B,white,man,,TRUE,5,,,,,,,,,,
null,CORRECT,,html-keyboard-response,140,520219,0.0-14.0-14.0-0.0,98003,List1B,white,man,,,,null,,,,,,,,,
3377.2,"<img src=""portrait/BW2.jpg""style=""height:400px;""></img>",2,html-button-response,141,523598,0.0-14.0-16.0,98003,List1B,white,man,,TRUE,2,,,,,,,,,,
null,CORRECT,,html-keyboard-response,142,525115,0.0-14.0-17.0-0.0,98003,List1B,white,man,,,,null,,,,,,,,,
2364.1,"<img src=""portrait/WW2.jpg""style=""height:400px;""></img>",3,html-button-response,143,527481,0.0-14.0-19.0,98003,List1B,white,man,,TRUE,3,,,,,,,,,,
null,CORRECT,,html-keyboard-response,144,529004,0.0-14.0-20.0-0.0,98003,List1B,white,man,,,,null,,,,,,,,,
2520.9,"<img src=""portrait/WW1.jpg""style=""height:400px;""></img>",1,html-button-response,145,531526,0.0-14.0-22.0,98003,List1B,white,man,,TRUE,1,,,,,,,,,,
null,CORRECT,,html-keyboard-response,146,533037,0.0-14.0-23.0-0.0,98003,List1B,white,man,,,,null,,,,,,,,,
1847.4,<p>You got 8 out of 8 right first time. Press Continue.</p>,0,html-button-response,147,534887,0.0-14.0-25.0,98003,List1B,white,man,,,,,,,,,,,,,
null,"<div style=""font-size:60px;"">+</div>",,html-keyboard-response,148,536408,0.0-15.0-0.0,98003,List1B,white,man,,,,null,,,,,,,,,
null,"<img src=""stim_listB/touch4.gif""style=""height:400px;""></stim_listB>",,html-keyboard-response,149,538423,0.0-15.0-1.0,98003,List1B,white,man,,,,null,,,,,,,,,
null,is being touched by,,html-keyboard-response,150,540439,0.0-15.0-2.0,98003,List1B,white,man,,,,null,,,,,,,,,
8469,,,survey-text,151,548913,0.0-15.0-3.0,98003,List1B,white,man,,,,,"{""Q0"":""Luke is touching Ruth.""}","<img src=""stim_listB/touch4.gif""style=""height:400px;""></stim_listB>",is being touched by,,,,,,
null,"<div style=""font-size:60px;"">+</div>",,html-keyboard-response,152,549415,0.0-15.0-0.1,98003,List1B,white,man,,,,null,,,,,,,,,
null,"<img src=""stim_listB/shout2.gif""style=""height:400px;""></stim_listB>",,html-keyboard-response,153,551419,0.0-15.0-1.1,98003,List1B,white,man,,,,null,,,,,,,,,
null,is being shouted at by,,html-keyboard-response,154,553428,0.0-15.0-2.1,98003,List1B,white,man,,,,null,,,,,,,,,
5980.9,,,survey-text,155,559413,0.0-15.0-3.1,98003,List1B,white,man,,,,,"{""Q0"":""Mike is being shouted at by Kate.""}","<img src=""stim_listB/shout2.gif""style=""height:400px;""></stim_listB>",is being shouted at by,,,,,,
null,"<div style=""font-size:60px;"">+</div>",,html-keyboard-response,156,559926,0.0-15.0-0.2,98003,List1B,white,man,,,,null,,,,,,,,,
null,"<img src=""stim_listB/seduce8.gif""style=""height:400px;""></stim_listB>",,html-keyboard-response,157,561928,0.0-15.0-1.2,98003,List1B,white,man,,,,null,,,,,,,,,
null,is being seduced by,,html-keyboard-response,158,563931,0.0-15.0-2.2,98003,List1B,white,man,,,,null,,,,,,,,,
10205.1,,,survey-text,159,574142,0.0-15.0-3.2,98003,List1B,white,man,,,,,"{""Q0"":""Ruth is being seduced by Kate.""}","<img src=""stim_listB/seduce8.gif""style=""height:400px;""></stim_listB>",is being seduced by,,,,,,
null,"<div style=""font-size:60px;"">+</div>",,html-keyboard-response,160,574653,0.0-15.0-0.3,98003,List1B,white,man,,,,null,,,,,,,,,
null,"<img src=""stim_listB/touch8.gif""style=""height:400px;""></stim_listB>",,html-keyboard-response,161,576658,0.0-15.0-1.3,98003,List1B,white,man,,,,null,,,,,,,,,
null,is being touched by,,html-keyboard-response,162,578662,0.0-15.0-2.3,98003,List1B,white,man,,,,null,,,,,,,,,
6564,,,survey-text,163,585232,0.0-15.0-3.3,98003,List1B,white,man,,,,,"{""Q0"":""Beth is being touched by Ruth.""}","<img src=""stim_listB/touch8.gif""style=""height:400px;""></stim_listB>",is being touched by,,,,,,
null,"<div style=""font-size:60px;"">+</div>",,html-keyboard-response,164,585744,0.0-15.0-0.4,98003,List1B,white,man,,,,null,,,,,,,,,
null,"<img src=""stim_listB/copy5.gif""style=""height:400px;""></stim_listB>",,html-keyboard-response,165,587747,0.0-15.0-1.4,98003,List1B,white,man,,,,null,,,,,,,,,
null,is copying,,html-keyboard-response,166,589749,0.0-15.0-2.4,98003,List1B,white,man,,,,null,,,,,,,,,
5301.7,,,survey-text,167,595057,0.0-15.0-3.4,98003,List1B,white,man,,,,,"{""Q0"":""Luke is copying Mike.""}","<img src=""stim_listB/copy5.gif""style=""height:400px;""></stim_listB>",is copying,,,,,,
null,"<div style=""font-size:60px;"">+</div>",,html-keyboard-response,168,595564,0.0-15.0-0.5,98003,List1B,white,man,,,,null,,,,,,,,,
null,"<img src=""stim_listB/oppose2.gif""style=""height:400px;""></stim_listB>",,html-keyboard-response,169,597567,0.0-15.0-1.5,98003,List1B,white,man,,,,null,,,,,,,,,
null,is being opposed by,,html-keyboard-response,170,599571,0.0-15.0-2.5,98003,List1B,white,man,,,,null,,,,,,,,,
5463.7,,,survey-text,171,605040,0.0-15.0-3.5,98003,List1B,white,man,,,,,"{""Q0"":""Fred is being opposed by Beth.""}","<img src=""stim_listB/oppose2.gif""style=""height:400px;""></stim_listB>",is being opposed by,,,,,,
null,"<div style=""font-size:60px;"">+</div>",,html-keyboard-response,172,605544,0.0-15.0-0.6,98003,List1B,white,man,,,,null,,,,,,,,,
null,"<img src=""stim_listB/seduce5.gif""style=""height:400px;""></stim_listB>",,html-keyboard-response,173,607547,0.0-15.0-1.6,98003,List1B,white,man,,,,null,,,,,,,,,
null,is seducing,,html-keyboard-response,174,609552,0.0-15.0-2.6,98003,List1B,white,man,,,,null,,,,,,,,,
5478.3,,,survey-text,175,615037,0.0-15.0-3.6,98003,List1B,white,man,,,,,"{""Q0"":""Fred is seducing Dave.""}","<img src=""stim_listB/seduce5.gif""style=""height:400px;""></stim_listB>",is seducing,,,,,,
null,"<div style=""font-size:60px;"">+</div>",,html-keyboard-response,176,615545,0.0-15.0-0.7,98003,List1B,white,man,,,,null,,,,,,,,,
null,"<img src=""stim_listB/shout7.gif""style=""height:400px;""></stim_listB>",,html-keyboard-response,177,617550,0.0-15.0-1.7,98003,List1B,white,man,,,,null,,,,,,,,,
null,is shouting at,,html-keyboard-response,178,619553,0.0-15.0-2.7,98003,List1B,white,man,,,,null,,,,,,,,,
6378.9,,,survey-text,179,625938,0.0-15.0-3.7,98003,List1B,white,man,,,,,"{""Q0"":""Ruth is shouting at Beth.""}","<img src=""stim_listB/shout7.gif""style=""height:400px;""></stim_listB>",is shouting at,,,,,,
null,"<div style=""font-size:60px;"">+</div>",,html-keyboard-response,180,626448,0.0-15.0-0.8,98003,List1B,white,man,,,,null,,,,,,,,,
null,"<img src=""stim_listB/hug1.gif""style=""height:400px;""></stim_listB>",,html-keyboard-response,181,628451,0.0-15.0-1.8,98003,List1B,white,man,,,,null,,,,,,,,,
null,is hugging,,html-keyboard-response,182,630466,0.0-15.0-2.8,98003,List1B,white,man,,,,null,,,,,,,,,
4201.4,,,survey-text,183,634673,0.0-15.0-3.8,98003,List1B,white,man,,,,,"{""Q0"":""Fred is hugging Beth.""}","<img src=""stim_listB/hug1.gif""style=""height:400px;""></stim_listB>",is hugging,,,,,,
null,"<div style=""font-size:60px;"">+</div>",,html-keyboard-response,184,635186,0.0-15.0-0.9,98003,List1B,white,man,,,,null,,,,,,,,,
null,"<img src=""stim_listB/hug3.gif""style=""height:400px;""></stim_listB>",,html-keyboard-response,185,637188,0.0-15.0-1.9,98003,List1B,white,man,,,,null,,,,,,,,,
null,is hugging,,html-keyboard-response,186,639203,0.0-15.0-2.9,98003,List1B,white,man,,,,null,,,,,,,,,
4647.4,,,survey-text,187,643857,0.0-15.0-3.9,98003,List1B,white,man,,,,,"{""Q0"":""Ruth is hugging Luke.""}","<img src=""stim_listB/hug3.gif""style=""height:400px;""></stim_listB>",is hugging,,,,,,
null,"<div style=""font-size:60px;"">+</div>",,html-keyboard-response,188,644373,0.0-15.0-0.10,98003,List1B,white,man,,,,null,,,,,,,,,
null,"<img src=""stim_listB/touch2.gif""style=""height:400px;""></stim_listB>",,html-keyboard-response,189,646377,0.0-15.0-1.10,98003,List1B,white,man,,,,null,,,,,,,,,
null,is being touched by,,html-keyboard-response,190,648380,0.0-15.0-2.10,98003,List1B,white,man,,,,null,,,,,,,,,
5833.6,,,survey-text,191,654219,0.0-15.0-3.10,98003,List1B,white,man,,,,,"{""Q0"":""Fred is being touched by Beth.""}","<img src=""stim_listB/touch2.gif""style=""height:400px;""></stim_listB>",is being touched by,,,,,,
null,"<div style=""font-size:60px;"">+</div>",,html-keyboard-response,192,654735,0.0-15.0-0.11,98003,List1B,white,man,,,,null,,,,,,,,,
null,"<img src=""stim_listB/seduce3.gif""style=""height:400px;""></stim_listB>",,html-keyboard-response,193,656737,0.0-15.0-1.11,98003,List1B,white,man,,,,null,,,,,,,,,
null,is seducing,,html-keyboard-response,194,658742,0.0-15.0-2.11,98003,List1B,white,man,,,,null,,,,,,,,,
3818.6,,,survey-text,195,662567,0.0-15.0-3.11,98003,List1B,white,man,,,,,"{""Q0"":""Jane is seducing Luke.""}","<img src=""stim_listB/seduce3.gif""style=""height:400px;""></stim_listB>",is seducing,,,,,,
null,"<div style=""font-size:60px;"">+</div>",,html-keyboard-response,196,663069,0.0-15.0-0.12,98003,List1B,white,man,,,,null,,,,,,,,,
null,"<img src=""stim_listB/challenge8.gif""style=""height:400px;""></stim_listB>",,html-keyboard-response,197,665086,0.0-15.0-1.12,98003,List1B,white,man,,,,null,,,,,,,,,
null,is being challenged by,,html-keyboard-response,198,667091,0.0-15.0-2.12,98003,List1B,white,man,,,,null,,,,,,,,,
8222.8,,,survey-text,199,675320,0.0-15.0-3.12,98003,List1B,white,man,,,,,"{""Q0"":""Beth is being challenged by Jane.""}","<img src=""stim_listB/challenge8.gif""style=""height:400px;""></stim_listB>",is being challenged by,,,,,,
null,"<div style=""font-size:60px;"">+</div>",,html-keyboard-response,200,675834,0.0-15.0-0.13,98003,List1B,white,man,,,,null,,,,,,,,,
null,"<img src=""stim_listB/oppose4.gif""style=""height:400px;""></stim_listB>",,html-keyboard-response,201,677837,0.0-15.0-1.13,98003,List1B,white,man,,,,null,,,,,,,,,
null,is being opposed by,,html-keyboard-response,202,679849,0.0-15.0-2.13,98003,List1B,white,man,,,,null,,,,,,,,,
4883.1,,,survey-text,203,684736,0.0-15.0-3.13,98003,List1B,white,man,,,,,"{""Q0"":""Ruth is being opposed by Luke.""}","<img src=""stim_listB/oppose4.gif""style=""height:400px;""></stim_listB>",is being opposed by,,,,,,
null,"<div style=""font-size:60px;"">+</div>",,html-keyboard-response,204,685244,0.0-15.0-0.14,98003,List1B,white,man,,,,null,,,,,,,,,
null,"<img src=""stim_listB/greet3.gif""style=""height:400px;""></stim_listB>",,html-keyboard-response,205,687261,0.0-15.0-1.14,98003,List1B,white,man,,,,null,,,,,,,,,
null,is greeting,,html-keyboard-response,206,689266,0.0-15.0-2.14,98003,List1B,white,man,,,,null,,,,,,,,,
6714.2,,,survey-text,207,695986,0.0-15.0-3.14,98003,List1B,white,man,,,,,"{""Q0"":""Ruth is greeting Dave.""}","<img src=""stim_listB/greet3.gif""style=""height:400px;""></stim_listB>",is greeting,,,,,,
null,"<div style=""font-size:60px;"">+</div>",,html-keyboard-response,208,696490,0.0-15.0-0.15,98003,List1B,white,man,,,,null,,,,,,,,,
null,"<img src=""stim_listB/kiss6.gif""style=""height:400px;""></stim_listB>",,html-keyboard-response,209,698494,0.0-15.0-1.15,98003,List1B,white,man,,,,null,,,,,,,,,
null,is being kissed by,,html-keyboard-response,210,700509,0.0-15.0-2.15,98003,List1B,white,man,,,,null,,,,,,,,,
4604.2,,,survey-text,211,705119,0.0-15.0-3.15,98003,List1B,white,man,,,,,"{""Q0"":""Mike is being kissed by Dave.""}","<img src=""stim_listB/kiss6.gif""style=""height:400px;""></stim_listB>",is being kissed by,,,,,,
null,"<div style=""font-size:60px;"">+</div>",,html-keyboard-response,212,705633,0.0-15.0-0.16,98003,List1B,white,man,,,,null,,,,,,,,,
null,"<img src=""stim_listB/challenge3.gif""style=""height:400px;""></stim_listB>",,html-keyboard-response,213,707636,0.0-15.0-1.16,98003,List1B,white,man,,,,null,,,,,,,,,
null,is challenging,,html-keyboard-response,214,709640,0.0-15.0-2.16,98003,List1B,white,man,,,,null,,,,,,,,,
4483.8,,,survey-text,215,714130,0.0-15.0-3.16,98003,List1B,white,man,,,,,"{""Q0"":""Ruth is challenging Dave.""}","<img src=""stim_listB/challenge3.gif""style=""height:400px;""></stim_listB>",is challenging,,,,,,
null,"<div style=""font-size:60px;"">+</div>",,html-keyboard-response,216,714642,0.0-15.0-0.17,98003,List1B,white,man,,,,null,,,,,,,,,
null,"<img src=""stim_listB/copy8.gif""style=""height:400px;""></stim_listB>",,html-keyboard-response,217,716645,0.0-15.0-1.17,98003,List1B,white,man,,,,null,,,,,,,,,
null,is being copied by,,html-keyboard-response,218,718662,0.0-15.0-2.17,98003,List1B,white,man,,,,null,,,,,,,,,
7210.6,,,survey-text,219,725879,0.0-15.0-3.17,98003,List1B,white,man,,,,,"{""Q0"":""Beth is being copied by Jane.""}","<img src=""stim_listB/copy8.gif""style=""height:400px;""></stim_listB>",is being copied by,,,,,,
null,"<div style=""font-size:60px;"">+</div>",,html-keyboard-response,220,726384,0.0-15.0-0.18,98003,List1B,white,man,,,,null,,,,,,,,,
null,"<img src=""stim_listB/shout1.gif""style=""height:400px;""></stim_listB>",,html-keyboard-response,221,728387,0.0-15.0-1.18,98003,List1B,white,man,,,,null,,,,,,,,,
null,is shouting at,,html-keyboard-response,222,730397,0.0-15.0-2.18,98003,List1B,white,man,,,,null,,,,,,,,,
6435.4,,,survey-text,223,736840,0.0-15.0-3.18,98003,List1B,white,man,,,,,"{""Q0"":""Beth is shouting at Fred.""}","<img src=""stim_listB/shout1.gif""style=""height:400px;""></stim_listB>",is shouting at,,,,,,
null,"<div style=""font-size:60px;"">+</div>",,html-keyboard-response,224,737346,0.0-15.0-0.19,98003,List1B,white,man,,,,null,,,,,,,,,
null,"<img src=""stim_listB/copy4.gif""style=""height:400px;""></stim_listB>",,html-keyboard-response,225,739351,0.0-15.0-1.19,98003,List1B,white,man,,,,null,,,,,,,,,
null,is being copied by,,html-keyboard-response,226,741367,0.0-15.0-2.19,98003,List1B,white,man,,,,null,,,,,,,,,
6387.5,,,survey-text,227,747761,0.0-15.0-3.19,98003,List1B,white,man,,,,,"{""Q0"":""Luke is being copied by Jane.""}","<img src=""stim_listB/copy4.gif""style=""height:400px;""></stim_listB>",is being copied by,,,,,,
32399.1,"<img src='img/portrait_matrix_list1.jpg' style='width:900px;height:500px;''></img><p>If you have memorised all the portraits and names and are ready to start, press Continue.</p><p><strong>Please note: Your memory of these faces will be tested 4 times during this experiment.</strong></p>",0,html-button-response,228,780160,0.0-16.0-0.0,98003,List1B,white,man,,,,,,,,,,,,,
3088.4,"<img src=""portrait/BM2.jpg""style=""height:400px;""></img>",5,html-button-response,229,784261,0.0-16.0-1.0,98003,List1B,white,man,,TRUE,5,,,,,,,,,,
null,CORRECT,,html-keyboard-response,230,785773,0.0-16.0-2.0-0.0,98003,List1B,white,man,,,,null,,,,,,,,,
2082,"<img src=""portrait/WW1.jpg""style=""height:400px;""></img>",1,html-button-response,231,787856,0.0-16.0-4.0,98003,List1B,white,man,,TRUE,1,,,,,,,,,,
null,CORRECT,,html-keyboard-response,232,789379,0.0-16.0-5.0-0.0,98003,List1B,white,man,,,,null,,,,,,,,,
1801.8,"<img src=""portrait/WW2.jpg""style=""height:400px;""></img>",3,html-button-response,233,791182,0.0-16.0-7.0,98003,List1B,white,man,,TRUE,3,,,,,,,,,,
null,CORRECT,,html-keyboard-response,234,792694,0.0-16.0-8.0-0.0,98003,List1B,white,man,,,,null,,,,,,,,,
2781.2,"<img src=""portrait/BW2.jpg""style=""height:400px;""></img>",2,html-button-response,235,795476,0.0-16.0-10.0,98003,List1B,white,man,,TRUE,2,,,,,,,,,,
null,CORRECT,,html-keyboard-response,236,796985,0.0-16.0-11.0-0.0,98003,List1B,white,man,,,,null,,,,,,,,,
2724.3,"<img src=""portrait/BW1.jpg""style=""height:400px;""></img>",0,html-button-response,237,799711,0.0-16.0-13.0,98003,List1B,white,man,,TRUE,0,,,,,,,,,,
null,CORRECT,,html-keyboard-response,238,801216,0.0-16.0-14.0-0.0,98003,List1B,white,man,,,,null,,,,,,,,,
1794.4,"<img src=""portrait/WM2.jpg""style=""height:400px;""></img>",7,html-button-response,239,803012,0.0-16.0-16.0,98003,List1B,white,man,,TRUE,7,,,,,,,,,,
null,CORRECT,,html-keyboard-response,240,804527,0.0-16.0-17.0-0.0,98003,List1B,white,man,,,,null,,,,,,,,,
2602.2,"<img src=""portrait/BM1.jpg""style=""height:400px;""></img>",4,html-button-response,241,807131,0.0-16.0-19.0,98003,List1B,white,man,,TRUE,4,,,,,,,,,,
null,CORRECT,,html-keyboard-response,242,808648,0.0-16.0-20.0-0.0,98003,List1B,white,man,,,,null,,,,,,,,,
2953.2,"<img src=""portrait/WM1.jpg""style=""height:400px;""></img>",6,html-button-response,243,811603,0.0-16.0-22.0,98003,List1B,white,man,,TRUE,6,,,,,,,,,,
null,CORRECT,,html-keyboard-response,244,813125,0.0-16.0-23.0-0.0,98003,List1B,white,man,,,,null,,,,,,,,,
2622.4,<p>You got 8 out of 8 right first time. Press Continue.</p>,0,html-button-response,245,815749,0.0-16.0-25.0,98003,List1B,white,man,,,,,,,,,,,,,
null,"<div style=""font-size:60px;"">+</div>",,html-keyboard-response,246,817259,0.0-17.0-0.0,98003,List1B,white,man,,,,null,,,,,,,,,
null,"<img src=""stim_listB/copy6.gif""style=""height:400px;""></stim_listB>",,html-keyboard-response,247,819266,0.0-17.0-1.0,98003,List1B,white,man,,,,null,,,,,,,,,
null,is being copied by,,html-keyboard-response,248,821271,0.0-17.0-2.0,98003,List1B,white,man,,,,null,,,,,,,,,
6941.8,,,survey-text,249,828215,0.0-17.0-3.0,98003,List1B,white,man,,,,,"{""Q0"":""Fred is being copied by Dave.""}","<img src=""stim_listB/copy6.gif""style=""height:400px;""></stim_listB>",is being copied by,,,,,,
null,"<div style=""font-size:60px;"">+</div>",,html-keyboard-response,250,828721,0.0-17.0-0.1,98003,List1B,white,man,,,,null,,,,,,,,,
null,"<img src=""stim_listB/kiss8.gif""style=""height:400px;""></stim_listB>",,html-keyboard-response,251,830724,0.0-17.0-1.1,98003,List1B,white,man,,,,null,,,,,,,,,
null,is being kissed by,,html-keyboard-response,252,832741,0.0-17.0-2.1,98003,List1B,white,man,,,,null,,,,,,,,,
5302.5,,,survey-text,253,838049,0.0-17.0-3.1,98003,List1B,white,man,,,,,"{""Q0"":""Kate is being kissed by Jane.""}","<img src=""stim_listB/kiss8.gif""style=""height:400px;""></stim_listB>",is being kissed by,,,,,,
null,"<div style=""font-size:60px;"">+</div>",,html-keyboard-response,254,838557,0.0-17.0-0.2,98003,List1B,white,man,,,,null,,,,,,,,,
null,"<img src=""stim_listB/touch1.gif""style=""height:400px;""></stim_listB>",,html-keyboard-response,255,840562,0.0-17.0-1.2,98003,List1B,white,man,,,,null,,,,,,,,,
null,is touching,,html-keyboard-response,256,842577,0.0-17.0-2.2,98003,List1B,white,man,,,,null,,,,,,,,,
3799.3,,,survey-text,257,846382,0.0-17.0-3.2,98003,List1B,white,man,,,,,"{""Q0"":""Kate is touching Mike.""}","<img src=""stim_listB/touch1.gif""style=""height:400px;""></stim_listB>",is touching,,,,,,
null,"<div style=""font-size:60px;"">+</div>",,html-keyboard-response,258,846898,0.0-17.0-0.3,98003,List1B,white,man,,,,null,,,,,,,,,
null,"<img src=""stim_listB/hug6.gif""style=""height:400px;""></stim_listB>",,html-keyboard-response,259,848901,0.0-17.0-1.3,98003,List1B,white,man,,,,null,,,,,,,,,
null,is being hugged by,,html-keyboard-response,260,850916,0.0-17.0-2.3,98003,List1B,white,man,,,,null,,,,,,,,,
4974.7,,,survey-text,261,855897,0.0-17.0-3.3,98003,List1B,white,man,,,,,"{""Q0"":""Mike is being hugged by Dave.""}","<img src=""stim_listB/hug6.gif""style=""height:400px;""></stim_listB>",is being hugged by,,,,,,
null,"<div style=""font-size:60px;"">+</div>",,html-keyboard-response,262,856412,0.0-17.0-0.4,98003,List1B,white,man,,,,null,,,,,,,,,
null,"<img src=""stim_listB/hug4.gif""style=""height:400px;""></stim_listB>",,html-keyboard-response,263,858414,0.0-17.0-1.4,98003,List1B,white,man,,,,null,,,,,,,,,
null,is being hugged by,,html-keyboard-response,264,860425,0.0-17.0-2.4,98003,List1B,white,man,,,,null,,,,,,,,,
5591.8,,,survey-text,265,866023,0.0-17.0-3.4,98003,List1B,white,man,,,,,"{""Q0"":""Dave is being hugged by Jane.""}","<img src=""stim_listB/hug4.gif""style=""height:400px;""></stim_listB>",is being hugged by,,,,,,
null,"<div style=""font-size:60px;"">+</div>",,html-keyboard-response,266,866532,0.0-17.0-0.5,98003,List1B,white,man,,,,null,,,,,,,,,
null,"<img src=""stim_listB/look1.gif""style=""height:400px;""></stim_listB>",,html-keyboard-response,267,868534,0.0-17.0-1.5,98003,List1B,white,man,,,,null,,,,,,,,,
null,is looking at,,html-keyboard-response,268,870540,0.0-17.0-2.5,98003,List1B,white,man,,,,null,,,,,,,,,
4166.7,,,survey-text,269,874713,0.0-17.0-3.5,98003,List1B,white,man,,,,,"{""Q0"":""Fred is looking at Beth.""}","<img src=""stim_listB/look1.gif""style=""height:400px;""></stim_listB>",is looking at,,,,,,
null,"<div style=""font-size:60px;"">+</div>",,html-keyboard-response,270,875219,0.0-17.0-0.6,98003,List1B,white,man,,,,null,,,,,,,,,
null,"<img src=""stim_listB/shout4.gif""style=""height:400px;""></stim_listB>",,html-keyboard-response,271,877222,0.0-17.0-1.6,98003,List1B,white,man,,,,null,,,,,,,,,
null,is being shouted at by,,html-keyboard-response,272,879227,0.0-17.0-2.6,98003,List1B,white,man,,,,null,,,,,,,,,
6033,,,survey-text,273,885266,0.0-17.0-3.6,98003,List1B,white,man,,,,,"{""Q0"":""Dave is being shouted at by Jane.""}","<img src=""stim_listB/shout4.gif""style=""height:400px;""></stim_listB>",is being shouted at by,,,,,,
null,"<div style=""font-size:60px;"">+</div>",,html-keyboard-response,274,885774,0.0-17.0-0.7,98003,List1B,white,man,,,,null,,,,,,,,,
null,"<img src=""stim_listB/seduce6.gif""style=""height:400px;""></stim_listB>",,html-keyboard-response,275,887778,0.0-17.0-1.7,98003,List1B,white,man,,,,null,,,,,,,,,
null,is being seduced by,,html-keyboard-response,276,889786,0.0-17.0-2.7,98003,List1B,white,man,,,,null,,,,,,,,,
8667.8,,,survey-text,277,898460,0.0-17.0-3.7,98003,List1B,white,man,,,,,"{""Q0"":""Mike is being seduced by Luke.""}","<img src=""stim_listB/seduce6.gif""style=""height:400px;""></stim_listB>",is being seduced by,,,,,,
null,"<div style=""font-size:60px;"">+</div>",,html-keyboard-response,278,898965,0.0-17.0-0.8,98003,List1B,white,man,,,,null,,,,,,,,,
null,"<img src=""stim_listB/hug2.gif""style=""height:400px;""></stim_listB>",,html-keyboard-response,279,900968,0.0-17.0-1.8,98003,List1B,white,man,,,,null,,,,,,,,,
null,is being hugged by,,html-keyboard-response,280,902972,0.0-17.0-2.8,98003,List1B,white,man,,,,null,,,,,,,,,
7014.5,,,survey-text,281,909992,0.0-17.0-3.8,98003,List1B,white,man,,,,,"{""Q0"":""Mike is being hugged by Kate.""}","<img src=""stim_listB/hug2.gif""style=""height:400px;""></stim_listB>",is being hugged by,,,,,,
null,"<div style=""font-size:60px;"">+</div>",,html-keyboard-response,282,910494,0.0-17.0-0.9,98003,List1B,white,man,,,,null,,,,,,,,,
null,"<img src=""stim_listB/oppose7.gif""style=""height:400px;""></stim_listB>",,html-keyboard-response,283,912497,0.0-17.0-1.9,98003,List1B,white,man,,,,null,,,,,,,,,
null,is opposing,,html-keyboard-response,284,914502,0.0-17.0-2.9,98003,List1B,white,man,,,,null,,,,,,,,,
4792.2,,,survey-text,285,919300,0.0-17.0-3.9,98003,List1B,white,man,,,,,"{""Q0"":""Jane is opposing Kate.""}","<img src=""stim_listB/oppose7.gif""style=""height:400px;""></stim_listB>",is opposing,,,,,,
null,"<div style=""font-size:60px;"">+</div>",,html-keyboard-response,286,919816,0.0-17.0-0.10,98003,List1B,white,man,,,,null,,,,,,,,,
null,"<img src=""stim_listB/kiss2.gif""style=""height:400px;""></stim_listB>",,html-keyboard-response,287,921820,0.0-17.0-1.10,98003,List1B,white,man,,,,null,,,,,,,,,
null,is being kissed by,,html-keyboard-response,288,923836,0.0-17.0-2.10,98003,List1B,white,man,,,,null,,,,,,,,,
4974.7,,,survey-text,289,928817,0.0-17.0-3.10,98003,List1B,white,man,,,,,"{""Q0"":""Mike is being kissed by Kate.""}","<img src=""stim_listB/kiss2.gif""style=""height:400px;""></stim_listB>",is being kissed by,,,,,,
null,"<div style=""font-size:60px;"">+</div>",,html-keyboard-response,290,929328,0.0-17.0-0.11,98003,List1B,white,man,,,,null,,,,,,,,,
null,"<img src=""stim_listB/seduce2.gif""style=""height:400px;""></stim_listB>",,html-keyboard-response,291,931331,0.0-17.0-1.11,98003,List1B,white,man,,,,null,,,,,,,,,
null,is being seduced by,,html-keyboard-response,292,933334,0.0-17.0-2.11,98003,List1B,white,man,,,,null,,,,,,,,,
5220.7,,,survey-text,293,938561,0.0-17.0-3.11,98003,List1B,white,man,,,,,"{""Q0"":""Mike is being seduced by Beth.""}","<img src=""stim_listB/seduce2.gif""style=""height:400px;""></stim_listB>",is being seduced by,,,,,,
null,"<div style=""font-size:60px;"">+</div>",,html-keyboard-response,294,939076,0.0-17.0-0.12,98003,List1B,white,man,,,,null,,,,,,,,,
null,"<img src=""stim_listB/challenge6.gif""style=""height:400px;""></stim_listB>",,html-keyboard-response,295,941079,0.0-17.0-1.12,98003,List1B,white,man,,,,null,,,,,,,,,
null,is being challenged by,,html-keyboard-response,296,943083,0.0-17.0-2.12,98003,List1B,white,man,,,,null,,,,,,,,,
5569.2,,,survey-text,297,948658,0.0-17.0-3.12,98003,List1B,white,man,,,,,"{""Q0"":""Fred is challenging Dave.""}","<img src=""stim_listB/challenge6.gif""style=""height:400px;""></stim_listB>",is being challenged by,,,,,,
null,"<div style=""font-size:60px;"">+</div>",,html-keyboard-response,298,949162,0.0-17.0-0.13,98003,List1B,white,man,,,,null,,,,,,,,,
null,"<img src=""stim_listB/challenge2.gif""style=""height:400px;""></stim_listB>",,html-keyboard-response,299,951164,0.0-17.0-1.13,98003,List1B,white,man,,,,null,,,,,,,,,
null,is being challenged by,,html-keyboard-response,300,953177,0.0-17.0-2.13,98003,List1B,white,man,,,,null,,,,,,,,,
7978.6,,,survey-text,301,961163,0.0-17.0-3.13,98003,List1B,white,man,,,,,"{""Q0"":""Fred is being challenged by Kate.""}","<img src=""stim_listB/challenge2.gif""style=""height:400px;""></stim_listB>",is being challenged by,,,,,,
null,"<div style=""font-size:60px;"">+</div>",,html-keyboard-response,302,961678,0.0-17.0-0.14,98003,List1B,white,man,,,,null,,,,,,,,,
null,"<img src=""stim_listB/seduce7.gif""style=""height:400px;""></stim_listB>",,html-keyboard-response,303,963680,0.0-17.0-1.14,98003,List1B,white,man,,,,null,,,,,,,,,
null,is seducing,,html-keyboard-response,304,965686,0.0-17.0-2.14,98003,List1B,white,man,,,,null,,,,,,,,,
4271.7,,,survey-text,305,969963,0.0-17.0-3.14,98003,List1B,white,man,,,,,"{""Q0"":""Jane is seducing Beth.""}","<img src=""stim_listB/seduce7.gif""style=""height:400px;""></stim_listB>",is seducing,,,,,,
null,"<div style=""font-size:60px;"">+</div>",,html-keyboard-response,306,970471,0.0-17.0-0.15,98003,List1B,white,man,,,,null,,,,,,,,,
null,"<img src=""stim_listB/greet8.gif""style=""height:400px;""></stim_listB>",,html-keyboard-response,307,972473,0.0-17.0-1.15,98003,List1B,white,man,,,,null,,,,,,,,,
null,is being greeted by,,html-keyboard-response,308,974479,0.0-17.0-2.15,98003,List1B,white,man,,,,null,,,,,,,,,
8110.5,,,survey-text,309,982595,0.0-17.0-3.15,98003,List1B,white,man,,,,,"{""Q0"":""Beth is be greeted by Jane.""}","<img src=""stim_listB/greet8.gif""style=""height:400px;""></stim_listB>",is being greeted by,,,,,,
null,"<div style=""font-size:60px;"">+</div>",,html-keyboard-response,310,983111,0.0-17.0-0.16,98003,List1B,white,man,,,,null,,,,,,,,,
null,"<img src=""stim_listB/greet5.gif""style=""height:400px;""></stim_listB>",,html-keyboard-response,311,985113,0.0-17.0-1.16,98003,List1B,white,man,,,,null,,,,,,,,,
null,is greeting,,html-keyboard-response,312,987117,0.0-17.0-2.16,98003,List1B,white,man,,,,null,,,,,,,,,
4397.5,,,survey-text,313,991520,0.0-17.0-3.16,98003,List1B,white,man,,,,,"{""Q0"":""Luke is greeting Mike.""}","<img src=""stim_listB/greet5.gif""style=""height:400px;""></stim_listB>",is greeting,,,,,,
null,"<div style=""font-size:60px;"">+</div>",,html-keyboard-response,314,992027,0.0-17.0-0.17,98003,List1B,white,man,,,,null,,,,,,,,,
null,"<img src=""stim_listB/touch6.gif""style=""height:400px;""></stim_listB>",,html-keyboard-response,315,994035,0.0-17.0-1.17,98003,List1B,white,man,,,,null,,,,,,,,,
null,is being touched by,,html-keyboard-response,316,996039,0.0-17.0-2.17,98003,List1B,white,man,,,,null,,,,,,,,,
5011.9,,,survey-text,317,1001057,0.0-17.0-3.17,98003,List1B,white,man,,,,,"{""Q0"":""Fred is being touched by Luke.""}","<img src=""stim_listB/touch6.gif""style=""height:400px;""></stim_listB>",is being touched by,,,,,,
null,"<div style=""font-size:60px;"">+</div>",,html-keyboard-response,318,1001569,0.0-17.0-0.18,98003,List1B,white,man,,,,null,,,,,,,,,
null,"<img src=""stim_listB/hug7.gif""style=""height:400px;""></stim_listB>",,html-keyboard-response,319,1003572,0.0-17.0-1.18,98003,List1B,white,man,,,,null,,,,,,,,,
null,is hugging,,html-keyboard-response,320,1005573,0.0-17.0-2.18,98003,List1B,white,man,,,,null,,,,,,,,,
3761.9,,,survey-text,321,1009341,0.0-17.0-3.18,98003,List1B,white,man,,,,,"{""Q0"":""Ruth is hugging Beth.""}","<img src=""stim_listB/hug7.gif""style=""height:400px;""></stim_listB>",is hugging,,,,,,
null,"<div style=""font-size:60px;"">+</div>",,html-keyboard-response,322,1009850,0.0-17.0-0.19,98003,List1B,white,man,,,,null,,,,,,,,,
null,"<img src=""stim_listB/look2.gif""style=""height:400px;""></stim_listB>",,html-keyboard-response,323,1011856,0.0-17.0-1.19,98003,List1B,white,man,,,,null,,,,,,,,,
null,is being looked at by,,html-keyboard-response,324,1013858,0.0-17.0-2.19,98003,List1B,white,man,,,,null,,,,,,,,,
5337.5,,,survey-text,325,1019201,0.0-17.0-3.19,98003,List1B,white,man,,,,,"{""Q0"":""Mike is being looked at by Kate.""}","<img src=""stim_listB/look2.gif""style=""height:400px;""></stim_listB>",is being looked at by,,,,,,
3154.2,"<img src='img/portrait_matrix_list1.jpg' style='width:900px;height:500px;''></img><p>If you have memorised all the portraits and names and are ready to start, press Continue.</p><p><strong>Please note: Your memory of these faces will be tested 4 times during this experiment.</strong></p>",0,html-button-response,326,1022356,0.0-18.0-0.0,98003,List1B,white,man,,,,,,,,,,,,,
1664.9,"<img src=""portrait/WM2.jpg""style=""height:400px;""></img>",7,html-button-response,327,1025023,0.0-18.0-1.0,98003,List1B,white,man,,TRUE,7,,,,,,,,,,
null,CORRECT,,html-keyboard-response,328,1026539,0.0-18.0-2.0-0.0,98003,List1B,white,man,,,,null,,,,,,,,,
2611.1,"<img src=""portrait/BW2.jpg""style=""height:400px;""></img>",2,html-button-response,329,1029152,0.0-18.0-4.0,98003,List1B,white,man,,TRUE,2,,,,,,,,,,
null,CORRECT,,html-keyboard-response,330,1030673,0.0-18.0-5.0-0.0,98003,List1B,white,man,,,,null,,,,,,,,,
2748,"<img src=""portrait/BM2.jpg""style=""height:400px;""></img>",5,html-button-response,331,1033423,0.0-18.0-7.0,98003,List1B,white,man,,TRUE,5,,,,,,,,,,
null,CORRECT,,html-keyboard-response,332,1034929,0.0-18.0-8.0-0.0,98003,List1B,white,man,,,,null,,,,,,,,,
1853.8,"<img src=""portrait/WW2.jpg""style=""height:400px;""></img>",3,html-button-response,333,1036784,0.0-18.0-10.0,98003,List1B,white,man,,TRUE,3,,,,,,,,,,
null,CORRECT,,html-keyboard-response,334,1038286,0.0-18.0-11.0-0.0,98003,List1B,white,man,,,,null,,,,,,,,,
2107.8,"<img src=""portrait/WW1.jpg""style=""height:400px;""></img>",1,html-button-response,335,1040395,0.0-18.0-13.0,98003,List1B,white,man,,TRUE,1,,,,,,,,,,
null,CORRECT,,html-keyboard-response,336,1041913,0.0-18.0-14.0-0.0,98003,List1B,white,man,,,,null,,,,,,,,,
2223.1,"<img src=""portrait/BM1.jpg""style=""height:400px;""></img>",4,html-button-response,337,1044138,0.0-18.0-16.0,98003,List1B,white,man,,TRUE,4,,,,,,,,,,
null,CORRECT,,html-keyboard-response,338,1045647,0.0-18.0-17.0-0.0,98003,List1B,white,man,,,,null,,,,,,,,,
2872.9,"<img src=""portrait/BW1.jpg""style=""height:400px;""></img>",0,html-button-response,339,1048522,0.0-18.0-19.0,98003,List1B,white,man,,TRUE,0,,,,,,,,,,
null,CORRECT,,html-keyboard-response,340,1050025,0.0-18.0-20.0-0.0,98003,List1B,white,man,,,,null,,,,,,,,,
1748.1,"<img src=""portrait/WM1.jpg""style=""height:400px;""></img>",6,html-button-response,341,1051775,0.0-18.0-22.0,98003,List1B,white,man,,TRUE,6,,,,,,,,,,
null,CORRECT,,html-keyboard-response,342,1053282,0.0-18.0-23.0-0.0,98003,List1B,white,man,,,,null,,,,,,,,,
13128,<p>You got 8 out of 8 right first time. Press Continue.</p>,0,html-button-response,343,1066412,0.0-18.0-25.0,98003,List1B,white,man,,,,,,,,,,,,,
null,"<div style=""font-size:60px;"">+</div>",,html-keyboard-response,344,1067934,0.0-19.0-0.0,98003,List1B,white,man,,,,null,,,,,,,,,
null,"<img src=""stim_listB/challenge4.gif""style=""height:400px;""></stim_listB>",,html-keyboard-response,345,1069939,0.0-19.0-1.0,98003,List1B,white,man,,,,null,,,,,,,,,
null,is being challenged by,,html-keyboard-response,346,1071945,0.0-19.0-2.0,98003,List1B,white,man,,,,null,,,,,,,,,
6379.6,,,survey-text,347,1078330,0.0-19.0-3.0,98003,List1B,white,man,,,,,"{""Q0"":""Luke is being challenged by Jane.""}","<img src=""stim_listB/challenge4.gif""style=""height:400px;""></stim_listB>",is being challenged by,,,,,,
null,"<div style=""font-size:60px;"">+</div>",,html-keyboard-response,348,1078843,0.0-19.0-0.1,98003,List1B,white,man,,,,null,,,,,,,,,
null,"<img src=""stim_listB/seduce1.gif""style=""height:400px;""></stim_listB>",,html-keyboard-response,349,1080846,0.0-19.0-1.1,98003,List1B,white,man,,,,null,,,,,,,,,
null,is seducing,,html-keyboard-response,350,1082850,0.0-19.0-2.1,98003,List1B,white,man,,,,null,,,,,,,,,
4239.6,,,survey-text,351,1087096,0.0-19.0-3.1,98003,List1B,white,man,,,,,"{""Q0"":""Fred is seducing Kate.""}","<img src=""stim_listB/seduce1.gif""style=""height:400px;""></stim_listB>",is seducing,,,,,,
null,"<div style=""font-size:60px;"">+</div>",,html-keyboard-response,352,1087611,0.0-19.0-0.2,98003,List1B,white,man,,,,null,,,,,,,,,
null,"<img src=""stim_listB/challenge1.gif""style=""height:400px;""></stim_listB>",,html-keyboard-response,353,1089613,0.0-19.0-1.2,98003,List1B,white,man,,,,null,,,,,,,,,
null,is challenging,,html-keyboard-response,354,1091617,0.0-19.0-2.2,98003,List1B,white,man,,,,null,,,,,,,,,
4283.7,,,survey-text,355,1095907,0.0-19.0-3.2,98003,List1B,white,man,,,,,"{""Q0"":""Beth is challenging Mike.""}","<img src=""stim_listB/challenge1.gif""style=""height:400px;""></stim_listB>",is challenging,,,,,,
null,"<div style=""font-size:60px;"">+</div>",,html-keyboard-response,356,1096415,0.0-19.0-0.3,98003,List1B,white,man,,,,null,,,,,,,,,
null,"<img src=""stim_listB/hug8.gif""style=""height:400px;""></stim_listB>",,html-keyboard-response,357,1098418,0.0-19.0-1.3,98003,List1B,white,man,,,,null,,,,,,,,,
null,is being hugged by,,html-keyboard-response,358,1100426,0.0-19.0-2.3,98003,List1B,white,man,,,,null,,,,,,,,,
6861.9,,,survey-text,359,1107294,0.0-19.0-3.3,98003,List1B,white,man,,,,,"{""Q0"":""Kate is being hugged by Jane.""}","<img src=""stim_listB/hug8.gif""style=""height:400px;""></stim_listB>",is being hugged by,,,,,,
null,"<div style=""font-size:60px;"">+</div>",,html-keyboard-response,360,1107800,0.0-19.0-0.4,98003,List1B,white,man,,,,null,,,,,,,,,
null,"<img src=""stim_listB/seduce4.gif""style=""height:400px;""></stim_listB>",,html-keyboard-response,361,1109802,0.0-19.0-1.4,98003,List1B,white,man,,,,null,,,,,,,,,
null,is being seduced by,,html-keyboard-response,362,1111804,0.0-19.0-2.4,98003,List1B,white,man,,,,null,,,,,,,,,
8357.9,,,survey-text,363,1120168,0.0-19.0-3.4,98003,List1B,white,man,,,,,"{""Q0"":""Dave is being seduced by Ruth.""}","<img src=""stim_listB/seduce4.gif""style=""height:400px;""></stim_listB>",is being seduced by,,,,,,
null,"<div style=""font-size:60px;"">+</div>",,html-keyboard-response,364,1120675,0.0-19.0-0.5,98003,List1B,white,man,,,,null,,,,,,,,,
null,"<img src=""stim_listB/look4.gif""style=""height:400px;""></stim_listB>",,html-keyboard-response,365,1122678,0.0-19.0-1.5,98003,List1B,white,man,,,,null,,,,,,,,,
null,is being looked at by,,html-keyboard-response,366,1124682,0.0-19.0-2.5,98003,List1B,white,man,,,,null,,,,,,,,,
6930.6,,,survey-text,367,1131618,0.0-19.0-3.5,98003,List1B,white,man,,,,,"{""Q0"":""Dave is being looked at by Jane.""}","<img src=""stim_listB/look4.gif""style=""height:400px;""></stim_listB>",is being looked at by,,,,,,
null,"<div style=""font-size:60px;"">+</div>",,html-keyboard-response,368,1132132,0.0-19.0-0.6,98003,List1B,white,man,,,,null,,,,,,,,,
null,"<img src=""stim_listB/shout3.gif""style=""height:400px;""></stim_listB>",,html-keyboard-response,369,1134136,0.0-19.0-1.6,98003,List1B,white,man,,,,null,,,,,,,,,
null,is shouting at,,html-keyboard-response,370,1136153,0.0-19.0-2.6,98003,List1B,white,man,,,,null,,,,,,,,,
4703.4,,,survey-text,371,1140864,0.0-19.0-3.6,98003,List1B,white,man,,,,,"{""Q0"":""Ruth is shouting at Luke.""}","<img src=""stim_listB/shout3.gif""style=""height:400px;""></stim_listB>",is shouting at,,,,,,
null,"<div style=""font-size:60px;"">+</div>",,html-keyboard-response,372,1141370,0.0-19.0-0.7,98003,List1B,white,man,,,,null,,,,,,,,,
null,"<img src=""stim_listB/copy7.gif""style=""height:400px;""></stim_listB>",,html-keyboard-response,373,1143380,0.0-19.0-1.7,98003,List1B,white,man,,,,null,,,,,,,,,
null,is copying,,html-keyboard-response,374,1145397,0.0-19.0-2.7,98003,List1B,white,man,,,,null,,,,,,,,,
3576.6,,,survey-text,375,1148979,0.0-19.0-3.7,98003,List1B,white,man,,,,,"{""Q0"":""Ruth is copying Kate.""}","<img src=""stim_listB/copy7.gif""style=""height:400px;""></stim_listB>",is copying,,,,,,
null,"<div style=""font-size:60px;"">+</div>",,html-keyboard-response,376,1149486,0.0-19.0-0.8,98003,List1B,white,man,,,,null,,,,,,,,,
null,"<img src=""stim_listB/shout6.gif""style=""height:400px;""></stim_listB>",,html-keyboard-response,377,1151494,0.0-19.0-1.8,98003,List1B,white,man,,,,null,,,,,,,,,
null,is being shouted at by,,html-keyboard-response,378,1153498,0.0-19.0-2.8,98003,List1B,white,man,,,,null,,,,,,,,,
6567.9,,,survey-text,379,1160071,0.0-19.0-3.8,98003,List1B,white,man,,,,,"{""Q0"":""Mike is being shouted at by Dave.""}","<img src=""stim_listB/shout6.gif""style=""height:400px;""></stim_listB>",is being shouted at by,,,,,,
null,"<div style=""font-size:60px;"">+</div>",,html-keyboard-response,380,1160572,0.0-19.0-0.9,98003,List1B,white,man,,,,null,,,,,,,,,
null,"<img src=""stim_listB/kiss1.gif""style=""height:400px;""></stim_listB>",,html-keyboard-response,381,1162575,0.0-19.0-1.9,98003,List1B,white,man,,,,null,,,,,,,,,
null,is kissing,,html-keyboard-response,382,1164580,0.0-19.0-2.9,98003,List1B,white,man,,,,null,,,,,,,,,
3396.4,,,survey-text,383,1167982,0.0-19.0-3.9,98003,List1B,white,man,,,,,"{""Q0"":""Fred is kissing Beth.""}","<img src=""stim_listB/kiss1.gif""style=""height:400px;""></stim_listB>",is kissing,,,,,,
null,"<div style=""font-size:60px;"">+</div>",,html-keyboard-response,384,1168483,0.0-19.0-0.10,98003,List1B,white,man,,,,null,,,,,,,,,
null,"<img src=""stim_listB/kiss5.gif""style=""height:400px;""></stim_listB>",,html-keyboard-response,385,1170485,0.0-19.0-1.10,98003,List1B,white,man,,,,null,,,,,,,,,
null,is kissing,,html-keyboard-response,386,1172501,0.0-19.0-2.10,98003,List1B,white,man,,,,null,,,,,,,,,
3659.8,,,survey-text,387,1176169,0.0-19.0-3.10,98003,List1B,white,man,,,,,"{""Q0"":""Fred is kissing Luke.""}","<img src=""stim_listB/kiss5.gif""style=""height:400px;""></stim_listB>",is kissing,,,,,,
null,"<div style=""font-size:60px;"">+</div>",,html-keyboard-response,388,1176678,0.0-19.0-0.11,98003,List1B,white,man,,,,null,,,,,,,,,
null,"<img src=""stim_listB/copy1.gif""style=""height:400px;""></stim_listB>",,html-keyboard-response,389,1178684,0.0-19.0-1.11,98003,List1B,white,man,,,,null,,,,,,,,,
null,is copying,,html-keyboard-response,390,1180687,0.0-19.0-2.11,98003,List1B,white,man,,,,null,,,,,,,,,
3911.9,,,survey-text,391,1184604,0.0-19.0-3.11,98003,List1B,white,man,,,,,"{""Q0"":""Beth is copying Mike.""}","<img src=""stim_listB/copy1.gif""style=""height:400px;""></stim_listB>",is copying,,,,,,
null,"<div style=""font-size:60px;"">+</div>",,html-keyboard-response,392,1185118,0.0-19.0-0.12,98003,List1B,white,man,,,,null,,,,,,,,,
null,"<img src=""stim_listB/copy2.gif""style=""height:400px;""></stim_listB>",,html-keyboard-response,393,1187136,0.0-19.0-1.12,98003,List1B,white,man,,,,null,,,,,,,,,
null,is being copied by,,html-keyboard-response,394,1189139,0.0-19.0-2.12,98003,List1B,white,man,,,,null,,,,,,,,,
5873.4,,,survey-text,395,1195018,0.0-19.0-3.12,98003,List1B,white,man,,,,,"{""Q0"":""Fred is being copied by Kate.""}","<img src=""stim_listB/copy2.gif""style=""height:400px;""></stim_listB>",is being copied by,,,,,,
null,"<div style=""font-size:60px;"">+</div>",,html-keyboard-response,396,1195529,0.0-19.0-0.13,98003,List1B,white,man,,,,null,,,,,,,,,
null,"<img src=""stim_listB/oppose6.gif""style=""height:400px;""></stim_listB>",,html-keyboard-response,397,1197532,0.0-19.0-1.13,98003,List1B,white,man,,,,null,,,,,,,,,
null,is being opposed by,,html-keyboard-response,398,1199535,0.0-19.0-2.13,98003,List1B,white,man,,,,null,,,,,,,,,
4984,,,survey-text,399,1204523,0.0-19.0-3.13,98003,List1B,white,man,,,,,"{""Q0"":""Fred is being opposed by Luke.""}","<img src=""stim_listB/oppose6.gif""style=""height:400px;""></stim_listB>",is being opposed by,,,,,,
null,"<div style=""font-size:60px;"">+</div>",,html-keyboard-response,400,1205032,0.0-19.0-0.14,98003,List1B,white,man,,,,null,,,,,,,,,
null,"<img src=""stim_listB/oppose3.gif""style=""height:400px;""></stim_listB>",,html-keyboard-response,401,1207037,0.0-19.0-1.14,98003,List1B,white,man,,,,null,,,,,,,,,
null,is opposing,,html-keyboard-response,402,1209054,0.0-19.0-2.14,98003,List1B,white,man,,,,null,,,,,,,,,
4781,,,survey-text,403,1213842,0.0-19.0-3.14,98003,List1B,white,man,,,,,"{""Q0"":""Dave is opposing Jane.""}","<img src=""stim_listB/oppose3.gif""style=""height:400px;""></stim_listB>",is opposing,,,,,,
null,"<div style=""font-size:60px;"">+</div>",,html-keyboard-response,404,1214357,0.0-19.0-0.15,98003,List1B,white,man,,,,null,,,,,,,,,
null,"<img src=""stim_listB/kiss7.gif""style=""height:400px;""></stim_listB>",,html-keyboard-response,405,1216359,0.0-19.0-1.15,98003,List1B,white,man,,,,null,,,,,,,,,
null,is kissing,,html-keyboard-response,406,1218362,0.0-19.0-2.15,98003,List1B,white,man,,,,null,,,,,,,,,
3821.7,,,survey-text,407,1222190,0.0-19.0-3.15,98003,List1B,white,man,,,,,"{""Q0"":""Ruth is kissing Beth.""}","<img src=""stim_listB/kiss7.gif""style=""height:400px;""></stim_listB>",is kissing,,,,,,
null,"<div style=""font-size:60px;"">+</div>",,html-keyboard-response,408,1222698,0.0-19.0-0.16,98003,List1B,white,man,,,,null,,,,,,,,,
null,"<img src=""stim_listB/greet7.gif""style=""height:400px;""></stim_listB>",,html-keyboard-response,409,1224701,0.0-19.0-1.16,98003,List1B,white,man,,,,null,,,,,,,,,
null,is greeting,,html-keyboard-response,410,1226716,0.0-19.0-2.16,98003,List1B,white,man,,,,null,,,,,,,,,
11422.4,,,survey-text,411,1238144,0.0-19.0-3.16,98003,List1B,white,man,,,,,"{""Q0"":""Ruth is greeting Kate.""}","<img src=""stim_listB/greet7.gif""style=""height:400px;""></stim_listB>",is greeting,,,,,,
null,"<div style=""font-size:60px;"">+</div>",,html-keyboard-response,412,1238649,0.0-19.0-0.17,98003,List1B,white,man,,,,null,,,,,,,,,
null,"<img src=""stim_listB/look8.gif""style=""height:400px;""></stim_listB>",,html-keyboard-response,413,1240667,0.0-19.0-1.17,98003,List1B,white,man,,,,null,,,,,,,,,
null,is being looked at by,,html-keyboard-response,414,1242676,0.0-19.0-2.17,98003,List1B,white,man,,,,null,,,,,,,,,
4715.9,,,survey-text,415,1247399,0.0-19.0-3.17,98003,List1B,white,man,,,,,"{""Q0"":""Kate is being looked at by Jane.""}","<img src=""stim_listB/look8.gif""style=""height:400px;""></stim_listB>",is being looked at by,,,,,,
null,"<div style=""font-size:60px;"">+</div>",,html-keyboard-response,416,1247905,0.0-19.0-0.18,98003,List1B,white,man,,,,null,,,,,,,,,
null,"<img src=""stim_listB/shout8.gif""style=""height:400px;""></stim_listB>",,html-keyboard-response,417,1249909,0.0-19.0-1.18,98003,List1B,white,man,,,,null,,,,,,,,,
null,is being shouted at by,,html-keyboard-response,418,1251925,0.0-19.0-2.18,98003,List1B,white,man,,,,null,,,,,,,,,
6789.3,,,survey-text,419,1258717,0.0-19.0-3.18,98003,List1B,white,man,,,,,"{""Q0"":""Kate is being shouted at by Jane.""}","<img src=""stim_listB/shout8.gif""style=""height:400px;""></stim_listB>",is being shouted at by,,,,,,
null,"<div style=""font-size:60px;"">+</div>",,html-keyboard-response,420,1259221,0.0-19.0-0.19,98003,List1B,white,man,,,,null,,,,,,,,,
null,"<img src=""stim_listB/look3.gif""style=""height:400px;""></stim_listB>",,html-keyboard-response,421,1261224,0.0-19.0-1.19,98003,List1B,white,man,,,,null,,,,,,,,,
null,is looking at,,html-keyboard-response,422,1263228,0.0-19.0-2.19,98003,List1B,white,man,,,,null,,,,,,,,,
3870,,,survey-text,423,1267104,0.0-19.0-3.19,98003,List1B,white,man,,,,,"{""Q0"":""Ruth is looking at Luke.""}","<img src=""stim_listB/look3.gif""style=""height:400px;""></stim_listB>",is looking at,,,,,,
3748.2,<p>Thank you for completing that task.</p><p>The final part of this session is a questionnaire that will take about 4 minutes.</p><p>Press Continue.</p>,0,html-button-response,424,1270853,0.0-20.0,98003,List1B,white,man,,,,,,,,,,,,,
50208.3,,,survey-text,425,1322088,0.0-21.0,98003,List1B,white,man,,,,,"{""Q0"":""25"",""Q1"":""English"",""Q2"":""English"",""Q3"":""United States"",""Q4"":""American"",""Q5"":""White"",""Q6"":""Male""}",,,demographics,,,,,
2855.3,<p>Have you lived in the USA for the last 5 years or more?</p>,0,html-button-response,426,1324944,0.0-22.0,98003,List1B,white,man,,,,,,,,fiveyears,,,,,
3385.1,<p>Move the slider to show the extent to which you agree with the following statements.</p>,0,html-button-response,427,1329346,0.0-23.0,98003,List1B,white,man,,,,,,,,,,,,,
8341.9,,,html-slider-response,428,1338694,0.0-24.0-0.0-0.0,98003,List1B,white,man,,,,,,,,survey_gender,73,,,I have a lot in common with the average person of my gender.,average
5300.3,,,html-slider-response,429,1343995,0.0-24.0-0.0-0.1,98003,List1B,white,man,,,,,,,,survey_gender,49,,,I think that my gender has a lot to be proud of.,proud
5256.8,,,html-slider-response,430,1349254,0.0-24.0-0.0-0.2,98003,List1B,white,man,,,,,,,,survey_gender,69,,,I feel a bond with my gender.,bond
3364.7,,,html-slider-response,431,1352620,0.0-24.0-0.0-0.3,98003,List1B,white,man,,,,,,,,survey_gender,79,,,Family is not more important to me than friendship.,filler
4748.8,,,html-slider-response,432,1357370,0.0-24.0-0.0-0.4,98003,List1B,white,man,,,,,,,,survey_gender,51,,,I feel solidarity with my gender.,solidarity
4735.6,,,html-slider-response,433,1362107,0.0-24.0-0.0-0.5,98003,List1B,white,man,,,,,,,,survey_gender,48,,,Being my gender gives me a good feeling.,feeling
4057.6,,,html-slider-response,434,1366166,0.0-24.0-0.0-0.6,98003,List1B,white,man,,,,,,,,survey_gender,83,,,Most of the friends in my life are very similar to me.,filler
4114.5,,,html-slider-response,435,1370282,0.0-24.0-0.0-0.7,98003,List1B,white,man,,,,,,,,survey_gender,71,,,I feel committed to my gender.,committed
3946.2,,,html-slider-response,436,1374229,0.0-24.0-0.0-0.8,98003,List1B,white,man,,,,,,,,survey_gender,83,,,I am glad to have the friends that I have.,filler
4443.2,,,html-slider-response,437,1378674,0.0-24.0-0.0-0.9,98003,List1B,white,man,,,,,,,,survey_gender,51,,,People of my gender are very similar to each other.,verysimilar
2665.4,,,html-slider-response,438,1381340,0.0-24.0-0.0-0.10,98003,List1B,white,man,,,,,,,,survey_gender,93,,,I feel a bond with my friends.,filler
2856.8,,,html-slider-response,439,1384198,0.0-24.0-0.0-0.11,98003,List1B,white,man,,,,,,,,survey_gender,92,,,I feel solidarity with my friends.,filler
4430,,,html-slider-response,440,1388629,0.0-24.0-0.0-0.12,98003,List1B,white,man,,,,,,,,survey_gender,51,,,The fact that I am my gender is an important part of my identity.,identity
5124.6,,,html-slider-response,441,1393755,0.0-24.0-0.0-0.13,98003,List1B,white,man,,,,,,,,survey_gender,48,,,I often think about the fact that I am my gender.,often
3396.4,,,html-slider-response,442,1397152,0.0-24.0-0.0-0.14,98003,List1B,white,man,,,,,,,,survey_gender,87,,,My friends have a lot in common with each other.,filler
5587.7,,,html-slider-response,443,1402741,0.0-24.0-0.0-0.15,98003,List1B,white,man,,,,,,,,survey_gender,53,,,Being my gender is an important part of how I see myself.,important
3221.8,,,html-slider-response,444,1405964,0.0-24.0-0.0-0.16,98003,List1B,white,man,,,,,,,,survey_gender,85,,,I consider myself a highly empathetic person.,filler
3825.8,,,html-slider-response,445,1409791,0.0-24.0-0.0-0.17,98003,List1B,white,man,,,,,,,,survey_gender,87,,,I often think about my actions.,filler
2375.1,,,html-slider-response,446,1412168,0.0-24.0-0.0-0.18,98003,List1B,white,man,,,,,,,,survey_gender,89,,,My friends understand me.,filler
4130.5,,,html-slider-response,447,1416299,0.0-24.0-0.0-0.19,98003,List1B,white,man,,,,,,,,survey_gender,67,,,It is not always easy for people to know what I am thinking.,filler
2985.7,,,html-slider-response,448,1419286,0.0-24.0-0.0-0.20,98003,List1B,white,man,,,,,,,,survey_gender,54,,,People of my gender have a lot in common with each other.,common
2342.2,,,html-slider-response,449,1421629,0.0-24.0-0.0-0.21,98003,List1B,white,man,,,,,,,,survey_gender,65,,,I am similar to the average person of my gender.,similar
5440.9,,,html-slider-response,450,1427071,0.0-24.0-0.0-0.22,98003,List1B,white,man,,,,,,,,survey_gender,66,,,Routine is not important to me.,filler
2649,,,html-slider-response,451,1429721,0.0-24.0-0.0-0.23,98003,List1B,white,man,,,,,,,,survey_gender,51,,,I am glad to be my gender.,glad
2116.7,,,html-slider-response,452,1431839,0.0-24.0-0.0-0.24,98003,List1B,white,man,,,,,,,,survey_gender,52,,,It is pleasant to be my gender.,pleasant
3188,,,html-slider-response,453,1435028,0.0-24.0-0.0-0.25,98003,List1B,white,man,,,,,,,,survey_gender,90,,,Being around my friends gives me a good feeling.,filler
3128.6,,,html-slider-response,454,1438158,0.0-24.0-0.0-0.26,98003,List1B,white,man,,,,,,,,survey_gender,92,,,I would say I am an animal person.,filler
2901.5,,,html-slider-response,455,1441060,0.0-24.0-0.0-0.27,98003,List1B,white,man,,,,,,,,survey_gender,92,,,I have a lot in common with my friends.,filler
3113.7,,,html-slider-response,456,1444175,0.0-24.0-1.0-0.0,98003,List1B,white,man,,,,,,,,survey_race,85,,,I am glad to be the age I am.,filler
4019.5,,,html-slider-response,457,1448196,0.0-24.0-1.0-0.1,98003,List1B,white,man,,,,,,,,survey_race,87,,,"The older I get, the wiser I feel.",filler
3104.5,,,html-slider-response,458,1451302,0.0-24.0-1.0-0.2,98003,List1B,white,man,,,,,,,,survey_race,86,,,I have a lot in common with people of a similar age to me.,filler
3983.5,,,html-slider-response,459,1455287,0.0-24.0-1.0-0.3,98003,List1B,white,man,,,,,,,,survey_race,87,,,People my age have a lot in common with each other.,filler
6569.9,,,html-slider-response,460,1461858,0.0-24.0-1.0-0.4,98003,List1B,white,man,,,,,,,,survey_race,54,,,My age is not an important part of who I am.,filler
3788.2,,,html-slider-response,461,1465648,0.0-24.0-1.0-0.5,98003,List1B,white,man,,,,,,,,survey_race,44,,,I feel solidarity with my race.,solidarity
5395.1,,,html-slider-response,462,1471044,0.0-24.0-1.0-0.6,98003,List1B,white,man,,,,,,,,survey_race,87,,,Getting older does not worry me.,filler
4571,,,html-slider-response,463,1475616,0.0-24.0-1.0-0.7,98003,List1B,white,man,,,,,,,,survey_race,36,,,I often think about the fact that I am my age.,filler
3534.7,,,html-slider-response,464,1479152,0.0-24.0-1.0-0.8,98003,List1B,white,man,,,,,,,,survey_race,36,,,Being my race gives me a good feeling.,feeling
3905.4,,,html-slider-response,465,1483059,0.0-24.0-1.0-0.9,98003,List1B,white,man,,,,,,,,survey_race,78,,,I feel a bond with people the same age as me.,filler
2236.9,,,html-slider-response,466,1485297,0.0-24.0-1.0-0.10,98003,List1B,white,man,,,,,,,,survey_race,39,,,I feel committed to my race.,committed
5868.1,,,html-slider-response,467,1491166,0.0-24.0-1.0-0.11,98003,List1B,white,man,,,,,,,,survey_race,30,,,People of my race are very similar to each other.,verysimilar
2125.6,,,html-slider-response,468,1493293,0.0-24.0-1.0-0.12,98003,List1B,white,man,,,,,,,,survey_race,35,,,I feel a bond with my race.,bond
5644,,,html-slider-response,469,1498938,0.0-24.0-1.0-0.13,98003,List1B,white,man,,,,,,,,survey_race,70,,,I often think about the fact that I am my race.,often
3307.9,,,html-slider-response,470,1502247,0.0-24.0-1.0-0.14,98003,List1B,white,man,,,,,,,,survey_race,76,,,I am glad to be my age.,filler
4318.2,,,html-slider-response,471,1506566,0.0-24.0-1.0-0.15,98003,List1B,white,man,,,,,,,,survey_race,38,,,I have a lot in common with the average person of my race.,average
2762.6,,,html-slider-response,472,1509330,0.0-24.0-1.0-0.16,98003,List1B,white,man,,,,,,,,survey_race,33,,,I consider myself an introvert.,filler
2539.5,,,html-slider-response,473,1511870,0.0-24.0-1.0-0.17,98003,List1B,white,man,,,,,,,,survey_race,82,,,I enjoy being in large groups.,filler
3310.8,,,html-slider-response,474,1515182,0.0-24.0-1.0-0.18,98003,List1B,white,man,,,,,,,,survey_race,33,,,People of my race have a lot in common with each other.,common
2862.8,,,html-slider-response,475,1518046,0.0-24.0-1.0-0.19,98003,List1B,white,man,,,,,,,,survey_race,29,,,It is pleasant to be my race.,pleasant
2764.4,,,html-slider-response,476,1520811,0.0-24.0-1.0-0.20,98003,List1B,white,man,,,,,,,,survey_race,77,,,I consider myself an extrovert.,filler
2340.7,,,html-slider-response,477,1523153,0.0-24.0-1.0-0.21,98003,List1B,white,man,,,,,,,,survey_race,29,,,I am glad to be my race.,glad
5854,,,html-slider-response,478,1529008,0.0-24.0-1.0-0.22,98003,List1B,white,man,,,,,,,,survey_race,39,,,Being my race is an important part of how I see myself.,important
3672.7,,,html-slider-response,479,1532682,0.0-24.0-1.0-0.23,98003,List1B,white,man,,,,,,,,survey_race,85,,,I feel solidarity with people the same age as me.,filler
2464.7,,,html-slider-response,480,1535148,0.0-24.0-1.0-0.24,98003,List1B,white,man,,,,,,,,survey_race,67,,,Being my age gives me a good feeling.,filler
3695,,,html-slider-response,481,1538844,0.0-24.0-1.0-0.25,98003,List1B,white,man,,,,,,,,survey_race,38,,,I am similar to the average person of my race.,similar
3454.8,,,html-slider-response,482,1542300,0.0-24.0-1.0-0.26,98003,List1B,white,man,,,,,,,,survey_race,28,,,I think that my race has a lot to be proud of.,proud
3213.1,,,html-slider-response,483,1545514,0.0-24.0-1.0-0.27,98003,List1B,white,man,,,,,,,,survey_race,33,,,The fact that I am my race is an important part of my identity.,identity
7095.2,,,survey-text,484,1552613,0.0-25.0,98003,List1B,white,man,,,,,"{""Q0"":""ccc""}",,,worker_id,,,,,
7275.1,,,external-html,485,1560347,0.0-26.0,98003,List1B,white,man,debrief.html,,,,,,,,,,,,
