rt,stimulus,button_pressed,trial_type,trial_index,time_elapsed,internal_node_id,subject,list,ppt_race,ppt_gender,url,first_guess,correct,key_press,responses,image_type,phrase_type,test_part,response,stimulus1,stimulus2,question_type,survey_item
167523.5,Welcome to the experiment. Press Continue to begin.,0,html-button-response,0,167531,0.0-0.0,98302,List1A,white,man,,,,,,,,,,,,,
20902.1,,,external-html,1,190783,0.0-1.0,98302,List1A,white,man,consent.html,,,,,,,,,,,,
267695.2,"<p>On the next page, you will see portraits of 8 people and their names.</p><p>Your first task is to take a few minutes to memorise the names of these people.</p><p>You will have to recall their names during the rest of the experiment, so it is</p><p>essential that you try to memorise these people and their names as best as you can.</p><br><p><strong>You will then be tested on your memory of these names and portraits.</strong></p><br><p>The experiment will start after you have completed this memory test.</p><br><p>Ready?</p>",0,html-button-response,2,458481,0.0-2.0,98302,List1A,white,man,,,,,,,,,,,,,
58887.5,"<img src='img/portrait_matrix_list1.jpg' style='width:900px;height:500px;''></img><p>If you have memorised all the portraits and names and are ready to start, press Continue.</p><p><strong>Please note: Your memory of these faces will be tested 4 times during this experiment.</strong></p>",0,html-button-response,3,518375,0.0-3.0-0.0,98302,List1A,white,man,,,,,,,,,,,,,
6597.4,"<img src=""portrait/BW1.jpg""style=""height:400px;""></img>",0,html-button-response,4,525978,0.0-3.0-1.0,98302,List1A,white,man,,TRUE,0,,,,,,,,,,
null,CORRECT,,html-keyboard-response,5,527488,0.0-3.0-2.0-0.0,98302,List1A,white,man,,,,null,,,,,,,,,
6674.1,"<img src=""portrait/WM2.jpg""style=""height:400px;""></img>",7,html-button-response,6,534166,0.0-3.0-4.0,98302,List1A,white,man,,TRUE,7,,,,,,,,,,
null,CORRECT,,html-keyboard-response,7,535677,0.0-3.0-5.0-0.0,98302,List1A,white,man,,,,null,,,,,,,,,
6666.4,"<img src=""portrait/WW1.jpg""style=""height:400px;""></img>",1,html-button-response,8,542346,0.0-3.0-7.0,98302,List1A,white,man,,TRUE,1,,,,,,,,,,
null,CORRECT,,html-keyboard-response,9,543864,0.0-3.0-8.0-0.0,98302,List1A,white,man,,,,null,,,,,,,,,
6300.9,"<img src=""portrait/WW2.jpg""style=""height:400px;""></img>",3,html-button-response,10,550167,0.0-3.0-10.0,98302,List1A,white,man,,TRUE,3,,,,,,,,,,
null,CORRECT,,html-keyboard-response,11,551684,0.0-3.0-11.0-0.0,98302,List1A,white,man,,,,null,,,,,,,,,
6259.8,"<img src=""portrait/BM2.jpg""style=""height:400px;""></img>",5,html-button-response,12,557946,0.0-3.0-13.0,98302,List1A,white,man,,TRUE,5,,,,,,,,,,
null,CORRECT,,html-keyboard-response,13,559470,0.0-3.0-14.0-0.0,98302,List1A,white,man,,,,null,,,,,,,,,
5554.7,"<img src=""portrait/BW2.jpg""style=""height:400px;""></img>",2,html-button-response,14,565027,0.0-3.0-16.0,98302,List1A,white,man,,TRUE,2,,,,,,,,,,
null,CORRECT,,html-keyboard-response,15,566545,0.0-3.0-17.0-0.0,98302,List1A,white,man,,,,null,,,,,,,,,
5201.2,"<img src=""portrait/BM1.jpg""style=""height:400px;""></img>",4,html-button-response,16,571748,0.0-3.0-19.0,98302,List1A,white,man,,TRUE,4,,,,,,,,,,
null,CORRECT,,html-keyboard-response,17,573267,0.0-3.0-20.0-0.0,98302,List1A,white,man,,,,null,,,,,,,,,
6189.1,"<img src=""portrait/WM1.jpg""style=""height:400px;""></img>",6,html-button-response,18,579458,0.0-3.0-22.0,98302,List1A,white,man,,TRUE,6,,,,,,,,,,
null,CORRECT,,html-keyboard-response,19,580967,0.0-3.0-23.0-0.0,98302,List1A,white,man,,,,null,,,,,,,,,
215422.3,<p>You got 8 out of 8 right first time. Press Continue.</p>,0,html-button-response,20,796392,0.0-3.0-25.0,98302,List1A,white,man,,,,,,,,,,,,,
499328.5,"<p>In this experiment, you will view photographs of the people from the memory game interacting.</p><p>By using the <strong>exact</strong> phrase given <i>after</i> the photograph appears and recalling the correct names of the people in the photographs, form a sentence describing the interaction. You do not need to capitalise names.</p><p>Type your answer in the space provided. Please complete every sentence before moving onto the next trial.</p><p>You will only have a few seconds to memorise each given photograph and phrase before you can respond, so try your best to focus.</p><p>An example is given below. Press 'Continue' when you are ready.</p><img src='img/speaking_example.jpg' style='width:800px;height:460px;''></img>",0,html-button-response,21,1296733,0.0-4.0,98302,List1A,white,man,,,,,,,,,,,,,
3252.2,"<p>Before the experiment starts, you will watch two example trials. Press 'Continue'.</p>",0,html-button-response,22,1300995,0.0-5.0,98302,List1A,white,man,,,,,,,,,,,,,
null,<img src='img/play_eg.gif' style='height:400px;''></img>,,html-keyboard-response,23,1304019,0.0-6.0,98302,List1A,white,man,,,,null,,,,,,,,,
null,<p>is playing with</p>,,html-keyboard-response,24,1306023,0.0-7.0,98302,List1A,white,man,,,,null,,,,,,,,,
13087.4,<p><b>Answer:</b> kate is playing with beth</p>,0,html-button-response,25,1319112,0.0-8.0,98302,List1A,white,man,,,,,,,,,,,,,
null,<img src='img/dance_eg.gif' style='height:400px;''></img>,,html-keyboard-response,26,1322131,0.0-9.0,98302,List1A,white,man,,,,null,,,,,,,,,
null,<p>is being entertained by</p>,,html-keyboard-response,27,1324146,0.0-10.0,98302,List1A,white,man,,,,null,,,,,,,,,
4701.9,<p><b>Answer:</b> luke is being entertained by dave</p>,0,html-button-response,28,1328850,0.0-11.0,98302,List1A,white,man,,,,,,,,,,,,,
28014.3,"<p>Ready to start the experiment?</p><br><p><strong>Remember to describe the picture using a full sentence,</strong></p><p><strong>that combines the names of the people with the <i>exact</i> phrase given.</strong></p><p><strong>To receive full payment you must do this correctly.</strong></p><p><strong> You do not need to capitalise names or use punctuation.</strong></p><br><p>Press 'Continue' to begin.</p>",0,html-button-response,29,1357881,0.0-12.0,98302,List1A,white,man,,,,,,,,,,,,,
null,"<div style=""font-size:60px;"">+</div>",,html-keyboard-response,30,1359399,0.0-13.0-0.0,98302,List1A,white,man,,,,null,,,,,,,,,
null,"<img src=""stim_listA/copy1.gif""style=""height:400px;""></stim_listA>",,html-keyboard-response,31,1361416,0.0-13.0-1.0,98302,List1A,white,man,,,,null,,,,,,,,,
null,is copying,,html-keyboard-response,32,1363433,0.0-13.0-2.0,98302,List1A,white,man,,,,null,,,,,,,,,
12194.5,,,survey-text,33,1375635,0.0-13.0-3.0,98302,List1A,white,man,,,,,"{""Q0"":""mike is playing with beth""}","<img src=""stim_listA/copy1.gif""style=""height:400px;""></stim_listA>",is copying,,,,,,
null,"<div style=""font-size:60px;"">+</div>",,html-keyboard-response,34,1376139,0.0-13.0-0.1,98302,List1A,white,man,,,,null,,,,,,,,,
null,"<img src=""stim_listA/look8.gif""style=""height:400px;""></stim_listA>",,html-keyboard-response,35,1378142,0.0-13.0-1.1,98302,List1A,white,man,,,,null,,,,,,,,,
null,is being looked at by,,html-keyboard-response,36,1380145,0.0-13.0-2.1,98302,List1A,white,man,,,,null,,,,,,,,,
14792,,,survey-text,37,1394941,0.0-13.0-3.1,98302,List1A,white,man,,,,,"{""Q0"":""kate is playing with jane""}","<img src=""stim_listA/look8.gif""style=""height:400px;""></stim_listA>",is being looked at by,,,,,,
null,"<div style=""font-size:60px;"">+</div>",,html-keyboard-response,38,1395452,0.0-13.0-0.2,98302,List1A,white,man,,,,null,,,,,,,,,
null,"<img src=""stim_listA/shout3.gif""style=""height:400px;""></stim_listA>",,html-keyboard-response,39,1397469,0.0-13.0-1.2,98302,List1A,white,man,,,,null,,,,,,,,,
null,is shouting at,,html-keyboard-response,40,1399484,0.0-13.0-2.2,98302,List1A,white,man,,,,null,,,,,,,,,
10674.5,,,survey-text,41,1410163,0.0-13.0-3.2,98302,List1A,white,man,,,,,"{""Q0"":""ruth is playing with luke""}","<img src=""stim_listA/shout3.gif""style=""height:400px;""></stim_listA>",is shouting at,,,,,,
null,"<div style=""font-size:60px;"">+</div>",,html-keyboard-response,42,1410670,0.0-13.0-0.3,98302,List1A,white,man,,,,null,,,,,,,,,
null,"<img src=""stim_listA/shout5.gif""style=""height:400px;""></stim_listA>",,html-keyboard-response,43,1412677,0.0-13.0-1.3,98302,List1A,white,man,,,,null,,,,,,,,,
null,is shouting at,,html-keyboard-response,44,1414694,0.0-13.0-2.3,98302,List1A,white,man,,,,null,,,,,,,,,
9134.2,,,survey-text,45,1423834,0.0-13.0-3.3,98302,List1A,white,man,,,,,"{""Q0"":""luke is playing with fred""}","<img src=""stim_listA/shout5.gif""style=""height:400px;""></stim_listA>",is shouting at,,,,,,
null,"<div style=""font-size:60px;"">+</div>",,html-keyboard-response,46,1424340,0.0-13.0-0.4,98302,List1A,white,man,,,,null,,,,,,,,,
null,"<img src=""stim_listA/greet1.gif""style=""height:400px;""></stim_listA>",,html-keyboard-response,47,1426357,0.0-13.0-1.4,98302,List1A,white,man,,,,null,,,,,,,,,
null,is greeting,,html-keyboard-response,48,1428370,0.0-13.0-2.4,98302,List1A,white,man,,,,null,,,,,,,,,
12839.6,,,survey-text,49,1441215,0.0-13.0-3.4,98302,List1A,white,man,,,,,"{""Q0"":""beth is playing with mike""}","<img src=""stim_listA/greet1.gif""style=""height:400px;""></stim_listA>",is greeting,,,,,,
null,"<div style=""font-size:60px;"">+</div>",,html-keyboard-response,50,1441719,0.0-13.0-0.5,98302,List1A,white,man,,,,null,,,,,,,,,
null,"<img src=""stim_listA/greet3.gif""style=""height:400px;""></stim_listA>",,html-keyboard-response,51,1443735,0.0-13.0-1.5,98302,List1A,white,man,,,,null,,,,,,,,,
null,is greeting,,html-keyboard-response,52,1445749,0.0-13.0-2.5,98302,List1A,white,man,,,,null,,,,,,,,,
10957.9,,,survey-text,53,1456711,0.0-13.0-3.5,98302,List1A,white,man,,,,,"{""Q0"":""dave is playing with ruth""}","<img src=""stim_listA/greet3.gif""style=""height:400px;""></stim_listA>",is greeting,,,,,,
null,"<div style=""font-size:60px;"">+</div>",,html-keyboard-response,54,1457217,0.0-13.0-0.6,98302,List1A,white,man,,,,null,,,,,,,,,
null,"<img src=""stim_listA/hug1.gif""style=""height:400px;""></stim_listA>",,html-keyboard-response,55,1459223,0.0-13.0-1.6,98302,List1A,white,man,,,,null,,,,,,,,,
null,is hugging,,html-keyboard-response,56,1461232,0.0-13.0-2.6,98302,List1A,white,man,,,,null,,,,,,,,,
9928.3,,,survey-text,57,1471165,0.0-13.0-3.6,98302,List1A,white,man,,,,,"{""Q0"":""fred is playing with beth""}","<img src=""stim_listA/hug1.gif""style=""height:400px;""></stim_listA>",is hugging,,,,,,
null,"<div style=""font-size:60px;"">+</div>",,html-keyboard-response,58,1471673,0.0-13.0-0.7,98302,List1A,white,man,,,,null,,,,,,,,,
null,"<img src=""stim_listA/copy8.gif""style=""height:400px;""></stim_listA>",,html-keyboard-response,59,1473688,0.0-13.0-1.7,98302,List1A,white,man,,,,null,,,,,,,,,
null,is being copied by,,html-keyboard-response,60,1475699,0.0-13.0-2.7,98302,List1A,white,man,,,,null,,,,,,,,,
11459.2,,,survey-text,61,1487163,0.0-13.0-3.7,98302,List1A,white,man,,,,,"{""Q0"":""beth is playing with jane""}","<img src=""stim_listA/copy8.gif""style=""height:400px;""></stim_listA>",is being copied by,,,,,,
null,"<div style=""font-size:60px;"">+</div>",,html-keyboard-response,62,1487678,0.0-13.0-0.8,98302,List1A,white,man,,,,null,,,,,,,,,
null,"<img src=""stim_listA/challenge4.gif""style=""height:400px;""></stim_listA>",,html-keyboard-response,63,1489694,0.0-13.0-1.8,98302,List1A,white,man,,,,null,,,,,,,,,
null,is being challenged by,,html-keyboard-response,64,1491709,0.0-13.0-2.8,98302,List1A,white,man,,,,null,,,,,,,,,
12338.1,,,survey-text,65,1504052,0.0-13.0-3.8,98302,List1A,white,man,,,,,"{""Q0"":""jane is playing with luke""}","<img src=""stim_listA/challenge4.gif""style=""height:400px;""></stim_listA>",is being challenged by,,,,,,
null,"<div style=""font-size:60px;"">+</div>",,html-keyboard-response,66,1504565,0.0-13.0-0.9,98302,List1A,white,man,,,,null,,,,,,,,,
null,"<img src=""stim_listA/challenge7.gif""style=""height:400px;""></stim_listA>",,html-keyboard-response,67,1506570,0.0-13.0-1.9,98302,List1A,white,man,,,,null,,,,,,,,,
null,is challenging,,html-keyboard-response,68,1508584,0.0-13.0-2.9,98302,List1A,white,man,,,,null,,,,,,,,,
27636.4,,,survey-text,69,1536225,0.0-13.0-3.9,98302,List1A,white,man,,,,,"{""Q0"":""jane is playing with ruth""}","<img src=""stim_listA/challenge7.gif""style=""height:400px;""></stim_listA>",is challenging,,,,,,
null,"<div style=""font-size:60px;"">+</div>",,html-keyboard-response,70,1536734,0.0-13.0-0.10,98302,List1A,white,man,,,,null,,,,,,,,,
null,"<img src=""stim_listA/kiss5.gif""style=""height:400px;""></stim_listA>",,html-keyboard-response,71,1538739,0.0-13.0-1.10,98302,List1A,white,man,,,,null,,,,,,,,,
null,is kissing,,html-keyboard-response,72,1540749,0.0-13.0-2.10,98302,List1A,white,man,,,,null,,,,,,,,,
14823.8,,,survey-text,73,1555578,0.0-13.0-3.10,98302,List1A,white,man,,,,,"{""Q0"":""fred is playing with luke""}","<img src=""stim_listA/kiss5.gif""style=""height:400px;""></stim_listA>",is kissing,,,,,,
null,"<div style=""font-size:60px;"">+</div>",,html-keyboard-response,74,1556086,0.0-13.0-0.11,98302,List1A,white,man,,,,null,,,,,,,,,
null,"<img src=""stim_listA/seduce1.gif""style=""height:400px;""></stim_listA>",,html-keyboard-response,75,1558092,0.0-13.0-1.11,98302,List1A,white,man,,,,null,,,,,,,,,
null,is seducing,,html-keyboard-response,76,1560108,0.0-13.0-2.11,98302,List1A,white,man,,,,null,,,,,,,,,
13639.2,,,survey-text,77,1573751,0.0-13.0-3.11,98302,List1A,white,man,,,,,"{""Q0"":""kate is playing with fred""}","<img src=""stim_listA/seduce1.gif""style=""height:400px;""></stim_listA>",is seducing,,,,,,
null,"<div style=""font-size:60px;"">+</div>",,html-keyboard-response,78,1574259,0.0-13.0-0.12,98302,List1A,white,man,,,,null,,,,,,,,,
null,"<img src=""stim_listA/look2.gif""style=""height:400px;""></stim_listA>",,html-keyboard-response,79,1576274,0.0-13.0-1.12,98302,List1A,white,man,,,,null,,,,,,,,,
null,is being looked at by,,html-keyboard-response,80,1578278,0.0-13.0-2.12,98302,List1A,white,man,,,,null,,,,,,,,,
14845.7,,,survey-text,81,1593128,0.0-13.0-3.12,98302,List1A,white,man,,,,,"{""Q0"":""kate is playing with mike""}","<img src=""stim_listA/look2.gif""style=""height:400px;""></stim_listA>",is being looked at by,,,,,,
null,"<div style=""font-size:60px;"">+</div>",,html-keyboard-response,82,1593631,0.0-13.0-0.13,98302,List1A,white,man,,,,null,,,,,,,,,
null,"<img src=""stim_listA/shout7.gif""style=""height:400px;""></stim_listA>",,html-keyboard-response,83,1595636,0.0-13.0-1.13,98302,List1A,white,man,,,,null,,,,,,,,,
null,is shouting at,,html-keyboard-response,84,1597650,0.0-13.0-2.13,98302,List1A,white,man,,,,null,,,,,,,,,
24853.1,,,survey-text,85,1622507,0.0-13.0-3.13,98302,List1A,white,man,,,,,"{""Q0"":""ruth is shouting at beth""}","<img src=""stim_listA/shout7.gif""style=""height:400px;""></stim_listA>",is shouting at,,,,,,
null,"<div style=""font-size:60px;"">+</div>",,html-keyboard-response,86,1623014,0.0-13.0-0.14,98302,List1A,white,man,,,,null,,,,,,,,,
null,"<img src=""stim_listA/oppose4.gif""style=""height:400px;""></stim_listA>",,html-keyboard-response,87,1625030,0.0-13.0-1.14,98302,List1A,white,man,,,,null,,,,,,,,,
null,is being opposed by,,html-keyboard-response,88,1627045,0.0-13.0-2.14,98302,List1A,white,man,,,,null,,,,,,,,,
10304.8,,,survey-text,89,1637355,0.0-13.0-3.14,98302,List1A,white,man,,,,,"{""Q0"":""ruth is shouting at luke""}","<img src=""stim_listA/oppose4.gif""style=""height:400px;""></stim_listA>",is being opposed by,,,,,,
null,"<div style=""font-size:60px;"">+</div>",,html-keyboard-response,90,1637865,0.0-13.0-0.15,98302,List1A,white,man,,,,null,,,,,,,,,
null,"<img src=""stim_listA/greet5.gif""style=""height:400px;""></stim_listA>",,html-keyboard-response,91,1639883,0.0-13.0-1.15,98302,List1A,white,man,,,,null,,,,,,,,,
null,is greeting,,html-keyboard-response,92,1641886,0.0-13.0-2.15,98302,List1A,white,man,,,,null,,,,,,,,,
15563.9,,,survey-text,93,1657455,0.0-13.0-3.15,98302,List1A,white,man,,,,,"{""Q0"":""luke is greeting mike""}","<img src=""stim_listA/greet5.gif""style=""height:400px;""></stim_listA>",is greeting,,,,,,
null,"<div style=""font-size:60px;"">+</div>",,html-keyboard-response,94,1657972,0.0-13.0-0.16,98302,List1A,white,man,,,,null,,,,,,,,,
null,"<img src=""stim_listA/greet8.gif""style=""height:400px;""></stim_listA>",,html-keyboard-response,95,1659977,0.0-13.0-1.16,98302,List1A,white,man,,,,null,,,,,,,,,
null,is being greeted by,,html-keyboard-response,96,1661994,0.0-13.0-2.16,98302,List1A,white,man,,,,null,,,,,,,,,
11101.9,,,survey-text,97,1673101,0.0-13.0-3.16,98302,List1A,white,man,,,,,"{""Q0"":""jane is greeting beth""}","<img src=""stim_listA/greet8.gif""style=""height:400px;""></stim_listA>",is being greeted by,,,,,,
null,"<div style=""font-size:60px;"">+</div>",,html-keyboard-response,98,1673614,0.0-13.0-0.17,98302,List1A,white,man,,,,null,,,,,,,,,
null,"<img src=""stim_listA/kiss4.gif""style=""height:400px;""></stim_listA>",,html-keyboard-response,99,1675630,0.0-13.0-1.17,98302,List1A,white,man,,,,null,,,,,,,,,
null,is being kissed by,,html-keyboard-response,100,1677643,0.0-13.0-2.17,98302,List1A,white,man,,,,null,,,,,,,,,
13452.3,,,survey-text,101,1691097,0.0-13.0-3.17,98302,List1A,white,man,,,,,"{""Q0"":""dave is been kissed by jane""}","<img src=""stim_listA/kiss4.gif""style=""height:400px;""></stim_listA>",is being kissed by,,,,,,
null,"<div style=""font-size:60px;"">+</div>",,html-keyboard-response,102,1691608,0.0-13.0-0.18,98302,List1A,white,man,,,,null,,,,,,,,,
null,"<img src=""stim_listA/kiss8.gif""style=""height:400px;""></stim_listA>",,html-keyboard-response,103,1693614,0.0-13.0-1.18,98302,List1A,white,man,,,,null,,,,,,,,,
null,is being kissed by,,html-keyboard-response,104,1695627,0.0-13.0-2.18,98302,List1A,white,man,,,,null,,,,,,,,,
12656.1,,,survey-text,105,1708287,0.0-13.0-3.18,98302,List1A,white,man,,,,,"{""Q0"":""jane is been kissed by kate""}","<img src=""stim_listA/kiss8.gif""style=""height:400px;""></stim_listA>",is being kissed by,,,,,,
null,"<div style=""font-size:60px;"">+</div>",,html-keyboard-response,106,1708795,0.0-13.0-0.19,98302,List1A,white,man,,,,null,,,,,,,,,
null,"<img src=""stim_listA/seduce3.gif""style=""height:400px;""></stim_listA>",,html-keyboard-response,107,1710812,0.0-13.0-1.19,98302,List1A,white,man,,,,null,,,,,,,,,
null,is seducing,,html-keyboard-response,108,1712827,0.0-13.0-2.19,98302,List1A,white,man,,,,null,,,,,,,,,
11653.4,,,survey-text,109,1724484,0.0-13.0-3.19,98302,List1A,white,man,,,,,"{""Q0"":""luke is seducing jane""}","<img src=""stim_listA/seduce3.gif""style=""height:400px;""></stim_listA>",is seducing,,,,,,
249523.8,"<img src='img/portrait_matrix_list1.jpg' style='width:900px;height:500px;''></img><p>If you have memorised all the portraits and names and are ready to start, press Continue.</p><p><strong>Please note: Your memory of these faces will be tested 4 times during this experiment.</strong></p>",0,html-button-response,110,1974009,0.0-14.0-0.0,98302,List1A,white,man,,,,,,,,,,,,,
4776.1,"<img src=""portrait/WM1.jpg""style=""height:400px;""></img>",6,html-button-response,111,1979796,0.0-14.0-1.0,98302,List1A,white,man,,TRUE,6,,,,,,,,,,
null,CORRECT,,html-keyboard-response,112,1981305,0.0-14.0-2.0-0.0,98302,List1A,white,man,,,,null,,,,,,,,,
3437.7,"<img src=""portrait/WW2.jpg""style=""height:400px;""></img>",3,html-button-response,113,1984746,0.0-14.0-4.0,98302,List1A,white,man,,TRUE,3,,,,,,,,,,
null,CORRECT,,html-keyboard-response,114,1986267,0.0-14.0-5.0-0.0,98302,List1A,white,man,,,,null,,,,,,,,,
4416.7,"<img src=""portrait/BW2.jpg""style=""height:400px;""></img>",2,html-button-response,115,1990686,0.0-14.0-7.0,98302,List1A,white,man,,TRUE,2,,,,,,,,,,
null,CORRECT,,html-keyboard-response,116,1992212,0.0-14.0-8.0-0.0,98302,List1A,white,man,,,,null,,,,,,,,,
5200.7,"<img src=""portrait/BM2.jpg""style=""height:400px;""></img>",5,html-button-response,117,1997415,0.0-14.0-10.0,98302,List1A,white,man,,TRUE,5,,,,,,,,,,
null,CORRECT,,html-keyboard-response,118,1998938,0.0-14.0-11.0-0.0,98302,List1A,white,man,,,,null,,,,,,,,,
4084.5,"<img src=""portrait/WM2.jpg""style=""height:400px;""></img>",7,html-button-response,119,2003025,0.0-14.0-13.0,98302,List1A,white,man,,TRUE,7,,,,,,,,,,
null,CORRECT,,html-keyboard-response,120,2004540,0.0-14.0-14.0-0.0,98302,List1A,white,man,,,,null,,,,,,,,,
5096.4,"<img src=""portrait/BW1.jpg""style=""height:400px;""></img>",0,html-button-response,121,2009639,0.0-14.0-16.0,98302,List1A,white,man,,TRUE,0,,,,,,,,,,
null,CORRECT,,html-keyboard-response,122,2011144,0.0-14.0-17.0-0.0,98302,List1A,white,man,,,,null,,,,,,,,,
3803.6,"<img src=""portrait/WW1.jpg""style=""height:400px;""></img>",1,html-button-response,123,2014950,0.0-14.0-19.0,98302,List1A,white,man,,TRUE,1,,,,,,,,,,
null,CORRECT,,html-keyboard-response,124,2016464,0.0-14.0-20.0-0.0,98302,List1A,white,man,,,,null,,,,,,,,,
3432.4,"<img src=""portrait/BM1.jpg""style=""height:400px;""></img>",4,html-button-response,125,2019899,0.0-14.0-22.0,98302,List1A,white,man,,TRUE,4,,,,,,,,,,
null,CORRECT,,html-keyboard-response,126,2021413,0.0-14.0-23.0-0.0,98302,List1A,white,man,,,,null,,,,,,,,,
1997.1,<p>You got 8 out of 8 right first time. Press Continue.</p>,0,html-button-response,127,2023414,0.0-14.0-25.0,98302,List1A,white,man,,,,,,,,,,,,,
null,"<div style=""font-size:60px;"">+</div>",,html-keyboard-response,128,2024935,0.0-15.0-0.0,98302,List1A,white,man,,,,null,,,,,,,,,
null,"<img src=""stim_listA/copy7.gif""style=""height:400px;""></stim_listA>",,html-keyboard-response,129,2026941,0.0-15.0-1.0,98302,List1A,white,man,,,,null,,,,,,,,,
null,is copying,,html-keyboard-response,130,2028955,0.0-15.0-2.0,98302,List1A,white,man,,,,null,,,,,,,,,
15170.4,,,survey-text,131,2044130,0.0-15.0-3.0,98302,List1A,white,man,,,,,"{""Q0"":""kate is copying ruth""}","<img src=""stim_listA/copy7.gif""style=""height:400px;""></stim_listA>",is copying,,,,,,
null,"<div style=""font-size:60px;"">+</div>",,html-keyboard-response,132,2044639,0.0-15.0-0.1,98302,List1A,white,man,,,,null,,,,,,,,,
null,"<img src=""stim_listA/touch2.gif""style=""height:400px;""></stim_listA>",,html-keyboard-response,133,2046645,0.0-15.0-1.1,98302,List1A,white,man,,,,null,,,,,,,,,
null,is being touched by,,html-keyboard-response,134,2048661,0.0-15.0-2.1,98302,List1A,white,man,,,,null,,,,,,,,,
8274.6,,,survey-text,135,2056940,0.0-15.0-3.1,98302,List1A,white,man,,,,,"{""Q0"":""fred is copying beth""}","<img src=""stim_listA/touch2.gif""style=""height:400px;""></stim_listA>",is being touched by,,,,,,
null,"<div style=""font-size:60px;"">+</div>",,html-keyboard-response,136,2057450,0.0-15.0-0.2,98302,List1A,white,man,,,,null,,,,,,,,,
null,"<img src=""stim_listA/seduce8.gif""style=""height:400px;""></stim_listA>",,html-keyboard-response,137,2059455,0.0-15.0-1.2,98302,List1A,white,man,,,,null,,,,,,,,,
null,is being seduced by,,html-keyboard-response,138,2061469,0.0-15.0-2.2,98302,List1A,white,man,,,,null,,,,,,,,,
17136.5,,,survey-text,139,2078610,0.0-15.0-3.2,98302,List1A,white,man,,,,,"{""Q0"":""beth is seduced by ruth""}","<img src=""stim_listA/seduce8.gif""style=""height:400px;""></stim_listA>",is being seduced by,,,,,,
null,"<div style=""font-size:60px;"">+</div>",,html-keyboard-response,140,2079119,0.0-15.0-0.3,98302,List1A,white,man,,,,null,,,,,,,,,
null,"<img src=""stim_listA/oppose6.gif""style=""height:400px;""></stim_listA>",,html-keyboard-response,141,2081132,0.0-15.0-1.3,98302,List1A,white,man,,,,null,,,,,,,,,
null,is being opposed by,,html-keyboard-response,142,2083147,0.0-15.0-2.3,98302,List1A,white,man,,,,null,,,,,,,,,
16649.6,,,survey-text,143,2099801,0.0-15.0-3.3,98302,List1A,white,man,,,,,"{""Q0"":""luke is seduced by fred""}","<img src=""stim_listA/oppose6.gif""style=""height:400px;""></stim_listA>",is being opposed by,,,,,,
null,"<div style=""font-size:60px;"">+</div>",,html-keyboard-response,144,2100308,0.0-15.0-0.4,98302,List1A,white,man,,,,null,,,,,,,,,
null,"<img src=""stim_listA/greet2.gif""style=""height:400px;""></stim_listA>",,html-keyboard-response,145,2102321,0.0-15.0-1.4,98302,List1A,white,man,,,,null,,,,,,,,,
null,is being greeted by,,html-keyboard-response,146,2104333,0.0-15.0-2.4,98302,List1A,white,man,,,,null,,,,,,,,,
14806.8,,,survey-text,147,2119144,0.0-15.0-3.4,98302,List1A,white,man,,,,,"{""Q0"":""fred is being greeted by kate""}","<img src=""stim_listA/greet2.gif""style=""height:400px;""></stim_listA>",is being greeted by,,,,,,
null,"<div style=""font-size:60px;"">+</div>",,html-keyboard-response,148,2119656,0.0-15.0-0.5,98302,List1A,white,man,,,,null,,,,,,,,,
null,"<img src=""stim_listA/shout4.gif""style=""height:400px;""></stim_listA>",,html-keyboard-response,149,2121672,0.0-15.0-1.5,98302,List1A,white,man,,,,null,,,,,,,,,
null,is being shouted at by,,html-keyboard-response,150,2123685,0.0-15.0-2.5,98302,List1A,white,man,,,,null,,,,,,,,,
18060.9,,,survey-text,151,2141753,0.0-15.0-3.5,98302,List1A,white,man,,,,,"{""Q0"":""jane is beeing shouted at by dave""}","<img src=""stim_listA/shout4.gif""style=""height:400px;""></stim_listA>",is being shouted at by,,,,,,
null,"<div style=""font-size:60px;"">+</div>",,html-keyboard-response,152,2142262,0.0-15.0-0.6,98302,List1A,white,man,,,,null,,,,,,,,,
null,"<img src=""stim_listA/copy2.gif""style=""height:400px;""></stim_listA>",,html-keyboard-response,153,2144277,0.0-15.0-1.6,98302,List1A,white,man,,,,null,,,,,,,,,
null,is being copied by,,html-keyboard-response,154,2146292,0.0-15.0-2.6,98302,List1A,white,man,,,,null,,,,,,,,,
12694.8,,,survey-text,155,2158991,0.0-15.0-3.6,98302,List1A,white,man,,,,,"{""Q0"":""kate is beeing copied by dave""}","<img src=""stim_listA/copy2.gif""style=""height:400px;""></stim_listA>",is being copied by,,,,,,
null,"<div style=""font-size:60px;"">+</div>",,html-keyboard-response,156,2159497,0.0-15.0-0.7,98302,List1A,white,man,,,,null,,,,,,,,,
null,"<img src=""stim_listA/challenge3.gif""style=""height:400px;""></stim_listA>",,html-keyboard-response,157,2161502,0.0-15.0-1.7,98302,List1A,white,man,,,,null,,,,,,,,,
null,is challenging,,html-keyboard-response,158,2163510,0.0-15.0-2.7,98302,List1A,white,man,,,,null,,,,,,,,,
11341.4,,,survey-text,159,2174855,0.0-15.0-3.7,98302,List1A,white,man,,,,,"{""Q0"":""dave is challenging ruth""}","<img src=""stim_listA/challenge3.gif""style=""height:400px;""></stim_listA>",is challenging,,,,,,
null,"<div style=""font-size:60px;"">+</div>",,html-keyboard-response,160,2175359,0.0-15.0-0.8,98302,List1A,white,man,,,,null,,,,,,,,,
null,"<img src=""stim_listA/challenge6.gif""style=""height:400px;""></stim_listA>",,html-keyboard-response,161,2177367,0.0-15.0-1.8,98302,List1A,white,man,,,,null,,,,,,,,,
null,is being challenged by,,html-keyboard-response,162,2179385,0.0-15.0-2.8,98302,List1A,white,man,,,,null,,,,,,,,,
17200.9,,,survey-text,163,2196590,0.0-15.0-3.8,98302,List1A,white,man,,,,,"{""Q0"":""fred is being challenged by dave""}","<img src=""stim_listA/challenge6.gif""style=""height:400px;""></stim_listA>",is being challenged by,,,,,,
null,"<div style=""font-size:60px;"">+</div>",,html-keyboard-response,164,2197098,0.0-15.0-0.9,98302,List1A,white,man,,,,null,,,,,,,,,
null,"<img src=""stim_listA/shout1.gif""style=""height:400px;""></stim_listA>",,html-keyboard-response,165,2199107,0.0-15.0-1.9,98302,List1A,white,man,,,,null,,,,,,,,,
null,is shouting at,,html-keyboard-response,166,2201111,0.0-15.0-2.9,98302,List1A,white,man,,,,null,,,,,,,,,
8682.3,,,survey-text,167,2209798,0.0-15.0-3.9,98302,List1A,white,man,,,,,"{""Q0"":""beth is shouting at fred""}","<img src=""stim_listA/shout1.gif""style=""height:400px;""></stim_listA>",is shouting at,,,,,,
null,"<div style=""font-size:60px;"">+</div>",,html-keyboard-response,168,2210307,0.0-15.0-0.10,98302,List1A,white,man,,,,null,,,,,,,,,
null,"<img src=""stim_listA/seduce2.gif""style=""height:400px;""></stim_listA>",,html-keyboard-response,169,2212325,0.0-15.0-1.10,98302,List1A,white,man,,,,null,,,,,,,,,
null,is being seduced by,,html-keyboard-response,170,2214337,0.0-15.0-2.10,98302,List1A,white,man,,,,null,,,,,,,,,
12122.3,,,survey-text,171,2226464,0.0-15.0-3.10,98302,List1A,white,man,,,,,"{""Q0"":""mike is seducing beth""}","<img src=""stim_listA/seduce2.gif""style=""height:400px;""></stim_listA>",is being seduced by,,,,,,
null,"<div style=""font-size:60px;"">+</div>",,html-keyboard-response,172,2226975,0.0-15.0-0.11,98302,List1A,white,man,,,,null,,,,,,,,,
null,"<img src=""stim_listA/shout8.gif""style=""height:400px;""></stim_listA>",,html-keyboard-response,173,2228994,0.0-15.0-1.11,98302,List1A,white,man,,,,null,,,,,,,,,
null,is being shouted at by,,html-keyboard-response,174,2231009,0.0-15.0-2.11,98302,List1A,white,man,,,,null,,,,,,,,,
18049.7,,,survey-text,175,2249063,0.0-15.0-3.11,98302,List1A,white,man,,,,,"{""Q0"":""jane is beeing shouted at by kate""}","<img src=""stim_listA/shout8.gif""style=""height:400px;""></stim_listA>",is being shouted at by,,,,,,
null,"<div style=""font-size:60px;"">+</div>",,html-keyboard-response,176,2249573,0.0-15.0-0.12,98302,List1A,white,man,,,,null,,,,,,,,,
null,"<img src=""stim_listA/greet4.gif""style=""height:400px;""></stim_listA>",,html-keyboard-response,177,2251577,0.0-15.0-1.12,98302,List1A,white,man,,,,null,,,,,,,,,
null,is being greeted by,,html-keyboard-response,178,2253583,0.0-15.0-2.12,98302,List1A,white,man,,,,null,,,,,,,,,
14105.9,,,survey-text,179,2267694,0.0-15.0-3.12,98302,List1A,white,man,,,,,"{""Q0"":""jane is beeing greeted by luke""}","<img src=""stim_listA/greet4.gif""style=""height:400px;""></stim_listA>",is being greeted by,,,,,,
null,"<div style=""font-size:60px;"">+</div>",,html-keyboard-response,180,2268207,0.0-15.0-0.13,98302,List1A,white,man,,,,null,,,,,,,,,
null,"<img src=""stim_listA/challenge2.gif""style=""height:400px;""></stim_listA>",,html-keyboard-response,181,2270222,0.0-15.0-1.13,98302,List1A,white,man,,,,null,,,,,,,,,
null,is being challenged by,,html-keyboard-response,182,2272237,0.0-15.0-2.13,98302,List1A,white,man,,,,null,,,,,,,,,
19542.3,,,survey-text,183,2291783,0.0-15.0-3.13,98302,List1A,white,man,,,,,"{""Q0"":""fred is beeing challenged by kate""}","<img src=""stim_listA/challenge2.gif""style=""height:400px;""></stim_listA>",is being challenged by,,,,,,
null,"<div style=""font-size:60px;"">+</div>",,html-keyboard-response,184,2292295,0.0-15.0-0.14,98302,List1A,white,man,,,,null,,,,,,,,,
null,"<img src=""stim_listA/seduce6.gif""style=""height:400px;""></stim_listA>",,html-keyboard-response,185,2294309,0.0-15.0-1.14,98302,List1A,white,man,,,,null,,,,,,,,,
null,is being seduced by,,html-keyboard-response,186,2296325,0.0-15.0-2.14,98302,List1A,white,man,,,,null,,,,,,,,,
14584.8,,,survey-text,187,2310914,0.0-15.0-3.14,98302,List1A,white,man,,,,,"{""Q0"":""luke is beeing seduced by mike""}","<img src=""stim_listA/seduce6.gif""style=""height:400px;""></stim_listA>",is being seduced by,,,,,,
null,"<div style=""font-size:60px;"">+</div>",,html-keyboard-response,188,2311420,0.0-15.0-0.15,98302,List1A,white,man,,,,null,,,,,,,,,
null,"<img src=""stim_listA/copy3.gif""style=""height:400px;""></stim_listA>",,html-keyboard-response,189,2313439,0.0-15.0-1.15,98302,List1A,white,man,,,,null,,,,,,,,,
null,is copying,,html-keyboard-response,190,2315442,0.0-15.0-2.15,98302,List1A,white,man,,,,null,,,,,,,,,
8547.6,,,survey-text,191,2323994,0.0-15.0-3.15,98302,List1A,white,man,,,,,"{""Q0"":""dave is copying""}","<img src=""stim_listA/copy3.gif""style=""height:400px;""></stim_listA>",is copying,,,,,,
null,"<div style=""font-size:60px;"">+</div>",,html-keyboard-response,192,2324498,0.0-15.0-0.16,98302,List1A,white,man,,,,null,,,,,,,,,
null,"<img src=""stim_listA/copy5.gif""style=""height:400px;""></stim_listA>",,html-keyboard-response,193,2326516,0.0-15.0-1.16,98302,List1A,white,man,,,,null,,,,,,,,,
null,is copying,,html-keyboard-response,194,2328530,0.0-15.0-2.16,98302,List1A,white,man,,,,null,,,,,,,,,
18390.6,,,survey-text,195,2346925,0.0-15.0-3.16,98302,List1A,white,man,,,,,"{""Q0"":""luke is copying jane""}","<img src=""stim_listA/copy5.gif""style=""height:400px;""></stim_listA>",is copying,,,,,,
null,"<div style=""font-size:60px;"">+</div>",,html-keyboard-response,196,2347434,0.0-15.0-0.17,98302,List1A,white,man,,,,null,,,,,,,,,
null,"<img src=""stim_listA/oppose5.gif""style=""height:400px;""></stim_listA>",,html-keyboard-response,197,2349445,0.0-15.0-1.17,98302,List1A,white,man,,,,null,,,,,,,,,
null,is opposing,,html-keyboard-response,198,2351458,0.0-15.0-2.17,98302,List1A,white,man,,,,null,,,,,,,,,
13768.6,,,survey-text,199,2365231,0.0-15.0-3.17,98302,List1A,white,man,,,,,"{""Q0"":""mike is opposing dave""}","<img src=""stim_listA/oppose5.gif""style=""height:400px;""></stim_listA>",is opposing,,,,,,
null,"<div style=""font-size:60px;"">+</div>",,html-keyboard-response,200,2365735,0.0-15.0-0.18,98302,List1A,white,man,,,,null,,,,,,,,,
null,"<img src=""stim_listA/oppose3.gif""style=""height:400px;""></stim_listA>",,html-keyboard-response,201,2367743,0.0-15.0-1.18,98302,List1A,white,man,,,,null,,,,,,,,,
null,is opposing,,html-keyboard-response,202,2369748,0.0-15.0-2.18,98302,List1A,white,man,,,,null,,,,,,,,,
10429.6,,,survey-text,203,2380183,0.0-15.0-3.18,98302,List1A,white,man,,,,,"{""Q0"":""jane is opposing dave""}","<img src=""stim_listA/oppose3.gif""style=""height:400px;""></stim_listA>",is opposing,,,,,,
null,"<div style=""font-size:60px;"">+</div>",,html-keyboard-response,204,2380690,0.0-15.0-0.19,98302,List1A,white,man,,,,null,,,,,,,,,
null,"<img src=""stim_listA/seduce7.gif""style=""height:400px;""></stim_listA>",,html-keyboard-response,205,2382709,0.0-15.0-1.19,98302,List1A,white,man,,,,null,,,,,,,,,
null,is seducing,,html-keyboard-response,206,2384718,0.0-15.0-2.19,98302,List1A,white,man,,,,null,,,,,,,,,
10212.3,,,survey-text,207,2394935,0.0-15.0-3.19,98302,List1A,white,man,,,,,"{""Q0"":""beth is seducing jane""}","<img src=""stim_listA/seduce7.gif""style=""height:400px;""></stim_listA>",is seducing,,,,,,
5863.5,"<img src='img/portrait_matrix_list1.jpg' style='width:900px;height:500px;''></img><p>If you have memorised all the portraits and names and are ready to start, press Continue.</p><p><strong>Please note: Your memory of these faces will be tested 4 times during this experiment.</strong></p>",0,html-button-response,208,2400801,0.0-16.0-0.0,98302,List1A,white,man,,,,,,,,,,,,,
4649.4,"<img src=""portrait/WM2.jpg""style=""height:400px;""></img>",7,html-button-response,209,2406456,0.0-16.0-1.0,98302,List1A,white,man,,TRUE,7,,,,,,,,,,
null,CORRECT,,html-keyboard-response,210,2407970,0.0-16.0-2.0-0.0,98302,List1A,white,man,,,,null,,,,,,,,,
4643,"<img src=""portrait/BM1.jpg""style=""height:400px;""></img>",4,html-button-response,211,2412616,0.0-16.0-4.0,98302,List1A,white,man,,TRUE,4,,,,,,,,,,
null,CORRECT,,html-keyboard-response,212,2414130,0.0-16.0-5.0-0.0,98302,List1A,white,man,,,,null,,,,,,,,,
5499.1,"<img src=""portrait/WW1.jpg""style=""height:400px;""></img>",1,html-button-response,213,2419632,0.0-16.0-7.0,98302,List1A,white,man,,TRUE,1,,,,,,,,,,
null,CORRECT,,html-keyboard-response,214,2421151,0.0-16.0-8.0-0.0,98302,List1A,white,man,,,,null,,,,,,,,,
3523.8,"<img src=""portrait/WW2.jpg""style=""height:400px;""></img>",3,html-button-response,215,2424679,0.0-16.0-10.0,98302,List1A,white,man,,TRUE,3,,,,,,,,,,
null,CORRECT,,html-keyboard-response,216,2426208,0.0-16.0-11.0-0.0,98302,List1A,white,man,,,,null,,,,,,,,,
4659.3,"<img src=""portrait/WM1.jpg""style=""height:400px;""></img>",6,html-button-response,217,2430870,0.0-16.0-13.0,98302,List1A,white,man,,TRUE,6,,,,,,,,,,
null,CORRECT,,html-keyboard-response,218,2432396,0.0-16.0-14.0-0.0,98302,List1A,white,man,,,,null,,,,,,,,,
4132.8,"<img src=""portrait/BW2.jpg""style=""height:400px;""></img>",2,html-button-response,219,2436532,0.0-16.0-16.0,98302,List1A,white,man,,TRUE,2,,,,,,,,,,
null,CORRECT,,html-keyboard-response,220,2438056,0.0-16.0-17.0-0.0,98302,List1A,white,man,,,,null,,,,,,,,,
3643.7,"<img src=""portrait/BW1.jpg""style=""height:400px;""></img>",0,html-button-response,221,2441702,0.0-16.0-19.0,98302,List1A,white,man,,TRUE,0,,,,,,,,,,
null,CORRECT,,html-keyboard-response,222,2443225,0.0-16.0-20.0-0.0,98302,List1A,white,man,,,,null,,,,,,,,,
3773,"<img src=""portrait/BM2.jpg""style=""height:400px;""></img>",5,html-button-response,223,2447001,0.0-16.0-22.0,98302,List1A,white,man,,TRUE,5,,,,,,,,,,
null,CORRECT,,html-keyboard-response,224,2448505,0.0-16.0-23.0-0.0,98302,List1A,white,man,,,,null,,,,,,,,,
2259.3,<p>You got 8 out of 8 right first time. Press Continue.</p>,0,html-button-response,225,2450766,0.0-16.0-25.0,98302,List1A,white,man,,,,,,,,,,,,,
null,"<div style=""font-size:60px;"">+</div>",,html-keyboard-response,226,2452271,0.0-17.0-0.0,98302,List1A,white,man,,,,null,,,,,,,,,
null,"<img src=""stim_listA/look4.gif""style=""height:400px;""></stim_listA>",,html-keyboard-response,227,2454276,0.0-17.0-1.0,98302,List1A,white,man,,,,null,,,,,,,,,
null,is being looked at by,,html-keyboard-response,228,2456293,0.0-17.0-2.0,98302,List1A,white,man,,,,null,,,,,,,,,
13723,,,survey-text,229,2470020,0.0-17.0-3.0,98302,List1A,white,man,,,,,"{""Q0"":""jane is beeing looked at by dave""}","<img src=""stim_listA/look4.gif""style=""height:400px;""></stim_listA>",is being looked at by,,,,,,
null,"<div style=""font-size:60px;"">+</div>",,html-keyboard-response,230,2470525,0.0-17.0-0.1,98302,List1A,white,man,,,,null,,,,,,,,,
null,"<img src=""stim_listA/kiss7.gif""style=""height:400px;""></stim_listA>",,html-keyboard-response,231,2472541,0.0-17.0-1.1,98302,List1A,white,man,,,,null,,,,,,,,,
null,is kissing,,html-keyboard-response,232,2474556,0.0-17.0-2.1,98302,List1A,white,man,,,,null,,,,,,,,,
8264.8,,,survey-text,233,2482826,0.0-17.0-3.1,98302,List1A,white,man,,,,,"{""Q0"":""ruth is kissing beth""}","<img src=""stim_listA/kiss7.gif""style=""height:400px;""></stim_listA>",is kissing,,,,,,
null,"<div style=""font-size:60px;"">+</div>",,html-keyboard-response,234,2483339,0.0-17.0-0.2,98302,List1A,white,man,,,,null,,,,,,,,,
null,"<img src=""stim_listA/touch8.gif""style=""height:400px;""></stim_listA>",,html-keyboard-response,235,2485345,0.0-17.0-1.2,98302,List1A,white,man,,,,null,,,,,,,,,
null,is being touched by,,html-keyboard-response,236,2487362,0.0-17.0-2.2,98302,List1A,white,man,,,,null,,,,,,,,,
15129.4,,,survey-text,237,2502496,0.0-17.0-3.2,98302,List1A,white,man,,,,,"{""Q0"":""ruth is beeing touched by beth""}","<img src=""stim_listA/touch8.gif""style=""height:400px;""></stim_listA>",is being touched by,,,,,,
null,"<div style=""font-size:60px;"">+</div>",,html-keyboard-response,238,2503006,0.0-17.0-0.3,98302,List1A,white,man,,,,null,,,,,,,,,
null,"<img src=""stim_listA/look6.gif""style=""height:400px;""></stim_listA>",,html-keyboard-response,239,2505023,0.0-17.0-1.3,98302,List1A,white,man,,,,null,,,,,,,,,
null,is being looked at by,,html-keyboard-response,240,2507038,0.0-17.0-2.3,98302,List1A,white,man,,,,null,,,,,,,,,
13793.8,,,survey-text,241,2520836,0.0-17.0-3.3,98302,List1A,white,man,,,,,"{""Q0"":""dave is beeing looked at by mike""}","<img src=""stim_listA/look6.gif""style=""height:400px;""></stim_listA>",is being looked at by,,,,,,
null,"<div style=""font-size:60px;"">+</div>",,html-keyboard-response,242,2521347,0.0-17.0-0.4,98302,List1A,white,man,,,,null,,,,,,,,,
null,"<img src=""stim_listA/oppose2.gif""style=""height:400px;""></stim_listA>",,html-keyboard-response,243,2523357,0.0-17.0-1.4,98302,List1A,white,man,,,,null,,,,,,,,,
null,is being opposed by,,html-keyboard-response,244,2525371,0.0-17.0-2.4,98302,List1A,white,man,,,,null,,,,,,,,,
17070.5,,,survey-text,245,2542445,0.0-17.0-3.4,98302,List1A,white,man,,,,,"{""Q0"":""fred is beeing opposed by beth""}","<img src=""stim_listA/oppose2.gif""style=""height:400px;""></stim_listA>",is being opposed by,,,,,,
null,"<div style=""font-size:60px;"">+</div>",,html-keyboard-response,246,2542955,0.0-17.0-0.5,98302,List1A,white,man,,,,null,,,,,,,,,
null,"<img src=""stim_listA/look1.gif""style=""height:400px;""></stim_listA>",,html-keyboard-response,247,2544960,0.0-17.0-1.5,98302,List1A,white,man,,,,null,,,,,,,,,
null,is looking at,,html-keyboard-response,248,2546971,0.0-17.0-2.5,98302,List1A,white,man,,,,null,,,,,,,,,
8617.4,,,survey-text,249,2555593,0.0-17.0-3.5,98302,List1A,white,man,,,,,"{""Q0"":""fred is looking at beth""}","<img src=""stim_listA/look1.gif""style=""height:400px;""></stim_listA>",is looking at,,,,,,
null,"<div style=""font-size:60px;"">+</div>",,html-keyboard-response,250,2556096,0.0-17.0-0.6,98302,List1A,white,man,,,,null,,,,,,,,,
null,"<img src=""stim_listA/kiss1.gif""style=""height:400px;""></stim_listA>",,html-keyboard-response,251,2558113,0.0-17.0-1.6,98302,List1A,white,man,,,,null,,,,,,,,,
null,is kissing,,html-keyboard-response,252,2560125,0.0-17.0-2.6,98302,List1A,white,man,,,,null,,,,,,,,,
7215.4,,,survey-text,253,2567344,0.0-17.0-3.6,98302,List1A,white,man,,,,,"{""Q0"":""fred is kissing beth""}","<img src=""stim_listA/kiss1.gif""style=""height:400px;""></stim_listA>",is kissing,,,,,,
null,"<div style=""font-size:60px;"">+</div>",,html-keyboard-response,254,2567850,0.0-17.0-0.7,98302,List1A,white,man,,,,null,,,,,,,,,
null,"<img src=""stim_listA/shout2.gif""style=""height:400px;""></stim_listA>",,html-keyboard-response,255,2569855,0.0-17.0-1.7,98302,List1A,white,man,,,,null,,,,,,,,,
null,is being shouted at by,,html-keyboard-response,256,2571859,0.0-17.0-2.7,98302,List1A,white,man,,,,null,,,,,,,,,
31133.4,,,survey-text,257,2602997,0.0-17.0-3.7,98302,List1A,white,man,,,,,"{""Q0"":""kate is being shouted at by fred""}","<img src=""stim_listA/shout2.gif""style=""height:400px;""></stim_listA>",is being shouted at by,,,,,,
null,"<div style=""font-size:60px;"">+</div>",,html-keyboard-response,258,2603509,0.0-17.0-0.8,98302,List1A,white,man,,,,null,,,,,,,,,
null,"<img src=""stim_listA/touch3.gif""style=""height:400px;""></stim_listA>",,html-keyboard-response,259,2605526,0.0-17.0-1.8,98302,List1A,white,man,,,,null,,,,,,,,,
null,is touching,,html-keyboard-response,260,2607537,0.0-17.0-2.8,98302,List1A,white,man,,,,null,,,,,,,,,
11576.7,,,survey-text,261,2619118,0.0-17.0-3.8,98302,List1A,white,man,,,,,"{""Q0"":""dave is touching jane""}","<img src=""stim_listA/touch3.gif""style=""height:400px;""></stim_listA>",is touching,,,,,,
null,"<div style=""font-size:60px;"">+</div>",,html-keyboard-response,262,2619630,0.0-17.0-0.9,98302,List1A,white,man,,,,null,,,,,,,,,
null,"<img src=""stim_listA/shout6.gif""style=""height:400px;""></stim_listA>",,html-keyboard-response,263,2621638,0.0-17.0-1.9,98302,List1A,white,man,,,,null,,,,,,,,,
null,is being shouted at by,,html-keyboard-response,264,2623642,0.0-17.0-2.9,98302,List1A,white,man,,,,null,,,,,,,,,
9250.9,,,survey-text,265,2632897,0.0-17.0-3.9,98302,List1A,white,man,,,,,"{""Q0"":""dave is shouting at mike""}","<img src=""stim_listA/shout6.gif""style=""height:400px;""></stim_listA>",is being shouted at by,,,,,,
null,"<div style=""font-size:60px;"">+</div>",,html-keyboard-response,266,2633407,0.0-17.0-0.10,98302,List1A,white,man,,,,null,,,,,,,,,
null,"<img src=""stim_listA/seduce5.gif""style=""height:400px;""></stim_listA>",,html-keyboard-response,267,2635425,0.0-17.0-1.10,98302,List1A,white,man,,,,null,,,,,,,,,
null,is seducing,,html-keyboard-response,268,2637428,0.0-17.0-2.10,98302,List1A,white,man,,,,null,,,,,,,,,
12330,,,survey-text,269,2649762,0.0-17.0-3.10,98302,List1A,white,man,,,,,"{""Q0"":""dave is seducing fred""}","<img src=""stim_listA/seduce5.gif""style=""height:400px;""></stim_listA>",is seducing,,,,,,
null,"<div style=""font-size:60px;"">+</div>",,html-keyboard-response,270,2650269,0.0-17.0-0.11,98302,List1A,white,man,,,,null,,,,,,,,,
null,"<img src=""stim_listA/kiss3.gif""style=""height:400px;""></stim_listA>",,html-keyboard-response,271,2652275,0.0-17.0-1.11,98302,List1A,white,man,,,,null,,,,,,,,,
null,is kissing,,html-keyboard-response,272,2654278,0.0-17.0-2.11,98302,List1A,white,man,,,,null,,,,,,,,,
9751.2,,,survey-text,273,2664031,0.0-17.0-3.11,98302,List1A,white,man,,,,,"{""Q0"":""luke is kissing ruth""}","<img src=""stim_listA/kiss3.gif""style=""height:400px;""></stim_listA>",is kissing,,,,,,
null,"<div style=""font-size:60px;"">+</div>",,html-keyboard-response,274,2664534,0.0-17.0-0.12,98302,List1A,white,man,,,,null,,,,,,,,,
null,"<img src=""stim_listA/touch1.gif""style=""height:400px;""></stim_listA>",,html-keyboard-response,275,2666543,0.0-17.0-1.12,98302,List1A,white,man,,,,null,,,,,,,,,
null,is touching,,html-keyboard-response,276,2668546,0.0-17.0-2.12,98302,List1A,white,man,,,,null,,,,,,,,,
10600.4,,,survey-text,277,2679151,0.0-17.0-3.12,98302,List1A,white,man,,,,,"{""Q0"":""mike is touching kate""}","<img src=""stim_listA/touch1.gif""style=""height:400px;""></stim_listA>",is touching,,,,,,
null,"<div style=""font-size:60px;"">+</div>",,html-keyboard-response,278,2679656,0.0-17.0-0.13,98302,List1A,white,man,,,,null,,,,,,,,,
null,"<img src=""stim_listA/seduce4.gif""style=""height:400px;""></stim_listA>",,html-keyboard-response,279,2681672,0.0-17.0-1.13,98302,List1A,white,man,,,,null,,,,,,,,,
null,is being seduced by,,html-keyboard-response,280,2683686,0.0-17.0-2.13,98302,List1A,white,man,,,,null,,,,,,,,,
18434,,,survey-text,281,2702127,0.0-17.0-3.13,98302,List1A,white,man,,,,,"{""Q0"":""ruth is being seduced by dave""}","<img src=""stim_listA/seduce4.gif""style=""height:400px;""></stim_listA>",is being seduced by,,,,,,
null,"<div style=""font-size:60px;"">+</div>",,html-keyboard-response,282,2702630,0.0-17.0-0.14,98302,List1A,white,man,,,,null,,,,,,,,,
null,"<img src=""stim_listA/oppose7.gif""style=""height:400px;""></stim_listA>",,html-keyboard-response,283,2704637,0.0-17.0-1.14,98302,List1A,white,man,,,,null,,,,,,,,,
null,is opposing,,html-keyboard-response,284,2706650,0.0-17.0-2.14,98302,List1A,white,man,,,,null,,,,,,,,,
8835.2,,,survey-text,285,2715490,0.0-17.0-3.14,98302,List1A,white,man,,,,,"{""Q0"":""jane is fighting kate""}","<img src=""stim_listA/oppose7.gif""style=""height:400px;""></stim_listA>",is opposing,,,,,,
null,"<div style=""font-size:60px;"">+</div>",,html-keyboard-response,286,2715996,0.0-17.0-0.15,98302,List1A,white,man,,,,null,,,,,,,,,
null,"<img src=""stim_listA/oppose1.gif""style=""height:400px;""></stim_listA>",,html-keyboard-response,287,2718010,0.0-17.0-1.15,98302,List1A,white,man,,,,null,,,,,,,,,
null,is opposing,,html-keyboard-response,288,2720025,0.0-17.0-2.15,98302,List1A,white,man,,,,null,,,,,,,,,
9726.8,,,survey-text,289,2729756,0.0-17.0-3.15,98302,List1A,white,man,,,,,"{""Q0"":""mike is opposing kate""}","<img src=""stim_listA/oppose1.gif""style=""height:400px;""></stim_listA>",is opposing,,,,,,
null,"<div style=""font-size:60px;"">+</div>",,html-keyboard-response,290,2730264,0.0-17.0-0.16,98302,List1A,white,man,,,,null,,,,,,,,,
null,"<img src=""stim_listA/hug6.gif""style=""height:400px;""></stim_listA>",,html-keyboard-response,291,2732278,0.0-17.0-1.16,98302,List1A,white,man,,,,null,,,,,,,,,
null,is being hugged by,,html-keyboard-response,292,2734292,0.0-17.0-2.16,98302,List1A,white,man,,,,null,,,,,,,,,
11614.5,,,survey-text,293,2745911,0.0-17.0-3.16,98302,List1A,white,man,,,,,"{""Q0"":""dave is hugged by mike""}","<img src=""stim_listA/hug6.gif""style=""height:400px;""></stim_listA>",is being hugged by,,,,,,
null,"<div style=""font-size:60px;"">+</div>",,html-keyboard-response,294,2746420,0.0-17.0-0.17,98302,List1A,white,man,,,,null,,,,,,,,,
null,"<img src=""stim_listA/challenge5.gif""style=""height:400px;""></stim_listA>",,html-keyboard-response,295,2748430,0.0-17.0-1.17,98302,List1A,white,man,,,,null,,,,,,,,,
null,is challenging,,html-keyboard-response,296,2750447,0.0-17.0-2.17,98302,List1A,white,man,,,,null,,,,,,,,,
10052,,,survey-text,297,2760503,0.0-17.0-3.17,98302,List1A,white,man,,,,,"{""Q0"":""mike is challenging luke""}","<img src=""stim_listA/challenge5.gif""style=""height:400px;""></stim_listA>",is challenging,,,,,,
null,"<div style=""font-size:60px;"">+</div>",,html-keyboard-response,298,2761016,0.0-17.0-0.18,98302,List1A,white,man,,,,null,,,,,,,,,
null,"<img src=""stim_listA/look5.gif""style=""height:400px;""></stim_listA>",,html-keyboard-response,299,2763029,0.0-17.0-1.18,98302,List1A,white,man,,,,null,,,,,,,,,
null,is looking at,,html-keyboard-response,300,2765042,0.0-17.0-2.18,98302,List1A,white,man,,,,null,,,,,,,,,
11913.5,,,survey-text,301,2776960,0.0-17.0-3.18,98302,List1A,white,man,,,,,"{""Q0"":""fred is looking at luke""}","<img src=""stim_listA/look5.gif""style=""height:400px;""></stim_listA>",is looking at,,,,,,
null,"<div style=""font-size:60px;"">+</div>",,html-keyboard-response,302,2777468,0.0-17.0-0.19,98302,List1A,white,man,,,,null,,,,,,,,,
null,"<img src=""stim_listA/oppose8.gif""style=""height:400px;""></stim_listA>",,html-keyboard-response,303,2779475,0.0-17.0-1.19,98302,List1A,white,man,,,,null,,,,,,,,,
null,is being opposed by,,html-keyboard-response,304,2781491,0.0-17.0-2.19,98302,List1A,white,man,,,,null,,,,,,,,,
13060.7,,,survey-text,305,2794556,0.0-17.0-3.19,98302,List1A,white,man,,,,,"{""Q0"":""beth is opposing luke""}","<img src=""stim_listA/oppose8.gif""style=""height:400px;""></stim_listA>",is being opposed by,,,,,,
2709.2,"<img src='img/portrait_matrix_list1.jpg' style='width:900px;height:500px;''></img><p>If you have memorised all the portraits and names and are ready to start, press Continue.</p><p><strong>Please note: Your memory of these faces will be tested 4 times during this experiment.</strong></p>",0,html-button-response,306,2797267,0.0-18.0-0.0,98302,List1A,white,man,,,,,,,,,,,,,
4683.6,"<img src=""portrait/WW1.jpg""style=""height:400px;""></img>",1,html-button-response,307,2802967,0.0-18.0-1.0,98302,List1A,white,man,,TRUE,1,,,,,,,,,,
null,CORRECT,,html-keyboard-response,308,2804494,0.0-18.0-2.0-0.0,98302,List1A,white,man,,,,null,,,,,,,,,
3123.8,"<img src=""portrait/WM2.jpg""style=""height:400px;""></img>",7,html-button-response,309,2807621,0.0-18.0-4.0,98302,List1A,white,man,,TRUE,7,,,,,,,,,,
null,CORRECT,,html-keyboard-response,310,2809126,0.0-18.0-5.0-0.0,98302,List1A,white,man,,,,null,,,,,,,,,
3050.3,"<img src=""portrait/WW2.jpg""style=""height:400px;""></img>",3,html-button-response,311,2812179,0.0-18.0-7.0,98302,List1A,white,man,,TRUE,3,,,,,,,,,,
null,CORRECT,,html-keyboard-response,312,2813694,0.0-18.0-8.0-0.0,98302,List1A,white,man,,,,null,,,,,,,,,
3894.4,"<img src=""portrait/BW2.jpg""style=""height:400px;""></img>",2,html-button-response,313,2817592,0.0-18.0-10.0,98302,List1A,white,man,,TRUE,2,,,,,,,,,,
null,CORRECT,,html-keyboard-response,314,2819118,0.0-18.0-11.0-0.0,98302,List1A,white,man,,,,null,,,,,,,,,
5907.1,"<img src=""portrait/BM1.jpg""style=""height:400px;""></img>",4,html-button-response,315,2825027,0.0-18.0-13.0,98302,List1A,white,man,,TRUE,4,,,,,,,,,,
null,CORRECT,,html-keyboard-response,316,2826547,0.0-18.0-14.0-0.0,98302,List1A,white,man,,,,null,,,,,,,,,
5290.1,"<img src=""portrait/BW1.jpg""style=""height:400px;""></img>",0,html-button-response,317,2831839,0.0-18.0-16.0,98302,List1A,white,man,,TRUE,0,,,,,,,,,,
null,CORRECT,,html-keyboard-response,318,2833367,0.0-18.0-17.0-0.0,98302,List1A,white,man,,,,null,,,,,,,,,
3959.4,"<img src=""portrait/BM2.jpg""style=""height:400px;""></img>",5,html-button-response,319,2837329,0.0-18.0-19.0,98302,List1A,white,man,,TRUE,5,,,,,,,,,,
null,CORRECT,,html-keyboard-response,320,2838854,0.0-18.0-20.0-0.0,98302,List1A,white,man,,,,null,,,,,,,,,
4715.1,"<img src=""portrait/WM1.jpg""style=""height:400px;""></img>",6,html-button-response,321,2843572,0.0-18.0-22.0,98302,List1A,white,man,,TRUE,6,,,,,,,,,,
null,CORRECT,,html-keyboard-response,322,2845087,0.0-18.0-23.0-0.0,98302,List1A,white,man,,,,null,,,,,,,,,
1687,<p>You got 8 out of 8 right first time. Press Continue.</p>,0,html-button-response,323,2846777,0.0-18.0-25.0,98302,List1A,white,man,,,,,,,,,,,,,
null,"<div style=""font-size:60px;"">+</div>",,html-keyboard-response,324,2848300,0.0-19.0-0.0,98302,List1A,white,man,,,,null,,,,,,,,,
null,"<img src=""stim_listA/touch5.gif""style=""height:400px;""></stim_listA>",,html-keyboard-response,325,2850321,0.0-19.0-1.0,98302,List1A,white,man,,,,null,,,,,,,,,
null,is touching,,html-keyboard-response,326,2852334,0.0-19.0-2.0,98302,List1A,white,man,,,,null,,,,,,,,,
9726,,,survey-text,327,2862065,0.0-19.0-3.0,98302,List1A,white,man,,,,,"{""Q0"":""dave is touching mike""}","<img src=""stim_listA/touch5.gif""style=""height:400px;""></stim_listA>",is touching,,,,,,
null,"<div style=""font-size:60px;"">+</div>",,html-keyboard-response,328,2862573,0.0-19.0-0.1,98302,List1A,white,man,,,,null,,,,,,,,,
null,"<img src=""stim_listA/greet6.gif""style=""height:400px;""></stim_listA>",,html-keyboard-response,329,2864593,0.0-19.0-1.1,98302,List1A,white,man,,,,null,,,,,,,,,
null,is being greeted by,,html-keyboard-response,330,2866609,0.0-19.0-2.1,98302,List1A,white,man,,,,null,,,,,,,,,
16985.2,,,survey-text,331,2883599,0.0-19.0-3.1,98302,List1A,white,man,,,,,"{""Q0"":""fred is being seduced by dave""}","<img src=""stim_listA/greet6.gif""style=""height:400px;""></stim_listA>",is being greeted by,,,,,,
null,"<div style=""font-size:60px;"">+</div>",,html-keyboard-response,332,2884108,0.0-19.0-0.2,98302,List1A,white,man,,,,null,,,,,,,,,
null,"<img src=""stim_listA/copy6.gif""style=""height:400px;""></stim_listA>",,html-keyboard-response,333,2886121,0.0-19.0-1.2,98302,List1A,white,man,,,,null,,,,,,,,,
null,is being copied by,,html-keyboard-response,334,2888136,0.0-19.0-2.2,98302,List1A,white,man,,,,null,,,,,,,,,
11136.8,,,survey-text,335,2899277,0.0-19.0-3.2,98302,List1A,white,man,,,,,"{""Q0"":""fred is being copied by dave""}","<img src=""stim_listA/copy6.gif""style=""height:400px;""></stim_listA>",is being copied by,,,,,,
null,"<div style=""font-size:60px;"">+</div>",,html-keyboard-response,336,2899794,0.0-19.0-0.3,98302,List1A,white,man,,,,null,,,,,,,,,
null,"<img src=""stim_listA/hug3.gif""style=""height:400px;""></stim_listA>",,html-keyboard-response,337,2901807,0.0-19.0-1.3,98302,List1A,white,man,,,,null,,,,,,,,,
null,is hugging,,html-keyboard-response,338,2903817,0.0-19.0-2.3,98302,List1A,white,man,,,,null,,,,,,,,,
10394.7,,,survey-text,339,2914216,0.0-19.0-3.3,98302,List1A,white,man,,,,,"{""Q0"":""ruth is hugging luke""}","<img src=""stim_listA/hug3.gif""style=""height:400px;""></stim_listA>",is hugging,,,,,,
null,"<div style=""font-size:60px;"">+</div>",,html-keyboard-response,340,2914734,0.0-19.0-0.4,98302,List1A,white,man,,,,null,,,,,,,,,
null,"<img src=""stim_listA/look7.gif""style=""height:400px;""></stim_listA>",,html-keyboard-response,341,2916749,0.0-19.0-1.4,98302,List1A,white,man,,,,null,,,,,,,,,
null,is looking at,,html-keyboard-response,342,2918762,0.0-19.0-2.4,98302,List1A,white,man,,,,null,,,,,,,,,
8361.2,,,survey-text,343,2927128,0.0-19.0-3.4,98302,List1A,white,man,,,,,"{""Q0"":""ruth is looking at beth""}","<img src=""stim_listA/look7.gif""style=""height:400px;""></stim_listA>",is looking at,,,,,,
null,"<div style=""font-size:60px;"">+</div>",,html-keyboard-response,344,2927646,0.0-19.0-0.5,98302,List1A,white,man,,,,null,,,,,,,,,
null,"<img src=""stim_listA/hug8.gif""style=""height:400px;""></stim_listA>",,html-keyboard-response,345,2929652,0.0-19.0-1.5,98302,List1A,white,man,,,,null,,,,,,,,,
null,is being hugged by,,html-keyboard-response,346,2931656,0.0-19.0-2.5,98302,List1A,white,man,,,,null,,,,,,,,,
9535.5,,,survey-text,347,2941195,0.0-19.0-3.5,98302,List1A,white,man,,,,,"{""Q0"":""kate is hugging jane""}","<img src=""stim_listA/hug8.gif""style=""height:400px;""></stim_listA>",is being hugged by,,,,,,
null,"<div style=""font-size:60px;"">+</div>",,html-keyboard-response,348,2941700,0.0-19.0-0.6,98302,List1A,white,man,,,,null,,,,,,,,,
null,"<img src=""stim_listA/hug4.gif""style=""height:400px;""></stim_listA>",,html-keyboard-response,349,2943717,0.0-19.0-1.6,98302,List1A,white,man,,,,null,,,,,,,,,
null,is being hugged by,,html-keyboard-response,350,2945726,0.0-19.0-2.6,98302,List1A,white,man,,,,null,,,,,,,,,
17635.8,,,survey-text,351,2963367,0.0-19.0-3.6,98302,List1A,white,man,,,,,"{""Q0"":""jane is being hugged by dave""}","<img src=""stim_listA/hug4.gif""style=""height:400px;""></stim_listA>",is being hugged by,,,,,,
null,"<div style=""font-size:60px;"">+</div>",,html-keyboard-response,352,2963881,0.0-19.0-0.7,98302,List1A,white,man,,,,null,,,,,,,,,
null,"<img src=""stim_listA/touch6.gif""style=""height:400px;""></stim_listA>",,html-keyboard-response,353,2965894,0.0-19.0-1.7,98302,List1A,white,man,,,,null,,,,,,,,,
null,is being touched by,,html-keyboard-response,354,2967908,0.0-19.0-2.7,98302,List1A,white,man,,,,null,,,,,,,,,
17010.7,,,survey-text,355,2984924,0.0-19.0-3.7,98302,List1A,white,man,,,,,"{""Q0"":""luke is being touched by luke""}","<img src=""stim_listA/touch6.gif""style=""height:400px;""></stim_listA>",is being touched by,,,,,,
null,"<div style=""font-size:60px;"">+</div>",,html-keyboard-response,356,2985426,0.0-19.0-0.8,98302,List1A,white,man,,,,null,,,,,,,,,
null,"<img src=""stim_listA/hug5.gif""style=""height:400px;""></stim_listA>",,html-keyboard-response,357,2987442,0.0-19.0-1.8,98302,List1A,white,man,,,,null,,,,,,,,,
null,is hugging,,html-keyboard-response,358,2989454,0.0-19.0-2.8,98302,List1A,white,man,,,,null,,,,,,,,,
10553.8,,,survey-text,359,3000012,0.0-19.0-3.8,98302,List1A,white,man,,,,,"{""Q0"":""luke is hugging fred""}","<img src=""stim_listA/hug5.gif""style=""height:400px;""></stim_listA>",is hugging,,,,,,
null,"<div style=""font-size:60px;"">+</div>",,html-keyboard-response,360,3000524,0.0-19.0-0.9,98302,List1A,white,man,,,,null,,,,,,,,,
null,"<img src=""stim_listA/challenge8.gif""style=""height:400px;""></stim_listA>",,html-keyboard-response,361,3002533,0.0-19.0-1.9,98302,List1A,white,man,,,,null,,,,,,,,,
null,is being challenged by,,html-keyboard-response,362,3004548,0.0-19.0-2.9,98302,List1A,white,man,,,,null,,,,,,,,,
16477.4,,,survey-text,363,3021031,0.0-19.0-3.9,98302,List1A,white,man,,,,,"{""Q0"":""beth is playing with kate""}","<img src=""stim_listA/challenge8.gif""style=""height:400px;""></stim_listA>",is being challenged by,,,,,,
null,"<div style=""font-size:60px;"">+</div>",,html-keyboard-response,364,3021535,0.0-19.0-0.10,98302,List1A,white,man,,,,null,,,,,,,,,
null,"<img src=""stim_listA/kiss6.gif""style=""height:400px;""></stim_listA>",,html-keyboard-response,365,3023551,0.0-19.0-1.10,98302,List1A,white,man,,,,null,,,,,,,,,
null,is being kissed by,,html-keyboard-response,366,3025565,0.0-19.0-2.10,98302,List1A,white,man,,,,null,,,,,,,,,
11751.5,,,survey-text,367,3037321,0.0-19.0-3.10,98302,List1A,white,man,,,,,"{""Q0"":""mike is beeing kissed by dave""}","<img src=""stim_listA/kiss6.gif""style=""height:400px;""></stim_listA>",is being kissed by,,,,,,
null,"<div style=""font-size:60px;"">+</div>",,html-keyboard-response,368,3037831,0.0-19.0-0.11,98302,List1A,white,man,,,,null,,,,,,,,,
null,"<img src=""stim_listA/touch4.gif""style=""height:400px;""></stim_listA>",,html-keyboard-response,369,3039852,0.0-19.0-1.11,98302,List1A,white,man,,,,null,,,,,,,,,
null,is being touched by,,html-keyboard-response,370,3041857,0.0-19.0-2.11,98302,List1A,white,man,,,,null,,,,,,,,,
12881.6,,,survey-text,371,3054743,0.0-19.0-3.11,98302,List1A,white,man,,,,,"{""Q0"":""ruth is beeing touched by luke""}","<img src=""stim_listA/touch4.gif""style=""height:400px;""></stim_listA>",is being touched by,,,,,,
null,"<div style=""font-size:60px;"">+</div>",,html-keyboard-response,372,3055251,0.0-19.0-0.12,98302,List1A,white,man,,,,null,,,,,,,,,
null,"<img src=""stim_listA/copy4.gif""style=""height:400px;""></stim_listA>",,html-keyboard-response,373,3057266,0.0-19.0-1.12,98302,List1A,white,man,,,,null,,,,,,,,,
null,is being copied by,,html-keyboard-response,374,3059277,0.0-19.0-2.12,98302,List1A,white,man,,,,null,,,,,,,,,
13962,,,survey-text,375,3073244,0.0-19.0-3.12,98302,List1A,white,man,,,,,"{""Q0"":""luke is being copied by jane""}","<img src=""stim_listA/copy4.gif""style=""height:400px;""></stim_listA>",is being copied by,,,,,,
null,"<div style=""font-size:60px;"">+</div>",,html-keyboard-response,376,3073748,0.0-19.0-0.13,98302,List1A,white,man,,,,null,,,,,,,,,
null,"<img src=""stim_listA/touch7.gif""style=""height:400px;""></stim_listA>",,html-keyboard-response,377,3075766,0.0-19.0-1.13,98302,List1A,white,man,,,,null,,,,,,,,,
null,is touching,,html-keyboard-response,378,3077780,0.0-19.0-2.13,98302,List1A,white,man,,,,null,,,,,,,,,
9545,,,survey-text,379,3087330,0.0-19.0-3.13,98302,List1A,white,man,,,,,"{""Q0"":""jane is touching kate""}","<img src=""stim_listA/touch7.gif""style=""height:400px;""></stim_listA>",is touching,,,,,,
null,"<div style=""font-size:60px;"">+</div>",,html-keyboard-response,380,3087834,0.0-19.0-0.14,98302,List1A,white,man,,,,null,,,,,,,,,
null,"<img src=""stim_listA/kiss2.gif""style=""height:400px;""></stim_listA>",,html-keyboard-response,381,3089842,0.0-19.0-1.14,98302,List1A,white,man,,,,null,,,,,,,,,
null,is being kissed by,,html-keyboard-response,382,3091859,0.0-19.0-2.14,98302,List1A,white,man,,,,null,,,,,,,,,
10899.1,,,survey-text,383,3102763,0.0-19.0-3.14,98302,List1A,white,man,,,,,"{""Q0"":""mike is being kissed by kate""}","<img src=""stim_listA/kiss2.gif""style=""height:400px;""></stim_listA>",is being kissed by,,,,,,
null,"<div style=""font-size:60px;"">+</div>",,html-keyboard-response,384,3103278,0.0-19.0-0.15,98302,List1A,white,man,,,,null,,,,,,,,,
null,"<img src=""stim_listA/look3.gif""style=""height:400px;""></stim_listA>",,html-keyboard-response,385,3105295,0.0-19.0-1.15,98302,List1A,white,man,,,,null,,,,,,,,,
null,is looking at,,html-keyboard-response,386,3107312,0.0-19.0-2.15,98302,List1A,white,man,,,,null,,,,,,,,,
11269,,,survey-text,387,3118585,0.0-19.0-3.15,98302,List1A,white,man,,,,,"{""Q0"":""luke is looking at ruth""}","<img src=""stim_listA/look3.gif""style=""height:400px;""></stim_listA>",is looking at,,,,,,
null,"<div style=""font-size:60px;"">+</div>",,html-keyboard-response,388,3119094,0.0-19.0-0.16,98302,List1A,white,man,,,,null,,,,,,,,,
null,"<img src=""stim_listA/greet7.gif""style=""height:400px;""></stim_listA>",,html-keyboard-response,389,3121109,0.0-19.0-1.16,98302,List1A,white,man,,,,null,,,,,,,,,
null,is greeting,,html-keyboard-response,390,3123122,0.0-19.0-2.16,98302,List1A,white,man,,,,null,,,,,,,,,
14105.5,,,survey-text,391,3137236,0.0-19.0-3.16,98302,List1A,white,man,,,,,"{""Q0"":""ruth is playing with kate""}","<img src=""stim_listA/greet7.gif""style=""height:400px;""></stim_listA>",is greeting,,,,,,
null,"<div style=""font-size:60px;"">+</div>",,html-keyboard-response,392,3137753,0.0-19.0-0.17,98302,List1A,white,man,,,,null,,,,,,,,,
null,"<img src=""stim_listA/hug2.gif""style=""height:400px;""></stim_listA>",,html-keyboard-response,393,3139767,0.0-19.0-1.17,98302,List1A,white,man,,,,null,,,,,,,,,
null,is being hugged by,,html-keyboard-response,394,3141781,0.0-19.0-2.17,98302,List1A,white,man,,,,null,,,,,,,,,
13668.2,,,survey-text,395,3155454,0.0-19.0-3.17,98302,List1A,white,man,,,,,"{""Q0"":""mike is being hugged by kate""}","<img src=""stim_listA/hug2.gif""style=""height:400px;""></stim_listA>",is being hugged by,,,,,,
null,"<div style=""font-size:60px;"">+</div>",,html-keyboard-response,396,3155960,0.0-19.0-0.18,98302,List1A,white,man,,,,null,,,,,,,,,
null,"<img src=""stim_listA/challenge1.gif""style=""height:400px;""></stim_listA>",,html-keyboard-response,397,3157967,0.0-19.0-1.18,98302,List1A,white,man,,,,null,,,,,,,,,
null,is challenging,,html-keyboard-response,398,3159972,0.0-19.0-2.18,98302,List1A,white,man,,,,null,,,,,,,,,
10529.9,,,survey-text,399,3170506,0.0-19.0-3.18,98302,List1A,white,man,,,,,"{""Q0"":""mike is challenging beth""}","<img src=""stim_listA/challenge1.gif""style=""height:400px;""></stim_listA>",is challenging,,,,,,
null,"<div style=""font-size:60px;"">+</div>",,html-keyboard-response,400,3171008,0.0-19.0-0.19,98302,List1A,white,man,,,,null,,,,,,,,,
null,"<img src=""stim_listA/hug7.gif""style=""height:400px;""></stim_listA>",,html-keyboard-response,401,3173012,0.0-19.0-1.19,98302,List1A,white,man,,,,null,,,,,,,,,
null,is hugging,,html-keyboard-response,402,3175029,0.0-19.0-2.19,98302,List1A,white,man,,,,null,,,,,,,,,
7498.5,,,survey-text,403,3182531,0.0-19.0-3.19,98302,List1A,white,man,,,,,"{""Q0"":""beth is hugging ruth""}","<img src=""stim_listA/hug7.gif""style=""height:400px;""></stim_listA>",is hugging,,,,,,
2933.7,<p>Thank you for completing that task.</p><p>The final part of this session is a questionnaire that will take about 4 minutes.</p><p>Press Continue.</p>,0,html-button-response,404,3185466,0.0-20.0,98302,List1A,white,man,,,,,,,,,,,,,
49754,,,survey-text,405,3236236,0.0-21.0,98302,List1A,white,man,,,,,"{""Q0"":""31"",""Q1"":""English"",""Q2"":""English"",""Q3"":""United States"",""Q4"":""United States"",""Q5"":""White"",""Q6"":""Male""}",,,demographics,,,,,
2833.7,<p>Have you lived in the USA for the last 5 years or more?</p>,0,html-button-response,406,3239073,0.0-22.0,98302,List1A,white,man,,,,,,,,fiveyears,,,,,
2737.4,<p>Move the slider to show the extent to which you agree with the following statements.</p>,0,html-button-response,407,3242819,0.0-23.0,98302,List1A,white,man,,,,,,,,,,,,,
12415,,,html-slider-response,408,3256251,0.0-24.0-0.0-0.0,98302,List1A,white,man,,,,,,,,survey_race,75,,,I often think about the fact that I am my race.,often
4622.9,,,html-slider-response,409,3260878,0.0-24.0-0.0-0.1,98302,List1A,white,man,,,,,,,,survey_race,42,,,I consider myself an extrovert.,filler
3184.5,,,html-slider-response,410,3264065,0.0-24.0-0.0-0.2,98302,List1A,white,man,,,,,,,,survey_race,70,,,I feel a bond with my race.,bond
3296.2,,,html-slider-response,411,3267363,0.0-24.0-0.0-0.3,98302,List1A,white,man,,,,,,,,survey_race,77,,,I am glad to be my age.,filler
4806.4,,,html-slider-response,412,3272173,0.0-24.0-0.0-0.4,98302,List1A,white,man,,,,,,,,survey_race,71,,,I feel solidarity with my race.,solidarity
3700,,,html-slider-response,413,3275876,0.0-24.0-0.0-0.5,98302,List1A,white,man,,,,,,,,survey_race,76,,,It is pleasant to be my race.,pleasant
5586.9,,,html-slider-response,414,3281466,0.0-24.0-0.0-0.6,98302,List1A,white,man,,,,,,,,survey_race,95,,,The fact that I am my race is an important part of my identity.,identity
4414.9,,,html-slider-response,415,3285884,0.0-24.0-0.0-0.7,98302,List1A,white,man,,,,,,,,survey_race,83,,,I have a lot in common with the average person of my race.,average
5252.8,,,html-slider-response,416,3291139,0.0-24.0-0.0-0.8,98302,List1A,white,man,,,,,,,,survey_race,77,,,Getting older does not worry me.,filler
3715.3,,,html-slider-response,417,3294857,0.0-24.0-0.0-0.9,98302,List1A,white,man,,,,,,,,survey_race,75,,,I am glad to be the age I am.,filler
3226.8,,,html-slider-response,418,3298086,0.0-24.0-0.0-0.10,98302,List1A,white,man,,,,,,,,survey_race,77,,,I think that my race has a lot to be proud of.,proud
2905.4,,,html-slider-response,419,3300993,0.0-24.0-0.0-0.11,98302,List1A,white,man,,,,,,,,survey_race,85,,,I enjoy being in large groups.,filler
3505.6,,,html-slider-response,420,3304502,0.0-24.0-0.0-0.12,98302,List1A,white,man,,,,,,,,survey_race,77,,,I feel a bond with people the same age as me.,filler
3366.4,,,html-slider-response,421,3307871,0.0-24.0-0.0-0.13,98302,List1A,white,man,,,,,,,,survey_race,72,,,Being my age gives me a good feeling.,filler
3100,,,html-slider-response,422,3310973,0.0-24.0-0.0-0.14,98302,List1A,white,man,,,,,,,,survey_race,92,,,I am similar to the average person of my race.,similar
3114.5,,,html-slider-response,423,3314090,0.0-24.0-0.0-0.15,98302,List1A,white,man,,,,,,,,survey_race,73,,,I often think about the fact that I am my age.,filler
3672.8,,,html-slider-response,424,3317765,0.0-24.0-0.0-0.16,98302,List1A,white,man,,,,,,,,survey_race,73,,,"The older I get, the wiser I feel.",filler
4637.6,,,html-slider-response,425,3322406,0.0-24.0-0.0-0.17,98302,List1A,white,man,,,,,,,,survey_race,16,,,My age is not an important part of who I am.,filler
4177.4,,,html-slider-response,426,3326586,0.0-24.0-0.0-0.18,98302,List1A,white,man,,,,,,,,survey_race,91,,,People my age have a lot in common with each other.,filler
3518.1,,,html-slider-response,427,3330108,0.0-24.0-0.0-0.19,98302,List1A,white,man,,,,,,,,survey_race,98,,,People of my race are very similar to each other.,verysimilar
2961.9,,,html-slider-response,428,3333071,0.0-24.0-0.0-0.20,98302,List1A,white,man,,,,,,,,survey_race,84,,,I have a lot in common with people of a similar age to me.,filler
2806.8,,,html-slider-response,429,3335881,0.0-24.0-0.0-0.21,98302,List1A,white,man,,,,,,,,survey_race,75,,,Being my race is an important part of how I see myself.,important
3743.6,,,html-slider-response,430,3339626,0.0-24.0-0.0-0.22,98302,List1A,white,man,,,,,,,,survey_race,80,,,I consider myself an introvert.,filler
4372.2,,,html-slider-response,431,3344000,0.0-24.0-0.0-0.23,98302,List1A,white,man,,,,,,,,survey_race,66,,,I feel solidarity with people the same age as me.,filler
2877.8,,,html-slider-response,432,3346881,0.0-24.0-0.0-0.24,98302,List1A,white,man,,,,,,,,survey_race,72,,,I am glad to be my race.,glad
2653.2,,,html-slider-response,433,3349537,0.0-24.0-0.0-0.25,98302,List1A,white,man,,,,,,,,survey_race,66,,,I feel committed to my race.,committed
3436.2,,,html-slider-response,434,3352975,0.0-24.0-0.0-0.26,98302,List1A,white,man,,,,,,,,survey_race,63,,,Being my race gives me a good feeling.,feeling
3324.7,,,html-slider-response,435,3356302,0.0-24.0-0.0-0.27,98302,List1A,white,man,,,,,,,,survey_race,77,,,People of my race have a lot in common with each other.,common
3002.6,,,html-slider-response,436,3359307,0.0-24.0-1.0-0.0,98302,List1A,white,man,,,,,,,,survey_gender,70,,,I feel a bond with my friends.,filler
7141.2,,,html-slider-response,437,3366451,0.0-24.0-1.0-0.1,98302,List1A,white,man,,,,,,,,survey_gender,68,,,I often think about my actions.,filler
3322.9,,,html-slider-response,438,3369777,0.0-24.0-1.0-0.2,98302,List1A,white,man,,,,,,,,survey_gender,74,,,I feel solidarity with my friends.,filler
7685,,,html-slider-response,439,3377464,0.0-24.0-1.0-0.3,98302,List1A,white,man,,,,,,,,survey_gender,16,,,Routine is not important to me.,filler
4329.9,,,html-slider-response,440,3381797,0.0-24.0-1.0-0.4,98302,List1A,white,man,,,,,,,,survey_gender,70,,,My friends have a lot in common with each other.,filler
4344.9,,,html-slider-response,441,3386145,0.0-24.0-1.0-0.5,98302,List1A,white,man,,,,,,,,survey_gender,80,,,I feel solidarity with my gender.,solidarity
3896.5,,,html-slider-response,442,3390044,0.0-24.0-1.0-0.6,98302,List1A,white,man,,,,,,,,survey_gender,82,,,Being around my friends gives me a good feeling.,filler
5392.9,,,html-slider-response,443,3395440,0.0-24.0-1.0-0.7,98302,List1A,white,man,,,,,,,,survey_gender,19,,,I would say I am an animal person.,filler
3379.7,,,html-slider-response,444,3398822,0.0-24.0-1.0-0.8,98302,List1A,white,man,,,,,,,,survey_gender,63,,,People of my gender are very similar to each other.,verysimilar
5281.3,,,html-slider-response,445,3404106,0.0-24.0-1.0-0.9,98302,List1A,white,man,,,,,,,,survey_gender,31,,,I consider myself a highly empathetic person.,filler
3715,,,html-slider-response,446,3407824,0.0-24.0-1.0-0.10,98302,List1A,white,man,,,,,,,,survey_gender,66,,,I have a lot in common with my friends.,filler
3435.4,,,html-slider-response,447,3411262,0.0-24.0-1.0-0.11,98302,List1A,white,man,,,,,,,,survey_gender,66,,,I often think about the fact that I am my gender.,often
4234.6,,,html-slider-response,448,3415498,0.0-24.0-1.0-0.12,98302,List1A,white,man,,,,,,,,survey_gender,20,,,Family is not more important to me than friendship.,filler
2946.8,,,html-slider-response,449,3418447,0.0-24.0-1.0-0.13,98302,List1A,white,man,,,,,,,,survey_gender,66,,,I am glad to be my gender.,glad
3505.8,,,html-slider-response,450,3421955,0.0-24.0-1.0-0.14,98302,List1A,white,man,,,,,,,,survey_gender,63,,,I feel committed to my gender.,committed
3365.9,,,html-slider-response,451,3425324,0.0-24.0-1.0-0.15,98302,List1A,white,man,,,,,,,,survey_gender,74,,,I have a lot in common with the average person of my gender.,average
5309.3,,,html-slider-response,452,3430635,0.0-24.0-1.0-0.16,98302,List1A,white,man,,,,,,,,survey_gender,62,,,I think that my gender has a lot to be proud of.,proud
3658.9,,,html-slider-response,453,3434297,0.0-24.0-1.0-0.17,98302,List1A,white,man,,,,,,,,survey_gender,81,,,My friends understand me.,filler
4148.5,,,html-slider-response,454,3438449,0.0-24.0-1.0-0.18,98302,List1A,white,man,,,,,,,,survey_gender,75,,,Being my gender gives me a good feeling.,feeling
2708.5,,,html-slider-response,455,3441161,0.0-24.0-1.0-0.19,98302,List1A,white,man,,,,,,,,survey_gender,71,,,I am glad to have the friends that I have.,filler
3324.1,,,html-slider-response,456,3444487,0.0-24.0-1.0-0.20,98302,List1A,white,man,,,,,,,,survey_gender,69,,,I am similar to the average person of my gender.,similar
3128.4,,,html-slider-response,457,3447618,0.0-24.0-1.0-0.21,98302,List1A,white,man,,,,,,,,survey_gender,80,,,I feel a bond with my gender.,bond
5378.3,,,html-slider-response,458,3452999,0.0-24.0-1.0-0.22,98302,List1A,white,man,,,,,,,,survey_gender,72,,,Most of the friends in my life are very similar to me.,filler
4037.7,,,html-slider-response,459,3457039,0.0-24.0-1.0-0.23,98302,List1A,white,man,,,,,,,,survey_gender,67,,,People of my gender have a lot in common with each other.,common
5044.6,,,html-slider-response,460,3462086,0.0-24.0-1.0-0.24,98302,List1A,white,man,,,,,,,,survey_gender,66,,,The fact that I am my gender is an important part of my identity.,identity
3505.1,,,html-slider-response,461,3465594,0.0-24.0-1.0-0.25,98302,List1A,white,man,,,,,,,,survey_gender,81,,,It is not always easy for people to know what I am thinking.,filler
5797.4,,,html-slider-response,462,3471394,0.0-24.0-1.0-0.26,98302,List1A,white,man,,,,,,,,survey_gender,75,,,It is pleasant to be my gender.,pleasant
3338.3,,,html-slider-response,463,3474735,0.0-24.0-1.0-0.27,98302,List1A,white,man,,,,,,,,survey_gender,74,,,Being my gender is an important part of how I see myself.,important
24880.5,,,survey-text,464,3499620,0.0-25.0,98302,List1A,white,man,,,,,"{""Q0"":""ccc""}",,,worker_id,,,,,
6374.3,,,external-html,465,3508795,0.0-26.0,98302,List1A,white,man,debrief.html,,,,,,,,,,,,
