"rt","stimulus","button_pressed","trial_type","trial_index","time_elapsed","internal_node_id","subject","list","ppt_race","ppt_gender","url","first_guess","correct","key_press","responses","image_type","phrase_type","test_part","response","stimulus1","stimulus2","question_type","survey_item"
"6303.300000011921","Welcome to the experiment. Press Continue to begin.","0","html-button-response","0","6306","0.0-0.0","98624","List1B","white","woman","","","","","","","","","","","","",""
"25305.80000001192","","","external-html","1","32896","0.0-1.0","98624","List1B","white","woman","consent.html","","","","","","","","","","","",""
"12960.199999988079","<p>On the next page, you will see portraits of 8 people and their names.</p><p>Your first task is to take a few minutes to memorise the names of these people.</p><p>You will have to recall their names during the rest of the experiment, so it is</p><p>essential that you try to memorise these people and their names as best as you can.</p><br><p><strong>You will then be tested on your memory of these names and portraits.</strong></p><br><p>The experiment will start after you have completed this memory test.</p><br><p>Ready?</p>","0","html-button-response","2","45857","0.0-2.0","98624","List1B","white","woman","","","","","","","","","","","","",""
"230541.09999999404","<img src='img/portrait_matrix_list1.jpg' style='width:900px;height:500px;''></img><p>If you have memorised all the portraits and names and are ready to start, press Continue.</p><p><strong>Please note: Your memory of these faces will be tested 4 times during this experiment.</strong></p>","0","html-button-response","3","277395","0.0-3.0-0.0","98624","List1B","white","woman","","","","","","","","","","","","",""
"3833","<img src=""portrait/BW2.jpg""style=""height:400px;""></img>","2","html-button-response","4","282231","0.0-3.0-1.0","98624","List1B","white","woman","","true","2","","","","","","","","","",""
"null","CORRECT","","html-keyboard-response","5","283744","0.0-3.0-2.0-0.0","98624","List1B","white","woman","","","","null","","","","","","","","",""
"2156.9000000059605","<img src=""portrait/WM2.jpg""style=""height:400px;""></img>","7","html-button-response","6","285903","0.0-3.0-4.0","98624","List1B","white","woman","","true","7","","","","","","","","","",""
"null","CORRECT","","html-keyboard-response","7","287412","0.0-3.0-5.0-0.0","98624","List1B","white","woman","","","","null","","","","","","","","",""
"3127.699999988079","<img src=""portrait/WM1.jpg""style=""height:400px;""></img>","6","html-button-response","8","290541","0.0-3.0-7.0","98624","List1B","white","woman","","true","6","","","","","","","","","",""
"null","CORRECT","","html-keyboard-response","9","292044","0.0-3.0-8.0-0.0","98624","List1B","white","woman","","","","null","","","","","","","","",""
"4743.5","<img src=""portrait/WW1.jpg""style=""height:400px;""></img>","1","html-button-response","10","296789","0.0-3.0-10.0","98624","List1B","white","woman","","true","1","","","","","","","","","",""
"null","CORRECT","","html-keyboard-response","11","298291","0.0-3.0-11.0-0.0","98624","List1B","white","woman","","","","null","","","","","","","","",""
"3127.800000011921","<img src=""portrait/BM2.jpg""style=""height:400px;""></img>","5","html-button-response","12","301421","0.0-3.0-13.0","98624","List1B","white","woman","","true","5","","","","","","","","","",""
"null","CORRECT","","html-keyboard-response","13","302929","0.0-3.0-14.0-0.0","98624","List1B","white","woman","","","","null","","","","","","","","",""
"1867.4000000059605","<img src=""portrait/BM1.jpg""style=""height:400px;""></img>","4","html-button-response","14","304798","0.0-3.0-16.0","98624","List1B","white","woman","","true","4","","","","","","","","","",""
"null","CORRECT","","html-keyboard-response","15","306308","0.0-3.0-17.0-0.0","98624","List1B","white","woman","","","","null","","","","","","","","",""
"2609","<img src=""portrait/BW1.jpg""style=""height:400px;""></img>","0","html-button-response","16","308918","0.0-3.0-19.0","98624","List1B","white","woman","","true","0","","","","","","","","","",""
"null","CORRECT","","html-keyboard-response","17","310423","0.0-3.0-20.0-0.0","98624","List1B","white","woman","","","","null","","","","","","","","",""
"2115.5","<img src=""portrait/WW2.jpg""style=""height:400px;""></img>","3","html-button-response","18","312540","0.0-3.0-22.0","98624","List1B","white","woman","","true","3","","","","","","","","","",""
"null","CORRECT","","html-keyboard-response","19","314043","0.0-3.0-23.0-0.0","98624","List1B","white","woman","","","","null","","","","","","","","",""
"1677.300000011921","<p>You got 8 out of 8 right first time. Press Continue.</p>","0","html-button-response","20","315722","0.0-3.0-25.0","98624","List1B","white","woman","","","","","","","","","","","","",""
"52674.5","<p>In this experiment, you will view photographs of the people from the memory game interacting.</p><p>By using the <strong>exact</strong> phrase given <i>after</i> the photograph appears and recalling the correct names of the people in the photographs, form a sentence describing the interaction. You do not need to capitalise names.</p><p>Type your answer in the space provided. Please complete every sentence before moving onto the next trial.</p><p>You will only have a few seconds to memorise each given photograph and phrase before you can respond, so try your best to focus.</p><p>An example is given below. Press 'Continue' when you are ready.</p><img src='img/speaking_example.jpg' style='width:800px;height:460px;''></img>","0","html-button-response","21","369400","0.0-4.0","98624","List1B","white","woman","","","","","","","","","","","","",""
"2886.300000011921","<p>Before the experiment starts, you will watch two example trials. Press 'Continue'.</p>","0","html-button-response","22","373288","0.0-5.0","98624","List1B","white","woman","","","","","","","","","","","","",""
"null","<img src='img/play_eg.gif' style='height:400px;''></img>","","html-keyboard-response","23","376289","0.0-6.0","98624","List1B","white","woman","","","","null","","","","","","","","",""
"null","<p>is playing with</p>","","html-keyboard-response","24","378291","0.0-7.0","98624","List1B","white","woman","","","","null","","","","","","","","",""
"5079.699999988079","<p><b>Answer:</b> kate is playing with beth</p>","0","html-button-response","25","383371","0.0-8.0","98624","List1B","white","woman","","","","","","","","","","","","",""
"null","<img src='img/dance_eg.gif' style='height:400px;''></img>","","html-keyboard-response","26","386374","0.0-9.0","98624","List1B","white","woman","","","","null","","","","","","","","",""
"null","<p>is being entertained by</p>","","html-keyboard-response","27","388380","0.0-10.0","98624","List1B","white","woman","","","","null","","","","","","","","",""
"5447.800000011921","<p><b>Answer:</b> luke is being entertained by dave</p>","0","html-button-response","28","393829","0.0-11.0","98624","List1B","white","woman","","","","","","","","","","","","",""
"8715.5","<p>Ready to start the experiment?</p><br><p><strong>Remember to describe the picture using a full sentence,</strong></p><p><strong>that combines the names of the people with the <i>exact</i> phrase given.</strong></p><p><strong>To receive full payment you must do this correctly.</strong></p><p><strong> You do not need to capitalise names or use punctuation.</strong></p><br><p>Press 'Continue' to begin.</p>","0","html-button-response","29","403547","0.0-12.0","98624","List1B","white","woman","","","","","","","","","","","","",""
"null","<div style=""font-size:60px;"">+</div>","","html-keyboard-response","30","405053","0.0-13.0-0.0","98624","List1B","white","woman","","","","null","","","","","","","","",""
"null","<img src=""stim_listB/touch8.gif""style=""height:400px;""></stim_listB>","","html-keyboard-response","31","407060","0.0-13.0-1.0","98624","List1B","white","woman","","","","null","","","","","","","","",""
"null","is being touched by","","html-keyboard-response","32","409066","0.0-13.0-2.0","98624","List1B","white","woman","","","","null","","","","","","","","",""
"22916.80000001192","","","survey-text","33","431986","0.0-13.0-3.0","98624","List1B","white","woman","","","","","{""Q0"":""Beth is being touched by Ruth""}","<img src=""stim_listB/touch8.gif""style=""height:400px;""></stim_listB>","is being touched by","","","","","",""
"null","<div style=""font-size:60px;"">+</div>","","html-keyboard-response","34","432490","0.0-13.0-0.1","98624","List1B","white","woman","","","","null","","","","","","","","",""
"null","<img src=""stim_listB/challenge4.gif""style=""height:400px;""></stim_listB>","","html-keyboard-response","35","434494","0.0-13.0-1.1","98624","List1B","white","woman","","","","null","","","","","","","","",""
"null","is being challenged by","","html-keyboard-response","36","436499","0.0-13.0-2.1","98624","List1B","white","woman","","","","null","","","","","","","","",""
"16911.29999998212","","","survey-text","37","453413","0.0-13.0-3.1","98624","List1B","white","woman","","","","","{""Q0"":""Luke is being challenged by Jane""}","<img src=""stim_listB/challenge4.gif""style=""height:400px;""></stim_listB>","is being challenged by","","","","","",""
"null","<div style=""font-size:60px;"">+</div>","","html-keyboard-response","38","453916","0.0-13.0-0.2","98624","List1B","white","woman","","","","null","","","","","","","","",""
"null","<img src=""stim_listB/oppose2.gif""style=""height:400px;""></stim_listB>","","html-keyboard-response","39","455920","0.0-13.0-1.2","98624","List1B","white","woman","","","","null","","","","","","","","",""
"null","is being opposed by","","html-keyboard-response","40","457926","0.0-13.0-2.2","98624","List1B","white","woman","","","","null","","","","","","","","",""
"22173.80000001192","","","survey-text","41","480102","0.0-13.0-3.2","98624","List1B","white","woman","","","","","{""Q0"":""Fred is being opposed by Beth""}","<img src=""stim_listB/oppose2.gif""style=""height:400px;""></stim_listB>","is being opposed by","","","","","",""
"null","<div style=""font-size:60px;"">+</div>","","html-keyboard-response","42","480607","0.0-13.0-0.3","98624","List1B","white","woman","","","","null","","","","","","","","",""
"null","<img src=""stim_listB/copy1.gif""style=""height:400px;""></stim_listB>","","html-keyboard-response","43","482613","0.0-13.0-1.3","98624","List1B","white","woman","","","","null","","","","","","","","",""
"null","is copying","","html-keyboard-response","44","484619","0.0-13.0-2.3","98624","List1B","white","woman","","","","null","","","","","","","","",""
"9630","","","survey-text","45","494252","0.0-13.0-3.3","98624","List1B","white","woman","","","","","{""Q0"":""Beth is copying Mike""}","<img src=""stim_listB/copy1.gif""style=""height:400px;""></stim_listB>","is copying","","","","","",""
"null","<div style=""font-size:60px;"">+</div>","","html-keyboard-response","46","494754","0.0-13.0-0.4","98624","List1B","white","woman","","","","null","","","","","","","","",""
"null","<img src=""stim_listB/shout6.gif""style=""height:400px;""></stim_listB>","","html-keyboard-response","47","496758","0.0-13.0-1.4","98624","List1B","white","woman","","","","null","","","","","","","","",""
"null","is being shouted at by","","html-keyboard-response","48","498759","0.0-13.0-2.4","98624","List1B","white","woman","","","","null","","","","","","","","",""
"10361.600000023842","","","survey-text","49","509123","0.0-13.0-3.4","98624","List1B","white","woman","","","","","{""Q0"":""Mike is being shouted at by Dave""}","<img src=""stim_listB/shout6.gif""style=""height:400px;""></stim_listB>","is being shouted at by","","","","","",""
"null","<div style=""font-size:60px;"">+</div>","","html-keyboard-response","50","509628","0.0-13.0-0.5","98624","List1B","white","woman","","","","null","","","","","","","","",""
"null","<img src=""stim_listB/look5.gif""style=""height:400px;""></stim_listB>","","html-keyboard-response","51","511630","0.0-13.0-1.5","98624","List1B","white","woman","","","","null","","","","","","","","",""
"null","is looking at","","html-keyboard-response","52","513631","0.0-13.0-2.5","98624","List1B","white","woman","","","","null","","","","","","","","",""
"7643.300000011921","","","survey-text","53","521277","0.0-13.0-3.5","98624","List1B","white","woman","","","","","{""Q0"":""Luke is looking at Fred""}","<img src=""stim_listB/look5.gif""style=""height:400px;""></stim_listB>","is looking at","","","","","",""
"null","<div style=""font-size:60px;"">+</div>","","html-keyboard-response","54","521779","0.0-13.0-0.6","98624","List1B","white","woman","","","","null","","","","","","","","",""
"null","<img src=""stim_listB/challenge6.gif""style=""height:400px;""></stim_listB>","","html-keyboard-response","55","523786","0.0-13.0-1.6","98624","List1B","white","woman","","","","null","","","","","","","","",""
"null","is being challenged by","","html-keyboard-response","56","525791","0.0-13.0-2.6","98624","List1B","white","woman","","","","null","","","","","","","","",""
"13246.299999982119","","","survey-text","57","539040","0.0-13.0-3.6","98624","List1B","white","woman","","","","","{""Q0"":""Fred is being challenged by Dave""}","<img src=""stim_listB/challenge6.gif""style=""height:400px;""></stim_listB>","is being challenged by","","","","","",""
"null","<div style=""font-size:60px;"">+</div>","","html-keyboard-response","58","539542","0.0-13.0-0.7","98624","List1B","white","woman","","","","null","","","","","","","","",""
"null","<img src=""stim_listB/greet6.gif""style=""height:400px;""></stim_listB>","","html-keyboard-response","59","541544","0.0-13.0-1.7","98624","List1B","white","woman","","","","null","","","","","","","","",""
"null","is being greeted by","","html-keyboard-response","60","543548","0.0-13.0-2.7","98624","List1B","white","woman","","","","null","","","","","","","","",""
"12036.09999999404","","","survey-text","61","555587","0.0-13.0-3.7","98624","List1B","white","woman","","","","","{""Q0"":""Fred is being greeted by Dave""}","<img src=""stim_listB/greet6.gif""style=""height:400px;""></stim_listB>","is being greeted by","","","","","",""
"null","<div style=""font-size:60px;"">+</div>","","html-keyboard-response","62","556088","0.0-13.0-0.8","98624","List1B","white","woman","","","","null","","","","","","","","",""
"null","<img src=""stim_listB/kiss7.gif""style=""height:400px;""></stim_listB>","","html-keyboard-response","63","558095","0.0-13.0-1.8","98624","List1B","white","woman","","","","null","","","","","","","","",""
"null","is kissing","","html-keyboard-response","64","560096","0.0-13.0-2.8","98624","List1B","white","woman","","","","null","","","","","","","","",""
"9934","","","survey-text","65","570033","0.0-13.0-3.8","98624","List1B","white","woman","","","","","{""Q0"":""Beth is kissing Ruth""}","<img src=""stim_listB/kiss7.gif""style=""height:400px;""></stim_listB>","is kissing","","","","","",""
"null","<div style=""font-size:60px;"">+</div>","","html-keyboard-response","66","570538","0.0-13.0-0.9","98624","List1B","white","woman","","","","null","","","","","","","","",""
"null","<img src=""stim_listB/kiss5.gif""style=""height:400px;""></stim_listB>","","html-keyboard-response","67","572544","0.0-13.0-1.9","98624","List1B","white","woman","","","","null","","","","","","","","",""
"null","is kissing","","html-keyboard-response","68","574551","0.0-13.0-2.9","98624","List1B","white","woman","","","","null","","","","","","","","",""
"9743.40000000596","","","survey-text","69","584298","0.0-13.0-3.9","98624","List1B","white","woman","","","","","{""Q0"":""Fred is kissing Luke""}","<img src=""stim_listB/kiss5.gif""style=""height:400px;""></stim_listB>","is kissing","","","","","",""
"null","<div style=""font-size:60px;"">+</div>","","html-keyboard-response","70","584802","0.0-13.0-0.10","98624","List1B","white","woman","","","","null","","","","","","","","",""
"null","<img src=""stim_listB/greet8.gif""style=""height:400px;""></stim_listB>","","html-keyboard-response","71","586804","0.0-13.0-1.10","98624","List1B","white","woman","","","","null","","","","","","","","",""
"null","is being greeted by","","html-keyboard-response","72","588805","0.0-13.0-2.10","98624","List1B","white","woman","","","","null","","","","","","","","",""
"9286.799999982119","","","survey-text","73","598094","0.0-13.0-3.10","98624","List1B","white","woman","","","","","{""Q0"":""Beth is being greeted by Jane""}","<img src=""stim_listB/greet8.gif""style=""height:400px;""></stim_listB>","is being greeted by","","","","","",""
"null","<div style=""font-size:60px;"">+</div>","","html-keyboard-response","74","598599","0.0-13.0-0.11","98624","List1B","white","woman","","","","null","","","","","","","","",""
"null","<img src=""stim_listB/shout4.gif""style=""height:400px;""></stim_listB>","","html-keyboard-response","75","600604","0.0-13.0-1.11","98624","List1B","white","woman","","","","null","","","","","","","","",""
"null","is being shouted at by","","html-keyboard-response","76","602605","0.0-13.0-2.11","98624","List1B","white","woman","","","","null","","","","","","","","",""
"11741.700000017881","","","survey-text","77","614350","0.0-13.0-3.11","98624","List1B","white","woman","","","","","{""Q0"":""Dave is being shouted at by Jane""}","<img src=""stim_listB/shout4.gif""style=""height:400px;""></stim_listB>","is being shouted at by","","","","","",""
"null","<div style=""font-size:60px;"">+</div>","","html-keyboard-response","78","614851","0.0-13.0-0.12","98624","List1B","white","woman","","","","null","","","","","","","","",""
"null","<img src=""stim_listB/kiss6.gif""style=""height:400px;""></stim_listB>","","html-keyboard-response","79","616855","0.0-13.0-1.12","98624","List1B","white","woman","","","","null","","","","","","","","",""
"null","is being kissed by","","html-keyboard-response","80","618856","0.0-13.0-2.12","98624","List1B","white","woman","","","","null","","","","","","","","",""
"14350.40000000596","","","survey-text","81","633209","0.0-13.0-3.12","98624","List1B","white","woman","","","","","{""Q0"":""Mike is being kissed by Dave""}","<img src=""stim_listB/kiss6.gif""style=""height:400px;""></stim_listB>","is being kissed by","","","","","",""
"null","<div style=""font-size:60px;"">+</div>","","html-keyboard-response","82","633712","0.0-13.0-0.13","98624","List1B","white","woman","","","","null","","","","","","","","",""
"null","<img src=""stim_listB/look1.gif""style=""height:400px;""></stim_listB>","","html-keyboard-response","83","635717","0.0-13.0-1.13","98624","List1B","white","woman","","","","null","","","","","","","","",""
"null","is looking at","","html-keyboard-response","84","637723","0.0-13.0-2.13","98624","List1B","white","woman","","","","null","","","","","","","","",""
"7761.800000011921","","","survey-text","85","645488","0.0-13.0-3.13","98624","List1B","white","woman","","","","","{""Q0"":""Beth is looking at Fred""}","<img src=""stim_listB/look1.gif""style=""height:400px;""></stim_listB>","is looking at","","","","","",""
"null","<div style=""font-size:60px;"">+</div>","","html-keyboard-response","86","645990","0.0-13.0-0.14","98624","List1B","white","woman","","","","null","","","","","","","","",""
"null","<img src=""stim_listB/touch7.gif""style=""height:400px;""></stim_listB>","","html-keyboard-response","87","647996","0.0-13.0-1.14","98624","List1B","white","woman","","","","null","","","","","","","","",""
"null","is touching","","html-keyboard-response","88","649998","0.0-13.0-2.14","98624","List1B","white","woman","","","","null","","","","","","","","",""
"8400.59999999404","","","survey-text","89","658402","0.0-13.0-3.14","98624","List1B","white","woman","","","","","{""Q0"":""Jane is touching Kate""}","<img src=""stim_listB/touch7.gif""style=""height:400px;""></stim_listB>","is touching","","","","","",""
"null","<div style=""font-size:60px;"">+</div>","","html-keyboard-response","90","658903","0.0-13.0-0.15","98624","List1B","white","woman","","","","null","","","","","","","","",""
"null","<img src=""stim_listB/kiss2.gif""style=""height:400px;""></stim_listB>","","html-keyboard-response","91","660908","0.0-13.0-1.15","98624","List1B","white","woman","","","","null","","","","","","","","",""
"null","is being kissed by","","html-keyboard-response","92","662914","0.0-13.0-2.15","98624","List1B","white","woman","","","","null","","","","","","","","",""
"13812.100000023842","","","survey-text","93","676729","0.0-13.0-3.15","98624","List1B","white","woman","","","","","{""Q0"":""Mike is being kissed by Kate""}","<img src=""stim_listB/kiss2.gif""style=""height:400px;""></stim_listB>","is being kissed by","","","","","",""
"null","<div style=""font-size:60px;"">+</div>","","html-keyboard-response","94","677234","0.0-13.0-0.16","98624","List1B","white","woman","","","","null","","","","","","","","",""
"null","<img src=""stim_listB/oppose3.gif""style=""height:400px;""></stim_listB>","","html-keyboard-response","95","679236","0.0-13.0-1.16","98624","List1B","white","woman","","","","null","","","","","","","","",""
"null","is opposing","","html-keyboard-response","96","681238","0.0-13.0-2.16","98624","List1B","white","woman","","","","null","","","","","","","","",""
"8413.700000017881","","","survey-text","97","689655","0.0-13.0-3.16","98624","List1B","white","woman","","","","","{""Q0"":""Jane is opposing Dave""}","<img src=""stim_listB/oppose3.gif""style=""height:400px;""></stim_listB>","is opposing","","","","","",""
"null","<div style=""font-size:60px;"">+</div>","","html-keyboard-response","98","690156","0.0-13.0-0.17","98624","List1B","white","woman","","","","null","","","","","","","","",""
"null","<img src=""stim_listB/shout1.gif""style=""height:400px;""></stim_listB>","","html-keyboard-response","99","692163","0.0-13.0-1.17","98624","List1B","white","woman","","","","null","","","","","","","","",""
"null","is shouting at","","html-keyboard-response","100","694168","0.0-13.0-2.17","98624","List1B","white","woman","","","","null","","","","","","","","",""
"7243.199999988079","","","survey-text","101","701414","0.0-13.0-3.17","98624","List1B","white","woman","","","","","{""Q0"":""Beth is shouting at Fred""}","<img src=""stim_listB/shout1.gif""style=""height:400px;""></stim_listB>","is shouting at","","","","","",""
"null","<div style=""font-size:60px;"">+</div>","","html-keyboard-response","102","701915","0.0-13.0-0.18","98624","List1B","white","woman","","","","null","","","","","","","","",""
"null","<img src=""stim_listB/kiss1.gif""style=""height:400px;""></stim_listB>","","html-keyboard-response","103","703922","0.0-13.0-1.18","98624","List1B","white","woman","","","","null","","","","","","","","",""
"null","is kissing","","html-keyboard-response","104","705928","0.0-13.0-2.18","98624","List1B","white","woman","","","","null","","","","","","","","",""
"6598","","","survey-text","105","712529","0.0-13.0-3.18","98624","List1B","white","woman","","","","","{""Q0"":""Beth is kissing Fred""}","<img src=""stim_listB/kiss1.gif""style=""height:400px;""></stim_listB>","is kissing","","","","","",""
"null","<div style=""font-size:60px;"">+</div>","","html-keyboard-response","106","713030","0.0-13.0-0.19","98624","List1B","white","woman","","","","null","","","","","","","","",""
"null","<img src=""stim_listB/kiss4.gif""style=""height:400px;""></stim_listB>","","html-keyboard-response","107","715032","0.0-13.0-1.19","98624","List1B","white","woman","","","","null","","","","","","","","",""
"null","is being kissed by","","html-keyboard-response","108","717038","0.0-13.0-2.19","98624","List1B","white","woman","","","","null","","","","","","","","",""
"16092.700000017881","","","survey-text","109","733133","0.0-13.0-3.19","98624","List1B","white","woman","","","","","{""Q0"":""Dave is being kissed by Jane""}","<img src=""stim_listB/kiss4.gif""style=""height:400px;""></stim_listB>","is being kissed by","","","","","",""
"11522.199999988079","<img src='img/portrait_matrix_list1.jpg' style='width:900px;height:500px;''></img><p>If you have memorised all the portraits and names and are ready to start, press Continue.</p><p><strong>Please note: Your memory of these faces will be tested 4 times during this experiment.</strong></p>","0","html-button-response","110","744657","0.0-14.0-0.0","98624","List1B","white","woman","","","","","","","","","","","","",""
"2603.5","<img src=""portrait/BM1.jpg""style=""height:400px;""></img>","4","html-button-response","111","748263","0.0-14.0-1.0","98624","List1B","white","woman","","true","4","","","","","","","","","",""
"null","CORRECT","","html-keyboard-response","112","749775","0.0-14.0-2.0-0.0","98624","List1B","white","woman","","","","null","","","","","","","","",""
"2290.4000000059605","<img src=""portrait/BW2.jpg""style=""height:400px;""></img>","2","html-button-response","113","752067","0.0-14.0-4.0","98624","List1B","white","woman","","true","2","","","","","","","","","",""
"null","CORRECT","","html-keyboard-response","114","753570","0.0-14.0-5.0-0.0","98624","List1B","white","woman","","","","null","","","","","","","","",""
"2478.9000000059605","<img src=""portrait/WW1.jpg""style=""height:400px;""></img>","1","html-button-response","115","756050","0.0-14.0-7.0","98624","List1B","white","woman","","true","1","","","","","","","","","",""
"null","CORRECT","","html-keyboard-response","116","757559","0.0-14.0-8.0-0.0","98624","List1B","white","woman","","","","null","","","","","","","","",""
"2415.300000011921","<img src=""portrait/BM2.jpg""style=""height:400px;""></img>","5","html-button-response","117","759976","0.0-14.0-10.0","98624","List1B","white","woman","","true","5","","","","","","","","","",""
"null","CORRECT","","html-keyboard-response","118","761478","0.0-14.0-11.0-0.0","98624","List1B","white","woman","","","","null","","","","","","","","",""
"1890.300000011921","<img src=""portrait/WW2.jpg""style=""height:400px;""></img>","3","html-button-response","119","763370","0.0-14.0-13.0","98624","List1B","white","woman","","true","3","","","","","","","","","",""
"null","CORRECT","","html-keyboard-response","120","764877","0.0-14.0-14.0-0.0","98624","List1B","white","woman","","","","null","","","","","","","","",""
"2391.9000000059605","<img src=""portrait/WM1.jpg""style=""height:400px;""></img>","6","html-button-response","121","767270","0.0-14.0-16.0","98624","List1B","white","woman","","true","6","","","","","","","","","",""
"null","CORRECT","","html-keyboard-response","122","768778","0.0-14.0-17.0-0.0","98624","List1B","white","woman","","","","null","","","","","","","","",""
"2336.7000000178814","<img src=""portrait/BW1.jpg""style=""height:400px;""></img>","0","html-button-response","123","771116","0.0-14.0-19.0","98624","List1B","white","woman","","true","0","","","","","","","","","",""
"null","CORRECT","","html-keyboard-response","124","772627","0.0-14.0-20.0-0.0","98624","List1B","white","woman","","","","null","","","","","","","","",""
"1693.800000011921","<img src=""portrait/WM2.jpg""style=""height:400px;""></img>","7","html-button-response","125","774322","0.0-14.0-22.0","98624","List1B","white","woman","","true","7","","","","","","","","","",""
"null","CORRECT","","html-keyboard-response","126","775833","0.0-14.0-23.0-0.0","98624","List1B","white","woman","","","","null","","","","","","","","",""
"6365.0999999940395","<p>You got 8 out of 8 right first time. Press Continue.</p>","0","html-button-response","127","782199","0.0-14.0-25.0","98624","List1B","white","woman","","","","","","","","","","","","",""
"null","<div style=""font-size:60px;"">+</div>","","html-keyboard-response","128","783709","0.0-15.0-0.0","98624","List1B","white","woman","","","","null","","","","","","","","",""
"null","<img src=""stim_listB/greet4.gif""style=""height:400px;""></stim_listB>","","html-keyboard-response","129","785712","0.0-15.0-1.0","98624","List1B","white","woman","","","","null","","","","","","","","",""
"null","is being greeted by","","html-keyboard-response","130","787718","0.0-15.0-2.0","98624","List1B","white","woman","","","","null","","","","","","","","",""
"8760.40000000596","","","survey-text","131","796481","0.0-15.0-3.0","98624","List1B","white","woman","","","","","{""Q0"":""Luke is being greeted by Jane""}","<img src=""stim_listB/greet4.gif""style=""height:400px;""></stim_listB>","is being greeted by","","","","","",""
"null","<div style=""font-size:60px;"">+</div>","","html-keyboard-response","132","796985","0.0-15.0-0.1","98624","List1B","white","woman","","","","null","","","","","","","","",""
"null","<img src=""stim_listB/oppose8.gif""style=""height:400px;""></stim_listB>","","html-keyboard-response","133","798990","0.0-15.0-1.1","98624","List1B","white","woman","","","","null","","","","","","","","",""
"null","is being opposed by","","html-keyboard-response","134","800995","0.0-15.0-2.1","98624","List1B","white","woman","","","","null","","","","","","","","",""
"9046.199999988079","","","survey-text","135","810044","0.0-15.0-3.1","98624","List1B","white","woman","","","","","{""Q0"":""Beth is being opposed by Ruth""}","<img src=""stim_listB/oppose8.gif""style=""height:400px;""></stim_listB>","is being opposed by","","","","","",""
"null","<div style=""font-size:60px;"">+</div>","","html-keyboard-response","136","810548","0.0-15.0-0.2","98624","List1B","white","woman","","","","null","","","","","","","","",""
"null","<img src=""stim_listB/oppose5.gif""style=""height:400px;""></stim_listB>","","html-keyboard-response","137","812551","0.0-15.0-1.2","98624","List1B","white","woman","","","","null","","","","","","","","",""
"null","is opposing","","html-keyboard-response","138","814552","0.0-15.0-2.2","98624","List1B","white","woman","","","","null","","","","","","","","",""
"7607.4000000059605","","","survey-text","139","822162","0.0-15.0-3.2","98624","List1B","white","woman","","","","","{""Q0"":""Dave is opposing Mike""}","<img src=""stim_listB/oppose5.gif""style=""height:400px;""></stim_listB>","is opposing","","","","","",""
"null","<div style=""font-size:60px;"">+</div>","","html-keyboard-response","140","822663","0.0-15.0-0.3","98624","List1B","white","woman","","","","null","","","","","","","","",""
"null","<img src=""stim_listB/touch1.gif""style=""height:400px;""></stim_listB>","","html-keyboard-response","141","824669","0.0-15.0-1.3","98624","List1B","white","woman","","","","null","","","","","","","","",""
"null","is touching","","html-keyboard-response","142","826671","0.0-15.0-2.3","98624","List1B","white","woman","","","","null","","","","","","","","",""
"16199.200000017881","","","survey-text","143","842873","0.0-15.0-3.3","98624","List1B","white","woman","","","","","{""Q0"":""Kate is touching Mike""}","<img src=""stim_listB/touch1.gif""style=""height:400px;""></stim_listB>","is touching","","","","","",""
"null","<div style=""font-size:60px;"">+</div>","","html-keyboard-response","144","843378","0.0-15.0-0.4","98624","List1B","white","woman","","","","null","","","","","","","","",""
"null","<img src=""stim_listB/challenge3.gif""style=""height:400px;""></stim_listB>","","html-keyboard-response","145","845384","0.0-15.0-1.4","98624","List1B","white","woman","","","","null","","","","","","","","",""
"null","is challenging","","html-keyboard-response","146","847386","0.0-15.0-2.4","98624","List1B","white","woman","","","","null","","","","","","","","",""
"9068.5","","","survey-text","147","856457","0.0-15.0-3.4","98624","List1B","white","woman","","","","","{""Q0"":""Ruth is challenging Dave""}","<img src=""stim_listB/challenge3.gif""style=""height:400px;""></stim_listB>","is challenging","","","","","",""
"null","<div style=""font-size:60px;"">+</div>","","html-keyboard-response","148","856958","0.0-15.0-0.5","98624","List1B","white","woman","","","","null","","","","","","","","",""
"null","<img src=""stim_listB/greet7.gif""style=""height:400px;""></stim_listB>","","html-keyboard-response","149","858965","0.0-15.0-1.5","98624","List1B","white","woman","","","","null","","","","","","","","",""
"null","is greeting","","html-keyboard-response","150","860966","0.0-15.0-2.5","98624","List1B","white","woman","","","","null","","","","","","","","",""
"6593.399999976158","","","survey-text","151","867563","0.0-15.0-3.5","98624","List1B","white","woman","","","","","{""Q0"":""Ruth is greeting Kate""}","<img src=""stim_listB/greet7.gif""style=""height:400px;""></stim_listB>","is greeting","","","","","",""
"null","<div style=""font-size:60px;"">+</div>","","html-keyboard-response","152","868066","0.0-15.0-0.6","98624","List1B","white","woman","","","","null","","","","","","","","",""
"null","<img src=""stim_listB/oppose4.gif""style=""height:400px;""></stim_listB>","","html-keyboard-response","153","870069","0.0-15.0-1.6","98624","List1B","white","woman","","","","null","","","","","","","","",""
"null","is being opposed by","","html-keyboard-response","154","872071","0.0-15.0-2.6","98624","List1B","white","woman","","","","null","","","","","","","","",""
"12651.800000011921","","","survey-text","155","884726","0.0-15.0-3.6","98624","List1B","white","woman","","","","","{""Q0"":""Luke is being opposed by Ruth""}","<img src=""stim_listB/oppose4.gif""style=""height:400px;""></stim_listB>","is being opposed by","","","","","",""
"null","<div style=""font-size:60px;"">+</div>","","html-keyboard-response","156","885227","0.0-15.0-0.7","98624","List1B","white","woman","","","","null","","","","","","","","",""
"null","<img src=""stim_listB/oppose7.gif""style=""height:400px;""></stim_listB>","","html-keyboard-response","157","887234","0.0-15.0-1.7","98624","List1B","white","woman","","","","null","","","","","","","","",""
"null","is opposing","","html-keyboard-response","158","889238","0.0-15.0-2.7","98624","List1B","white","woman","","","","null","","","","","","","","",""
"11462.300000011921","","","survey-text","159","900703","0.0-15.0-3.7","98624","List1B","white","woman","","","","","{""Q0"":""Jane is opposing Kate""}","<img src=""stim_listB/oppose7.gif""style=""height:400px;""></stim_listB>","is opposing","","","","","",""
"null","<div style=""font-size:60px;"">+</div>","","html-keyboard-response","160","901208","0.0-15.0-0.8","98624","List1B","white","woman","","","","null","","","","","","","","",""
"null","<img src=""stim_listB/look8.gif""style=""height:400px;""></stim_listB>","","html-keyboard-response","161","903215","0.0-15.0-1.8","98624","List1B","white","woman","","","","null","","","","","","","","",""
"null","is being looked at by","","html-keyboard-response","162","905221","0.0-15.0-2.8","98624","List1B","white","woman","","","","null","","","","","","","","",""
"9500.5","","","survey-text","163","914725","0.0-15.0-3.8","98624","List1B","white","woman","","","","","{""Q0"":""Kate is being looked at by Jane""}","<img src=""stim_listB/look8.gif""style=""height:400px;""></stim_listB>","is being looked at by","","","","","",""
"null","<div style=""font-size:60px;"">+</div>","","html-keyboard-response","164","915226","0.0-15.0-0.9","98624","List1B","white","woman","","","","null","","","","","","","","",""
"null","<img src=""stim_listB/greet1.gif""style=""height:400px;""></stim_listB>","","html-keyboard-response","165","917232","0.0-15.0-1.9","98624","List1B","white","woman","","","","null","","","","","","","","",""
"null","is greeting","","html-keyboard-response","166","919238","0.0-15.0-2.9","98624","List1B","white","woman","","","","null","","","","","","","","",""
"8849.100000023842","","","survey-text","167","928090","0.0-15.0-3.9","98624","List1B","white","woman","","","","","{""Q0"":""Beth is greeting Mike""}","<img src=""stim_listB/greet1.gif""style=""height:400px;""></stim_listB>","is greeting","","","","","",""
"null","<div style=""font-size:60px;"">+</div>","","html-keyboard-response","168","928595","0.0-15.0-0.10","98624","List1B","white","woman","","","","null","","","","","","","","",""
"null","<img src=""stim_listB/look7.gif""style=""height:400px;""></stim_listB>","","html-keyboard-response","169","930597","0.0-15.0-1.10","98624","List1B","white","woman","","","","null","","","","","","","","",""
"null","is looking at","","html-keyboard-response","170","932598","0.0-15.0-2.10","98624","List1B","white","woman","","","","null","","","","","","","","",""
"7682.300000011921","","","survey-text","171","940284","0.0-15.0-3.10","98624","List1B","white","woman","","","","","{""Q0"":""Beth is looking at Ruth""}","<img src=""stim_listB/look7.gif""style=""height:400px;""></stim_listB>","is looking at","","","","","",""
"null","<div style=""font-size:60px;"">+</div>","","html-keyboard-response","172","940785","0.0-15.0-0.11","98624","List1B","white","woman","","","","null","","","","","","","","",""
"null","<img src=""stim_listB/touch4.gif""style=""height:400px;""></stim_listB>","","html-keyboard-response","173","942791","0.0-15.0-1.11","98624","List1B","white","woman","","","","null","","","","","","","","",""
"null","is being touched by","","html-keyboard-response","174","944797","0.0-15.0-2.11","98624","List1B","white","woman","","","","null","","","","","","","","",""
"7995.299999982119","","","survey-text","175","952795","0.0-15.0-3.11","98624","List1B","white","woman","","","","","{""Q0"":""Luke is being touched by Ruth""}","<img src=""stim_listB/touch4.gif""style=""height:400px;""></stim_listB>","is being touched by","","","","","",""
"null","<div style=""font-size:60px;"">+</div>","","html-keyboard-response","176","953297","0.0-15.0-0.12","98624","List1B","white","woman","","","","null","","","","","","","","",""
"null","<img src=""stim_listB/copy5.gif""style=""height:400px;""></stim_listB>","","html-keyboard-response","177","955301","0.0-15.0-1.12","98624","List1B","white","woman","","","","null","","","","","","","","",""
"null","is copying","","html-keyboard-response","178","957302","0.0-15.0-2.12","98624","List1B","white","woman","","","","null","","","","","","","","",""
"6331.699999988079","","","survey-text","179","963637","0.0-15.0-3.12","98624","List1B","white","woman","","","","","{""Q0"":""Luke is copying Mike""}","<img src=""stim_listB/copy5.gif""style=""height:400px;""></stim_listB>","is copying","","","","","",""
"null","<div style=""font-size:60px;"">+</div>","","html-keyboard-response","180","964138","0.0-15.0-0.13","98624","List1B","white","woman","","","","null","","","","","","","","",""
"null","<img src=""stim_listB/challenge7.gif""style=""height:400px;""></stim_listB>","","html-keyboard-response","181","966141","0.0-15.0-1.13","98624","List1B","white","woman","","","","null","","","","","","","","",""
"null","is challenging","","html-keyboard-response","182","968142","0.0-15.0-2.13","98624","List1B","white","woman","","","","null","","","","","","","","",""
"7316.799999982119","","","survey-text","183","975462","0.0-15.0-3.13","98624","List1B","white","woman","","","","","{""Q0"":""Ruth is challenging Kate""}","<img src=""stim_listB/challenge7.gif""style=""height:400px;""></stim_listB>","is challenging","","","","","",""
"null","<div style=""font-size:60px;"">+</div>","","html-keyboard-response","184","975963","0.0-15.0-0.14","98624","List1B","white","woman","","","","null","","","","","","","","",""
"null","<img src=""stim_listB/look6.gif""style=""height:400px;""></stim_listB>","","html-keyboard-response","185","977968","0.0-15.0-1.14","98624","List1B","white","woman","","","","null","","","","","","","","",""
"null","is being looked at by","","html-keyboard-response","186","979973","0.0-15.0-2.14","98624","List1B","white","woman","","","","null","","","","","","","","",""
"8969.5","","","survey-text","187","988944","0.0-15.0-3.14","98624","List1B","white","woman","","","","","{""Q0"":""Mike is being looked at by Dave""}","<img src=""stim_listB/look6.gif""style=""height:400px;""></stim_listB>","is being looked at by","","","","","",""
"null","<div style=""font-size:60px;"">+</div>","","html-keyboard-response","188","989445","0.0-15.0-0.15","98624","List1B","white","woman","","","","null","","","","","","","","",""
"null","<img src=""stim_listB/challenge1.gif""style=""height:400px;""></stim_listB>","","html-keyboard-response","189","991452","0.0-15.0-1.15","98624","List1B","white","woman","","","","null","","","","","","","","",""
"null","is challenging","","html-keyboard-response","190","993453","0.0-15.0-2.15","98624","List1B","white","woman","","","","null","","","","","","","","",""
"8705","","","survey-text","191","1002162","0.0-15.0-3.15","98624","List1B","white","woman","","","","","{""Q0"":""Beth is challenging Mike""}","<img src=""stim_listB/challenge1.gif""style=""height:400px;""></stim_listB>","is challenging","","","","","",""
"null","<div style=""font-size:60px;"">+</div>","","html-keyboard-response","192","1002663","0.0-15.0-0.16","98624","List1B","white","woman","","","","null","","","","","","","","",""
"null","<img src=""stim_listB/hug4.gif""style=""height:400px;""></stim_listB>","","html-keyboard-response","193","1004670","0.0-15.0-1.16","98624","List1B","white","woman","","","","null","","","","","","","","",""
"null","is being hugged by","","html-keyboard-response","194","1006671","0.0-15.0-2.16","98624","List1B","white","woman","","","","null","","","","","","","","",""
"9872.700000017881","","","survey-text","195","1016547","0.0-15.0-3.16","98624","List1B","white","woman","","","","","{""Q0"":""Dave is being hugged by Jane""}","<img src=""stim_listB/hug4.gif""style=""height:400px;""></stim_listB>","is being hugged by","","","","","",""
"null","<div style=""font-size:60px;"">+</div>","","html-keyboard-response","196","1017049","0.0-15.0-0.17","98624","List1B","white","woman","","","","null","","","","","","","","",""
"null","<img src=""stim_listB/hug3.gif""style=""height:400px;""></stim_listB>","","html-keyboard-response","197","1019055","0.0-15.0-1.17","98624","List1B","white","woman","","","","null","","","","","","","","",""
"null","is hugging","","html-keyboard-response","198","1021059","0.0-15.0-2.17","98624","List1B","white","woman","","","","null","","","","","","","","",""
"9555.09999999404","","","survey-text","199","1030616","0.0-15.0-3.17","98624","List1B","white","woman","","","","","{""Q0"":""Ruth is hugging Luke""}","<img src=""stim_listB/hug3.gif""style=""height:400px;""></stim_listB>","is hugging","","","","","",""
"null","<div style=""font-size:60px;"">+</div>","","html-keyboard-response","200","1031120","0.0-15.0-0.18","98624","List1B","white","woman","","","","null","","","","","","","","",""
"null","<img src=""stim_listB/copy8.gif""style=""height:400px;""></stim_listB>","","html-keyboard-response","201","1033126","0.0-15.0-1.18","98624","List1B","white","woman","","","","null","","","","","","","","",""
"null","is being copied by","","html-keyboard-response","202","1035127","0.0-15.0-2.18","98624","List1B","white","woman","","","","null","","","","","","","","",""
"8306.300000011921","","","survey-text","203","1043436","0.0-15.0-3.18","98624","List1B","white","woman","","","","","{""Q0"":""Beth is being copied by Jane""}","<img src=""stim_listB/copy8.gif""style=""height:400px;""></stim_listB>","is being copied by","","","","","",""
"null","<div style=""font-size:60px;"">+</div>","","html-keyboard-response","204","1043938","0.0-15.0-0.19","98624","List1B","white","woman","","","","null","","","","","","","","",""
"null","<img src=""stim_listB/hug8.gif""style=""height:400px;""></stim_listB>","","html-keyboard-response","205","1045945","0.0-15.0-1.19","98624","List1B","white","woman","","","","null","","","","","","","","",""
"null","is being hugged by","","html-keyboard-response","206","1047950","0.0-15.0-2.19","98624","List1B","white","woman","","","","null","","","","","","","","",""
"8244.09999999404","","","survey-text","207","1056198","0.0-15.0-3.19","98624","List1B","white","woman","","","","","{""Q0"":""Kate is being hugged by Jane""}","<img src=""stim_listB/hug8.gif""style=""height:400px;""></stim_listB>","is being hugged by","","","","","",""
"9786.199999988079","<img src='img/portrait_matrix_list1.jpg' style='width:900px;height:500px;''></img><p>If you have memorised all the portraits and names and are ready to start, press Continue.</p><p><strong>Please note: Your memory of these faces will be tested 4 times during this experiment.</strong></p>","0","html-button-response","208","1065985","0.0-16.0-0.0","98624","List1B","white","woman","","","","","","","","","","","","",""
"1909.6000000238419","<img src=""portrait/BM1.jpg""style=""height:400px;""></img>","4","html-button-response","209","1068897","0.0-16.0-1.0","98624","List1B","white","woman","","true","4","","","","","","","","","",""
"null","CORRECT","","html-keyboard-response","210","1070401","0.0-16.0-2.0-0.0","98624","List1B","white","woman","","","","null","","","","","","","","",""
"2559.199999988079","<img src=""portrait/BW2.jpg""style=""height:400px;""></img>","2","html-button-response","211","1072961","0.0-16.0-4.0","98624","List1B","white","woman","","true","2","","","","","","","","","",""
"null","CORRECT","","html-keyboard-response","212","1074469","0.0-16.0-5.0-0.0","98624","List1B","white","woman","","","","null","","","","","","","","",""
"2180.4000000059605","<img src=""portrait/WW1.jpg""style=""height:400px;""></img>","1","html-button-response","213","1076651","0.0-16.0-7.0","98624","List1B","white","woman","","true","1","","","","","","","","","",""
"null","CORRECT","","html-keyboard-response","214","1078154","0.0-16.0-8.0-0.0","98624","List1B","white","woman","","","","null","","","","","","","","",""
"2323.4000000059605","<img src=""portrait/WM1.jpg""style=""height:400px;""></img>","6","html-button-response","215","1080479","0.0-16.0-10.0","98624","List1B","white","woman","","true","6","","","","","","","","","",""
"null","CORRECT","","html-keyboard-response","216","1081985","0.0-16.0-11.0-0.0","98624","List1B","white","woman","","","","null","","","","","","","","",""
"1430","<img src=""portrait/WW2.jpg""style=""height:400px;""></img>","3","html-button-response","217","1083417","0.0-16.0-13.0","98624","List1B","white","woman","","true","3","","","","","","","","","",""
"null","CORRECT","","html-keyboard-response","218","1084925","0.0-16.0-14.0-0.0","98624","List1B","white","woman","","","","null","","","","","","","","",""
"1868.199999988079","<img src=""portrait/BM2.jpg""style=""height:400px;""></img>","5","html-button-response","219","1086795","0.0-16.0-16.0","98624","List1B","white","woman","","true","5","","","","","","","","","",""
"null","CORRECT","","html-keyboard-response","220","1088302","0.0-16.0-17.0-0.0","98624","List1B","white","woman","","","","null","","","","","","","","",""
"1633.800000011921","<img src=""portrait/WM2.jpg""style=""height:400px;""></img>","7","html-button-response","221","1089937","0.0-16.0-19.0","98624","List1B","white","woman","","true","7","","","","","","","","","",""
"null","CORRECT","","html-keyboard-response","222","1091443","0.0-16.0-20.0-0.0","98624","List1B","white","woman","","","","null","","","","","","","","",""
"2360","<img src=""portrait/BW1.jpg""style=""height:400px;""></img>","0","html-button-response","223","1093804","0.0-16.0-22.0","98624","List1B","white","woman","","true","0","","","","","","","","","",""
"null","CORRECT","","html-keyboard-response","224","1095313","0.0-16.0-23.0-0.0","98624","List1B","white","woman","","","","null","","","","","","","","",""
"1481.5","<p>You got 8 out of 8 right first time. Press Continue.</p>","0","html-button-response","225","1096796","0.0-16.0-25.0","98624","List1B","white","woman","","","","","","","","","","","","",""
"null","<div style=""font-size:60px;"">+</div>","","html-keyboard-response","226","1098304","0.0-17.0-0.0","98624","List1B","white","woman","","","","null","","","","","","","","",""
"null","<img src=""stim_listB/greet3.gif""style=""height:400px;""></stim_listB>","","html-keyboard-response","227","1100311","0.0-17.0-1.0","98624","List1B","white","woman","","","","null","","","","","","","","",""
"null","is greeting","","html-keyboard-response","228","1102317","0.0-17.0-2.0","98624","List1B","white","woman","","","","null","","","","","","","","",""
"11462","","","survey-text","229","1113782","0.0-17.0-3.0","98624","List1B","white","woman","","","","","{""Q0"":""Ruth is greeting Dave""}","<img src=""stim_listB/greet3.gif""style=""height:400px;""></stim_listB>","is greeting","","","","","",""
"null","<div style=""font-size:60px;"">+</div>","","html-keyboard-response","230","1114286","0.0-17.0-0.1","98624","List1B","white","woman","","","","null","","","","","","","","",""
"null","<img src=""stim_listB/hug1.gif""style=""height:400px;""></stim_listB>","","html-keyboard-response","231","1116290","0.0-17.0-1.1","98624","List1B","white","woman","","","","null","","","","","","","","",""
"null","is hugging","","html-keyboard-response","232","1118296","0.0-17.0-2.1","98624","List1B","white","woman","","","","null","","","","","","","","",""
"6404.600000023842","","","survey-text","233","1124703","0.0-17.0-3.1","98624","List1B","white","woman","","","","","{""Q0"":""Beth is hugging Fred""}","<img src=""stim_listB/hug1.gif""style=""height:400px;""></stim_listB>","is hugging","","","","","",""
"null","<div style=""font-size:60px;"">+</div>","","html-keyboard-response","234","1125205","0.0-17.0-0.2","98624","List1B","white","woman","","","","null","","","","","","","","",""
"null","<img src=""stim_listB/seduce2.gif""style=""height:400px;""></stim_listB>","","html-keyboard-response","235","1127211","0.0-17.0-1.2","98624","List1B","white","woman","","","","null","","","","","","","","",""
"null","is being seduced by","","html-keyboard-response","236","1129217","0.0-17.0-2.2","98624","List1B","white","woman","","","","null","","","","","","","","",""
"8272.5","","","survey-text","237","1137493","0.0-17.0-3.2","98624","List1B","white","woman","","","","","{""Q0"":""Mike is being seduced by Beth""}","<img src=""stim_listB/seduce2.gif""style=""height:400px;""></stim_listB>","is being seduced by","","","","","",""
"null","<div style=""font-size:60px;"">+</div>","","html-keyboard-response","238","1137997","0.0-17.0-0.3","98624","List1B","white","woman","","","","null","","","","","","","","",""
"null","<img src=""stim_listB/touch5.gif""style=""height:400px;""></stim_listB>","","html-keyboard-response","239","1140004","0.0-17.0-1.3","98624","List1B","white","woman","","","","null","","","","","","","","",""
"null","is touching","","html-keyboard-response","240","1142006","0.0-17.0-2.3","98624","List1B","white","woman","","","","null","","","","","","","","",""
"10967.40000000596","","","survey-text","241","1152975","0.0-17.0-3.3","98624","List1B","white","woman","","","","","{""Q0"":""Dave is touching Mike""}","<img src=""stim_listB/touch5.gif""style=""height:400px;""></stim_listB>","is touching","","","","","",""
"null","<div style=""font-size:60px;"">+</div>","","html-keyboard-response","242","1153480","0.0-17.0-0.4","98624","List1B","white","woman","","","","null","","","","","","","","",""
"null","<img src=""stim_listB/hug7.gif""style=""height:400px;""></stim_listB>","","html-keyboard-response","243","1155484","0.0-17.0-1.4","98624","List1B","white","woman","","","","null","","","","","","","","",""
"null","is hugging","","html-keyboard-response","244","1157490","0.0-17.0-2.4","98624","List1B","white","woman","","","","null","","","","","","","","",""
"7433.799999982119","","","survey-text","245","1164927","0.0-17.0-3.4","98624","List1B","white","woman","","","","","{""Q0"":""Ruth is hugging Beth""}","<img src=""stim_listB/hug7.gif""style=""height:400px;""></stim_listB>","is hugging","","","","","",""
"null","<div style=""font-size:60px;"">+</div>","","html-keyboard-response","246","1165428","0.0-17.0-0.5","98624","List1B","white","woman","","","","null","","","","","","","","",""
"null","<img src=""stim_listB/hug5.gif""style=""height:400px;""></stim_listB>","","html-keyboard-response","247","1167433","0.0-17.0-1.5","98624","List1B","white","woman","","","","null","","","","","","","","",""
"null","is hugging","","html-keyboard-response","248","1169436","0.0-17.0-2.5","98624","List1B","white","woman","","","","null","","","","","","","","",""
"10220.5","","","survey-text","249","1179659","0.0-17.0-3.5","98624","List1B","white","woman","","","","","{""Q0"":""Luke is hugging Fred""}","<img src=""stim_listB/hug5.gif""style=""height:400px;""></stim_listB>","is hugging","","","","","",""
"null","<div style=""font-size:60px;"">+</div>","","html-keyboard-response","250","1180161","0.0-17.0-0.6","98624","List1B","white","woman","","","","null","","","","","","","","",""
"null","<img src=""stim_listB/copy6.gif""style=""height:400px;""></stim_listB>","","html-keyboard-response","251","1182166","0.0-17.0-1.6","98624","List1B","white","woman","","","","null","","","","","","","","",""
"null","is being copied by","","html-keyboard-response","252","1184167","0.0-17.0-2.6","98624","List1B","white","woman","","","","null","","","","","","","","",""
"11169.299999982119","","","survey-text","253","1195339","0.0-17.0-3.6","98624","List1B","white","woman","","","","","{""Q0"":""Fred is being copied by Dave""}","<img src=""stim_listB/copy6.gif""style=""height:400px;""></stim_listB>","is being copied by","","","","","",""
"null","<div style=""font-size:60px;"">+</div>","","html-keyboard-response","254","1195844","0.0-17.0-0.7","98624","List1B","white","woman","","","","null","","","","","","","","",""
"null","<img src=""stim_listB/kiss3.gif""style=""height:400px;""></stim_listB>","","html-keyboard-response","255","1197845","0.0-17.0-1.7","98624","List1B","white","woman","","","","null","","","","","","","","",""
"null","is kissing","","html-keyboard-response","256","1199847","0.0-17.0-2.7","98624","List1B","white","woman","","","","null","","","","","","","","",""
"12737.100000023842","","","survey-text","257","1212586","0.0-17.0-3.7","98624","List1B","white","woman","","","","","{""Q0"":""Ruth is kissing Luke""}","<img src=""stim_listB/kiss3.gif""style=""height:400px;""></stim_listB>","is kissing","","","","","",""
"null","<div style=""font-size:60px;"">+</div>","","html-keyboard-response","258","1213091","0.0-17.0-0.8","98624","List1B","white","woman","","","","null","","","","","","","","",""
"null","<img src=""stim_listB/copy3.gif""style=""height:400px;""></stim_listB>","","html-keyboard-response","259","1215095","0.0-17.0-1.8","98624","List1B","white","woman","","","","null","","","","","","","","",""
"null","is copying","","html-keyboard-response","260","1217100","0.0-17.0-2.8","98624","List1B","white","woman","","","","null","","","","","","","","",""
"7821.699999988079","","","survey-text","261","1224924","0.0-17.0-3.8","98624","List1B","white","woman","","","","","{""Q0"":""Ruth is copying Dave""}","<img src=""stim_listB/copy3.gif""style=""height:400px;""></stim_listB>","is copying","","","","","",""
"null","<div style=""font-size:60px;"">+</div>","","html-keyboard-response","262","1225429","0.0-17.0-0.9","98624","List1B","white","woman","","","","null","","","","","","","","",""
"null","<img src=""stim_listB/challenge5.gif""style=""height:400px;""></stim_listB>","","html-keyboard-response","263","1227434","0.0-17.0-1.9","98624","List1B","white","woman","","","","null","","","","","","","","",""
"null","is challenging","","html-keyboard-response","264","1229436","0.0-17.0-2.9","98624","List1B","white","woman","","","","null","","","","","","","","",""
"9390.200000017881","","","survey-text","265","1238829","0.0-17.0-3.9","98624","List1B","white","woman","","","","","{""Q0"":""Luke is challenging Mike""}","<img src=""stim_listB/challenge5.gif""style=""height:400px;""></stim_listB>","is challenging","","","","","",""
"null","<div style=""font-size:60px;"">+</div>","","html-keyboard-response","266","1239330","0.0-17.0-0.10","98624","List1B","white","woman","","","","null","","","","","","","","",""
"null","<img src=""stim_listB/seduce4.gif""style=""height:400px;""></stim_listB>","","html-keyboard-response","267","1241336","0.0-17.0-1.10","98624","List1B","white","woman","","","","null","","","","","","","","",""
"null","is being seduced by","","html-keyboard-response","268","1243341","0.0-17.0-2.10","98624","List1B","white","woman","","","","null","","","","","","","","",""
"7634.5999999940395","","","survey-text","269","1250979","0.0-17.0-3.10","98624","List1B","white","woman","","","","","{""Q0"":""Dave is being seduced by Ruth""}","<img src=""stim_listB/seduce4.gif""style=""height:400px;""></stim_listB>","is being seduced by","","","","","",""
"null","<div style=""font-size:60px;"">+</div>","","html-keyboard-response","270","1251480","0.0-17.0-0.11","98624","List1B","white","woman","","","","null","","","","","","","","",""
"null","<img src=""stim_listB/touch3.gif""style=""height:400px;""></stim_listB>","","html-keyboard-response","271","1253482","0.0-17.0-1.11","98624","List1B","white","woman","","","","null","","","","","","","","",""
"null","is touching","","html-keyboard-response","272","1255488","0.0-17.0-2.11","98624","List1B","white","woman","","","","null","","","","","","","","",""
"6837","","","survey-text","273","1262329","0.0-17.0-3.11","98624","List1B","white","woman","","","","","{""Q0"":""Jane is touching Dave""}","<img src=""stim_listB/touch3.gif""style=""height:400px;""></stim_listB>","is touching","","","","","",""
"null","<div style=""font-size:60px;"">+</div>","","html-keyboard-response","274","1262830","0.0-17.0-0.12","98624","List1B","white","woman","","","","null","","","","","","","","",""
"null","<img src=""stim_listB/shout5.gif""style=""height:400px;""></stim_listB>","","html-keyboard-response","275","1264832","0.0-17.0-1.12","98624","List1B","white","woman","","","","null","","","","","","","","",""
"null","is shouting at","","html-keyboard-response","276","1266838","0.0-17.0-2.12","98624","List1B","white","woman","","","","null","","","","","","","","",""
"8409.40000000596","","","survey-text","277","1275250","0.0-17.0-3.12","98624","List1B","white","woman","","","","","{""Q0"":""Luke is shouting at Fred""}","<img src=""stim_listB/shout5.gif""style=""height:400px;""></stim_listB>","is shouting at","","","","","",""
"null","<div style=""font-size:60px;"">+</div>","","html-keyboard-response","278","1275751","0.0-17.0-0.13","98624","List1B","white","woman","","","","null","","","","","","","","",""
"null","<img src=""stim_listB/seduce5.gif""style=""height:400px;""></stim_listB>","","html-keyboard-response","279","1277757","0.0-17.0-1.13","98624","List1B","white","woman","","","","null","","","","","","","","",""
"null","is seducing","","html-keyboard-response","280","1279763","0.0-17.0-2.13","98624","List1B","white","woman","","","","null","","","","","","","","",""
"6579.699999988079","","","survey-text","281","1286346","0.0-17.0-3.13","98624","List1B","white","woman","","","","","{""Q0"":""Dave is seducing Fred""}","<img src=""stim_listB/seduce5.gif""style=""height:400px;""></stim_listB>","is seducing","","","","","",""
"null","<div style=""font-size:60px;"">+</div>","","html-keyboard-response","282","1286850","0.0-17.0-0.14","98624","List1B","white","woman","","","","null","","","","","","","","",""
"null","<img src=""stim_listB/shout3.gif""style=""height:400px;""></stim_listB>","","html-keyboard-response","283","1288856","0.0-17.0-1.14","98624","List1B","white","woman","","","","null","","","","","","","","",""
"null","is shouting at","","html-keyboard-response","284","1290858","0.0-17.0-2.14","98624","List1B","white","woman","","","","null","","","","","","","","",""
"7950.199999988079","","","survey-text","285","1298811","0.0-17.0-3.14","98624","List1B","white","woman","","","","","{""Q0"":""Ruth is shouting at Luke""}","<img src=""stim_listB/shout3.gif""style=""height:400px;""></stim_listB>","is shouting at","","","","","",""
"null","<div style=""font-size:60px;"">+</div>","","html-keyboard-response","286","1299315","0.0-17.0-0.15","98624","List1B","white","woman","","","","null","","","","","","","","",""
"null","<img src=""stim_listB/copy4.gif""style=""height:400px;""></stim_listB>","","html-keyboard-response","287","1301322","0.0-17.0-1.15","98624","List1B","white","woman","","","","null","","","","","","","","",""
"null","is being copied by","","html-keyboard-response","288","1303328","0.0-17.0-2.15","98624","List1B","white","woman","","","","null","","","","","","","","",""
"8219.699999988079","","","survey-text","289","1311551","0.0-17.0-3.15","98624","List1B","white","woman","","","","","{""Q0"":""Luke is being copied by Jane""}","<img src=""stim_listB/copy4.gif""style=""height:400px;""></stim_listB>","is being copied by","","","","","",""
"null","<div style=""font-size:60px;"">+</div>","","html-keyboard-response","290","1312052","0.0-17.0-0.16","98624","List1B","white","woman","","","","null","","","","","","","","",""
"null","<img src=""stim_listB/kiss8.gif""style=""height:400px;""></stim_listB>","","html-keyboard-response","291","1314057","0.0-17.0-1.16","98624","List1B","white","woman","","","","null","","","","","","","","",""
"null","is being kissed by","","html-keyboard-response","292","1316062","0.0-17.0-2.16","98624","List1B","white","woman","","","","null","","","","","","","","",""
"7909.4000000059605","","","survey-text","293","1323974","0.0-17.0-3.16","98624","List1B","white","woman","","","","","{""Q0"":""Kate is being kissed by Jane""}","<img src=""stim_listB/kiss8.gif""style=""height:400px;""></stim_listB>","is being kissed by","","","","","",""
"null","<div style=""font-size:60px;"">+</div>","","html-keyboard-response","294","1324477","0.0-17.0-0.17","98624","List1B","white","woman","","","","null","","","","","","","","",""
"null","<img src=""stim_listB/shout7.gif""style=""height:400px;""></stim_listB>","","html-keyboard-response","295","1326484","0.0-17.0-1.17","98624","List1B","white","woman","","","","null","","","","","","","","",""
"null","is shouting at","","html-keyboard-response","296","1328489","0.0-17.0-2.17","98624","List1B","white","woman","","","","null","","","","","","","","",""
"6683.5","","","survey-text","297","1335176","0.0-17.0-3.17","98624","List1B","white","woman","","","","","{""Q0"":""Ruth is shouting at Beth""}","<img src=""stim_listB/shout7.gif""style=""height:400px;""></stim_listB>","is shouting at","","","","","",""
"null","<div style=""font-size:60px;"">+</div>","","html-keyboard-response","298","1335677","0.0-17.0-0.18","98624","List1B","white","woman","","","","null","","","","","","","","",""
"null","<img src=""stim_listB/greet5.gif""style=""height:400px;""></stim_listB>","","html-keyboard-response","299","1337682","0.0-17.0-1.18","98624","List1B","white","woman","","","","null","","","","","","","","",""
"null","is greeting","","html-keyboard-response","300","1339683","0.0-17.0-2.18","98624","List1B","white","woman","","","","null","","","","","","","","",""
"7319","","","survey-text","301","1347006","0.0-17.0-3.18","98624","List1B","white","woman","","","","","{""Q0"":""Luke is greeting Mike""}","<img src=""stim_listB/greet5.gif""style=""height:400px;""></stim_listB>","is greeting","","","","","",""
"null","<div style=""font-size:60px;"">+</div>","","html-keyboard-response","302","1347510","0.0-17.0-0.19","98624","List1B","white","woman","","","","null","","","","","","","","",""
"null","<img src=""stim_listB/seduce8.gif""style=""height:400px;""></stim_listB>","","html-keyboard-response","303","1349514","0.0-17.0-1.19","98624","List1B","white","woman","","","","null","","","","","","","","",""
"null","is being seduced by","","html-keyboard-response","304","1351515","0.0-17.0-2.19","98624","List1B","white","woman","","","","null","","","","","","","","",""
"8117.200000017881","","","survey-text","305","1359635","0.0-17.0-3.19","98624","List1B","white","woman","","","","","{""Q0"":""Kate is being seduced by Ruth""}","<img src=""stim_listB/seduce8.gif""style=""height:400px;""></stim_listB>","is being seduced by","","","","","",""
"10154","<img src='img/portrait_matrix_list1.jpg' style='width:900px;height:500px;''></img><p>If you have memorised all the portraits and names and are ready to start, press Continue.</p><p><strong>Please note: Your memory of these faces will be tested 4 times during this experiment.</strong></p>","0","html-button-response","306","1369791","0.0-18.0-0.0","98624","List1B","white","woman","","","","","","","","","","","","",""
"2163.199999988079","<img src=""portrait/BW2.jpg""style=""height:400px;""></img>","2","html-button-response","307","1372959","0.0-18.0-1.0","98624","List1B","white","woman","","true","2","","","","","","","","","",""
"null","CORRECT","","html-keyboard-response","308","1374465","0.0-18.0-2.0-0.0","98624","List1B","white","woman","","","","null","","","","","","","","",""
"1486.199999988079","<img src=""portrait/WM2.jpg""style=""height:400px;""></img>","7","html-button-response","309","1375952","0.0-18.0-4.0","98624","List1B","white","woman","","true","7","","","","","","","","","",""
"null","CORRECT","","html-keyboard-response","310","1377461","0.0-18.0-5.0-0.0","98624","List1B","white","woman","","","","null","","","","","","","","",""
"1720.0999999940395","<img src=""portrait/WW1.jpg""style=""height:400px;""></img>","1","html-button-response","311","1379182","0.0-18.0-7.0","98624","List1B","white","woman","","true","1","","","","","","","","","",""
"null","CORRECT","","html-keyboard-response","312","1380688","0.0-18.0-8.0-0.0","98624","List1B","white","woman","","","","null","","","","","","","","",""
"1251.300000011921","<img src=""portrait/WW2.jpg""style=""height:400px;""></img>","3","html-button-response","313","1381940","0.0-18.0-10.0","98624","List1B","white","woman","","true","3","","","","","","","","","",""
"null","CORRECT","","html-keyboard-response","314","1383447","0.0-18.0-11.0-0.0","98624","List1B","white","woman","","","","null","","","","","","","","",""
"3147.300000011921","<img src=""portrait/BM1.jpg""style=""height:400px;""></img>","4","html-button-response","315","1386596","0.0-18.0-13.0","98624","List1B","white","woman","","true","4","","","","","","","","","",""
"null","CORRECT","","html-keyboard-response","316","1388101","0.0-18.0-14.0-0.0","98624","List1B","white","woman","","","","null","","","","","","","","",""
"2497.9000000059605","<img src=""portrait/WM1.jpg""style=""height:400px;""></img>","6","html-button-response","317","1390600","0.0-18.0-16.0","98624","List1B","white","woman","","true","6","","","","","","","","","",""
"null","CORRECT","","html-keyboard-response","318","1392107","0.0-18.0-17.0-0.0","98624","List1B","white","woman","","","","null","","","","","","","","",""
"1683.5999999940395","<img src=""portrait/BM2.jpg""style=""height:400px;""></img>","5","html-button-response","319","1393792","0.0-18.0-19.0","98624","List1B","white","woman","","true","5","","","","","","","","","",""
"null","CORRECT","","html-keyboard-response","320","1395301","0.0-18.0-20.0-0.0","98624","List1B","white","woman","","","","null","","","","","","","","",""
"1533.4000000059605","<img src=""portrait/BW1.jpg""style=""height:400px;""></img>","0","html-button-response","321","1396836","0.0-18.0-22.0","98624","List1B","white","woman","","true","0","","","","","","","","","",""
"null","CORRECT","","html-keyboard-response","322","1398345","0.0-18.0-23.0-0.0","98624","List1B","white","woman","","","","null","","","","","","","","",""
"3057.0999999940395","<p>You got 8 out of 8 right first time. Press Continue.</p>","0","html-button-response","323","1401403","0.0-18.0-25.0","98624","List1B","white","woman","","","","","","","","","","","","",""
"null","<div style=""font-size:60px;"">+</div>","","html-keyboard-response","324","1402914","0.0-19.0-0.0","98624","List1B","white","woman","","","","null","","","","","","","","",""
"null","<img src=""stim_listB/seduce3.gif""style=""height:400px;""></stim_listB>","","html-keyboard-response","325","1404920","0.0-19.0-1.0","98624","List1B","white","woman","","","","null","","","","","","","","",""
"null","is seducing","","html-keyboard-response","326","1406923","0.0-19.0-2.0","98624","List1B","white","woman","","","","null","","","","","","","","",""
"6985.299999982119","","","survey-text","327","1413911","0.0-19.0-3.0","98624","List1B","white","woman","","","","","{""Q0"":""Jane is seducing Luke""}","<img src=""stim_listB/seduce3.gif""style=""height:400px;""></stim_listB>","is seducing","","","","","",""
"null","<div style=""font-size:60px;"">+</div>","","html-keyboard-response","328","1414412","0.0-19.0-0.1","98624","List1B","white","woman","","","","null","","","","","","","","",""
"null","<img src=""stim_listB/look3.gif""style=""height:400px;""></stim_listB>","","html-keyboard-response","329","1416418","0.0-19.0-1.1","98624","List1B","white","woman","","","","null","","","","","","","","",""
"null","is looking at","","html-keyboard-response","330","1418419","0.0-19.0-2.1","98624","List1B","white","woman","","","","null","","","","","","","","",""
"14221.299999982119","","","survey-text","331","1432642","0.0-19.0-3.1","98624","List1B","white","woman","","","","","{""Q0"":""Ruth is looking at Luke""}","<img src=""stim_listB/look3.gif""style=""height:400px;""></stim_listB>","is looking at","","","","","",""
"null","<div style=""font-size:60px;"">+</div>","","html-keyboard-response","332","1433145","0.0-19.0-0.2","98624","List1B","white","woman","","","","null","","","","","","","","",""
"null","<img src=""stim_listB/touch6.gif""style=""height:400px;""></stim_listB>","","html-keyboard-response","333","1435147","0.0-19.0-1.2","98624","List1B","white","woman","","","","null","","","","","","","","",""
"null","is being touched by","","html-keyboard-response","334","1437150","0.0-19.0-2.2","98624","List1B","white","woman","","","","null","","","","","","","","",""
"8717.399999976158","","","survey-text","335","1445870","0.0-19.0-3.2","98624","List1B","white","woman","","","","","{""Q0"":""Fred is being touched by Luke""}","<img src=""stim_listB/touch6.gif""style=""height:400px;""></stim_listB>","is being touched by","","","","","",""
"null","<div style=""font-size:60px;"">+</div>","","html-keyboard-response","336","1446375","0.0-19.0-0.3","98624","List1B","white","woman","","","","null","","","","","","","","",""
"null","<img src=""stim_listB/seduce1.gif""style=""height:400px;""></stim_listB>","","html-keyboard-response","337","1448377","0.0-19.0-1.3","98624","List1B","white","woman","","","","null","","","","","","","","",""
"null","is seducing","","html-keyboard-response","338","1450378","0.0-19.0-2.3","98624","List1B","white","woman","","","","null","","","","","","","","",""
"6344.700000017881","","","survey-text","339","1456726","0.0-19.0-3.3","98624","List1B","white","woman","","","","","{""Q0"":""Kate is seducing Fred""}","<img src=""stim_listB/seduce1.gif""style=""height:400px;""></stim_listB>","is seducing","","","","","",""
"null","<div style=""font-size:60px;"">+</div>","","html-keyboard-response","340","1457227","0.0-19.0-0.4","98624","List1B","white","woman","","","","null","","","","","","","","",""
"null","<img src=""stim_listB/oppose1.gif""style=""height:400px;""></stim_listB>","","html-keyboard-response","341","1459233","0.0-19.0-1.4","98624","List1B","white","woman","","","","null","","","","","","","","",""
"null","is opposing","","html-keyboard-response","342","1461237","0.0-19.0-2.4","98624","List1B","white","woman","","","","null","","","","","","","","",""
"7233.600000023842","","","survey-text","343","1468473","0.0-19.0-3.4","98624","List1B","white","woman","","","","","{""Q0"":""Kate is opposing Mike""}","<img src=""stim_listB/oppose1.gif""style=""height:400px;""></stim_listB>","is opposing","","","","","",""
"null","<div style=""font-size:60px;"">+</div>","","html-keyboard-response","344","1468975","0.0-19.0-0.5","98624","List1B","white","woman","","","","null","","","","","","","","",""
"null","<img src=""stim_listB/copy7.gif""style=""height:400px;""></stim_listB>","","html-keyboard-response","345","1470978","0.0-19.0-1.5","98624","List1B","white","woman","","","","null","","","","","","","","",""
"null","is copying","","html-keyboard-response","346","1472984","0.0-19.0-2.5","98624","List1B","white","woman","","","","null","","","","","","","","",""
"8465.800000011921","","","survey-text","347","1481453","0.0-19.0-3.5","98624","List1B","white","woman","","","","","{""Q0"":""Ruth is copying Kate""}","<img src=""stim_listB/copy7.gif""style=""height:400px;""></stim_listB>","is copying","","","","","",""
"null","<div style=""font-size:60px;"">+</div>","","html-keyboard-response","348","1481956","0.0-19.0-0.6","98624","List1B","white","woman","","","","null","","","","","","","","",""
"null","<img src=""stim_listB/seduce7.gif""style=""height:400px;""></stim_listB>","","html-keyboard-response","349","1483961","0.0-19.0-1.6","98624","List1B","white","woman","","","","null","","","","","","","","",""
"null","is seducing","","html-keyboard-response","350","1485962","0.0-19.0-2.6","98624","List1B","white","woman","","","","null","","","","","","","","",""
"7422.699999988079","","","survey-text","351","1493388","0.0-19.0-3.6","98624","List1B","white","woman","","","","","{""Q0"":""Jane is seducing Beth""}","<img src=""stim_listB/seduce7.gif""style=""height:400px;""></stim_listB>","is seducing","","","","","",""
"null","<div style=""font-size:60px;"">+</div>","","html-keyboard-response","352","1493890","0.0-19.0-0.7","98624","List1B","white","woman","","","","null","","","","","","","","",""
"null","<img src=""stim_listB/touch2.gif""style=""height:400px;""></stim_listB>","","html-keyboard-response","353","1495891","0.0-19.0-1.7","98624","List1B","white","woman","","","","null","","","","","","","","",""
"null","is being touched by","","html-keyboard-response","354","1497893","0.0-19.0-2.7","98624","List1B","white","woman","","","","null","","","","","","","","",""
"8224.700000017881","","","survey-text","355","1506120","0.0-19.0-3.7","98624","List1B","white","woman","","","","","{""Q0"":""Fred is being touched by Beth""}","<img src=""stim_listB/touch2.gif""style=""height:400px;""></stim_listB>","is being touched by","","","","","",""
"null","<div style=""font-size:60px;"">+</div>","","html-keyboard-response","356","1506625","0.0-19.0-0.8","98624","List1B","white","woman","","","","null","","","","","","","","",""
"null","<img src=""stim_listB/copy2.gif""style=""height:400px;""></stim_listB>","","html-keyboard-response","357","1508631","0.0-19.0-1.8","98624","List1B","white","woman","","","","null","","","","","","","","",""
"null","is being copied by","","html-keyboard-response","358","1510633","0.0-19.0-2.8","98624","List1B","white","woman","","","","null","","","","","","","","",""
"8861.399999976158","","","survey-text","359","1519497","0.0-19.0-3.8","98624","List1B","white","woman","","","","","{""Q0"":""Fred is being copied by Kate""}","<img src=""stim_listB/copy2.gif""style=""height:400px;""></stim_listB>","is being copied by","","","","","",""
"null","<div style=""font-size:60px;"">+</div>","","html-keyboard-response","360","1520001","0.0-19.0-0.9","98624","List1B","white","woman","","","","null","","","","","","","","",""
"null","<img src=""stim_listB/look4.gif""style=""height:400px;""></stim_listB>","","html-keyboard-response","361","1522003","0.0-19.0-1.9","98624","List1B","white","woman","","","","null","","","","","","","","",""
"null","is being looked at by","","html-keyboard-response","362","1524008","0.0-19.0-2.9","98624","List1B","white","woman","","","","null","","","","","","","","",""
"9070.100000023842","","","survey-text","363","1533081","0.0-19.0-3.9","98624","List1B","white","woman","","","","","{""Q0"":""Dave is being looked at by Jane""}","<img src=""stim_listB/look4.gif""style=""height:400px;""></stim_listB>","is being looked at by","","","","","",""
"null","<div style=""font-size:60px;"">+</div>","","html-keyboard-response","364","1533586","0.0-19.0-0.10","98624","List1B","white","woman","","","","null","","","","","","","","",""
"null","<img src=""stim_listB/shout8.gif""style=""height:400px;""></stim_listB>","","html-keyboard-response","365","1535590","0.0-19.0-1.10","98624","List1B","white","woman","","","","null","","","","","","","","",""
"null","is being shouted at by","","html-keyboard-response","366","1537596","0.0-19.0-2.10","98624","List1B","white","woman","","","","null","","","","","","","","",""
"9962.100000023842","","","survey-text","367","1547560","0.0-19.0-3.10","98624","List1B","white","woman","","","","","{""Q0"":""Kate is being shouted at by Jane""}","<img src=""stim_listB/shout8.gif""style=""height:400px;""></stim_listB>","is being shouted at by","","","","","",""
"null","<div style=""font-size:60px;"">+</div>","","html-keyboard-response","368","1548065","0.0-19.0-0.11","98624","List1B","white","woman","","","","null","","","","","","","","",""
"null","<img src=""stim_listB/hug2.gif""style=""height:400px;""></stim_listB>","","html-keyboard-response","369","1550070","0.0-19.0-1.11","98624","List1B","white","woman","","","","null","","","","","","","","",""
"null","is being hugged by","","html-keyboard-response","370","1552076","0.0-19.0-2.11","98624","List1B","white","woman","","","","null","","","","","","","","",""
"7349.200000017881","","","survey-text","371","1559428","0.0-19.0-3.11","98624","List1B","white","woman","","","","","{""Q0"":""Mike is being hugged by Kate""}","<img src=""stim_listB/hug2.gif""style=""height:400px;""></stim_listB>","is being hugged by","","","","","",""
"null","<div style=""font-size:60px;"">+</div>","","html-keyboard-response","372","1559929","0.0-19.0-0.12","98624","List1B","white","woman","","","","null","","","","","","","","",""
"null","<img src=""stim_listB/shout2.gif""style=""height:400px;""></stim_listB>","","html-keyboard-response","373","1561932","0.0-19.0-1.12","98624","List1B","white","woman","","","","null","","","","","","","","",""
"null","is being shouted at by","","html-keyboard-response","374","1563937","0.0-19.0-2.12","98624","List1B","white","woman","","","","null","","","","","","","","",""
"8901.799999982119","","","survey-text","375","1572842","0.0-19.0-3.12","98624","List1B","white","woman","","","","","{""Q0"":""Mike is being shouted at by Kate""}","<img src=""stim_listB/shout2.gif""style=""height:400px;""></stim_listB>","is being shouted at by","","","","","",""
"null","<div style=""font-size:60px;"">+</div>","","html-keyboard-response","376","1573345","0.0-19.0-0.13","98624","List1B","white","woman","","","","null","","","","","","","","",""
"null","<img src=""stim_listB/challenge2.gif""style=""height:400px;""></stim_listB>","","html-keyboard-response","377","1575351","0.0-19.0-1.13","98624","List1B","white","woman","","","","null","","","","","","","","",""
"null","is being challenged by","","html-keyboard-response","378","1577354","0.0-19.0-2.13","98624","List1B","white","woman","","","","null","","","","","","","","",""
"10752.40000000596","","","survey-text","379","1588109","0.0-19.0-3.13","98624","List1B","white","woman","","","","","{""Q0"":""Fred is being challenged by Kate""}","<img src=""stim_listB/challenge2.gif""style=""height:400px;""></stim_listB>","is being challenged by","","","","","",""
"null","<div style=""font-size:60px;"">+</div>","","html-keyboard-response","380","1588611","0.0-19.0-0.14","98624","List1B","white","woman","","","","null","","","","","","","","",""
"null","<img src=""stim_listB/challenge8.gif""style=""height:400px;""></stim_listB>","","html-keyboard-response","381","1590614","0.0-19.0-1.14","98624","List1B","white","woman","","","","null","","","","","","","","",""
"null","is being challenged by","","html-keyboard-response","382","1592616","0.0-19.0-2.14","98624","List1B","white","woman","","","","null","","","","","","","","",""
"10493.59999999404","","","survey-text","383","1603112","0.0-19.0-3.14","98624","List1B","white","woman","","","","","{""Q0"":""Beth is being challenged by Jane""}","<img src=""stim_listB/challenge8.gif""style=""height:400px;""></stim_listB>","is being challenged by","","","","","",""
"null","<div style=""font-size:60px;"">+</div>","","html-keyboard-response","384","1603614","0.0-19.0-0.15","98624","List1B","white","woman","","","","null","","","","","","","","",""
"null","<img src=""stim_listB/look2.gif""style=""height:400px;""></stim_listB>","","html-keyboard-response","385","1605615","0.0-19.0-1.15","98624","List1B","white","woman","","","","null","","","","","","","","",""
"null","is being looked at by","","html-keyboard-response","386","1607622","0.0-19.0-2.15","98624","List1B","white","woman","","","","null","","","","","","","","",""
"10277.5","","","survey-text","387","1617902","0.0-19.0-3.15","98624","List1B","white","woman","","","","","{""Q0"":""Mike is being looked at by Kate""}","<img src=""stim_listB/look2.gif""style=""height:400px;""></stim_listB>","is being looked at by","","","","","",""
"null","<div style=""font-size:60px;"">+</div>","","html-keyboard-response","388","1618404","0.0-19.0-0.16","98624","List1B","white","woman","","","","null","","","","","","","","",""
"null","<img src=""stim_listB/hug6.gif""style=""height:400px;""></stim_listB>","","html-keyboard-response","389","1620411","0.0-19.0-1.16","98624","List1B","white","woman","","","","null","","","","","","","","",""
"null","is being hugged by","","html-keyboard-response","390","1622417","0.0-19.0-2.16","98624","List1B","white","woman","","","","null","","","","","","","","",""
"10690.5","","","survey-text","391","1633112","0.0-19.0-3.16","98624","List1B","white","woman","","","","","{""Q0"":""Mike is being hugged by Dave""}","<img src=""stim_listB/hug6.gif""style=""height:400px;""></stim_listB>","is being hugged by","","","","","",""
"null","<div style=""font-size:60px;"">+</div>","","html-keyboard-response","392","1633613","0.0-19.0-0.17","98624","List1B","white","woman","","","","null","","","","","","","","",""
"null","<img src=""stim_listB/seduce6.gif""style=""height:400px;""></stim_listB>","","html-keyboard-response","393","1635615","0.0-19.0-1.17","98624","List1B","white","woman","","","","null","","","","","","","","",""
"null","is being seduced by","","html-keyboard-response","394","1637620","0.0-19.0-2.17","98624","List1B","white","woman","","","","null","","","","","","","","",""
"8575.299999982119","","","survey-text","395","1646199","0.0-19.0-3.17","98624","List1B","white","woman","","","","","{""Q0"":""Mike is being seduced by Luke""}","<img src=""stim_listB/seduce6.gif""style=""height:400px;""></stim_listB>","is being seduced by","","","","","",""
"null","<div style=""font-size:60px;"">+</div>","","html-keyboard-response","396","1646700","0.0-19.0-0.18","98624","List1B","white","woman","","","","null","","","","","","","","",""
"null","<img src=""stim_listB/greet2.gif""style=""height:400px;""></stim_listB>","","html-keyboard-response","397","1648707","0.0-19.0-1.18","98624","List1B","white","woman","","","","null","","","","","","","","",""
"null","is being greeted by","","html-keyboard-response","398","1650709","0.0-19.0-2.18","98624","List1B","white","woman","","","","null","","","","","","","","",""
"12206","","","survey-text","399","1662918","0.0-19.0-3.18","98624","List1B","white","woman","","","","","{""Q0"":""Fred is being greeted by Kate""}","<img src=""stim_listB/greet2.gif""style=""height:400px;""></stim_listB>","is being greeted by","","","","","",""
"null","<div style=""font-size:60px;"">+</div>","","html-keyboard-response","400","1663420","0.0-19.0-0.19","98624","List1B","white","woman","","","","null","","","","","","","","",""
"null","<img src=""stim_listB/oppose6.gif""style=""height:400px;""></stim_listB>","","html-keyboard-response","401","1665426","0.0-19.0-1.19","98624","List1B","white","woman","","","","null","","","","","","","","",""
"null","is being opposed by","","html-keyboard-response","402","1667428","0.0-19.0-2.19","98624","List1B","white","woman","","","","null","","","","","","","","",""
"8971.09999999404","","","survey-text","403","1676403","0.0-19.0-3.19","98624","List1B","white","woman","","","","","{""Q0"":""Fred is being opposed by Luke""}","<img src=""stim_listB/oppose6.gif""style=""height:400px;""></stim_listB>","is being opposed by","","","","","",""
"4302.5","<p>Thank you for completing that task.</p><p>The final part of this session is a questionnaire that will take about 4 minutes.</p><p>Press Continue.</p>","0","html-button-response","404","1680707","0.0-20.0","98624","List1B","white","woman","","","","","","","","","","","","",""
"33622.5","","","survey-text","405","1715338","0.0-21.0","98624","List1B","white","woman","","","","","{""Q0"":""35"",""Q1"":""English"",""Q2"":""English"",""Q3"":""USA"",""Q4"":""American"",""Q5"":""White"",""Q6"":""Female""}","","","demographics","","","","",""
"5045.5","<p>Have you lived in the USA for the last 5 years or more?</p>","1","html-button-response","406","1720385","0.0-22.0","98624","List1B","white","woman","","","","","","","","fiveyears","","","","",""
"3791.100000023842","<p>Move the slider to show the extent to which you agree with the following statements.</p>","0","html-button-response","407","1725181","0.0-23.0","98624","List1B","white","woman","","","","","","","","","","","","",""
"11360.700000017881","","","html-slider-response","408","1737547","0.0-24.0-0.0-0.0","98624","List1B","white","woman","","","","","","","","survey_race","83","","","I have a lot in common with the average person of my race.","average"
"7232.300000011921","","","html-slider-response","409","1744780","0.0-24.0-0.0-0.1","98624","List1B","white","woman","","","","","","","","survey_race","9","","","I enjoy being in large groups.","filler"
"9287.90000000596","","","html-slider-response","410","1754070","0.0-24.0-0.0-0.2","98624","List1B","white","woman","","","","","","","","survey_race","35","","","I feel a bond with people the same age as me.","filler"
"6689.799999982119","","","html-slider-response","411","1760762","0.0-24.0-0.0-0.3","98624","List1B","white","woman","","","","","","","","survey_race","19","","","I consider myself an introvert.","filler"
"5849.699999988079","","","html-slider-response","412","1766614","0.0-24.0-0.0-0.4","98624","List1B","white","woman","","","","","","","","survey_race","83","","","I consider myself an extrovert.","filler"
"8197.90000000596","","","html-slider-response","413","1774813","0.0-24.0-0.0-0.5","98624","List1B","white","woman","","","","","","","","survey_race","47","","","Being my age gives me a good feeling.","filler"
"14278","","","html-slider-response","414","1789093","0.0-24.0-0.0-0.6","98624","List1B","white","woman","","","","","","","","survey_race","89","","","It is pleasant to be my race.","pleasant"
"9466.299999982119","","","html-slider-response","415","1798561","0.0-24.0-0.0-0.7","98624","List1B","white","woman","","","","","","","","survey_race","34","","","I have a lot in common with people of a similar age to me.","filler"
"4203.5999999940395","","","html-slider-response","416","1802766","0.0-24.0-0.0-0.8","98624","List1B","white","woman","","","","","","","","survey_race","65","","","I am glad to be my age.","filler"
"5612","","","html-slider-response","417","1808380","0.0-24.0-0.0-0.9","98624","List1B","white","woman","","","","","","","","survey_race","85","","","Being my race is an important part of how I see myself.","important"
"8231.90000000596","","","html-slider-response","418","1816614","0.0-24.0-0.0-0.10","98624","List1B","white","woman","","","","","","","","survey_race","13","","","I often think about the fact that I am my race.","often"
"5815.5999999940395","","","html-slider-response","419","1822432","0.0-24.0-0.0-0.11","98624","List1B","white","woman","","","","","","","","survey_race","94","","","I feel committed to my race.","committed"
"3885.9000000059605","","","html-slider-response","420","1826319","0.0-24.0-0.0-0.12","98624","List1B","white","woman","","","","","","","","survey_race","91","","","The older I get, the wiser I feel.","filler"
"5084.200000017881","","","html-slider-response","421","1831405","0.0-24.0-0.0-0.13","98624","List1B","white","woman","","","","","","","","survey_race","86","","","I often think about the fact that I am my age.","filler"
"6960.299999982119","","","html-slider-response","422","1838367","0.0-24.0-0.0-0.14","98624","List1B","white","woman","","","","","","","","survey_race","41","","","My age is not an important part of who I am.","filler"
"5277.9000000059605","","","html-slider-response","423","1843647","0.0-24.0-0.0-0.15","98624","List1B","white","woman","","","","","","","","survey_race","83","","","The fact that I am my race is an important part of my identity.","identity"
"5103.800000011921","","","html-slider-response","424","1848752","0.0-24.0-0.0-0.16","98624","List1B","white","woman","","","","","","","","survey_race","34","","","I feel solidarity with people the same age as me.","filler"
"6376.199999988079","","","html-slider-response","425","1855130","0.0-24.0-0.0-0.17","98624","List1B","white","woman","","","","","","","","survey_race","68","","","I am similar to the average person of my race.","similar"
"4860.199999988079","","","html-slider-response","426","1859992","0.0-24.0-0.0-0.18","98624","List1B","white","woman","","","","","","","","survey_race","89","","","Being my race gives me a good feeling.","feeling"
"9606.09999999404","","","html-slider-response","427","1869600","0.0-24.0-0.0-0.19","98624","List1B","white","woman","","","","","","","","survey_race","36","","","People of my race have a lot in common with each other.","common"
"3375.5999999940395","","","html-slider-response","428","1872978","0.0-24.0-0.0-0.20","98624","List1B","white","woman","","","","","","","","survey_race","91","","","I am glad to be my race.","glad"
"4401.700000017881","","","html-slider-response","429","1877382","0.0-24.0-0.0-0.21","98624","List1B","white","woman","","","","","","","","survey_race","70","","","I am glad to be the age I am.","filler"
"8191.800000011921","","","html-slider-response","430","1885575","0.0-24.0-0.0-0.22","98624","List1B","white","woman","","","","","","","","survey_race","10","","","People of my race are very similar to each other.","verysimilar"
"3746","","","html-slider-response","431","1889323","0.0-24.0-0.0-0.23","98624","List1B","white","woman","","","","","","","","survey_race","95","","","I think that my race has a lot to be proud of.","proud"
"10050.09999999404","","","html-slider-response","432","1899375","0.0-24.0-0.0-0.24","98624","List1B","white","woman","","","","","","","","survey_race","81","","","People my age have a lot in common with each other.","filler"
"4220.299999982119","","","html-slider-response","433","1903597","0.0-24.0-0.0-0.25","98624","List1B","white","woman","","","","","","","","survey_race","88","","","I feel a bond with my race.","bond"
"5227.9000000059605","","","html-slider-response","434","1908826","0.0-24.0-0.0-0.26","98624","List1B","white","woman","","","","","","","","survey_race","24","","","Getting older does not worry me.","filler"
"4630","","","html-slider-response","435","1913458","0.0-24.0-0.0-0.27","98624","List1B","white","woman","","","","","","","","survey_race","77","","","I feel solidarity with my race.","solidarity"
"6356.199999988079","","","html-slider-response","436","1919816","0.0-24.0-1.0-0.0","98624","List1B","white","woman","","","","","","","","survey_gender","30","","","I consider myself a highly empathetic person.","filler"
"5725.5","","","html-slider-response","437","1925544","0.0-24.0-1.0-0.1","98624","List1B","white","woman","","","","","","","","survey_gender","89","","","I often think about my actions.","filler"
"3846","","","html-slider-response","438","1929392","0.0-24.0-1.0-0.2","98624","List1B","white","woman","","","","","","","","survey_gender","90","","","Being around my friends gives me a good feeling.","filler"
"4540.5999999940395","","","html-slider-response","439","1933934","0.0-24.0-1.0-0.3","98624","List1B","white","woman","","","","","","","","survey_gender","100","","","I am glad to be my gender.","glad"
"3459.5999999940395","","","html-slider-response","440","1937395","0.0-24.0-1.0-0.4","98624","List1B","white","woman","","","","","","","","survey_gender","100","","","Being my gender is an important part of how I see myself.","important"
"4174.299999982119","","","html-slider-response","441","1941571","0.0-24.0-1.0-0.5","98624","List1B","white","woman","","","","","","","","survey_gender","100","","","It is pleasant to be my gender.","pleasant"
"6428","","","html-slider-response","442","1948001","0.0-24.0-1.0-0.6","98624","List1B","white","woman","","","","","","","","survey_gender","15","","","My friends have a lot in common with each other.","filler"
"11370.200000017881","","","html-slider-response","443","1959373","0.0-24.0-1.0-0.7","98624","List1B","white","woman","","","","","","","","survey_gender","54","","","I think that my gender has a lot to be proud of.","proud"
"3342.199999988079","","","html-slider-response","444","1962717","0.0-24.0-1.0-0.8","98624","List1B","white","woman","","","","","","","","survey_gender","80","","","I feel solidarity with my friends.","filler"
"3632.300000011921","","","html-slider-response","445","1966351","0.0-24.0-1.0-0.9","98624","List1B","white","woman","","","","","","","","survey_gender","88","","","I feel a bond with my friends.","filler"
"6700","","","html-slider-response","446","1973052","0.0-24.0-1.0-0.10","98624","List1B","white","woman","","","","","","","","survey_gender","16","","","Most of the friends in my life are very similar to me.","filler"
"4507.699999988079","","","html-slider-response","447","1977562","0.0-24.0-1.0-0.11","98624","List1B","white","woman","","","","","","","","survey_gender","96","","","My friends understand me.","filler"
"5050","","","html-slider-response","448","1982614","0.0-24.0-1.0-0.12","98624","List1B","white","woman","","","","","","","","survey_gender","69","","","I often think about the fact that I am my gender.","often"
"2777.5","","","html-slider-response","449","1985394","0.0-24.0-1.0-0.13","98624","List1B","white","woman","","","","","","","","survey_gender","100","","","Being my gender gives me a good feeling.","feeling"
"3468.9000000059605","","","html-slider-response","450","1988865","0.0-24.0-1.0-0.14","98624","List1B","white","woman","","","","","","","","survey_gender","0","","","Routine is not important to me.","filler"
"5160.9000000059605","","","html-slider-response","451","1994026","0.0-24.0-1.0-0.15","98624","List1B","white","woman","","","","","","","","survey_gender","12","","","I am similar to the average person of my gender.","similar"
"5445.800000011921","","","html-slider-response","452","1999473","0.0-24.0-1.0-0.16","98624","List1B","white","woman","","","","","","","","survey_gender","25","","","I have a lot in common with the average person of my gender.","average"
"3474","","","html-slider-response","453","2002949","0.0-24.0-1.0-0.17","98624","List1B","white","woman","","","","","","","","survey_gender","100","","","The fact that I am my gender is an important part of my identity.","identity"
"3870.699999988079","","","html-slider-response","454","2006821","0.0-24.0-1.0-0.18","98624","List1B","white","woman","","","","","","","","survey_gender","23","","","People of my gender have a lot in common with each other.","common"
"3362","","","html-slider-response","455","2010185","0.0-24.0-1.0-0.19","98624","List1B","white","woman","","","","","","","","survey_gender","93","","","I am glad to have the friends that I have.","filler"
"7314.199999988079","","","html-slider-response","456","2017501","0.0-24.0-1.0-0.20","98624","List1B","white","woman","","","","","","","","survey_gender","6","","","I feel solidarity with my gender.","solidarity"
"2891.800000011921","","","html-slider-response","457","2020394","0.0-24.0-1.0-0.21","98624","List1B","white","woman","","","","","","","","survey_gender","100","","","Family is not more important to me than friendship.","filler"
"5330.5999999940395","","","html-slider-response","458","2025726","0.0-24.0-1.0-0.22","98624","List1B","white","woman","","","","","","","","survey_gender","60","","","I would say I am an animal person.","filler"
"8545.90000000596","","","html-slider-response","459","2034274","0.0-24.0-1.0-0.23","98624","List1B","white","woman","","","","","","","","survey_gender","86","","","I feel committed to my gender.","committed"
"4155.9000000059605","","","html-slider-response","460","2038432","0.0-24.0-1.0-0.24","98624","List1B","white","woman","","","","","","","","survey_gender","25","","","I have a lot in common with my friends.","filler"
"6709.699999988079","","","html-slider-response","461","2045144","0.0-24.0-1.0-0.25","98624","List1B","white","woman","","","","","","","","survey_gender","0","","","People of my gender are very similar to each other.","verysimilar"
"3273.699999988079","","","html-slider-response","462","2048419","0.0-24.0-1.0-0.26","98624","List1B","white","woman","","","","","","","","survey_gender","73","","","I feel a bond with my gender.","bond"
"6014.699999988079","","","html-slider-response","463","2054435","0.0-24.0-1.0-0.27","98624","List1B","white","woman","","","","","","","","survey_gender","25","","","It is not always easy for people to know what I am thinking.","filler"
"4922.799999982119","","","survey-text","464","2059361","0.0-25.0","98624","List1B","white","woman","","","","","{""Q0"":""615de35472bb39478229a612""}","","","worker_id","","","","",""
"29787.5","","","external-html","465","2089418","0.0-26.0","98624","List1B","white","woman","debrief.html","","","","","","","","","","","",""
