rt,stimulus,button_pressed,trial_type,trial_index,time_elapsed,internal_node_id,subject,list,ppt_race,ppt_gender,url,first_guess,correct,key_press,responses,image_type,phrase_type,test_part,response,stimulus1,stimulus2,question_type,survey_item
2761.8,Welcome to the experiment. Press Continue to begin.,0,html-button-response,0,2767,0.0-0.0,98661,List2B,black,woman,,,,,,,,,,,,,
89804,,,external-html,1,93726,0.0-1.0,98661,List2B,black,woman,consent.html,,,,,,,,,,,,
221933.5,"<p>On the next page, you will see portraits of 8 people and their names.</p><p>Your first task is to take a few minutes to memorise the names of these people.</p><p>You will have to recall their names during the rest of the experiment, so it is</p><p>essential that you try to memorise these people and their names as best as you can.</p><br><p><strong>You will then be tested on your memory of these names and portraits.</strong></p><br><p>The experiment will start after you have completed this memory test.</p><br><p>Ready?</p>",0,html-button-response,2,315662,0.0-2.0,98661,List2B,black,woman,,,,,,,,,,,,,
207167.1,"<img src='img/portrait_matrix_list2.jpg' style='width:900px;height:500px;''></img><p>If you have memorised all the portraits and names and are ready to start, press Continue.</p><p><strong>Please note: Your memory of these faces will be tested 4 times during this experiment.</strong></p>",0,html-button-response,3,523836,0.0-3.0-0.0,98661,List2B,black,woman,,,,,,,,,,,,,
2134.1,"<img src=""portrait/BW2.jpg""style=""height:400px;""></img>",2,html-button-response,4,526977,0.0-3.0-1.0,98661,List2B,black,woman,,TRUE,2,,,,,,,,,,
null,CORRECT,,html-keyboard-response,5,528496,0.0-3.0-2.0-0.0,98661,List2B,black,woman,,,,null,,,,,,,,,
6968.2,"<img src=""portrait/WM2.jpg""style=""height:400px;""></img>",4,html-button-response,6,535467,0.0-3.0-4.0,98661,List2B,black,woman,,TRUE,7,,,,,,,,,,
3134.4,"<img src=""portrait/WM2.jpg""style=""height:400px;""></img>",6,html-button-response,7,539617,0.0-3.0-6.0-0.0,98661,List2B,black,woman,,FALSE,7,,,,,,,,,,
null,INCORRECT,,html-keyboard-response,8,541145,0.0-3.0-6.0-2.0-0.0,98661,List2B,black,woman,,,,null,,,,,,,,,
6703,"<img src=""portrait/BM2.jpg""style=""height:400px;""></img>",5,html-button-response,9,547850,0.0-3.0-7.0,98661,List2B,black,woman,,TRUE,5,,,,,,,,,,
null,CORRECT,,html-keyboard-response,10,549364,0.0-3.0-8.0-0.0,98661,List2B,black,woman,,,,null,,,,,,,,,
12867.3,"<img src=""portrait/BW1.jpg""style=""height:400px;""></img>",0,html-button-response,11,562233,0.0-3.0-10.0,98661,List2B,black,woman,,TRUE,0,,,,,,,,,,
null,CORRECT,,html-keyboard-response,12,563759,0.0-3.0-11.0-0.0,98661,List2B,black,woman,,,,null,,,,,,,,,
13033.6,"<img src=""portrait/WW1.jpg""style=""height:400px;""></img>",1,html-button-response,13,576795,0.0-3.0-13.0,98661,List2B,black,woman,,TRUE,1,,,,,,,,,,
null,CORRECT,,html-keyboard-response,14,578314,0.0-3.0-14.0-0.0,98661,List2B,black,woman,,,,null,,,,,,,,,
4094,"<img src=""portrait/WM1.jpg""style=""height:400px;""></img>",6,html-button-response,15,582410,0.0-3.0-16.0,98661,List2B,black,woman,,TRUE,6,,,,,,,,,,
null,CORRECT,,html-keyboard-response,16,583940,0.0-3.0-17.0-0.0,98661,List2B,black,woman,,,,null,,,,,,,,,
5194.6,"<img src=""portrait/WW2.jpg""style=""height:400px;""></img>",3,html-button-response,17,589137,0.0-3.0-19.0,98661,List2B,black,woman,,TRUE,3,,,,,,,,,,
null,CORRECT,,html-keyboard-response,18,590668,0.0-3.0-20.0-0.0,98661,List2B,black,woman,,,,null,,,,,,,,,
6106.1,"<img src=""portrait/BM1.jpg""style=""height:400px;""></img>",4,html-button-response,19,596776,0.0-3.0-22.0,98661,List2B,black,woman,,TRUE,4,,,,,,,,,,
null,CORRECT,,html-keyboard-response,20,598303,0.0-3.0-23.0-0.0,98661,List2B,black,woman,,,,null,,,,,,,,,
5205,<p>You got 7 out of 8 right first time. Press Continue.</p>,0,html-button-response,21,603510,0.0-3.0-25.0,98661,List2B,black,woman,,,,,,,,,,,,,
6337.6,"As you did not score 100%, the memory game will repeat. Press Continue.",0,html-button-response,22,610862,0.0-3.0-26.0-0.0,98661,List2B,black,woman,,,,,,,,,,,,,
31497.7,"<img src='img/portrait_matrix_list2.jpg' style='width:900px;height:500px;''></img><p>If you have memorised all the portraits and names and are ready to start, press Continue.</p><p><strong>Please note: Your memory of these faces will be tested 4 times during this experiment.</strong></p>",0,html-button-response,23,643377,0.0-3.1-0.1,98661,List2B,black,woman,,,,,,,,,,,,,
7556.4,"<img src=""portrait/BW2.jpg""style=""height:400px;""></img>",2,html-button-response,24,651952,0.0-3.1-1.1,98661,List2B,black,woman,,TRUE,2,,,,,,,,,,
332.7,CORRECT,,html-keyboard-response,25,653464,0.0-3.1-2.1-0.1,98661,List2B,black,woman,,,,32,,,,,,,,,
1877.9,"<img src=""portrait/WM2.jpg""style=""height:400px;""></img>",7,html-button-response,26,655344,0.0-3.1-4.1,98661,List2B,black,woman,,TRUE,7,,,,,,,,,,
null,CORRECT,,html-keyboard-response,27,656862,0.0-3.1-5.1-0.1,98661,List2B,black,woman,,,,null,,,,,,,,,
1910.5,"<img src=""portrait/BM2.jpg""style=""height:400px;""></img>",5,html-button-response,28,658774,0.0-3.1-7.1,98661,List2B,black,woman,,TRUE,5,,,,,,,,,,
null,CORRECT,,html-keyboard-response,29,660292,0.0-3.1-8.1-0.1,98661,List2B,black,woman,,,,null,,,,,,,,,
1914,"<img src=""portrait/BW1.jpg""style=""height:400px;""></img>",0,html-button-response,30,662208,0.0-3.1-10.1,98661,List2B,black,woman,,TRUE,0,,,,,,,,,,
null,CORRECT,,html-keyboard-response,31,663730,0.0-3.1-11.1-0.1,98661,List2B,black,woman,,,,null,,,,,,,,,
12736.2,"<img src=""portrait/WW1.jpg""style=""height:400px;""></img>",1,html-button-response,32,676468,0.0-3.1-13.1,98661,List2B,black,woman,,TRUE,1,,,,,,,,,,
null,CORRECT,,html-keyboard-response,33,677994,0.0-3.1-14.1-0.1,98661,List2B,black,woman,,,,null,,,,,,,,,
2354.4,"<img src=""portrait/WM1.jpg""style=""height:400px;""></img>",6,html-button-response,34,680351,0.0-3.1-16.1,98661,List2B,black,woman,,TRUE,6,,,,,,,,,,
null,CORRECT,,html-keyboard-response,35,681875,0.0-3.1-17.1-0.1,98661,List2B,black,woman,,,,null,,,,,,,,,
1390.2,"<img src=""portrait/WW2.jpg""style=""height:400px;""></img>",3,html-button-response,36,683267,0.0-3.1-19.1,98661,List2B,black,woman,,TRUE,3,,,,,,,,,,
null,CORRECT,,html-keyboard-response,37,684783,0.0-3.1-20.1-0.1,98661,List2B,black,woman,,,,null,,,,,,,,,
1607.4,"<img src=""portrait/BM1.jpg""style=""height:400px;""></img>",4,html-button-response,38,686393,0.0-3.1-22.1,98661,List2B,black,woman,,TRUE,4,,,,,,,,,,
null,CORRECT,,html-keyboard-response,39,687925,0.0-3.1-23.1-0.1,98661,List2B,black,woman,,,,null,,,,,,,,,
1394.9,<p>You got 8 out of 8 right first time. Press Continue.</p>,0,html-button-response,40,689322,0.0-3.1-25.1,98661,List2B,black,woman,,,,,,,,,,,,,
62931.3,"<p>In this experiment, you will view photographs of the people from the memory game interacting.</p><p>By using the <strong>exact</strong> phrase given <i>after</i> the photograph appears and recalling the correct names of the people in the photographs, form a sentence describing the interaction. You do not need to capitalise names.</p><p>Type your answer in the space provided. Please complete every sentence before moving onto the next trial.</p><p>You will only have a few seconds to memorise each given photograph and phrase before you can respond, so try your best to focus.</p><p>An example is given below. Press 'Continue' when you are ready.</p><img src='img/speaking_example.jpg' style='width:800px;height:460px;''></img>",0,html-button-response,41,753267,0.0-4.0,98661,List2B,black,woman,,,,,,,,,,,,,
2810,"<p>Before the experiment starts, you will watch two example trials. Press 'Continue'.</p>",0,html-button-response,42,757079,0.0-5.0,98661,List2B,black,woman,,,,,,,,,,,,,
null,<img src='img/play_eg.gif' style='height:400px;''></img>,,html-keyboard-response,43,760103,0.0-6.0,98661,List2B,black,woman,,,,null,,,,,,,,,
null,<p>is playing with</p>,,html-keyboard-response,44,762106,0.0-7.0,98661,List2B,black,woman,,,,null,,,,,,,,,
4299.4,<p><b>Answer:</b> jane is playing with ruth</p>,0,html-button-response,45,766406,0.0-8.0,98661,List2B,black,woman,,,,,,,,,,,,,
null,<img src='img/dance_eg.gif' style='height:400px;''></img>,,html-keyboard-response,46,769424,0.0-9.0,98661,List2B,black,woman,,,,null,,,,,,,,,
null,<p>is being entertained by</p>,,html-keyboard-response,47,771436,0.0-10.0,98661,List2B,black,woman,,,,null,,,,,,,,,
6394.3,<p><b>Answer:</b> fred is being entertained by mike</p>,0,html-button-response,48,777831,0.0-11.0,98661,List2B,black,woman,,,,,,,,,,,,,
15776.3,"<p>Ready to start the experiment?</p><br><p><strong>Remember to describe the picture using a full sentence,</strong></p><p><strong>that combines the names of the people with the <i>exact</i> phrase given.</strong></p><p><strong>To receive full payment you must do this correctly.</strong></p><p><strong> You do not need to capitalise names or use punctuation.</strong></p><br><p>Press 'Continue' to begin.</p>",0,html-button-response,49,794616,0.0-12.0,98661,List2B,black,woman,,,,,,,,,,,,,
null,"<div style=""font-size:60px;"">+</div>",,html-keyboard-response,50,796133,0.0-13.0-0.0,98661,List2B,black,woman,,,,null,,,,,,,,,
null,"<img src=""stim_listB/touch4.gif""style=""height:400px;""></stim_listB>",,html-keyboard-response,51,798141,0.0-13.0-1.0,98661,List2B,black,woman,,,,null,,,,,,,,,
null,is being touched by,,html-keyboard-response,52,800158,0.0-13.0-2.0,98661,List2B,black,woman,,,,null,,,,,,,,,
29977.3,,,survey-text,53,830140,0.0-13.0-3.0,98661,List2B,black,woman,,,,,"{""Q0"":""kate is high fiving fred ""}","<img src=""stim_listB/touch4.gif""style=""height:400px;""></stim_listB>",is being touched by,,,,,,
null,"<div style=""font-size:60px;"">+</div>",,html-keyboard-response,54,830642,0.0-13.0-0.1,98661,List2B,black,woman,,,,null,,,,,,,,,
null,"<img src=""stim_listB/copy7.gif""style=""height:400px;""></stim_listB>",,html-keyboard-response,55,832644,0.0-13.0-1.1,98661,List2B,black,woman,,,,null,,,,,,,,,
null,is copying,,html-keyboard-response,56,834650,0.0-13.0-2.1,98661,List2B,black,woman,,,,null,,,,,,,,,
51803.1,,,survey-text,57,886456,0.0-13.0-3.1,98661,List2B,black,woman,,,,,"{""Q0"":""beth is holding hands with jane ""}","<img src=""stim_listB/copy7.gif""style=""height:400px;""></stim_listB>",is copying,,,,,,
null,"<div style=""font-size:60px;"">+</div>",,html-keyboard-response,58,886960,0.0-13.0-0.2,98661,List2B,black,woman,,,,null,,,,,,,,,
null,"<img src=""stim_listB/oppose2.gif""style=""height:400px;""></stim_listB>",,html-keyboard-response,59,888979,0.0-13.0-1.2,98661,List2B,black,woman,,,,null,,,,,,,,,
null,is being opposed by,,html-keyboard-response,60,890985,0.0-13.0-2.2,98661,List2B,black,woman,,,,null,,,,,,,,,
17750.1,,,survey-text,61,908742,0.0-13.0-3.2,98661,List2B,black,woman,,,,,"{""Q0"":""luke is play fighting with ruth ""}","<img src=""stim_listB/oppose2.gif""style=""height:400px;""></stim_listB>",is being opposed by,,,,,,
null,"<div style=""font-size:60px;"">+</div>",,html-keyboard-response,62,909258,0.0-13.0-0.3,98661,List2B,black,woman,,,,null,,,,,,,,,
null,"<img src=""stim_listB/copy1.gif""style=""height:400px;""></stim_listB>",,html-keyboard-response,63,911262,0.0-13.0-1.3,98661,List2B,black,woman,,,,null,,,,,,,,,
null,is copying,,html-keyboard-response,64,913276,0.0-13.0-2.3,98661,List2B,black,woman,,,,null,,,,,,,,,
22108.4,,,survey-text,65,935387,0.0-13.0-3.3,98661,List2B,black,woman,,,,,"{""Q0"":""dave is playing with ruth ""}","<img src=""stim_listB/copy1.gif""style=""height:400px;""></stim_listB>",is copying,,,,,,
null,"<div style=""font-size:60px;"">+</div>",,html-keyboard-response,66,935890,0.0-13.0-0.4,98661,List2B,black,woman,,,,null,,,,,,,,,
null,"<img src=""stim_listB/shout7.gif""style=""height:400px;""></stim_listB>",,html-keyboard-response,67,937901,0.0-13.0-1.4,98661,List2B,black,woman,,,,null,,,,,,,,,
null,is shouting at,,html-keyboard-response,68,939916,0.0-13.0-2.4,98661,List2B,black,woman,,,,null,,,,,,,,,
18897.1,,,survey-text,69,958815,0.0-13.0-3.4,98661,List2B,black,woman,,,,,"{""Q0"":""beth is yelling at ruth ""}","<img src=""stim_listB/shout7.gif""style=""height:400px;""></stim_listB>",is shouting at,,,,,,
null,"<div style=""font-size:60px;"">+</div>",,html-keyboard-response,70,959335,0.0-13.0-0.5,98661,List2B,black,woman,,,,null,,,,,,,,,
null,"<img src=""stim_listB/copy3.gif""style=""height:400px;""></stim_listB>",,html-keyboard-response,71,961346,0.0-13.0-1.5,98661,List2B,black,woman,,,,null,,,,,,,,,
null,is copying,,html-keyboard-response,72,963352,0.0-13.0-2.5,98661,List2B,black,woman,,,,null,,,,,,,,,
30001,,,survey-text,73,993357,0.0-13.0-3.5,98661,List2B,black,woman,,,,,"{""Q0"":""mike is smiling at beth""}","<img src=""stim_listB/copy3.gif""style=""height:400px;""></stim_listB>",is copying,,,,,,
null,"<div style=""font-size:60px;"">+</div>",,html-keyboard-response,74,993862,0.0-13.0-0.6,98661,List2B,black,woman,,,,null,,,,,,,,,
null,"<img src=""stim_listB/oppose7.gif""style=""height:400px;""></stim_listB>",,html-keyboard-response,75,995875,0.0-13.0-1.6,98661,List2B,black,woman,,,,null,,,,,,,,,
null,is opposing,,html-keyboard-response,76,997883,0.0-13.0-2.6,98661,List2B,black,woman,,,,null,,,,,,,,,
33115.8,,,survey-text,77,1031003,0.0-13.0-3.6,98661,List2B,black,woman,,,,,"{""Q0"":""jane is play fighting with jane ""}","<img src=""stim_listB/oppose7.gif""style=""height:400px;""></stim_listB>",is opposing,,,,,,
null,"<div style=""font-size:60px;"">+</div>",,html-keyboard-response,78,1031520,0.0-13.0-0.7,98661,List2B,black,woman,,,,null,,,,,,,,,
null,"<img src=""stim_listB/greet2.gif""style=""height:400px;""></stim_listB>",,html-keyboard-response,79,1033536,0.0-13.0-1.7,98661,List2B,black,woman,,,,null,,,,,,,,,
null,is being greeted by,,html-keyboard-response,80,1035543,0.0-13.0-2.7,98661,List2B,black,woman,,,,null,,,,,,,,,
37788.9,,,survey-text,81,1073335,0.0-13.0-3.7,98661,List2B,black,woman,,,,,"{""Q0"":""jane is give luck a HiFive""}","<img src=""stim_listB/greet2.gif""style=""height:400px;""></stim_listB>",is being greeted by,,,,,,
null,"<div style=""font-size:60px;"">+</div>",,html-keyboard-response,82,1073836,0.0-13.0-0.8,98661,List2B,black,woman,,,,null,,,,,,,,,
null,"<img src=""stim_listB/shout8.gif""style=""height:400px;""></stim_listB>",,html-keyboard-response,83,1075841,0.0-13.0-1.8,98661,List2B,black,woman,,,,null,,,,,,,,,
null,is being shouted at by,,html-keyboard-response,84,1077857,0.0-13.0-2.8,98661,List2B,black,woman,,,,null,,,,,,,,,
21127.2,,,survey-text,85,1098988,0.0-13.0-3.8,98661,List2B,black,woman,,,,,"{""Q0"":""i didnt see the answer it was to fast""}","<img src=""stim_listB/shout8.gif""style=""height:400px;""></stim_listB>",is being shouted at by,,,,,,
null,"<div style=""font-size:60px;"">+</div>",,html-keyboard-response,86,1099498,0.0-13.0-0.9,98661,List2B,black,woman,,,,null,,,,,,,,,
null,"<img src=""stim_listB/touch1.gif""style=""height:400px;""></stim_listB>",,html-keyboard-response,87,1101505,0.0-13.0-1.9,98661,List2B,black,woman,,,,null,,,,,,,,,
null,is touching,,html-keyboard-response,88,1103509,0.0-13.0-2.9,98661,List2B,black,woman,,,,null,,,,,,,,,
27416.3,,,survey-text,89,1130929,0.0-13.0-3.9,98661,List2B,black,woman,,,,,"{""Q0"":""jane is high fiving dave ""}","<img src=""stim_listB/touch1.gif""style=""height:400px;""></stim_listB>",is touching,,,,,,
null,"<div style=""font-size:60px;"">+</div>",,html-keyboard-response,90,1131438,0.0-13.0-0.10,98661,List2B,black,woman,,,,null,,,,,,,,,
null,"<img src=""stim_listB/look3.gif""style=""height:400px;""></stim_listB>",,html-keyboard-response,91,1133452,0.0-13.0-1.10,98661,List2B,black,woman,,,,null,,,,,,,,,
null,is looking at,,html-keyboard-response,92,1135468,0.0-13.0-2.10,98661,List2B,black,woman,,,,null,,,,,,,,,
10293.3,,,survey-text,93,1145765,0.0-13.0-3.10,98661,List2B,black,woman,,,,,"{""Q0"":""fred is looking at beth""}","<img src=""stim_listB/look3.gif""style=""height:400px;""></stim_listB>",is looking at,,,,,,
null,"<div style=""font-size:60px;"">+</div>",,html-keyboard-response,94,1146272,0.0-13.0-0.11,98661,List2B,black,woman,,,,null,,,,,,,,,
null,"<img src=""stim_listB/look2.gif""style=""height:400px;""></stim_listB>",,html-keyboard-response,95,1148290,0.0-13.0-1.11,98661,List2B,black,woman,,,,null,,,,,,,,,
null,is being looked at by,,html-keyboard-response,96,1150292,0.0-13.0-2.11,98661,List2B,black,woman,,,,null,,,,,,,,,
17023.6,,,survey-text,97,1167320,0.0-13.0-3.11,98661,List2B,black,woman,,,,,"{""Q0"":""jane is looking at dave ""}","<img src=""stim_listB/look2.gif""style=""height:400px;""></stim_listB>",is being looked at by,,,,,,
null,"<div style=""font-size:60px;"">+</div>",,html-keyboard-response,98,1167836,0.0-13.0-0.12,98661,List2B,black,woman,,,,null,,,,,,,,,
null,"<img src=""stim_listB/touch7.gif""style=""height:400px;""></stim_listB>",,html-keyboard-response,99,1169841,0.0-13.0-1.12,98661,List2B,black,woman,,,,null,,,,,,,,,
null,is touching,,html-keyboard-response,100,1171855,0.0-13.0-2.12,98661,List2B,black,woman,,,,null,,,,,,,,,
17948.1,,,survey-text,101,1189807,0.0-13.0-3.12,98661,List2B,black,woman,,,,,"{""Q0"":""jane is touching dave ""}","<img src=""stim_listB/touch7.gif""style=""height:400px;""></stim_listB>",is touching,,,,,,
null,"<div style=""font-size:60px;"">+</div>",,html-keyboard-response,102,1190322,0.0-13.0-0.13,98661,List2B,black,woman,,,,null,,,,,,,,,
null,"<img src=""stim_listB/hug6.gif""style=""height:400px;""></stim_listB>",,html-keyboard-response,103,1192334,0.0-13.0-1.13,98661,List2B,black,woman,,,,null,,,,,,,,,
null,is being hugged by,,html-keyboard-response,104,1194340,0.0-13.0-2.13,98661,List2B,black,woman,,,,null,,,,,,,,,
14963.8,,,survey-text,105,1209307,0.0-13.0-3.13,98661,List2B,black,woman,,,,,"{""Q0"":""mike is being hugged by dave""}","<img src=""stim_listB/hug6.gif""style=""height:400px;""></stim_listB>",is being hugged by,,,,,,
null,"<div style=""font-size:60px;"">+</div>",,html-keyboard-response,106,1209817,0.0-13.0-0.14,98661,List2B,black,woman,,,,null,,,,,,,,,
null,"<img src=""stim_listB/touch5.gif""style=""height:400px;""></stim_listB>",,html-keyboard-response,107,1211825,0.0-13.0-1.14,98661,List2B,black,woman,,,,null,,,,,,,,,
null,is touching,,html-keyboard-response,108,1213842,0.0-13.0-2.14,98661,List2B,black,woman,,,,null,,,,,,,,,
10657.8,,,survey-text,109,1224503,0.0-13.0-3.14,98661,List2B,black,woman,,,,,"{""Q0"":""mike is touching dave""}","<img src=""stim_listB/touch5.gif""style=""height:400px;""></stim_listB>",is touching,,,,,,
null,"<div style=""font-size:60px;"">+</div>",,html-keyboard-response,110,1225021,0.0-13.0-0.15,98661,List2B,black,woman,,,,null,,,,,,,,,
null,"<img src=""stim_listB/oppose8.gif""style=""height:400px;""></stim_listB>",,html-keyboard-response,111,1227044,0.0-13.0-1.15,98661,List2B,black,woman,,,,null,,,,,,,,,
null,is being opposed by,,html-keyboard-response,112,1229057,0.0-13.0-2.15,98661,List2B,black,woman,,,,null,,,,,,,,,
28552.4,,,survey-text,113,1257613,0.0-13.0-3.15,98661,List2B,black,woman,,,,,"{""Q0"":""beth is being opposed by ruth""}","<img src=""stim_listB/oppose8.gif""style=""height:400px;""></stim_listB>",is being opposed by,,,,,,
null,"<div style=""font-size:60px;"">+</div>",,html-keyboard-response,114,1258118,0.0-13.0-0.16,98661,List2B,black,woman,,,,null,,,,,,,,,
null,"<img src=""stim_listB/greet4.gif""style=""height:400px;""></stim_listB>",,html-keyboard-response,115,1260137,0.0-13.0-1.16,98661,List2B,black,woman,,,,null,,,,,,,,,
null,is being greeted by,,html-keyboard-response,116,1262152,0.0-13.0-2.16,98661,List2B,black,woman,,,,null,,,,,,,,,
18596.1,,,survey-text,117,1280751,0.0-13.0-3.16,98661,List2B,black,woman,,,,,"{""Q0"":""kate is waving at fred""}","<img src=""stim_listB/greet4.gif""style=""height:400px;""></stim_listB>",is being greeted by,,,,,,
null,"<div style=""font-size:60px;"">+</div>",,html-keyboard-response,118,1281267,0.0-13.0-0.17,98661,List2B,black,woman,,,,null,,,,,,,,,
null,"<img src=""stim_listB/challenge4.gif""style=""height:400px;""></stim_listB>",,html-keyboard-response,119,1283283,0.0-13.0-1.17,98661,List2B,black,woman,,,,null,,,,,,,,,
null,is being challenged by,,html-keyboard-response,120,1285296,0.0-13.0-2.17,98661,List2B,black,woman,,,,null,,,,,,,,,
34847.9,,,survey-text,121,1320146,0.0-13.0-3.17,98661,List2B,black,woman,,,,,"{""Q0"":""kate is being challenged by fred""}","<img src=""stim_listB/challenge4.gif""style=""height:400px;""></stim_listB>",is being challenged by,,,,,,
null,"<div style=""font-size:60px;"">+</div>",,html-keyboard-response,122,1320658,0.0-13.0-0.18,98661,List2B,black,woman,,,,null,,,,,,,,,
null,"<img src=""stim_listB/look7.gif""style=""height:400px;""></stim_listB>",,html-keyboard-response,123,1322670,0.0-13.0-1.18,98661,List2B,black,woman,,,,null,,,,,,,,,
null,is looking at,,html-keyboard-response,124,1324687,0.0-13.0-2.18,98661,List2B,black,woman,,,,null,,,,,,,,,
7007.4,,,survey-text,125,1331698,0.0-13.0-3.18,98661,List2B,black,woman,,,,,"{""Q0"":""kate is looking at beth""}","<img src=""stim_listB/look7.gif""style=""height:400px;""></stim_listB>",is looking at,,,,,,
null,"<div style=""font-size:60px;"">+</div>",,html-keyboard-response,126,1332216,0.0-13.0-0.19,98661,List2B,black,woman,,,,null,,,,,,,,,
null,"<img src=""stim_listB/look5.gif""style=""height:400px;""></stim_listB>",,html-keyboard-response,127,1334219,0.0-13.0-1.19,98661,List2B,black,woman,,,,null,,,,,,,,,
null,is looking at,,html-keyboard-response,128,1336225,0.0-13.0-2.19,98661,List2B,black,woman,,,,null,,,,,,,,,
4259.8,,,survey-text,129,1340489,0.0-13.0-3.19,98661,List2B,black,woman,,,,,"{""Q0"":""luke is looking at fred""}","<img src=""stim_listB/look5.gif""style=""height:400px;""></stim_listB>",is looking at,,,,,,
1994.8,"<img src='img/portrait_matrix_list2.jpg' style='width:900px;height:500px;''></img><p>If you have memorised all the portraits and names and are ready to start, press Continue.</p><p><strong>Please note: Your memory of these faces will be tested 4 times during this experiment.</strong></p>",0,html-button-response,130,1342486,0.0-14.0-0.0,98661,List2B,black,woman,,,,,,,,,,,,,
1994.8,"<img src=""portrait/BM2.jpg""style=""height:400px;""></img>",5,html-button-response,131,1345485,0.0-14.0-1.0,98661,List2B,black,woman,,TRUE,5,,,,,,,,,,
null,CORRECT,,html-keyboard-response,132,1347005,0.0-14.0-2.0-0.0,98661,List2B,black,woman,,,,null,,,,,,,,,
1955.9,"<img src=""portrait/BW2.jpg""style=""height:400px;""></img>",2,html-button-response,133,1348963,0.0-14.0-4.0,98661,List2B,black,woman,,TRUE,2,,,,,,,,,,
null,CORRECT,,html-keyboard-response,134,1350481,0.0-14.0-5.0-0.0,98661,List2B,black,woman,,,,null,,,,,,,,,
1561.1,"<img src=""portrait/WM2.jpg""style=""height:400px;""></img>",7,html-button-response,135,1352044,0.0-14.0-7.0,98661,List2B,black,woman,,TRUE,7,,,,,,,,,,
null,CORRECT,,html-keyboard-response,136,1353562,0.0-14.0-8.0-0.0,98661,List2B,black,woman,,,,null,,,,,,,,,
5169.9,"<img src=""portrait/WW1.jpg""style=""height:400px;""></img>",0,html-button-response,137,1358735,0.0-14.0-10.0,98661,List2B,black,woman,,TRUE,1,,,,,,,,,,
1458.5,"<img src=""portrait/WW1.jpg""style=""height:400px;""></img>",1,html-button-response,138,1361196,0.0-14.0-12.0-0.0,98661,List2B,black,woman,,FALSE,1,,,,,,,,,,
null,CORRECT,,html-keyboard-response,139,1362705,0.0-14.0-12.0-1.0-0.0,98661,List2B,black,woman,,,,null,,,,,,,,,
3061.5,"<img src=""portrait/BW1.jpg""style=""height:400px;""></img>",0,html-button-response,140,1365768,0.0-14.0-13.0,98661,List2B,black,woman,,TRUE,0,,,,,,,,,,
null,CORRECT,,html-keyboard-response,141,1367296,0.0-14.0-14.0-0.0,98661,List2B,black,woman,,,,null,,,,,,,,,
2869.7,"<img src=""portrait/WM1.jpg""style=""height:400px;""></img>",6,html-button-response,142,1370168,0.0-14.0-16.0,98661,List2B,black,woman,,TRUE,6,,,,,,,,,,
null,CORRECT,,html-keyboard-response,143,1371677,0.0-14.0-17.0-0.0,98661,List2B,black,woman,,,,null,,,,,,,,,
1328.6,"<img src=""portrait/WW2.jpg""style=""height:400px;""></img>",3,html-button-response,144,1373008,0.0-14.0-19.0,98661,List2B,black,woman,,TRUE,3,,,,,,,,,,
null,CORRECT,,html-keyboard-response,145,1374529,0.0-14.0-20.0-0.0,98661,List2B,black,woman,,,,null,,,,,,,,,
1099.9,"<img src=""portrait/BM1.jpg""style=""height:400px;""></img>",4,html-button-response,146,1375632,0.0-14.0-22.0,98661,List2B,black,woman,,TRUE,4,,,,,,,,,,
null,CORRECT,,html-keyboard-response,147,1377162,0.0-14.0-23.0-0.0,98661,List2B,black,woman,,,,null,,,,,,,,,
11921.7,<p>You got 7 out of 8 right first time. Press Continue.</p>,0,html-button-response,148,1389086,0.0-14.0-25.0,98661,List2B,black,woman,,,,,,,,,,,,,
2650.2,"As you did not score 100%, the memory game will repeat. Press Continue.",0,html-button-response,149,1392744,0.0-14.0-26.0-0.0,98661,List2B,black,woman,,,,,,,,,,,,,
1905.9,"<img src='img/portrait_matrix_list2.jpg' style='width:900px;height:500px;''></img><p>If you have memorised all the portraits and names and are ready to start, press Continue.</p><p><strong>Please note: Your memory of these faces will be tested 4 times during this experiment.</strong></p>",0,html-button-response,150,1395656,0.0-14.1-0.1,98661,List2B,black,woman,,,,,,,,,,,,,
2627.8,"<img src=""portrait/BM2.jpg""style=""height:400px;""></img>",5,html-button-response,151,1399306,0.0-14.1-1.1,98661,List2B,black,woman,,TRUE,5,,,,,,,,,,
null,CORRECT,,html-keyboard-response,152,1400821,0.0-14.1-2.1-0.1,98661,List2B,black,woman,,,,null,,,,,,,,,
1949.1,"<img src=""portrait/BW2.jpg""style=""height:400px;""></img>",2,html-button-response,153,1402773,0.0-14.1-4.1,98661,List2B,black,woman,,TRUE,2,,,,,,,,,,
null,CORRECT,,html-keyboard-response,154,1404299,0.0-14.1-5.1-0.1,98661,List2B,black,woman,,,,null,,,,,,,,,
5016.6,"<img src=""portrait/WM2.jpg""style=""height:400px;""></img>",7,html-button-response,155,1409318,0.0-14.1-7.1,98661,List2B,black,woman,,TRUE,7,,,,,,,,,,
null,CORRECT,,html-keyboard-response,156,1410843,0.0-14.1-8.1-0.1,98661,List2B,black,woman,,,,null,,,,,,,,,
10027.8,"<img src=""portrait/WW1.jpg""style=""height:400px;""></img>",1,html-button-response,157,1420874,0.0-14.1-10.1,98661,List2B,black,woman,,TRUE,1,,,,,,,,,,
null,CORRECT,,html-keyboard-response,158,1422384,0.0-14.1-11.1-0.1,98661,List2B,black,woman,,,,null,,,,,,,,,
22438.6,"<img src=""portrait/BW1.jpg""style=""height:400px;""></img>",0,html-button-response,159,1444825,0.0-14.1-13.1,98661,List2B,black,woman,,TRUE,0,,,,,,,,,,
null,CORRECT,,html-keyboard-response,160,1446343,0.0-14.1-14.1-0.1,98661,List2B,black,woman,,,,null,,,,,,,,,
4880.7,"<img src=""portrait/WM1.jpg""style=""height:400px;""></img>",6,html-button-response,161,1451227,0.0-14.1-16.1,98661,List2B,black,woman,,TRUE,6,,,,,,,,,,
null,CORRECT,,html-keyboard-response,162,1452754,0.0-14.1-17.1-0.1,98661,List2B,black,woman,,,,null,,,,,,,,,
2061.9,"<img src=""portrait/WW2.jpg""style=""height:400px;""></img>",3,html-button-response,163,1454818,0.0-14.1-19.1,98661,List2B,black,woman,,TRUE,3,,,,,,,,,,
null,CORRECT,,html-keyboard-response,164,1456335,0.0-14.1-20.1-0.1,98661,List2B,black,woman,,,,null,,,,,,,,,
1814.1,"<img src=""portrait/BM1.jpg""style=""height:400px;""></img>",4,html-button-response,165,1458152,0.0-14.1-22.1,98661,List2B,black,woman,,TRUE,4,,,,,,,,,,
null,CORRECT,,html-keyboard-response,166,1459676,0.0-14.1-23.1-0.1,98661,List2B,black,woman,,,,null,,,,,,,,,
1746.5,<p>You got 8 out of 8 right first time. Press Continue.</p>,0,html-button-response,167,1461426,0.0-14.1-25.1,98661,List2B,black,woman,,,,,,,,,,,,,
null,"<div style=""font-size:60px;"">+</div>",,html-keyboard-response,168,1462952,0.0-15.0-0.0,98661,List2B,black,woman,,,,null,,,,,,,,,
null,"<img src=""stim_listB/seduce1.gif""style=""height:400px;""></stim_listB>",,html-keyboard-response,169,1464968,0.0-15.0-1.0,98661,List2B,black,woman,,,,null,,,,,,,,,
null,is seducing,,html-keyboard-response,170,1466970,0.0-15.0-2.0,98661,List2B,black,woman,,,,null,,,,,,,,,
21147.5,,,survey-text,171,1488121,0.0-15.0-3.0,98661,List2B,black,woman,,,,,"{""Q0"":""jane is seducing luke""}","<img src=""stim_listB/seduce1.gif""style=""height:400px;""></stim_listB>",is seducing,,,,,,
null,"<div style=""font-size:60px;"">+</div>",,html-keyboard-response,172,1488630,0.0-15.0-0.1,98661,List2B,black,woman,,,,null,,,,,,,,,
null,"<img src=""stim_listB/challenge5.gif""style=""height:400px;""></stim_listB>",,html-keyboard-response,173,1490643,0.0-15.0-1.1,98661,List2B,black,woman,,,,null,,,,,,,,,
null,is challenging,,html-keyboard-response,174,1492654,0.0-15.0-2.1,98661,List2B,black,woman,,,,null,,,,,,,,,
64767,,,survey-text,175,1557425,0.0-15.0-3.1,98661,List2B,black,woman,,,,,"{""Q0"":""dave is challenging fred""}","<img src=""stim_listB/challenge5.gif""style=""height:400px;""></stim_listB>",is challenging,,,,,,
null,"<div style=""font-size:60px;"">+</div>",,html-keyboard-response,176,1557929,0.0-15.0-0.2,98661,List2B,black,woman,,,,null,,,,,,,,,
null,"<img src=""stim_listB/seduce6.gif""style=""height:400px;""></stim_listB>",,html-keyboard-response,177,1559943,0.0-15.0-1.2,98661,List2B,black,woman,,,,null,,,,,,,,,
null,is being seduced by,,html-keyboard-response,178,1561946,0.0-15.0-2.2,98661,List2B,black,woman,,,,null,,,,,,,,,
14041.5,,,survey-text,179,1575991,0.0-15.0-3.2,98661,List2B,black,woman,,,,,"{""Q0"":""fred is being seduced by dave ""}","<img src=""stim_listB/seduce6.gif""style=""height:400px;""></stim_listB>",is being seduced by,,,,,,
null,"<div style=""font-size:60px;"">+</div>",,html-keyboard-response,180,1576511,0.0-15.0-0.3,98661,List2B,black,woman,,,,null,,,,,,,,,
null,"<img src=""stim_listB/hug5.gif""style=""height:400px;""></stim_listB>",,html-keyboard-response,181,1578525,0.0-15.0-1.3,98661,List2B,black,woman,,,,null,,,,,,,,,
null,is hugging,,html-keyboard-response,182,1580526,0.0-15.0-2.3,98661,List2B,black,woman,,,,null,,,,,,,,,
13114.5,,,survey-text,183,1593644,0.0-15.0-3.3,98661,List2B,black,woman,,,,,"{""Q0"":""luke is hugging fred""}","<img src=""stim_listB/hug5.gif""style=""height:400px;""></stim_listB>",is hugging,,,,,,
null,"<div style=""font-size:60px;"">+</div>",,html-keyboard-response,184,1594147,0.0-15.0-0.4,98661,List2B,black,woman,,,,null,,,,,,,,,
null,"<img src=""stim_listB/kiss8.gif""style=""height:400px;""></stim_listB>",,html-keyboard-response,185,1596152,0.0-15.0-1.4,98661,List2B,black,woman,,,,null,,,,,,,,,
null,is being kissed by,,html-keyboard-response,186,1598165,0.0-15.0-2.4,98661,List2B,black,woman,,,,null,,,,,,,,,
16344.9,,,survey-text,187,1614514,0.0-15.0-3.4,98661,List2B,black,woman,,,,,"{""Q0"":""kate is kissing jane ""}","<img src=""stim_listB/kiss8.gif""style=""height:400px;""></stim_listB>",is being kissed by,,,,,,
null,"<div style=""font-size:60px;"">+</div>",,html-keyboard-response,188,1615020,0.0-15.0-0.5,98661,List2B,black,woman,,,,null,,,,,,,,,
null,"<img src=""stim_listB/shout4.gif""style=""height:400px;""></stim_listB>",,html-keyboard-response,189,1617029,0.0-15.0-1.5,98661,List2B,black,woman,,,,null,,,,,,,,,
null,is being shouted at by,,html-keyboard-response,190,1619043,0.0-15.0-2.5,98661,List2B,black,woman,,,,null,,,,,,,,,
9826.1,,,survey-text,191,1628873,0.0-15.0-3.5,98661,List2B,black,woman,,,,,"{""Q0"":""kate is yelling at mike ""}","<img src=""stim_listB/shout4.gif""style=""height:400px;""></stim_listB>",is being shouted at by,,,,,,
null,"<div style=""font-size:60px;"">+</div>",,html-keyboard-response,192,1629376,0.0-15.0-0.6,98661,List2B,black,woman,,,,null,,,,,,,,,
null,"<img src=""stim_listB/shout1.gif""style=""height:400px;""></stim_listB>",,html-keyboard-response,193,1631389,0.0-15.0-1.6,98661,List2B,black,woman,,,,null,,,,,,,,,
null,is shouting at,,html-keyboard-response,194,1633401,0.0-15.0-2.6,98661,List2B,black,woman,,,,null,,,,,,,,,
28233.3,,,survey-text,195,1661637,0.0-15.0-3.6,98661,List2B,black,woman,,,,,"{""Q0"":""luke is shouting at ruth""}","<img src=""stim_listB/shout1.gif""style=""height:400px;""></stim_listB>",is shouting at,,,,,,
null,"<div style=""font-size:60px;"">+</div>",,html-keyboard-response,196,1662154,0.0-15.0-0.7,98661,List2B,black,woman,,,,null,,,,,,,,,
null,"<img src=""stim_listB/greet5.gif""style=""height:400px;""></stim_listB>",,html-keyboard-response,197,1664163,0.0-15.0-1.7,98661,List2B,black,woman,,,,null,,,,,,,,,
null,is greeting,,html-keyboard-response,198,1666180,0.0-15.0-2.7,98661,List2B,black,woman,,,,null,,,,,,,,,
12656,,,survey-text,199,1678840,0.0-15.0-3.7,98661,List2B,black,woman,,,,,"{""Q0"":""dave is fred""}","<img src=""stim_listB/greet5.gif""style=""height:400px;""></stim_listB>",is greeting,,,,,,
null,"<div style=""font-size:60px;"">+</div>",,html-keyboard-response,200,1679348,0.0-15.0-0.8,98661,List2B,black,woman,,,,null,,,,,,,,,
null,"<img src=""stim_listB/copy8.gif""style=""height:400px;""></stim_listB>",,html-keyboard-response,201,1681356,0.0-15.0-1.8,98661,List2B,black,woman,,,,null,,,,,,,,,
null,is being copied by,,html-keyboard-response,202,1683361,0.0-15.0-2.8,98661,List2B,black,woman,,,,null,,,,,,,,,
24489.4,,,survey-text,203,1707855,0.0-15.0-3.8,98661,List2B,black,woman,,,,,"{""Q0"":""ruth is being copied by ruth""}","<img src=""stim_listB/copy8.gif""style=""height:400px;""></stim_listB>",is being copied by,,,,,,
null,"<div style=""font-size:60px;"">+</div>",,html-keyboard-response,204,1708370,0.0-15.0-0.9,98661,List2B,black,woman,,,,null,,,,,,,,,
null,"<img src=""stim_listB/challenge1.gif""style=""height:400px;""></stim_listB>",,html-keyboard-response,205,1710378,0.0-15.0-1.9,98661,List2B,black,woman,,,,null,,,,,,,,,
null,is challenging,,html-keyboard-response,206,1712388,0.0-15.0-2.9,98661,List2B,black,woman,,,,null,,,,,,,,,
11347.8,,,survey-text,207,1723739,0.0-15.0-3.9,98661,List2B,black,woman,,,,,"{""Q0"":""ruth is challenging dave ""}","<img src=""stim_listB/challenge1.gif""style=""height:400px;""></stim_listB>",is challenging,,,,,,
null,"<div style=""font-size:60px;"">+</div>",,html-keyboard-response,208,1724247,0.0-15.0-0.10,98661,List2B,black,woman,,,,null,,,,,,,,,
null,"<img src=""stim_listB/copy2.gif""style=""height:400px;""></stim_listB>",,html-keyboard-response,209,1726252,0.0-15.0-1.10,98661,List2B,black,woman,,,,null,,,,,,,,,
null,is being copied by,,html-keyboard-response,210,1728258,0.0-15.0-2.10,98661,List2B,black,woman,,,,null,,,,,,,,,
7570.7,,,survey-text,211,1735832,0.0-15.0-3.10,98661,List2B,black,woman,,,,,"{""Q0"":""jane and luke""}","<img src=""stim_listB/copy2.gif""style=""height:400px;""></stim_listB>",is being copied by,,,,,,
null,"<div style=""font-size:60px;"">+</div>",,html-keyboard-response,212,1736335,0.0-15.0-0.11,98661,List2B,black,woman,,,,null,,,,,,,,,
null,"<img src=""stim_listB/look1.gif""style=""height:400px;""></stim_listB>",,html-keyboard-response,213,1738345,0.0-15.0-1.11,98661,List2B,black,woman,,,,null,,,,,,,,,
null,is looking at,,html-keyboard-response,214,1740360,0.0-15.0-2.11,98661,List2B,black,woman,,,,null,,,,,,,,,
12547.6,,,survey-text,215,1752911,0.0-15.0-3.11,98661,List2B,black,woman,,,,,"{""Q0"":""luke is looking at ruth""}","<img src=""stim_listB/look1.gif""style=""height:400px;""></stim_listB>",is looking at,,,,,,
null,"<div style=""font-size:60px;"">+</div>",,html-keyboard-response,216,1753419,0.0-15.0-0.12,98661,List2B,black,woman,,,,null,,,,,,,,,
null,"<img src=""stim_listB/challenge3.gif""style=""height:400px;""></stim_listB>",,html-keyboard-response,217,1755430,0.0-15.0-1.12,98661,List2B,black,woman,,,,null,,,,,,,,,
null,is challenging,,html-keyboard-response,218,1757444,0.0-15.0-2.12,98661,List2B,black,woman,,,,null,,,,,,,,,
82785.6,,,survey-text,219,1840232,0.0-15.0-3.12,98661,List2B,black,woman,,,,,"{""Q0"":""Kate and Dave ""}","<img src=""stim_listB/challenge3.gif""style=""height:400px;""></stim_listB>",is challenging,,,,,,
null,"<div style=""font-size:60px;"">+</div>",,html-keyboard-response,220,1840743,0.0-15.0-0.13,98661,List2B,black,woman,,,,null,,,,,,,,,
null,"<img src=""stim_listB/hug2.gif""style=""height:400px;""></stim_listB>",,html-keyboard-response,221,1842748,0.0-15.0-1.13,98661,List2B,black,woman,,,,null,,,,,,,,,
null,is being hugged by,,html-keyboard-response,222,1844753,0.0-15.0-2.13,98661,List2B,black,woman,,,,null,,,,,,,,,
14118.7,,,survey-text,223,1858875,0.0-15.0-3.13,98661,List2B,black,woman,,,,,"{""Q0"":""jane Is Being Hugged By Dave ""}","<img src=""stim_listB/hug2.gif""style=""height:400px;""></stim_listB>",is being hugged by,,,,,,
null,"<div style=""font-size:60px;"">+</div>",,html-keyboard-response,224,1859391,0.0-15.0-0.14,98661,List2B,black,woman,,,,null,,,,,,,,,
null,"<img src=""stim_listB/oppose1.gif""style=""height:400px;""></stim_listB>",,html-keyboard-response,225,1861402,0.0-15.0-1.14,98661,List2B,black,woman,,,,null,,,,,,,,,
null,is opposing,,html-keyboard-response,226,1863414,0.0-15.0-2.14,98661,List2B,black,woman,,,,null,,,,,,,,,
6621.4,,,survey-text,227,1870039,0.0-15.0-3.14,98661,List2B,black,woman,,,,,"{""Q0"":""dave is oppsed by jane ""}","<img src=""stim_listB/oppose1.gif""style=""height:400px;""></stim_listB>",is opposing,,,,,,
null,"<div style=""font-size:60px;"">+</div>",,html-keyboard-response,228,1870558,0.0-15.0-0.15,98661,List2B,black,woman,,,,null,,,,,,,,,
null,"<img src=""stim_listB/seduce8.gif""style=""height:400px;""></stim_listB>",,html-keyboard-response,229,1872569,0.0-15.0-1.15,98661,List2B,black,woman,,,,null,,,,,,,,,
null,is being seduced by,,html-keyboard-response,230,1874571,0.0-15.0-2.15,98661,List2B,black,woman,,,,null,,,,,,,,,
25774.3,,,survey-text,231,1900349,0.0-15.0-3.15,98661,List2B,black,woman,,,,,"{""Q0"":""beth is being seduced by jane ""}","<img src=""stim_listB/seduce8.gif""style=""height:400px;""></stim_listB>",is being seduced by,,,,,,
null,"<div style=""font-size:60px;"">+</div>",,html-keyboard-response,232,1900864,0.0-15.0-0.16,98661,List2B,black,woman,,,,null,,,,,,,,,
null,"<img src=""stim_listB/kiss2.gif""style=""height:400px;""></stim_listB>",,html-keyboard-response,233,1902873,0.0-15.0-1.16,98661,List2B,black,woman,,,,null,,,,,,,,,
null,is being kissed by,,html-keyboard-response,234,1904881,0.0-15.0-2.16,98661,List2B,black,woman,,,,null,,,,,,,,,
8464.5,,,survey-text,235,1913349,0.0-15.0-3.16,98661,List2B,black,woman,,,,,"{""Q0"":""jane is being kissed by dave ""}","<img src=""stim_listB/kiss2.gif""style=""height:400px;""></stim_listB>",is being kissed by,,,,,,
null,"<div style=""font-size:60px;"">+</div>",,html-keyboard-response,236,1913863,0.0-15.0-0.17,98661,List2B,black,woman,,,,null,,,,,,,,,
null,"<img src=""stim_listB/greet8.gif""style=""height:400px;""></stim_listB>",,html-keyboard-response,237,1915870,0.0-15.0-1.17,98661,List2B,black,woman,,,,null,,,,,,,,,
null,is being greeted by,,html-keyboard-response,238,1917877,0.0-15.0-2.17,98661,List2B,black,woman,,,,null,,,,,,,,,
16622.9,,,survey-text,239,1934503,0.0-15.0-3.17,98661,List2B,black,woman,,,,,"{""Q0"":""kate is being greeted by beth""}","<img src=""stim_listB/greet8.gif""style=""height:400px;""></stim_listB>",is being greeted by,,,,,,
null,"<div style=""font-size:60px;"">+</div>",,html-keyboard-response,240,1935016,0.0-15.0-0.18,98661,List2B,black,woman,,,,null,,,,,,,,,
null,"<img src=""stim_listB/kiss6.gif""style=""height:400px;""></stim_listB>",,html-keyboard-response,241,1937017,0.0-15.0-1.18,98661,List2B,black,woman,,,,null,,,,,,,,,
null,is being kissed by,,html-keyboard-response,242,1939027,0.0-15.0-2.18,98661,List2B,black,woman,,,,null,,,,,,,,,
23052.6,,,survey-text,243,1962084,0.0-15.0-3.18,98661,List2B,black,woman,,,,,"{""Q0"":""dave is being kissed by mike""}","<img src=""stim_listB/kiss6.gif""style=""height:400px;""></stim_listB>",is being kissed by,,,,,,
null,"<div style=""font-size:60px;"">+</div>",,html-keyboard-response,244,1962593,0.0-15.0-0.19,98661,List2B,black,woman,,,,null,,,,,,,,,
null,"<img src=""stim_listB/oppose5.gif""style=""height:400px;""></stim_listB>",,html-keyboard-response,245,1964610,0.0-15.0-1.19,98661,List2B,black,woman,,,,null,,,,,,,,,
null,is opposing,,html-keyboard-response,246,1966616,0.0-15.0-2.19,98661,List2B,black,woman,,,,null,,,,,,,,,
9617.9,,,survey-text,247,1976238,0.0-15.0-3.19,98661,List2B,black,woman,,,,,"{""Q0"":""mike is opposing dave ""}","<img src=""stim_listB/oppose5.gif""style=""height:400px;""></stim_listB>",is opposing,,,,,,
2162.1,"<img src='img/portrait_matrix_list2.jpg' style='width:900px;height:500px;''></img><p>If you have memorised all the portraits and names and are ready to start, press Continue.</p><p><strong>Please note: Your memory of these faces will be tested 4 times during this experiment.</strong></p>",0,html-button-response,248,1978403,0.0-16.0-0.0,98661,List2B,black,woman,,,,,,,,,,,,,
2058.5,"<img src=""portrait/BM2.jpg""style=""height:400px;""></img>",5,html-button-response,249,1981467,0.0-16.0-1.0,98661,List2B,black,woman,,TRUE,5,,,,,,,,,,
null,CORRECT,,html-keyboard-response,250,1982978,0.0-16.0-2.0-0.0,98661,List2B,black,woman,,,,null,,,,,,,,,
1847.7,"<img src=""portrait/BW2.jpg""style=""height:400px;""></img>",2,html-button-response,251,1984828,0.0-16.0-4.0,98661,List2B,black,woman,,TRUE,2,,,,,,,,,,
null,CORRECT,,html-keyboard-response,252,1986357,0.0-16.0-5.0-0.0,98661,List2B,black,woman,,,,null,,,,,,,,,
4664.2,"<img src=""portrait/BW1.jpg""style=""height:400px;""></img>",0,html-button-response,253,1991024,0.0-16.0-7.0,98661,List2B,black,woman,,TRUE,0,,,,,,,,,,
null,CORRECT,,html-keyboard-response,254,1992551,0.0-16.0-8.0-0.0,98661,List2B,black,woman,,,,null,,,,,,,,,
2177.1,"<img src=""portrait/WW2.jpg""style=""height:400px;""></img>",3,html-button-response,255,1994731,0.0-16.0-10.0,98661,List2B,black,woman,,TRUE,3,,,,,,,,,,
null,CORRECT,,html-keyboard-response,256,1996249,0.0-16.0-11.0-0.0,98661,List2B,black,woman,,,,null,,,,,,,,,
1374.9,"<img src=""portrait/WM2.jpg""style=""height:400px;""></img>",7,html-button-response,257,1997626,0.0-16.0-13.0,98661,List2B,black,woman,,TRUE,7,,,,,,,,,,
null,CORRECT,,html-keyboard-response,258,1999147,0.0-16.0-14.0-0.0,98661,List2B,black,woman,,,,null,,,,,,,,,
2396.3,"<img src=""portrait/WW1.jpg""style=""height:400px;""></img>",1,html-button-response,259,2001545,0.0-16.0-16.0,98661,List2B,black,woman,,TRUE,1,,,,,,,,,,
null,CORRECT,,html-keyboard-response,260,2003075,0.0-16.0-17.0-0.0,98661,List2B,black,woman,,,,null,,,,,,,,,
2876.7,"<img src=""portrait/WM1.jpg""style=""height:400px;""></img>",6,html-button-response,261,2005953,0.0-16.0-19.0,98661,List2B,black,woman,,TRUE,6,,,,,,,,,,
null,CORRECT,,html-keyboard-response,262,2007470,0.0-16.0-20.0-0.0,98661,List2B,black,woman,,,,null,,,,,,,,,
1388.3,"<img src=""portrait/BM1.jpg""style=""height:400px;""></img>",4,html-button-response,263,2008861,0.0-16.0-22.0,98661,List2B,black,woman,,TRUE,4,,,,,,,,,,
null,CORRECT,,html-keyboard-response,264,2010374,0.0-16.0-23.0-0.0,98661,List2B,black,woman,,,,null,,,,,,,,,
1272.9,<p>You got 8 out of 8 right first time. Press Continue.</p>,0,html-button-response,265,2011649,0.0-16.0-25.0,98661,List2B,black,woman,,,,,,,,,,,,,
null,"<div style=""font-size:60px;"">+</div>",,html-keyboard-response,266,2013166,0.0-17.0-0.0,98661,List2B,black,woman,,,,null,,,,,,,,,
null,"<img src=""stim_listB/seduce5.gif""style=""height:400px;""></stim_listB>",,html-keyboard-response,267,2015170,0.0-17.0-1.0,98661,List2B,black,woman,,,,null,,,,,,,,,
null,is seducing,,html-keyboard-response,268,2017179,0.0-17.0-2.0,98661,List2B,black,woman,,,,null,,,,,,,,,
32009.5,,,survey-text,269,2049190,0.0-17.0-3.0,98661,List2B,black,woman,,,,,"{""Q0"":""luke is seducing mike ""}","<img src=""stim_listB/seduce5.gif""style=""height:400px;""></stim_listB>",is seducing,,,,,,
null,"<div style=""font-size:60px;"">+</div>",,html-keyboard-response,270,2049706,0.0-17.0-0.1,98661,List2B,black,woman,,,,null,,,,,,,,,
null,"<img src=""stim_listB/hug3.gif""style=""height:400px;""></stim_listB>",,html-keyboard-response,271,2051717,0.0-17.0-1.1,98661,List2B,black,woman,,,,null,,,,,,,,,
null,is hugging,,html-keyboard-response,272,2053729,0.0-17.0-2.1,98661,List2B,black,woman,,,,null,,,,,,,,,
9704.9,,,survey-text,273,2063438,0.0-17.0-3.1,98661,List2B,black,woman,,,,,"{""Q0"":""fred is hugging beth""}","<img src=""stim_listB/hug3.gif""style=""height:400px;""></stim_listB>",is hugging,,,,,,
null,"<div style=""font-size:60px;"">+</div>",,html-keyboard-response,274,2063954,0.0-17.0-0.2,98661,List2B,black,woman,,,,null,,,,,,,,,
null,"<img src=""stim_listB/touch3.gif""style=""height:400px;""></stim_listB>",,html-keyboard-response,275,2065959,0.0-17.0-1.2,98661,List2B,black,woman,,,,null,,,,,,,,,
null,is touching,,html-keyboard-response,276,2067970,0.0-17.0-2.2,98661,List2B,black,woman,,,,null,,,,,,,,,
5793.9,,,survey-text,277,2073768,0.0-17.0-3.2,98661,List2B,black,woman,,,,,"{""Q0"":""kate is touching mike ""}","<img src=""stim_listB/touch3.gif""style=""height:400px;""></stim_listB>",is touching,,,,,,
null,"<div style=""font-size:60px;"">+</div>",,html-keyboard-response,278,2074281,0.0-17.0-0.3,98661,List2B,black,woman,,,,null,,,,,,,,,
null,"<img src=""stim_listB/shout6.gif""style=""height:400px;""></stim_listB>",,html-keyboard-response,279,2076300,0.0-17.0-1.3,98661,List2B,black,woman,,,,null,,,,,,,,,
null,is being shouted at by,,html-keyboard-response,280,2078305,0.0-17.0-2.3,98661,List2B,black,woman,,,,null,,,,,,,,,
10019.6,,,survey-text,281,2088329,0.0-17.0-3.3,98661,List2B,black,woman,,,,,"{""Q0"":""dave is being shot at mike ""}","<img src=""stim_listB/shout6.gif""style=""height:400px;""></stim_listB>",is being shouted at by,,,,,,
null,"<div style=""font-size:60px;"">+</div>",,html-keyboard-response,282,2088845,0.0-17.0-0.4,98661,List2B,black,woman,,,,null,,,,,,,,,
null,"<img src=""stim_listB/challenge2.gif""style=""height:400px;""></stim_listB>",,html-keyboard-response,283,2090858,0.0-17.0-1.4,98661,List2B,black,woman,,,,null,,,,,,,,,
null,is being challenged by,,html-keyboard-response,284,2092870,0.0-17.0-2.4,98661,List2B,black,woman,,,,null,,,,,,,,,
35763.9,,,survey-text,285,2128637,0.0-17.0-3.4,98661,List2B,black,woman,,,,,"{""Q0"":""jane is challenging  luke ""}","<img src=""stim_listB/challenge2.gif""style=""height:400px;""></stim_listB>",is being challenged by,,,,,,
null,"<div style=""font-size:60px;"">+</div>",,html-keyboard-response,286,2129143,0.0-17.0-0.5,98661,List2B,black,woman,,,,null,,,,,,,,,
null,"<img src=""stim_listB/hug8.gif""style=""height:400px;""></stim_listB>",,html-keyboard-response,287,2131153,0.0-17.0-1.5,98661,List2B,black,woman,,,,null,,,,,,,,,
null,is being hugged by,,html-keyboard-response,288,2133160,0.0-17.0-2.5,98661,List2B,black,woman,,,,null,,,,,,,,,
17656.4,,,survey-text,289,2150820,0.0-17.0-3.5,98661,List2B,black,woman,,,,,"{""Q0"":""jane is being hugged by kate ""}","<img src=""stim_listB/hug8.gif""style=""height:400px;""></stim_listB>",is being hugged by,,,,,,
null,"<div style=""font-size:60px;"">+</div>",,html-keyboard-response,290,2151328,0.0-17.0-0.6,98661,List2B,black,woman,,,,null,,,,,,,,,
null,"<img src=""stim_listB/seduce7.gif""style=""height:400px;""></stim_listB>",,html-keyboard-response,291,2153343,0.0-17.0-1.6,98661,List2B,black,woman,,,,null,,,,,,,,,
null,is seducing,,html-keyboard-response,292,2155344,0.0-17.0-2.6,98661,List2B,black,woman,,,,null,,,,,,,,,
23076.8,,,survey-text,293,2178424,0.0-17.0-3.6,98661,List2B,black,woman,,,,,"{""Q0"":""kate is seducing jane ""}","<img src=""stim_listB/seduce7.gif""style=""height:400px;""></stim_listB>",is seducing,,,,,,
null,"<div style=""font-size:60px;"">+</div>",,html-keyboard-response,294,2178931,0.0-17.0-0.7,98661,List2B,black,woman,,,,null,,,,,,,,,
null,"<img src=""stim_listB/oppose6.gif""style=""height:400px;""></stim_listB>",,html-keyboard-response,295,2180934,0.0-17.0-1.7,98661,List2B,black,woman,,,,null,,,,,,,,,
null,is being opposed by,,html-keyboard-response,296,2182945,0.0-17.0-2.7,98661,List2B,black,woman,,,,null,,,,,,,,,
17235.3,,,survey-text,297,2200184,0.0-17.0-3.7,98661,List2B,black,woman,,,,,"{""Q0"":""luke is being opposed by fred""}","<img src=""stim_listB/oppose6.gif""style=""height:400px;""></stim_listB>",is being opposed by,,,,,,
null,"<div style=""font-size:60px;"">+</div>",,html-keyboard-response,298,2200690,0.0-17.0-0.8,98661,List2B,black,woman,,,,null,,,,,,,,,
null,"<img src=""stim_listB/touch6.gif""style=""height:400px;""></stim_listB>",,html-keyboard-response,299,2202701,0.0-17.0-1.8,98661,List2B,black,woman,,,,null,,,,,,,,,
null,is being touched by,,html-keyboard-response,300,2204717,0.0-17.0-2.8,98661,List2B,black,woman,,,,null,,,,,,,,,
7160.5,,,survey-text,301,2211881,0.0-17.0-3.8,98661,List2B,black,woman,,,,,"{""Q0"":""luke is being touch by fred ""}","<img src=""stim_listB/touch6.gif""style=""height:400px;""></stim_listB>",is being touched by,,,,,,
null,"<div style=""font-size:60px;"">+</div>",,html-keyboard-response,302,2212400,0.0-17.0-0.9,98661,List2B,black,woman,,,,null,,,,,,,,,
null,"<img src=""stim_listB/look6.gif""style=""height:400px;""></stim_listB>",,html-keyboard-response,303,2214420,0.0-17.0-1.9,98661,List2B,black,woman,,,,null,,,,,,,,,
null,is being looked at by,,html-keyboard-response,304,2216435,0.0-17.0-2.9,98661,List2B,black,woman,,,,null,,,,,,,,,
11662,,,survey-text,305,2228100,0.0-17.0-3.9,98661,List2B,black,woman,,,,,"{""Q0"":""fred is being looked at by luke ""}","<img src=""stim_listB/look6.gif""style=""height:400px;""></stim_listB>",is being looked at by,,,,,,
null,"<div style=""font-size:60px;"">+</div>",,html-keyboard-response,306,2228612,0.0-17.0-0.10,98661,List2B,black,woman,,,,null,,,,,,,,,
null,"<img src=""stim_listB/hug4.gif""style=""height:400px;""></stim_listB>",,html-keyboard-response,307,2230616,0.0-17.0-1.10,98661,List2B,black,woman,,,,null,,,,,,,,,
null,is being hugged by,,html-keyboard-response,308,2232622,0.0-17.0-2.10,98661,List2B,black,woman,,,,null,,,,,,,,,
8505.3,,,survey-text,309,2241130,0.0-17.0-3.10,98661,List2B,black,woman,,,,,"{""Q0"":""kate is being hugged by mike""}","<img src=""stim_listB/hug4.gif""style=""height:400px;""></stim_listB>",is being hugged by,,,,,,
null,"<div style=""font-size:60px;"">+</div>",,html-keyboard-response,310,2241649,0.0-17.0-0.11,98661,List2B,black,woman,,,,null,,,,,,,,,
null,"<img src=""stim_listB/seduce3.gif""style=""height:400px;""></stim_listB>",,html-keyboard-response,311,2243662,0.0-17.0-1.11,98661,List2B,black,woman,,,,null,,,,,,,,,
null,is seducing,,html-keyboard-response,312,2245677,0.0-17.0-2.11,98661,List2B,black,woman,,,,null,,,,,,,,,
34936.3,,,survey-text,313,2280616,0.0-17.0-3.11,98661,List2B,black,woman,,,,,"{""Q0"":""fred is Seducing kate""}","<img src=""stim_listB/seduce3.gif""style=""height:400px;""></stim_listB>",is seducing,,,,,,
null,"<div style=""font-size:60px;"">+</div>",,html-keyboard-response,314,2281125,0.0-17.0-0.12,98661,List2B,black,woman,,,,null,,,,,,,,,
null,"<img src=""stim_listB/challenge8.gif""style=""height:400px;""></stim_listB>",,html-keyboard-response,315,2283131,0.0-17.0-1.12,98661,List2B,black,woman,,,,null,,,,,,,,,
null,is being challenged by,,html-keyboard-response,316,2285138,0.0-17.0-2.12,98661,List2B,black,woman,,,,null,,,,,,,,,
18282.6,,,survey-text,317,2303425,0.0-17.0-3.12,98661,List2B,black,woman,,,,,"{""Q0"":""kate is being challenged by ruth""}","<img src=""stim_listB/challenge8.gif""style=""height:400px;""></stim_listB>",is being challenged by,,,,,,
null,"<div style=""font-size:60px;"">+</div>",,html-keyboard-response,318,2303927,0.0-17.0-0.13,98661,List2B,black,woman,,,,null,,,,,,,,,
null,"<img src=""stim_listB/shout5.gif""style=""height:400px;""></stim_listB>",,html-keyboard-response,319,2305944,0.0-17.0-1.13,98661,List2B,black,woman,,,,null,,,,,,,,,
null,is shouting at,,html-keyboard-response,320,2307952,0.0-17.0-2.13,98661,List2B,black,woman,,,,null,,,,,,,,,
10935.8,,,survey-text,321,2318890,0.0-17.0-3.13,98661,List2B,black,woman,,,,,"{""Q0"":""luke is shouting at fred""}","<img src=""stim_listB/shout5.gif""style=""height:400px;""></stim_listB>",is shouting at,,,,,,
null,"<div style=""font-size:60px;"">+</div>",,html-keyboard-response,322,2319410,0.0-17.0-0.14,98661,List2B,black,woman,,,,null,,,,,,,,,
null,"<img src=""stim_listB/seduce2.gif""style=""height:400px;""></stim_listB>",,html-keyboard-response,323,2321414,0.0-17.0-1.14,98661,List2B,black,woman,,,,null,,,,,,,,,
null,is being seduced by,,html-keyboard-response,324,2323416,0.0-17.0-2.14,98661,List2B,black,woman,,,,null,,,,,,,,,
13275.9,,,survey-text,325,2336696,0.0-17.0-3.14,98661,List2B,black,woman,,,,,"{""Q0"":""kate is seducing dave ""}","<img src=""stim_listB/seduce2.gif""style=""height:400px;""></stim_listB>",is being seduced by,,,,,,
null,"<div style=""font-size:60px;"">+</div>",,html-keyboard-response,326,2337205,0.0-17.0-0.15,98661,List2B,black,woman,,,,null,,,,,,,,,
null,"<img src=""stim_listB/kiss3.gif""style=""height:400px;""></stim_listB>",,html-keyboard-response,327,2339213,0.0-17.0-1.15,98661,List2B,black,woman,,,,null,,,,,,,,,
null,is kissing,,html-keyboard-response,328,2341225,0.0-17.0-2.15,98661,List2B,black,woman,,,,null,,,,,,,,,
11449.1,,,survey-text,329,2352677,0.0-17.0-3.15,98661,List2B,black,woman,,,,,"{""Q0"":""fred is kissing beth ""}","<img src=""stim_listB/kiss3.gif""style=""height:400px;""></stim_listB>",is kissing,,,,,,
null,"<div style=""font-size:60px;"">+</div>",,html-keyboard-response,330,2353184,0.0-17.0-0.16,98661,List2B,black,woman,,,,null,,,,,,,,,
null,"<img src=""stim_listB/kiss5.gif""style=""height:400px;""></stim_listB>",,html-keyboard-response,331,2355202,0.0-17.0-1.16,98661,List2B,black,woman,,,,null,,,,,,,,,
null,is kissing,,html-keyboard-response,332,2357219,0.0-17.0-2.16,98661,List2B,black,woman,,,,null,,,,,,,,,
6924,,,survey-text,333,2364147,0.0-17.0-3.16,98661,List2B,black,woman,,,,,"{""Q0"":""fred is kissing luke""}","<img src=""stim_listB/kiss5.gif""style=""height:400px;""></stim_listB>",is kissing,,,,,,
null,"<div style=""font-size:60px;"">+</div>",,html-keyboard-response,334,2364650,0.0-17.0-0.17,98661,List2B,black,woman,,,,null,,,,,,,,,
null,"<img src=""stim_listB/kiss4.gif""style=""height:400px;""></stim_listB>",,html-keyboard-response,335,2366669,0.0-17.0-1.17,98661,List2B,black,woman,,,,null,,,,,,,,,
null,is being kissed by,,html-keyboard-response,336,2368675,0.0-17.0-2.17,98661,List2B,black,woman,,,,null,,,,,,,,,
11365.1,,,survey-text,337,2380044,0.0-17.0-3.17,98661,List2B,black,woman,,,,,"{""Q0"":""kate is being kissed by mike ""}","<img src=""stim_listB/kiss4.gif""style=""height:400px;""></stim_listB>",is being kissed by,,,,,,
null,"<div style=""font-size:60px;"">+</div>",,html-keyboard-response,338,2380555,0.0-17.0-0.18,98661,List2B,black,woman,,,,null,,,,,,,,,
null,"<img src=""stim_listB/kiss7.gif""style=""height:400px;""></stim_listB>",,html-keyboard-response,339,2382564,0.0-17.0-1.18,98661,List2B,black,woman,,,,null,,,,,,,,,
null,is kissing,,html-keyboard-response,340,2384579,0.0-17.0-2.18,98661,List2B,black,woman,,,,null,,,,,,,,,
23471.5,,,survey-text,341,2408054,0.0-17.0-3.18,98661,List2B,black,woman,,,,,"{""Q0"":""beth is kissed by kate""}","<img src=""stim_listB/kiss7.gif""style=""height:400px;""></stim_listB>",is kissing,,,,,,
null,"<div style=""font-size:60px;"">+</div>",,html-keyboard-response,342,2408557,0.0-17.0-0.19,98661,List2B,black,woman,,,,null,,,,,,,,,
null,"<img src=""stim_listB/greet7.gif""style=""height:400px;""></stim_listB>",,html-keyboard-response,343,2410572,0.0-17.0-1.19,98661,List2B,black,woman,,,,null,,,,,,,,,
null,is greeting,,html-keyboard-response,344,2412586,0.0-17.0-2.19,98661,List2B,black,woman,,,,null,,,,,,,,,
11922.4,,,survey-text,345,2424512,0.0-17.0-3.19,98661,List2B,black,woman,,,,,"{""Q0"":""jane is greeting kate ""}","<img src=""stim_listB/greet7.gif""style=""height:400px;""></stim_listB>",is greeting,,,,,,
2609.9,"<img src='img/portrait_matrix_list2.jpg' style='width:900px;height:500px;''></img><p>If you have memorised all the portraits and names and are ready to start, press Continue.</p><p><strong>Please note: Your memory of these faces will be tested 4 times during this experiment.</strong></p>",0,html-button-response,346,2427125,0.0-18.0-0.0,98661,List2B,black,woman,,,,,,,,,,,,,
1453.4,"<img src=""portrait/BM1.jpg""style=""height:400px;""></img>",4,html-button-response,347,2429595,0.0-18.0-1.0,98661,List2B,black,woman,,TRUE,4,,,,,,,,,,
null,CORRECT,,html-keyboard-response,348,2431112,0.0-18.0-2.0-0.0,98661,List2B,black,woman,,,,null,,,,,,,,,
2756.7,"<img src=""portrait/BW1.jpg""style=""height:400px;""></img>",0,html-button-response,349,2433871,0.0-18.0-4.0,98661,List2B,black,woman,,TRUE,0,,,,,,,,,,
null,CORRECT,,html-keyboard-response,350,2435396,0.0-18.0-5.0-0.0,98661,List2B,black,woman,,,,null,,,,,,,,,
1661.7,"<img src=""portrait/WW2.jpg""style=""height:400px;""></img>",3,html-button-response,351,2437060,0.0-18.0-7.0,98661,List2B,black,woman,,TRUE,3,,,,,,,,,,
361.2,CORRECT,,html-keyboard-response,352,2438577,0.0-18.0-8.0-0.0,98661,List2B,black,woman,,,,17,,,,,,,,,
3043.5,"<img src=""portrait/WW1.jpg""style=""height:400px;""></img>",1,html-button-response,353,2441624,0.0-18.0-10.0,98661,List2B,black,woman,,TRUE,1,,,,,,,,,,
null,CORRECT,,html-keyboard-response,354,2443137,0.0-18.0-11.0-0.0,98661,List2B,black,woman,,,,null,,,,,,,,,
2259.8,"<img src=""portrait/BM2.jpg""style=""height:400px;""></img>",5,html-button-response,355,2445399,0.0-18.0-13.0,98661,List2B,black,woman,,TRUE,5,,,,,,,,,,
null,CORRECT,,html-keyboard-response,356,2446928,0.0-18.0-14.0-0.0,98661,List2B,black,woman,,,,null,,,,,,,,,
1967.1,"<img src=""portrait/WM2.jpg""style=""height:400px;""></img>",7,html-button-response,357,2448898,0.0-18.0-16.0,98661,List2B,black,woman,,TRUE,7,,,,,,,,,,
null,CORRECT,,html-keyboard-response,358,2450411,0.0-18.0-17.0-0.0,98661,List2B,black,woman,,,,null,,,,,,,,,
2434.2,"<img src=""portrait/WM1.jpg""style=""height:400px;""></img>",6,html-button-response,359,2452849,0.0-18.0-19.0,98661,List2B,black,woman,,TRUE,6,,,,,,,,,,
null,CORRECT,,html-keyboard-response,360,2454369,0.0-18.0-20.0-0.0,98661,List2B,black,woman,,,,null,,,,,,,,,
3957.7,"<img src=""portrait/BW2.jpg""style=""height:400px;""></img>",2,html-button-response,361,2458329,0.0-18.0-22.0,98661,List2B,black,woman,,TRUE,2,,,,,,,,,,
null,CORRECT,,html-keyboard-response,362,2459838,0.0-18.0-23.0-0.0,98661,List2B,black,woman,,,,null,,,,,,,,,
1251.6,<p>You got 8 out of 8 right first time. Press Continue.</p>,0,html-button-response,363,2461093,0.0-18.0-25.0,98661,List2B,black,woman,,,,,,,,,,,,,
null,"<div style=""font-size:60px;"">+</div>",,html-keyboard-response,364,2462615,0.0-19.0-0.0,98661,List2B,black,woman,,,,null,,,,,,,,,
null,"<img src=""stim_listB/copy5.gif""style=""height:400px;""></stim_listB>",,html-keyboard-response,365,2464626,0.0-19.0-1.0,98661,List2B,black,woman,,,,null,,,,,,,,,
null,is copying,,html-keyboard-response,366,2466637,0.0-19.0-2.0,98661,List2B,black,woman,,,,null,,,,,,,,,
6715.4,,,survey-text,367,2473356,0.0-19.0-3.0,98661,List2B,black,woman,,,,,"{""Q0"":""dave is copying fred ""}","<img src=""stim_listB/copy5.gif""style=""height:400px;""></stim_listB>",is copying,,,,,,
null,"<div style=""font-size:60px;"">+</div>",,html-keyboard-response,368,2473868,0.0-19.0-0.1,98661,List2B,black,woman,,,,null,,,,,,,,,
null,"<img src=""stim_listB/touch2.gif""style=""height:400px;""></stim_listB>",,html-keyboard-response,369,2475879,0.0-19.0-1.1,98661,List2B,black,woman,,,,null,,,,,,,,,
null,is being touched by,,html-keyboard-response,370,2477887,0.0-19.0-2.1,98661,List2B,black,woman,,,,null,,,,,,,,,
10453.2,,,survey-text,371,2488344,0.0-19.0-3.1,98661,List2B,black,woman,,,,,"{""Q0"":""fred and kate ""}","<img src=""stim_listB/touch2.gif""style=""height:400px;""></stim_listB>",is being touched by,,,,,,
null,"<div style=""font-size:60px;"">+</div>",,html-keyboard-response,372,2488857,0.0-19.0-0.2,98661,List2B,black,woman,,,,null,,,,,,,,,
null,"<img src=""stim_listB/kiss1.gif""style=""height:400px;""></stim_listB>",,html-keyboard-response,373,2490867,0.0-19.0-1.2,98661,List2B,black,woman,,,,null,,,,,,,,,
null,is kissing,,html-keyboard-response,374,2492881,0.0-19.0-2.2,98661,List2B,black,woman,,,,null,,,,,,,,,
10840.4,,,survey-text,375,2503725,0.0-19.0-3.2,98661,List2B,black,woman,,,,,"{""Q0"":""luke is kissing ruth""}","<img src=""stim_listB/kiss1.gif""style=""height:400px;""></stim_listB>",is kissing,,,,,,
null,"<div style=""font-size:60px;"">+</div>",,html-keyboard-response,376,2504228,0.0-19.0-0.3,98661,List2B,black,woman,,,,null,,,,,,,,,
null,"<img src=""stim_listB/greet6.gif""style=""height:400px;""></stim_listB>",,html-keyboard-response,377,2506239,0.0-19.0-1.3,98661,List2B,black,woman,,,,null,,,,,,,,,
null,is being greeted by,,html-keyboard-response,378,2508249,0.0-19.0-2.3,98661,List2B,black,woman,,,,null,,,,,,,,,
27613.8,,,survey-text,379,2535866,0.0-19.0-3.3,98661,List2B,black,woman,,,,,"{""Q0"":""mike is greeted by luke ""}","<img src=""stim_listB/greet6.gif""style=""height:400px;""></stim_listB>",is being greeted by,,,,,,
null,"<div style=""font-size:60px;"">+</div>",,html-keyboard-response,380,2536375,0.0-19.0-0.4,98661,List2B,black,woman,,,,null,,,,,,,,,
null,"<img src=""stim_listB/shout2.gif""style=""height:400px;""></stim_listB>",,html-keyboard-response,381,2538382,0.0-19.0-1.4,98661,List2B,black,woman,,,,null,,,,,,,,,
null,is being shouted at by,,html-keyboard-response,382,2540400,0.0-19.0-2.4,98661,List2B,black,woman,,,,null,,,,,,,,,
35334.9,,,survey-text,383,2575738,0.0-19.0-3.4,98661,List2B,black,woman,,,,,"{""Q0"":""jane is being shouted at by dave ""}","<img src=""stim_listB/shout2.gif""style=""height:400px;""></stim_listB>",is being shouted at by,,,,,,
null,"<div style=""font-size:60px;"">+</div>",,html-keyboard-response,384,2576248,0.0-19.0-0.5,98661,List2B,black,woman,,,,null,,,,,,,,,
null,"<img src=""stim_listB/oppose4.gif""style=""height:400px;""></stim_listB>",,html-keyboard-response,385,2578259,0.0-19.0-1.5,98661,List2B,black,woman,,,,null,,,,,,,,,
null,is being opposed by,,html-keyboard-response,386,2580275,0.0-19.0-2.5,98661,List2B,black,woman,,,,null,,,,,,,,,
16351.3,,,survey-text,387,2596630,0.0-19.0-3.5,98661,List2B,black,woman,,,,,"{""Q0"":""beth is opposed by fred ""}","<img src=""stim_listB/oppose4.gif""style=""height:400px;""></stim_listB>",is being opposed by,,,,,,
null,"<div style=""font-size:60px;"">+</div>",,html-keyboard-response,388,2597136,0.0-19.0-0.6,98661,List2B,black,woman,,,,null,,,,,,,,,
null,"<img src=""stim_listB/shout3.gif""style=""height:400px;""></stim_listB>",,html-keyboard-response,389,2599147,0.0-19.0-1.6,98661,List2B,black,woman,,,,null,,,,,,,,,
null,is shouting at,,html-keyboard-response,390,2601163,0.0-19.0-2.6,98661,List2B,black,woman,,,,null,,,,,,,,,
11413.1,,,survey-text,391,2612579,0.0-19.0-3.6,98661,List2B,black,woman,,,,,"{""Q0"":""fred is shouting at beth""}","<img src=""stim_listB/shout3.gif""style=""height:400px;""></stim_listB>",is shouting at,,,,,,
null,"<div style=""font-size:60px;"">+</div>",,html-keyboard-response,392,2613091,0.0-19.0-0.7,98661,List2B,black,woman,,,,null,,,,,,,,,
null,"<img src=""stim_listB/touch8.gif""style=""height:400px;""></stim_listB>",,html-keyboard-response,393,2615096,0.0-19.0-1.7,98661,List2B,black,woman,,,,null,,,,,,,,,
null,is being touched by,,html-keyboard-response,394,2617103,0.0-19.0-2.7,98661,List2B,black,woman,,,,null,,,,,,,,,
15386.9,,,survey-text,395,2632493,0.0-19.0-3.7,98661,List2B,black,woman,,,,,"{""Q0"":""beth is touching ruth ""}","<img src=""stim_listB/touch8.gif""style=""height:400px;""></stim_listB>",is being touched by,,,,,,
null,"<div style=""font-size:60px;"">+</div>",,html-keyboard-response,396,2632995,0.0-19.0-0.8,98661,List2B,black,woman,,,,null,,,,,,,,,
null,"<img src=""stim_listB/challenge7.gif""style=""height:400px;""></stim_listB>",,html-keyboard-response,397,2635012,0.0-19.0-1.8,98661,List2B,black,woman,,,,null,,,,,,,,,
null,is challenging,,html-keyboard-response,398,2637023,0.0-19.0-2.8,98661,List2B,black,woman,,,,null,,,,,,,,,
43780.2,,,survey-text,399,2680806,0.0-19.0-3.8,98661,List2B,black,woman,,,,,"{""Q0"":""beth is challenging ruth ""}","<img src=""stim_listB/challenge7.gif""style=""height:400px;""></stim_listB>",is challenging,,,,,,
null,"<div style=""font-size:60px;"">+</div>",,html-keyboard-response,400,2681324,0.0-19.0-0.9,98661,List2B,black,woman,,,,null,,,,,,,,,
null,"<img src=""stim_listB/copy4.gif""style=""height:400px;""></stim_listB>",,html-keyboard-response,401,2683990,0.0-19.0-1.9,98661,List2B,black,woman,,,,null,,,,,,,,,
null,is being copied by,,html-keyboard-response,402,2686000,0.0-19.0-2.9,98661,List2B,black,woman,,,,null,,,,,,,,,
14559,,,survey-text,403,2700563,0.0-19.0-3.9,98661,List2B,black,woman,,,,,"{""Q0"":""ruth is being copied by beth ""}","<img src=""stim_listB/copy4.gif""style=""height:400px;""></stim_listB>",is being copied by,,,,,,
null,"<div style=""font-size:60px;"">+</div>",,html-keyboard-response,404,2701074,0.0-19.0-0.10,98661,List2B,black,woman,,,,null,,,,,,,,,
null,"<img src=""stim_listB/greet3.gif""style=""height:400px;""></stim_listB>",,html-keyboard-response,405,2703085,0.0-19.0-1.10,98661,List2B,black,woman,,,,null,,,,,,,,,
null,is greeting,,html-keyboard-response,406,2705101,0.0-19.0-2.10,98661,List2B,black,woman,,,,null,,,,,,,,,
11923.9,,,survey-text,407,2717029,0.0-19.0-3.10,98661,List2B,black,woman,,,,,"{""Q0"":""beth is greeted by mike ""}","<img src=""stim_listB/greet3.gif""style=""height:400px;""></stim_listB>",is greeting,,,,,,
null,"<div style=""font-size:60px;"">+</div>",,html-keyboard-response,408,2717538,0.0-19.0-0.11,98661,List2B,black,woman,,,,null,,,,,,,,,
null,"<img src=""stim_listB/greet1.gif""style=""height:400px;""></stim_listB>",,html-keyboard-response,409,2719553,0.0-19.0-1.11,98661,List2B,black,woman,,,,null,,,,,,,,,
null,is greeting,,html-keyboard-response,410,2721562,0.0-19.0-2.11,98661,List2B,black,woman,,,,null,,,,,,,,,
20657.4,,,survey-text,411,2742223,0.0-19.0-3.11,98661,List2B,black,woman,,,,,"{""Q0"":""ruth is greeting dave ""}","<img src=""stim_listB/greet1.gif""style=""height:400px;""></stim_listB>",is greeting,,,,,,
null,"<div style=""font-size:60px;"">+</div>",,html-keyboard-response,412,2742734,0.0-19.0-0.12,98661,List2B,black,woman,,,,null,,,,,,,,,
null,"<img src=""stim_listB/oppose3.gif""style=""height:400px;""></stim_listB>",,html-keyboard-response,413,2744752,0.0-19.0-1.12,98661,List2B,black,woman,,,,null,,,,,,,,,
null,is opposing,,html-keyboard-response,414,2746765,0.0-19.0-2.12,98661,List2B,black,woman,,,,null,,,,,,,,,
12745.5,,,survey-text,415,2759515,0.0-19.0-3.12,98661,List2B,black,woman,,,,,"{""Q0"":""idk its to fast ""}","<img src=""stim_listB/oppose3.gif""style=""height:400px;""></stim_listB>",is opposing,,,,,,
null,"<div style=""font-size:60px;"">+</div>",,html-keyboard-response,416,2760024,0.0-19.0-0.13,98661,List2B,black,woman,,,,null,,,,,,,,,
null,"<img src=""stim_listB/look4.gif""style=""height:400px;""></stim_listB>",,html-keyboard-response,417,2762028,0.0-19.0-1.13,98661,List2B,black,woman,,,,null,,,,,,,,,
null,is being looked at by,,html-keyboard-response,418,2764042,0.0-19.0-2.13,98661,List2B,black,woman,,,,null,,,,,,,,,
16794.3,,,survey-text,419,2780840,0.0-19.0-3.13,98661,List2B,black,woman,,,,,"{""Q0"":""kate is being looked at by mike ""}","<img src=""stim_listB/look4.gif""style=""height:400px;""></stim_listB>",is being looked at by,,,,,,
null,"<div style=""font-size:60px;"">+</div>",,html-keyboard-response,420,2781342,0.0-19.0-0.14,98661,List2B,black,woman,,,,null,,,,,,,,,
null,"<img src=""stim_listB/seduce4.gif""style=""height:400px;""></stim_listB>",,html-keyboard-response,421,2783351,0.0-19.0-1.14,98661,List2B,black,woman,,,,null,,,,,,,,,
null,is being seduced by,,html-keyboard-response,422,2785367,0.0-19.0-2.14,98661,List2B,black,woman,,,,null,,,,,,,,,
17968.8,,,survey-text,423,2803340,0.0-19.0-3.14,98661,List2B,black,woman,,,,,"{""Q0"":""mike is being seduced by beth""}","<img src=""stim_listB/seduce4.gif""style=""height:400px;""></stim_listB>",is being seduced by,,,,,,
null,"<div style=""font-size:60px;"">+</div>",,html-keyboard-response,424,2803857,0.0-19.0-0.15,98661,List2B,black,woman,,,,null,,,,,,,,,
null,"<img src=""stim_listB/look8.gif""style=""height:400px;""></stim_listB>",,html-keyboard-response,425,2805865,0.0-19.0-1.15,98661,List2B,black,woman,,,,null,,,,,,,,,
null,is being looked at by,,html-keyboard-response,426,2807882,0.0-19.0-2.15,98661,List2B,black,woman,,,,null,,,,,,,,,
12776.6,,,survey-text,427,2820661,0.0-19.0-3.15,98661,List2B,black,woman,,,,,"{""Q0"":""kate is being looked at by jane ""}","<img src=""stim_listB/look8.gif""style=""height:400px;""></stim_listB>",is being looked at by,,,,,,
null,"<div style=""font-size:60px;"">+</div>",,html-keyboard-response,428,2821173,0.0-19.0-0.16,98661,List2B,black,woman,,,,null,,,,,,,,,
null,"<img src=""stim_listB/challenge6.gif""style=""height:400px;""></stim_listB>",,html-keyboard-response,429,2823185,0.0-19.0-1.16,98661,List2B,black,woman,,,,null,,,,,,,,,
null,is being challenged by,,html-keyboard-response,430,2825195,0.0-19.0-2.16,98661,List2B,black,woman,,,,null,,,,,,,,,
53145.2,,,survey-text,431,2878345,0.0-19.0-3.16,98661,List2B,black,woman,,,,,"{""Q0"":""luke is being challenged by mike ""}","<img src=""stim_listB/challenge6.gif""style=""height:400px;""></stim_listB>",is being challenged by,,,,,,
null,"<div style=""font-size:60px;"">+</div>",,html-keyboard-response,432,2878860,0.0-19.0-0.17,98661,List2B,black,woman,,,,null,,,,,,,,,
null,"<img src=""stim_listB/copy6.gif""style=""height:400px;""></stim_listB>",,html-keyboard-response,433,2880877,0.0-19.0-1.17,98661,List2B,black,woman,,,,null,,,,,,,,,
null,is being copied by,,html-keyboard-response,434,2882884,0.0-19.0-2.17,98661,List2B,black,woman,,,,null,,,,,,,,,
9058.7,,,survey-text,435,2891946,0.0-19.0-3.17,98661,List2B,black,woman,,,,,"{""Q0"":""mike is being copied by luke ""}","<img src=""stim_listB/copy6.gif""style=""height:400px;""></stim_listB>",is being copied by,,,,,,
null,"<div style=""font-size:60px;"">+</div>",,html-keyboard-response,436,2892461,0.0-19.0-0.18,98661,List2B,black,woman,,,,null,,,,,,,,,
null,"<img src=""stim_listB/hug1.gif""style=""height:400px;""></stim_listB>",,html-keyboard-response,437,2894477,0.0-19.0-1.18,98661,List2B,black,woman,,,,null,,,,,,,,,
null,is hugging,,html-keyboard-response,438,2896485,0.0-19.0-2.18,98661,List2B,black,woman,,,,null,,,,,,,,,
5352.3,,,survey-text,439,2901841,0.0-19.0-3.18,98661,List2B,black,woman,,,,,"{""Q0"":""luke is hugging ruth ""}","<img src=""stim_listB/hug1.gif""style=""height:400px;""></stim_listB>",is hugging,,,,,,
null,"<div style=""font-size:60px;"">+</div>",,html-keyboard-response,440,2902355,0.0-19.0-0.19,98661,List2B,black,woman,,,,null,,,,,,,,,
null,"<img src=""stim_listB/hug7.gif""style=""height:400px;""></stim_listB>",,html-keyboard-response,441,2904359,0.0-19.0-1.19,98661,List2B,black,woman,,,,null,,,,,,,,,
null,is hugging,,html-keyboard-response,442,2906360,0.0-19.0-2.19,98661,List2B,black,woman,,,,null,,,,,,,,,
12312,,,survey-text,443,2918676,0.0-19.0-3.19,98661,List2B,black,woman,,,,,"{""Q0"":""beth is hugging ruth""}","<img src=""stim_listB/hug7.gif""style=""height:400px;""></stim_listB>",is hugging,,,,,,
1966.8,<p>Thank you for completing that task.</p><p>The final part of this session is a questionnaire that will take about 4 minutes.</p><p>Press Continue.</p>,0,html-button-response,444,2920644,0.0-20.0,98661,List2B,black,woman,,,,,,,,,,,,,
45370,,,survey-text,445,2967026,0.0-21.0,98661,List2B,black,woman,,,,,"{""Q0"":""25"",""Q1"":""english"",""Q2"":""english"",""Q3"":""United States"",""Q4"":""black American "",""Q5"":""black "",""Q6"":""female ""}",,,demographics,,,,,
2566.7,<p>Have you lived in the USA for the last 5 years or more?</p>,0,html-button-response,446,2969598,0.0-22.0,98661,List2B,black,woman,,,,,,,,fiveyears,,,,,
2968.6,<p>Move the slider to show the extent to which you agree with the following statements.</p>,0,html-button-response,447,2973574,0.0-23.0,98661,List2B,black,woman,,,,,,,,,,,,,
4011.9,,,html-slider-response,448,2978609,0.0-24.0-0.0-0.0,98661,List2B,black,woman,,,,,,,,survey_race,97,,,I am glad to be the age I am.,filler
20720.2,,,html-slider-response,449,2999333,0.0-24.0-0.0-0.1,98661,List2B,black,woman,,,,,,,,survey_race,50,,,Being my race gives me a good feeling.,feeling
16517.7,,,html-slider-response,450,3015853,0.0-24.0-0.0-0.2,98661,List2B,black,woman,,,,,,,,survey_race,50,,,The fact that I am my race is an important part of my identity.,identity
3354.9,,,html-slider-response,451,3019210,0.0-24.0-0.0-0.3,98661,List2B,black,woman,,,,,,,,survey_race,100,,,"The older I get, the wiser I feel.",filler
3996.1,,,html-slider-response,452,3023208,0.0-24.0-0.0-0.4,98661,List2B,black,woman,,,,,,,,survey_race,78,,,I feel solidarity with people the same age as me.,filler
3696.1,,,html-slider-response,453,3026907,0.0-24.0-0.0-0.5,98661,List2B,black,woman,,,,,,,,survey_race,100,,,I feel a bond with my race.,bond
5930.9,,,html-slider-response,454,3032840,0.0-24.0-0.0-0.6,98661,List2B,black,woman,,,,,,,,survey_race,44,,,I have a lot in common with the average person of my race.,average
4376.6,,,html-slider-response,455,3037219,0.0-24.0-0.0-0.7,98661,List2B,black,woman,,,,,,,,survey_race,45,,,I have a lot in common with people of a similar age to me.,filler
5293.4,,,html-slider-response,456,3042515,0.0-24.0-0.0-0.8,98661,List2B,black,woman,,,,,,,,survey_race,68,,,People of my race are very similar to each other.,verysimilar
6021.4,,,html-slider-response,457,3048540,0.0-24.0-0.0-0.9,98661,List2B,black,woman,,,,,,,,survey_race,38,,,Being my race is an important part of how I see myself.,important
5541.8,,,html-slider-response,458,3054084,0.0-24.0-0.0-0.10,98661,List2B,black,woman,,,,,,,,survey_race,43,,,I feel solidarity with my race.,solidarity
4034.1,,,html-slider-response,459,3058122,0.0-24.0-0.0-0.11,98661,List2B,black,woman,,,,,,,,survey_race,17,,,I consider myself an introvert.,filler
6524.7,,,html-slider-response,460,3064650,0.0-24.0-0.0-0.12,98661,List2B,black,woman,,,,,,,,survey_race,46,,,I feel a bond with people the same age as me.,filler
6268.5,,,html-slider-response,461,3070922,0.0-24.0-0.0-0.13,98661,List2B,black,woman,,,,,,,,survey_race,100,,,Getting older does not worry me.,filler
2433.9,,,html-slider-response,462,3073359,0.0-24.0-0.0-0.14,98661,List2B,black,woman,,,,,,,,survey_race,100,,,My age is not an important part of who I am.,filler
5495.9,,,html-slider-response,463,3078856,0.0-24.0-0.0-0.15,98661,List2B,black,woman,,,,,,,,survey_race,43,,,People of my race have a lot in common with each other.,common
5374.5,,,html-slider-response,464,3084234,0.0-24.0-0.0-0.16,98661,List2B,black,woman,,,,,,,,survey_race,8,,,I often think about the fact that I am my age.,filler
3909.4,,,html-slider-response,465,3088147,0.0-24.0-0.0-0.17,98661,List2B,black,woman,,,,,,,,survey_race,100,,,I am glad to be my age.,filler
3544.5,,,html-slider-response,466,3091695,0.0-24.0-0.0-0.18,98661,List2B,black,woman,,,,,,,,survey_race,34,,,I enjoy being in large groups.,filler
3748.3,,,html-slider-response,467,3095446,0.0-24.0-0.0-0.19,98661,List2B,black,woman,,,,,,,,survey_race,89,,,Being my age gives me a good feeling.,filler
5606.8,,,html-slider-response,468,3101056,0.0-24.0-0.0-0.20,98661,List2B,black,woman,,,,,,,,survey_race,40,,,People my age have a lot in common with each other.,filler
3958.7,,,html-slider-response,469,3105017,0.0-24.0-0.0-0.21,98661,List2B,black,woman,,,,,,,,survey_race,98,,,I consider myself an extrovert.,filler
5600.9,,,html-slider-response,470,3110621,0.0-24.0-0.0-0.22,98661,List2B,black,woman,,,,,,,,survey_race,53,,,It is pleasant to be my race.,pleasant
3951.7,,,html-slider-response,471,3114576,0.0-24.0-0.0-0.23,98661,List2B,black,woman,,,,,,,,survey_race,85,,,I feel committed to my race.,committed
4332.8,,,html-slider-response,472,3118911,0.0-24.0-0.0-0.24,98661,List2B,black,woman,,,,,,,,survey_race,46,,,I often think about the fact that I am my race.,often
18481.8,,,html-slider-response,473,3137395,0.0-24.0-0.0-0.25,98661,List2B,black,woman,,,,,,,,survey_race,43,,,I am similar to the average person of my race.,similar
3050.8,,,html-slider-response,474,3140448,0.0-24.0-0.0-0.26,98661,List2B,black,woman,,,,,,,,survey_race,43,,,I am glad to be my race.,glad
4580.7,,,html-slider-response,475,3145031,0.0-24.0-0.0-0.27,98661,List2B,black,woman,,,,,,,,survey_race,88,,,I think that my race has a lot to be proud of.,proud
3812.6,,,html-slider-response,476,3148846,0.0-24.0-1.0-0.0,98661,List2B,black,woman,,,,,,,,survey_gender,100,,,I consider myself a highly empathetic person.,filler
5180.9,,,html-slider-response,477,3154030,0.0-24.0-1.0-0.1,98661,List2B,black,woman,,,,,,,,survey_gender,100,,,It is pleasant to be my gender.,pleasant
4554.8,,,html-slider-response,478,3158588,0.0-24.0-1.0-0.2,98661,List2B,black,woman,,,,,,,,survey_gender,100,,,I often think about my actions.,filler
2967.9,,,html-slider-response,479,3161559,0.0-24.0-1.0-0.3,98661,List2B,black,woman,,,,,,,,survey_gender,39,,,I feel a bond with my gender.,bond
6537,,,html-slider-response,480,3168099,0.0-24.0-1.0-0.4,98661,List2B,black,woman,,,,,,,,survey_gender,45,,,I am similar to the average person of my gender.,similar
5644.3,,,html-slider-response,481,3173746,0.0-24.0-1.0-0.5,98661,List2B,black,woman,,,,,,,,survey_gender,95,,,I would say I am an animal person.,filler
20663.6,,,html-slider-response,482,3194413,0.0-24.0-1.0-0.6,98661,List2B,black,woman,,,,,,,,survey_gender,96,,,Family is not more important to me than friendship.,filler
3349.7,,,html-slider-response,483,3197764,0.0-24.0-1.0-0.7,98661,List2B,black,woman,,,,,,,,survey_gender,71,,,My friends understand me.,filler
3913,,,html-slider-response,484,3201679,0.0-24.0-1.0-0.8,98661,List2B,black,woman,,,,,,,,survey_gender,100,,,I am glad to be my gender.,glad
4884.4,,,html-slider-response,485,3206566,0.0-24.0-1.0-0.9,98661,List2B,black,woman,,,,,,,,survey_gender,92,,,I think that my gender has a lot to be proud of.,proud
2075,,,html-slider-response,486,3208644,0.0-24.0-1.0-0.10,98661,List2B,black,woman,,,,,,,,survey_gender,98,,,I have a lot in common with the average person of my gender.,average
1230,,,html-slider-response,487,3209876,0.0-24.0-1.0-0.11,98661,List2B,black,woman,,,,,,,,survey_gender,90,,,I have a lot in common with my friends.,filler
1225.2,,,html-slider-response,488,3211103,0.0-24.0-1.0-0.12,98661,List2B,black,woman,,,,,,,,survey_gender,86,,,I feel a bond with my friends.,filler
2168.3,,,html-slider-response,489,3213273,0.0-24.0-1.0-0.13,98661,List2B,black,woman,,,,,,,,survey_gender,78,,,People of my gender are very similar to each other.,verysimilar
2379.3,,,html-slider-response,490,3215654,0.0-24.0-1.0-0.14,98661,List2B,black,woman,,,,,,,,survey_gender,74,,,My friends have a lot in common with each other.,filler
2328.2,,,html-slider-response,491,3217985,0.0-24.0-1.0-0.15,98661,List2B,black,woman,,,,,,,,survey_gender,74,,,Being my gender is an important part of how I see myself.,important
4683.5,,,html-slider-response,492,3222670,0.0-24.0-1.0-0.16,98661,List2B,black,woman,,,,,,,,survey_gender,52,,,I feel committed to my gender.,committed
2965,,,html-slider-response,493,3225638,0.0-24.0-1.0-0.17,98661,List2B,black,woman,,,,,,,,survey_gender,53,,,Being around my friends gives me a good feeling.,filler
1635.3,,,html-slider-response,494,3227276,0.0-24.0-1.0-0.18,98661,List2B,black,woman,,,,,,,,survey_gender,54,,,I am glad to have the friends that I have.,filler
1217.8,,,html-slider-response,495,3228495,0.0-24.0-1.0-0.19,98661,List2B,black,woman,,,,,,,,survey_gender,51,,,It is not always easy for people to know what I am thinking.,filler
1255,,,html-slider-response,496,3229752,0.0-24.0-1.0-0.20,98661,List2B,black,woman,,,,,,,,survey_gender,90,,,The fact that I am my gender is an important part of my identity.,identity
1147.9,,,html-slider-response,497,3230902,0.0-24.0-1.0-0.21,98661,List2B,black,woman,,,,,,,,survey_gender,30,,,People of my gender have a lot in common with each other.,common
1166.4,,,html-slider-response,498,3232072,0.0-24.0-1.0-0.22,98661,List2B,black,woman,,,,,,,,survey_gender,89,,,I feel solidarity with my gender.,solidarity
1363.6,,,html-slider-response,499,3233438,0.0-24.0-1.0-0.23,98661,List2B,black,woman,,,,,,,,survey_gender,83,,,I often think about the fact that I am my gender.,often
983,,,html-slider-response,500,3234423,0.0-24.0-1.0-0.24,98661,List2B,black,woman,,,,,,,,survey_gender,30,,,Routine is not important to me.,filler
774.2,,,html-slider-response,501,3235199,0.0-24.0-1.0-0.25,98661,List2B,black,woman,,,,,,,,survey_gender,85,,,Most of the friends in my life are very similar to me.,filler
2766.2,,,html-slider-response,502,3237967,0.0-24.0-1.0-0.26,98661,List2B,black,woman,,,,,,,,survey_gender,78,,,I feel solidarity with my friends.,filler
7669.6,,,html-slider-response,503,3245637,0.0-24.0-1.0-0.27,98661,List2B,black,woman,,,,,,,,survey_gender,80,,,Being my gender gives me a good feeling.,feeling
10075.1,,,survey-text,504,3255717,0.0-25.0,98661,List2B,black,woman,,,,,"{""Q0"":""ccc""}",,,worker_id,,,,,
20768.5,,,external-html,505,3277067,0.0-26.0,98661,List2B,black,woman,debrief.html,,,,,,,,,,,,
