"rt","stimulus","button_pressed","trial_type","trial_index","time_elapsed","internal_node_id","subject","list","ppt_race","ppt_gender","url","first_guess","correct","key_press","responses","image_type","phrase_type","test_part","response","stimulus1","stimulus2","question_type","survey_item"
"65764.59999999404","Welcome to the experiment. Press Continue to begin.","0","html-button-response","0","65767","0.0-0.0","99311","List2A","black","woman","","","","","","","","","","","","",""
"26180","","","external-html","1","93188","0.0-1.0","99311","List2A","black","woman","consent.html","","","","","","","","","","","",""
"86800.89999999106","<p>On the next page, you will see portraits of 8 people and their names.</p><p>Your first task is to take a few minutes to memorise the names of these people.</p><p>You will have to recall their names during the rest of the experiment, so it is</p><p>essential that you try to memorise these people and their names as best as you can.</p><br><p><strong>You will then be tested on your memory of these names and portraits.</strong></p><br><p>The experiment will start after you have completed this memory test.</p><br><p>Ready?</p>","0","html-button-response","2","179988","0.0-2.0","99311","List2A","black","woman","","","","","","","","","","","","",""
"20612.40000000596","<img src='img/portrait_matrix_list2.jpg' style='width:900px;height:500px;''></img><p>If you have memorised all the portraits and names and are ready to start, press Continue.</p><p><strong>Please note: Your memory of these faces will be tested 4 times during this experiment.</strong></p>","0","html-button-response","3","201603","0.0-3.0-0.0","99311","List2A","black","woman","","","","","","","","","","","","",""
"4620.70000000298","<img src=""portrait/BW1.jpg""style=""height:400px;""></img>","0","html-button-response","4","207228","0.0-3.0-1.0","99311","List2A","black","woman","","true","0","","","","","","","","","",""
"null","CORRECT","","html-keyboard-response","5","208738","0.0-3.0-2.0-0.0","99311","List2A","black","woman","","","","null","","","","","","","","",""
"5483.4000000059605","<img src=""portrait/WM2.jpg""style=""height:400px;""></img>","7","html-button-response","6","214225","0.0-3.0-4.0","99311","List2A","black","woman","","true","7","","","","","","","","","",""
"null","CORRECT","","html-keyboard-response","7","215736","0.0-3.0-5.0-0.0","99311","List2A","black","woman","","","","null","","","","","","","","",""
"2553.1000000089407","<img src=""portrait/BW2.jpg""style=""height:400px;""></img>","2","html-button-response","8","218291","0.0-3.0-7.0","99311","List2A","black","woman","","true","2","","","","","","","","","",""
"null","CORRECT","","html-keyboard-response","9","219798","0.0-3.0-8.0-0.0","99311","List2A","black","woman","","","","null","","","","","","","","",""
"3055.0999999940395","<img src=""portrait/BM2.jpg""style=""height:400px;""></img>","5","html-button-response","10","222855","0.0-3.0-10.0","99311","List2A","black","woman","","true","5","","","","","","","","","",""
"null","CORRECT","","html-keyboard-response","11","224358","0.0-3.0-11.0-0.0","99311","List2A","black","woman","","","","null","","","","","","","","",""
"5157.5","<img src=""portrait/BM1.jpg""style=""height:400px;""></img>","4","html-button-response","12","229518","0.0-3.0-13.0","99311","List2A","black","woman","","true","4","","","","","","","","","",""
"null","CORRECT","","html-keyboard-response","13","231021","0.0-3.0-14.0-0.0","99311","List2A","black","woman","","","","null","","","","","","","","",""
"4291.5","<img src=""portrait/WW2.jpg""style=""height:400px;""></img>","3","html-button-response","14","235314","0.0-3.0-16.0","99311","List2A","black","woman","","true","3","","","","","","","","","",""
"null","CORRECT","","html-keyboard-response","15","236819","0.0-3.0-17.0-0.0","99311","List2A","black","woman","","","","null","","","","","","","","",""
"4493.9000000059605","<img src=""portrait/WW1.jpg""style=""height:400px;""></img>","1","html-button-response","16","241315","0.0-3.0-19.0","99311","List2A","black","woman","","true","1","","","","","","","","","",""
"null","CORRECT","","html-keyboard-response","17","242819","0.0-3.0-20.0-0.0","99311","List2A","black","woman","","","","null","","","","","","","","",""
"2437.2999999970198","<img src=""portrait/WM1.jpg""style=""height:400px;""></img>","6","html-button-response","18","245258","0.0-3.0-22.0","99311","List2A","black","woman","","true","6","","","","","","","","","",""
"null","CORRECT","","html-keyboard-response","19","246762","0.0-3.0-23.0-0.0","99311","List2A","black","woman","","","","null","","","","","","","","",""
"1893.9000000059605","<p>You got 8 out of 8 right first time. Press Continue.</p>","0","html-button-response","20","248657","0.0-3.0-25.0","99311","List2A","black","woman","","","","","","","","","","","","",""
"34363.70000000298","<p>In this experiment, you will view photographs of the people from the memory game interacting.</p><p>By using the <strong>exact</strong> phrase given <i>after</i> the photograph appears and recalling the correct names of the people in the photographs, form a sentence describing the interaction. You do not need to capitalise names.</p><p>Type your answer in the space provided. Please complete every sentence before moving onto the next trial.</p><p>You will only have a few seconds to memorise each given photograph and phrase before you can respond, so try your best to focus.</p><p>An example is given below. Press 'Continue' when you are ready.</p><img src='img/speaking_example.jpg' style='width:800px;height:460px;''></img>","0","html-button-response","21","284025","0.0-4.0","99311","List2A","black","woman","","","","","","","","","","","","",""
"4976.5","<p>Before the experiment starts, you will watch two example trials. Press 'Continue'.</p>","0","html-button-response","22","290005","0.0-5.0","99311","List2A","black","woman","","","","","","","","","","","","",""
"null","<img src='img/play_eg.gif' style='height:400px;''></img>","","html-keyboard-response","23","293010","0.0-6.0","99311","List2A","black","woman","","","","null","","","","","","","","",""
"null","<p>is playing with</p>","","html-keyboard-response","24","295011","0.0-7.0","99311","List2A","black","woman","","","","null","","","","","","","","",""
"13047.10000000894","<p><b>Answer:</b> jane is playing with ruth</p>","0","html-button-response","25","308059","0.0-8.0","99311","List2A","black","woman","","","","","","","","","","","","",""
"null","<img src='img/dance_eg.gif' style='height:400px;''></img>","","html-keyboard-response","26","311064","0.0-9.0","99311","List2A","black","woman","","","","null","","","","","","","","",""
"null","<p>is being entertained by</p>","","html-keyboard-response","27","313068","0.0-10.0","99311","List2A","black","woman","","","","null","","","","","","","","",""
"5903.5999999940395","<p><b>Answer:</b> fred is being entertained by mike</p>","0","html-button-response","28","318974","0.0-11.0","99311","List2A","black","woman","","","","","","","","","","","","",""
"12377.699999988079","<p>Ready to start the experiment?</p><br><p><strong>Remember to describe the picture using a full sentence,</strong></p><p><strong>that combines the names of the people with the <i>exact</i> phrase given.</strong></p><p><strong>To receive full payment you must do this correctly.</strong></p><p><strong> You do not need to capitalise names or use punctuation.</strong></p><br><p>Press 'Continue' to begin.</p>","0","html-button-response","29","332356","0.0-12.0","99311","List2A","black","woman","","","","","","","","","","","","",""
"null","<div style=""font-size:60px;"">+</div>","","html-keyboard-response","30","333860","0.0-13.0-0.0","99311","List2A","black","woman","","","","null","","","","","","","","",""
"null","<img src=""stim_listA/hug1.gif""style=""height:400px;""></stim_listA>","","html-keyboard-response","31","335867","0.0-13.0-1.0","99311","List2A","black","woman","","","","null","","","","","","","","",""
"null","is hugging","","html-keyboard-response","32","337871","0.0-13.0-2.0","99311","List2A","black","woman","","","","null","","","","","","","","",""
"31711.19999998808","","","survey-text","33","369588","0.0-13.0-3.0","99311","List2A","black","woman","","","","","{""Q0"":""luke is hugging ruth""}","<img src=""stim_listA/hug1.gif""style=""height:400px;""></stim_listA>","is hugging","","","","","",""
"null","<div style=""font-size:60px;"">+</div>","","html-keyboard-response","34","370091","0.0-13.0-0.1","99311","List2A","black","woman","","","","null","","","","","","","","",""
"null","<img src=""stim_listA/greet5.gif""style=""height:400px;""></stim_listA>","","html-keyboard-response","35","372096","0.0-13.0-1.1","99311","List2A","black","woman","","","","null","","","","","","","","",""
"null","is greeting","","html-keyboard-response","36","374099","0.0-13.0-2.1","99311","List2A","black","woman","","","","null","","","","","","","","",""
"31151.30000001192","","","survey-text","37","405253","0.0-13.0-3.1","99311","List2A","black","woman","","","","","{""Q0"":""dave is greeting fred""}","<img src=""stim_listA/greet5.gif""style=""height:400px;""></stim_listA>","is greeting","","","","","",""
"null","<div style=""font-size:60px;"">+</div>","","html-keyboard-response","38","405757","0.0-13.0-0.2","99311","List2A","black","woman","","","","null","","","","","","","","",""
"null","<img src=""stim_listA/hug7.gif""style=""height:400px;""></stim_listA>","","html-keyboard-response","39","407760","0.0-13.0-1.2","99311","List2A","black","woman","","","","null","","","","","","","","",""
"null","is hugging","","html-keyboard-response","40","409762","0.0-13.0-2.2","99311","List2A","black","woman","","","","null","","","","","","","","",""
"35925.79999999702","","","survey-text","41","445690","0.0-13.0-3.2","99311","List2A","black","woman","","","","","{""Q0"":""beth is hugging ruth""}","<img src=""stim_listA/hug7.gif""style=""height:400px;""></stim_listA>","is hugging","","","","","",""
"null","<div style=""font-size:60px;"">+</div>","","html-keyboard-response","42","446193","0.0-13.0-0.3","99311","List2A","black","woman","","","","null","","","","","","","","",""
"null","<img src=""stim_listA/hug6.gif""style=""height:400px;""></stim_listA>","","html-keyboard-response","43","448200","0.0-13.0-1.3","99311","List2A","black","woman","","","","null","","","","","","","","",""
"null","is being hugged by","","html-keyboard-response","44","450204","0.0-13.0-2.3","99311","List2A","black","woman","","","","null","","","","","","","","",""
"46038.59999999404","","","survey-text","45","496246","0.0-13.0-3.3","99311","List2A","black","woman","","","","","{""Q0"":""mike is being hugged by dave""}","<img src=""stim_listA/hug6.gif""style=""height:400px;""></stim_listA>","is being hugged by","","","","","",""
"null","<div style=""font-size:60px;"">+</div>","","html-keyboard-response","46","496749","0.0-13.0-0.4","99311","List2A","black","woman","","","","null","","","","","","","","",""
"null","<img src=""stim_listA/kiss4.gif""style=""height:400px;""></stim_listA>","","html-keyboard-response","47","498753","0.0-13.0-1.4","99311","List2A","black","woman","","","","null","","","","","","","","",""
"null","is being kissed by","","html-keyboard-response","48","500756","0.0-13.0-2.4","99311","List2A","black","woman","","","","null","","","","","","","","",""
"32443.90000000596","","","survey-text","49","533202","0.0-13.0-3.4","99311","List2A","black","woman","","","","","{""Q0"":""kate is being kissed by mike""}","<img src=""stim_listA/kiss4.gif""style=""height:400px;""></stim_listA>","is being kissed by","","","","","",""
"null","<div style=""font-size:60px;"">+</div>","","html-keyboard-response","50","533705","0.0-13.0-0.5","99311","List2A","black","woman","","","","null","","","","","","","","",""
"null","<img src=""stim_listA/copy5.gif""style=""height:400px;""></stim_listA>","","html-keyboard-response","51","535708","0.0-13.0-1.5","99311","List2A","black","woman","","","","null","","","","","","","","",""
"null","is copying","","html-keyboard-response","52","537709","0.0-13.0-2.5","99311","List2A","black","woman","","","","null","","","","","","","","",""
"17998.59999999404","","","survey-text","53","555710","0.0-13.0-3.5","99311","List2A","black","woman","","","","","{""Q0"":""dave is copying fred""}","<img src=""stim_listA/copy5.gif""style=""height:400px;""></stim_listA>","is copying","","","","","",""
"null","<div style=""font-size:60px;"">+</div>","","html-keyboard-response","54","556212","0.0-13.0-0.6","99311","List2A","black","woman","","","","null","","","","","","","","",""
"null","<img src=""stim_listA/touch3.gif""style=""height:400px;""></stim_listA>","","html-keyboard-response","55","558214","0.0-13.0-1.6","99311","List2A","black","woman","","","","null","","","","","","","","",""
"null","is touching","","html-keyboard-response","56","560216","0.0-13.0-2.6","99311","List2A","black","woman","","","","null","","","","","","","","",""
"23287.59999999404","","","survey-text","57","583508","0.0-13.0-3.6","99311","List2A","black","woman","","","","","{""Q0"":""mike is touching kate""}","<img src=""stim_listA/touch3.gif""style=""height:400px;""></stim_listA>","is touching","","","","","",""
"null","<div style=""font-size:60px;"">+</div>","","html-keyboard-response","58","584010","0.0-13.0-0.7","99311","List2A","black","woman","","","","null","","","","","","","","",""
"null","<img src=""stim_listA/seduce4.gif""style=""height:400px;""></stim_listA>","","html-keyboard-response","59","586015","0.0-13.0-1.7","99311","List2A","black","woman","","","","null","","","","","","","","",""
"null","is being seduced by","","html-keyboard-response","60","588017","0.0-13.0-2.7","99311","List2A","black","woman","","","","null","","","","","","","","",""
"32331.29999999702","","","survey-text","61","620352","0.0-13.0-3.7","99311","List2A","black","woman","","","","","{""Q0"":""beth is being seduced by mike""}","<img src=""stim_listA/seduce4.gif""style=""height:400px;""></stim_listA>","is being seduced by","","","","","",""
"null","<div style=""font-size:60px;"">+</div>","","html-keyboard-response","62","620854","0.0-13.0-0.8","99311","List2A","black","woman","","","","null","","","","","","","","",""
"null","<img src=""stim_listA/greet1.gif""style=""height:400px;""></stim_listA>","","html-keyboard-response","63","622857","0.0-13.0-1.8","99311","List2A","black","woman","","","","null","","","","","","","","",""
"null","is greeting","","html-keyboard-response","64","624859","0.0-13.0-2.8","99311","List2A","black","woman","","","","null","","","","","","","","",""
"22569.79999999702","","","survey-text","65","647432","0.0-13.0-3.8","99311","List2A","black","woman","","","","","{""Q0"":""dave is greeting ruth""}","<img src=""stim_listA/greet1.gif""style=""height:400px;""></stim_listA>","is greeting","","","","","",""
"null","<div style=""font-size:60px;"">+</div>","","html-keyboard-response","66","647934","0.0-13.0-0.9","99311","List2A","black","woman","","","","null","","","","","","","","",""
"null","<img src=""stim_listA/challenge1.gif""style=""height:400px;""></stim_listA>","","html-keyboard-response","67","649937","0.0-13.0-1.9","99311","List2A","black","woman","","","","null","","","","","","","","",""
"null","is challenging","","html-keyboard-response","68","651942","0.0-13.0-2.9","99311","List2A","black","woman","","","","null","","","","","","","","",""
"38774.19999998808","","","survey-text","69","690718","0.0-13.0-3.9","99311","List2A","black","woman","","","","","{""Q0"":""dave is challenging ruth""}","<img src=""stim_listA/challenge1.gif""style=""height:400px;""></stim_listA>","is challenging","","","","","",""
"null","<div style=""font-size:60px;"">+</div>","","html-keyboard-response","70","691221","0.0-13.0-0.10","99311","List2A","black","woman","","","","null","","","","","","","","",""
"null","<img src=""stim_listA/greet8.gif""style=""height:400px;""></stim_listA>","","html-keyboard-response","71","693226","0.0-13.0-1.10","99311","List2A","black","woman","","","","null","","","","","","","","",""
"null","is being greeted by","","html-keyboard-response","72","695230","0.0-13.0-2.10","99311","List2A","black","woman","","","","null","","","","","","","","",""
"31304.59999999404","","","survey-text","73","726537","0.0-13.0-3.10","99311","List2A","black","woman","","","","","{""Q0"":""kate is being greeted by ruth""}","<img src=""stim_listA/greet8.gif""style=""height:400px;""></stim_listA>","is being greeted by","","","","","",""
"null","<div style=""font-size:60px;"">+</div>","","html-keyboard-response","74","727039","0.0-13.0-0.11","99311","List2A","black","woman","","","","null","","","","","","","","",""
"null","<img src=""stim_listA/seduce7.gif""style=""height:400px;""></stim_listA>","","html-keyboard-response","75","729045","0.0-13.0-1.11","99311","List2A","black","woman","","","","null","","","","","","","","",""
"null","is seducing","","html-keyboard-response","76","731050","0.0-13.0-2.11","99311","List2A","black","woman","","","","null","","","","","","","","",""
"34376.09999999404","","","survey-text","77","765428","0.0-13.0-3.11","99311","List2A","black","woman","","","","","{""Q0"":""ruth is seducing kate""}","<img src=""stim_listA/seduce7.gif""style=""height:400px;""></stim_listA>","is seducing","","","","","",""
"null","<div style=""font-size:60px;"">+</div>","","html-keyboard-response","78","765931","0.0-13.0-0.12","99311","List2A","black","woman","","","","null","","","","","","","","",""
"null","<img src=""stim_listA/copy3.gif""style=""height:400px;""></stim_listA>","","html-keyboard-response","79","767934","0.0-13.0-1.12","99311","List2A","black","woman","","","","null","","","","","","","","",""
"null","is copying","","html-keyboard-response","80","769935","0.0-13.0-2.12","99311","List2A","black","woman","","","","null","","","","","","","","",""
"112679.70000000298","","","survey-text","81","882614","0.0-13.0-3.12","99311","List2A","black","woman","","","","","{""Q0"":""mike is copying beth""}","<img src=""stim_listA/copy3.gif""style=""height:400px;""></stim_listA>","is copying","","","","","",""
"null","<div style=""font-size:60px;"">+</div>","","html-keyboard-response","82","883116","0.0-13.0-0.13","99311","List2A","black","woman","","","","null","","","","","","","","",""
"null","<img src=""stim_listA/touch8.gif""style=""height:400px;""></stim_listA>","","html-keyboard-response","83","885119","0.0-13.0-1.13","99311","List2A","black","woman","","","","null","","","","","","","","",""
"null","is being touched by","","html-keyboard-response","84","887123","0.0-13.0-2.13","99311","List2A","black","woman","","","","null","","","","","","","","",""
"51831.39999999106","","","survey-text","85","938957","0.0-13.0-3.13","99311","List2A","black","woman","","","","","{""Q0"":""kate is being touched by jane""}","<img src=""stim_listA/touch8.gif""style=""height:400px;""></stim_listA>","is being touched by","","","","","",""
"null","<div style=""font-size:60px;"">+</div>","","html-keyboard-response","86","939460","0.0-13.0-0.14","99311","List2A","black","woman","","","","null","","","","","","","","",""
"null","<img src=""stim_listA/challenge5.gif""style=""height:400px;""></stim_listA>","","html-keyboard-response","87","941463","0.0-13.0-1.14","99311","List2A","black","woman","","","","null","","","","","","","","",""
"null","is challenging","","html-keyboard-response","88","943467","0.0-13.0-2.14","99311","List2A","black","woman","","","","null","","","","","","","","",""
"38329.59999999404","","","survey-text","89","981799","0.0-13.0-3.14","99311","List2A","black","woman","","","","","{""Q0"":""dave is challenging fred ""}","<img src=""stim_listA/challenge5.gif""style=""height:400px;""></stim_listA>","is challenging","","","","","",""
"null","<div style=""font-size:60px;"">+</div>","","html-keyboard-response","90","982302","0.0-13.0-0.15","99311","List2A","black","woman","","","","null","","","","","","","","",""
"null","<img src=""stim_listA/copy8.gif""style=""height:400px;""></stim_listA>","","html-keyboard-response","91","984306","0.0-13.0-1.15","99311","List2A","black","woman","","","","null","","","","","","","","",""
"null","is being copied by","","html-keyboard-response","92","986308","0.0-13.0-2.15","99311","List2A","black","woman","","","","null","","","","","","","","",""
"38662.19999998808","","","survey-text","93","1024973","0.0-13.0-3.15","99311","List2A","black","woman","","","","","{""Q0"":""kate is being copied by ruth""}","<img src=""stim_listA/copy8.gif""style=""height:400px;""></stim_listA>","is being copied by","","","","","",""
"null","<div style=""font-size:60px;"">+</div>","","html-keyboard-response","94","1025478","0.0-13.0-0.16","99311","List2A","black","woman","","","","null","","","","","","","","",""
"null","<img src=""stim_listA/look5.gif""style=""height:400px;""></stim_listA>","","html-keyboard-response","95","1027482","0.0-13.0-1.16","99311","List2A","black","woman","","","","null","","","","","","","","",""
"null","is looking at","","html-keyboard-response","96","1029485","0.0-13.0-2.16","99311","List2A","black","woman","","","","null","","","","","","","","",""
"27441.10000000894","","","survey-text","97","1056929","0.0-13.0-3.16","99311","List2A","black","woman","","","","","{""Q0"":""fred is looking at luke""}","<img src=""stim_listA/look5.gif""style=""height:400px;""></stim_listA>","is looking at","","","","","",""
"null","<div style=""font-size:60px;"">+</div>","","html-keyboard-response","98","1057431","0.0-13.0-0.17","99311","List2A","black","woman","","","","null","","","","","","","","",""
"null","<img src=""stim_listA/copy1.gif""style=""height:400px;""></stim_listA>","","html-keyboard-response","99","1059438","0.0-13.0-1.17","99311","List2A","black","woman","","","","null","","","","","","","","",""
"null","is copying","","html-keyboard-response","100","1061440","0.0-13.0-2.17","99311","List2A","black","woman","","","","null","","","","","","","","",""
"13824.10000000894","","","survey-text","101","1075268","0.0-13.0-3.17","99311","List2A","black","woman","","","","","{""Q0"":""dave is copying ruth""}","<img src=""stim_listA/copy1.gif""style=""height:400px;""></stim_listA>","is copying","","","","","",""
"null","<div style=""font-size:60px;"">+</div>","","html-keyboard-response","102","1075771","0.0-13.0-0.18","99311","List2A","black","woman","","","","null","","","","","","","","",""
"null","<img src=""stim_listA/touch2.gif""style=""height:400px;""></stim_listA>","","html-keyboard-response","103","1077775","0.0-13.0-1.18","99311","List2A","black","woman","","","","null","","","","","","","","",""
"null","is being touched by","","html-keyboard-response","104","1079778","0.0-13.0-2.18","99311","List2A","black","woman","","","","null","","","","","","","","",""
"17927.5","","","survey-text","105","1097709","0.0-13.0-3.18","99311","List2A","black","woman","","","","","{""Q0"":""luke is being touched by ruth""}","<img src=""stim_listA/touch2.gif""style=""height:400px;""></stim_listA>","is being touched by","","","","","",""
"null","<div style=""font-size:60px;"">+</div>","","html-keyboard-response","106","1098212","0.0-13.0-0.19","99311","List2A","black","woman","","","","null","","","","","","","","",""
"null","<img src=""stim_listA/shout7.gif""style=""height:400px;""></stim_listA>","","html-keyboard-response","107","1100216","0.0-13.0-1.19","99311","List2A","black","woman","","","","null","","","","","","","","",""
"null","is shouting at","","html-keyboard-response","108","1102218","0.0-13.0-2.19","99311","List2A","black","woman","","","","null","","","","","","","","",""
"27895.89999999106","","","survey-text","109","1130116","0.0-13.0-3.19","99311","List2A","black","woman","","","","","{""Q0"":""ruth is shouting at beth""}","<img src=""stim_listA/shout7.gif""style=""height:400px;""></stim_listA>","is shouting at","","","","","",""
"16351.59999999404","<img src='img/portrait_matrix_list2.jpg' style='width:900px;height:500px;''></img><p>If you have memorised all the portraits and names and are ready to start, press Continue.</p><p><strong>Please note: Your memory of these faces will be tested 4 times during this experiment.</strong></p>","0","html-button-response","110","1146469","0.0-14.0-0.0","99311","List2A","black","woman","","","","","","","","","","","","",""
"4766.5","<img src=""portrait/BW2.jpg""style=""height:400px;""></img>","2","html-button-response","111","1152240","0.0-14.0-1.0","99311","List2A","black","woman","","true","2","","","","","","","","","",""
"null","CORRECT","","html-keyboard-response","112","1153745","0.0-14.0-2.0-0.0","99311","List2A","black","woman","","","","null","","","","","","","","",""
"3501.2000000029802","<img src=""portrait/WM2.jpg""style=""height:400px;""></img>","7","html-button-response","113","1157248","0.0-14.0-4.0","99311","List2A","black","woman","","true","7","","","","","","","","","",""
"null","CORRECT","","html-keyboard-response","114","1158753","0.0-14.0-5.0-0.0","99311","List2A","black","woman","","","","null","","","","","","","","",""
"1674.5","<img src=""portrait/BM2.jpg""style=""height:400px;""></img>","5","html-button-response","115","1160430","0.0-14.0-7.0","99311","List2A","black","woman","","true","5","","","","","","","","","",""
"null","CORRECT","","html-keyboard-response","116","1161935","0.0-14.0-8.0-0.0","99311","List2A","black","woman","","","","null","","","","","","","","",""
"1922.9000000059605","<img src=""portrait/WM1.jpg""style=""height:400px;""></img>","6","html-button-response","117","1163861","0.0-14.0-10.0","99311","List2A","black","woman","","true","6","","","","","","","","","",""
"null","CORRECT","","html-keyboard-response","118","1165370","0.0-14.0-11.0-0.0","99311","List2A","black","woman","","","","null","","","","","","","","",""
"1975","<img src=""portrait/WW1.jpg""style=""height:400px;""></img>","1","html-button-response","119","1167348","0.0-14.0-13.0","99311","List2A","black","woman","","true","1","","","","","","","","","",""
"null","CORRECT","","html-keyboard-response","120","1168851","0.0-14.0-14.0-0.0","99311","List2A","black","woman","","","","null","","","","","","","","",""
"1634.2000000029802","<img src=""portrait/BW1.jpg""style=""height:400px;""></img>","0","html-button-response","121","1170488","0.0-14.0-16.0","99311","List2A","black","woman","","true","0","","","","","","","","","",""
"null","CORRECT","","html-keyboard-response","122","1171991","0.0-14.0-17.0-0.0","99311","List2A","black","woman","","","","null","","","","","","","","",""
"1744.800000011921","<img src=""portrait/BM1.jpg""style=""height:400px;""></img>","4","html-button-response","123","1173738","0.0-14.0-19.0","99311","List2A","black","woman","","true","4","","","","","","","","","",""
"null","CORRECT","","html-keyboard-response","124","1175244","0.0-14.0-20.0-0.0","99311","List2A","black","woman","","","","null","","","","","","","","",""
"6311.79999999702","<img src=""portrait/WW2.jpg""style=""height:400px;""></img>","3","html-button-response","125","1181558","0.0-14.0-22.0","99311","List2A","black","woman","","true","3","","","","","","","","","",""
"null","CORRECT","","html-keyboard-response","126","1183065","0.0-14.0-23.0-0.0","99311","List2A","black","woman","","","","null","","","","","","","","",""
"2373","<p>You got 8 out of 8 right first time. Press Continue.</p>","0","html-button-response","127","1185441","0.0-14.0-25.0","99311","List2A","black","woman","","","","","","","","","","","","",""
"null","<div style=""font-size:60px;"">+</div>","","html-keyboard-response","128","1186946","0.0-15.0-0.0","99311","List2A","black","woman","","","","null","","","","","","","","",""
"null","<img src=""stim_listA/look3.gif""style=""height:400px;""></stim_listA>","","html-keyboard-response","129","1188951","0.0-15.0-1.0","99311","List2A","black","woman","","","","null","","","","","","","","",""
"null","is looking at","","html-keyboard-response","130","1190952","0.0-15.0-2.0","99311","List2A","black","woman","","","","null","","","","","","","","",""
"20659.79999999702","","","survey-text","131","1211616","0.0-15.0-3.0","99311","List2A","black","woman","","","","","{""Q0"":""fred is looking at beth""}","<img src=""stim_listA/look3.gif""style=""height:400px;""></stim_listA>","is looking at","","","","","",""
"null","<div style=""font-size:60px;"">+</div>","","html-keyboard-response","132","1212118","0.0-15.0-0.1","99311","List2A","black","woman","","","","null","","","","","","","","",""
"null","<img src=""stim_listA/seduce6.gif""style=""height:400px;""></stim_listA>","","html-keyboard-response","133","1214122","0.0-15.0-1.1","99311","List2A","black","woman","","","","null","","","","","","","","",""
"null","is being seduced by","","html-keyboard-response","134","1216123","0.0-15.0-2.1","99311","List2A","black","woman","","","","null","","","","","","","","",""
"25534.80000001192","","","survey-text","135","1241661","0.0-15.0-3.1","99311","List2A","black","woman","","","","","{""Q0"":""fred is being seduced by dave""}","<img src=""stim_listA/seduce6.gif""style=""height:400px;""></stim_listA>","is being seduced by","","","","","",""
"null","<div style=""font-size:60px;"">+</div>","","html-keyboard-response","136","1242164","0.0-15.0-0.2","99311","List2A","black","woman","","","","null","","","","","","","","",""
"null","<img src=""stim_listA/copy6.gif""style=""height:400px;""></stim_listA>","","html-keyboard-response","137","1244167","0.0-15.0-1.2","99311","List2A","black","woman","","","","null","","","","","","","","",""
"null","is being copied by","","html-keyboard-response","138","1246168","0.0-15.0-2.2","99311","List2A","black","woman","","","","null","","","","","","","","",""
"24022.90000000596","","","survey-text","139","1270194","0.0-15.0-3.2","99311","List2A","black","woman","","","","","{""Q0"":""mike is being copied by luke""}","<img src=""stim_listA/copy6.gif""style=""height:400px;""></stim_listA>","is being copied by","","","","","",""
"null","<div style=""font-size:60px;"">+</div>","","html-keyboard-response","140","1270697","0.0-15.0-0.3","99311","List2A","black","woman","","","","null","","","","","","","","",""
"null","<img src=""stim_listA/hug4.gif""style=""height:400px;""></stim_listA>","","html-keyboard-response","141","1272702","0.0-15.0-1.3","99311","List2A","black","woman","","","","null","","","","","","","","",""
"null","is being hugged by","","html-keyboard-response","142","1274705","0.0-15.0-2.3","99311","List2A","black","woman","","","","null","","","","","","","","",""
"19844.29999999702","","","survey-text","143","1294553","0.0-15.0-3.3","99311","List2A","black","woman","","","","","{""Q0"":""kate is being hugged by mike""}","<img src=""stim_listA/hug4.gif""style=""height:400px;""></stim_listA>","is being hugged by","","","","","",""
"null","<div style=""font-size:60px;"">+</div>","","html-keyboard-response","144","1295055","0.0-15.0-0.4","99311","List2A","black","woman","","","","null","","","","","","","","",""
"null","<img src=""stim_listA/look4.gif""style=""height:400px;""></stim_listA>","","html-keyboard-response","145","1297058","0.0-15.0-1.4","99311","List2A","black","woman","","","","null","","","","","","","","",""
"null","is being looked at by","","html-keyboard-response","146","1299062","0.0-15.0-2.4","99311","List2A","black","woman","","","","null","","","","","","","","",""
"14384.20000000298","","","survey-text","147","1313450","0.0-15.0-3.4","99311","List2A","black","woman","","","","","{""Q0"":""kate is being looked at by mike""}","<img src=""stim_listA/look4.gif""style=""height:400px;""></stim_listA>","is being looked at by","","","","","",""
"null","<div style=""font-size:60px;"">+</div>","","html-keyboard-response","148","1313954","0.0-15.0-0.5","99311","List2A","black","woman","","","","null","","","","","","","","",""
"null","<img src=""stim_listA/greet7.gif""style=""height:400px;""></stim_listA>","","html-keyboard-response","149","1315957","0.0-15.0-1.5","99311","List2A","black","woman","","","","null","","","","","","","","",""
"null","is greeting","","html-keyboard-response","150","1317959","0.0-15.0-2.5","99311","List2A","black","woman","","","","null","","","","","","","","",""
"10811.59999999404","","","survey-text","151","1328775","0.0-15.0-3.5","99311","List2A","black","woman","","","","","{""Q0"":""jane is greeting beth""}","<img src=""stim_listA/greet7.gif""style=""height:400px;""></stim_listA>","is greeting","","","","","",""
"null","<div style=""font-size:60px;"">+</div>","","html-keyboard-response","152","1329276","0.0-15.0-0.6","99311","List2A","black","woman","","","","null","","","","","","","","",""
"null","<img src=""stim_listA/look6.gif""style=""height:400px;""></stim_listA>","","html-keyboard-response","153","1331281","0.0-15.0-1.6","99311","List2A","black","woman","","","","null","","","","","","","","",""
"null","is being looked at by","","html-keyboard-response","154","1333283","0.0-15.0-2.6","99311","List2A","black","woman","","","","null","","","","","","","","",""
"258952.60000000894","","","survey-text","155","1592227","0.0-15.0-3.6","99311","List2A","black","woman","","","","","{""Q0"":""mike is being looked at by dave""}","<img src=""stim_listA/look6.gif""style=""height:400px;""></stim_listA>","is being looked at by","","","","","",""
"null","<div style=""font-size:60px;"">+</div>","","html-keyboard-response","156","1592729","0.0-15.0-0.7","99311","List2A","black","woman","","","","null","","","","","","","","",""
"null","<img src=""stim_listA/oppose5.gif""style=""height:400px;""></stim_listA>","","html-keyboard-response","157","1594732","0.0-15.0-1.7","99311","List2A","black","woman","","","","null","","","","","","","","",""
"null","is opposing","","html-keyboard-response","158","1596734","0.0-15.0-2.7","99311","List2A","black","woman","","","","null","","","","","","","","",""
"23257","","","survey-text","159","1619994","0.0-15.0-3.7","99311","List2A","black","woman","","","","","{""Q0"":""mike is opposing dave""}","<img src=""stim_listA/oppose5.gif""style=""height:400px;""></stim_listA>","is opposing","","","","","",""
"null","<div style=""font-size:60px;"">+</div>","","html-keyboard-response","160","1620495","0.0-15.0-0.8","99311","List2A","black","woman","","","","null","","","","","","","","",""
"null","<img src=""stim_listA/hug2.gif""style=""height:400px;""></stim_listA>","","html-keyboard-response","161","1622502","0.0-15.0-1.8","99311","List2A","black","woman","","","","null","","","","","","","","",""
"null","is being hugged by","","html-keyboard-response","162","1624503","0.0-15.0-2.8","99311","List2A","black","woman","","","","null","","","","","","","","",""
"20609.90000000596","","","survey-text","163","1645116","0.0-15.0-3.8","99311","List2A","black","woman","","","","","{""Q0"":""jane is being hugged by dave""}","<img src=""stim_listA/hug2.gif""style=""height:400px;""></stim_listA>","is being hugged by","","","","","",""
"null","<div style=""font-size:60px;"">+</div>","","html-keyboard-response","164","1645619","0.0-15.0-0.9","99311","List2A","black","woman","","","","null","","","","","","","","",""
"null","<img src=""stim_listA/touch4.gif""style=""height:400px;""></stim_listA>","","html-keyboard-response","165","1647625","0.0-15.0-1.9","99311","List2A","black","woman","","","","null","","","","","","","","",""
"null","is being touched by","","html-keyboard-response","166","1649627","0.0-15.0-2.9","99311","List2A","black","woman","","","","null","","","","","","","","",""
"32348.10000000894","","","survey-text","167","1681977","0.0-15.0-3.9","99311","List2A","black","woman","","","","","{""Q0"":""beth is being touched by fred""}","<img src=""stim_listA/touch4.gif""style=""height:400px;""></stim_listA>","is being touched by","","","","","",""
"null","<div style=""font-size:60px;"">+</div>","","html-keyboard-response","168","1682479","0.0-15.0-0.10","99311","List2A","black","woman","","","","null","","","","","","","","",""
"null","<img src=""stim_listA/greet2.gif""style=""height:400px;""></stim_listA>","","html-keyboard-response","169","1684486","0.0-15.0-1.10","99311","List2A","black","woman","","","","null","","","","","","","","",""
"null","is being greeted by","","html-keyboard-response","170","1686488","0.0-15.0-2.10","99311","List2A","black","woman","","","","null","","","","","","","","",""
"25550.29999999702","","","survey-text","171","1712041","0.0-15.0-3.10","99311","List2A","black","woman","","","","","{""Q0"":""jane is being greeted by luke""}","<img src=""stim_listA/greet2.gif""style=""height:400px;""></stim_listA>","is being greeted by","","","","","",""
"null","<div style=""font-size:60px;"">+</div>","","html-keyboard-response","172","1712543","0.0-15.0-0.11","99311","List2A","black","woman","","","","null","","","","","","","","",""
"null","<img src=""stim_listA/greet6.gif""style=""height:400px;""></stim_listA>","","html-keyboard-response","173","1714547","0.0-15.0-1.11","99311","List2A","black","woman","","","","null","","","","","","","","",""
"null","is being greeted by","","html-keyboard-response","174","1716549","0.0-15.0-2.11","99311","List2A","black","woman","","","","null","","","","","","","","",""
"107214.90000000596","","","survey-text","175","1823764","0.0-15.0-3.11","99311","List2A","black","woman","","","","","{""Q0"":""mike is being greeted by luke""}","<img src=""stim_listA/greet6.gif""style=""height:400px;""></stim_listA>","is being greeted by","","","","","",""
"null","<div style=""font-size:60px;"">+</div>","","html-keyboard-response","176","1824266","0.0-15.0-0.12","99311","List2A","black","woman","","","","null","","","","","","","","",""
"null","<img src=""stim_listA/oppose7.gif""style=""height:400px;""></stim_listA>","","html-keyboard-response","177","1826269","0.0-15.0-1.12","99311","List2A","black","woman","","","","null","","","","","","","","",""
"null","is opposing","","html-keyboard-response","178","1828271","0.0-15.0-2.12","99311","List2A","black","woman","","","","null","","","","","","","","",""
"225167.5","","","survey-text","179","2053528","0.0-15.0-3.12","99311","List2A","black","woman","","","","","{""Q0"":""jane is opposing kate""}","<img src=""stim_listA/oppose7.gif""style=""height:400px;""></stim_listA>","is opposing","","","","","",""
"null","<div style=""font-size:60px;"">+</div>","","html-keyboard-response","180","2054031","0.0-15.0-0.13","99311","List2A","black","woman","","","","null","","","","","","","","",""
"null","<img src=""stim_listA/oppose1.gif""style=""height:400px;""></stim_listA>","","html-keyboard-response","181","2056037","0.0-15.0-1.13","99311","List2A","black","woman","","","","null","","","","","","","","",""
"null","is opposing","","html-keyboard-response","182","2058039","0.0-15.0-2.13","99311","List2A","black","woman","","","","null","","","","","","","","",""
"21445.59999999404","","","survey-text","183","2079488","0.0-15.0-3.13","99311","List2A","black","woman","","","","","{""Q0"":""dave is opposing jane""}","<img src=""stim_listA/oppose1.gif""style=""height:400px;""></stim_listA>","is opposing","","","","","",""
"null","<div style=""font-size:60px;"">+</div>","","html-keyboard-response","184","2079991","0.0-15.0-0.14","99311","List2A","black","woman","","","","null","","","","","","","","",""
"null","<img src=""stim_listA/touch6.gif""style=""height:400px;""></stim_listA>","","html-keyboard-response","185","2081995","0.0-15.0-1.14","99311","List2A","black","woman","","","","null","","","","","","","","",""
"null","is being touched by","","html-keyboard-response","186","2083997","0.0-15.0-2.14","99311","List2A","black","woman","","","","null","","","","","","","","",""
"24741.79999999702","","","survey-text","187","2108742","0.0-15.0-3.14","99311","List2A","black","woman","","","","","{""Q0"":""fred is being touched by luke""}","<img src=""stim_listA/touch6.gif""style=""height:400px;""></stim_listA>","is being touched by","","","","","",""
"null","<div style=""font-size:60px;"">+</div>","","html-keyboard-response","188","2109245","0.0-15.0-0.15","99311","List2A","black","woman","","","","null","","","","","","","","",""
"null","<img src=""stim_listA/seduce8.gif""style=""height:400px;""></stim_listA>","","html-keyboard-response","189","2111248","0.0-15.0-1.15","99311","List2A","black","woman","","","","null","","","","","","","","",""
"null","is being seduced by","","html-keyboard-response","190","2113251","0.0-15.0-2.15","99311","List2A","black","woman","","","","null","","","","","","","","",""
"272981.59999999404","","","survey-text","191","2386228","0.0-15.0-3.15","99311","List2A","black","woman","","","","","{""Q0"":""jane is being seduced by beth""}","<img src=""stim_listA/seduce8.gif""style=""height:400px;""></stim_listA>","is being seduced by","","","","","",""
"null","<div style=""font-size:60px;"">+</div>","","html-keyboard-response","192","2386732","0.0-15.0-0.16","99311","List2A","black","woman","","","","null","","","","","","","","",""
"null","<img src=""stim_listA/challenge7.gif""style=""height:400px;""></stim_listA>","","html-keyboard-response","193","2388736","0.0-15.0-1.16","99311","List2A","black","woman","","","","null","","","","","","","","",""
"null","is challenging","","html-keyboard-response","194","2390739","0.0-15.0-2.16","99311","List2A","black","woman","","","","null","","","","","","","","",""
"25350.59999999404","","","survey-text","195","2416093","0.0-15.0-3.16","99311","List2A","black","woman","","","","","{""Q0"":""jane is challenging beth""}","<img src=""stim_listA/challenge7.gif""style=""height:400px;""></stim_listA>","is challenging","","","","","",""
"null","<div style=""font-size:60px;"">+</div>","","html-keyboard-response","196","2416597","0.0-15.0-0.17","99311","List2A","black","woman","","","","null","","","","","","","","",""
"null","<img src=""stim_listA/seduce3.gif""style=""height:400px;""></stim_listA>","","html-keyboard-response","197","2418602","0.0-15.0-1.17","99311","List2A","black","woman","","","","null","","","","","","","","",""
"null","is seducing","","html-keyboard-response","198","2420606","0.0-15.0-2.17","99311","List2A","black","woman","","","","null","","","","","","","","",""
"26502.89999999106","","","survey-text","199","2447112","0.0-15.0-3.17","99311","List2A","black","woman","","","","","{""Q0"":""fred is seducing kate""}","<img src=""stim_listA/seduce3.gif""style=""height:400px;""></stim_listA>","is seducing","","","","","",""
"null","<div style=""font-size:60px;"">+</div>","","html-keyboard-response","200","2447614","0.0-15.0-0.18","99311","List2A","black","woman","","","","null","","","","","","","","",""
"null","<img src=""stim_listA/kiss3.gif""style=""height:400px;""></stim_listA>","","html-keyboard-response","201","2449619","0.0-15.0-1.18","99311","List2A","black","woman","","","","null","","","","","","","","",""
"null","is kissing","","html-keyboard-response","202","2451624","0.0-15.0-2.18","99311","List2A","black","woman","","","","null","","","","","","","","",""
"15103.89999999106","","","survey-text","203","2466732","0.0-15.0-3.18","99311","List2A","black","woman","","","","","{""Q0"":""fred is kissing beth""}","<img src=""stim_listA/kiss3.gif""style=""height:400px;""></stim_listA>","is kissing","","","","","",""
"null","<div style=""font-size:60px;"">+</div>","","html-keyboard-response","204","2467235","0.0-15.0-0.19","99311","List2A","black","woman","","","","null","","","","","","","","",""
"null","<img src=""stim_listA/greet3.gif""style=""height:400px;""></stim_listA>","","html-keyboard-response","205","2469239","0.0-15.0-1.19","99311","List2A","black","woman","","","","null","","","","","","","","",""
"null","is greeting","","html-keyboard-response","206","2471242","0.0-15.0-2.19","99311","List2A","black","woman","","","","null","","","","","","","","",""
"16587.89999999106","","","survey-text","207","2487834","0.0-15.0-3.19","99311","List2A","black","woman","","","","","{""Q0"":""mike is greeting beth""}","<img src=""stim_listA/greet3.gif""style=""height:400px;""></stim_listA>","is greeting","","","","","",""
"103745.29999999702","<img src='img/portrait_matrix_list2.jpg' style='width:900px;height:500px;''></img><p>If you have memorised all the portraits and names and are ready to start, press Continue.</p><p><strong>Please note: Your memory of these faces will be tested 4 times during this experiment.</strong></p>","0","html-button-response","208","2591579","0.0-16.0-0.0","99311","List2A","black","woman","","","","","","","","","","","","",""
"3322.9000000059605","<img src=""portrait/BW1.jpg""style=""height:400px;""></img>","0","html-button-response","209","2595909","0.0-16.0-1.0","99311","List2A","black","woman","","true","0","","","","","","","","","",""
"null","CORRECT","","html-keyboard-response","210","2597415","0.0-16.0-2.0-0.0","99311","List2A","black","woman","","","","null","","","","","","","","",""
"1897.2999999970198","<img src=""portrait/BM2.jpg""style=""height:400px;""></img>","5","html-button-response","211","2599314","0.0-16.0-4.0","99311","List2A","black","woman","","true","5","","","","","","","","","",""
"null","CORRECT","","html-keyboard-response","212","2600820","0.0-16.0-5.0-0.0","99311","List2A","black","woman","","","","null","","","","","","","","",""
"5525.9000000059605","<img src=""portrait/WW1.jpg""style=""height:400px;""></img>","1","html-button-response","213","2606348","0.0-16.0-7.0","99311","List2A","black","woman","","true","1","","","","","","","","","",""
"null","CORRECT","","html-keyboard-response","214","2607852","0.0-16.0-8.0-0.0","99311","List2A","black","woman","","","","null","","","","","","","","",""
"1825.7999999970198","<img src=""portrait/BM1.jpg""style=""height:400px;""></img>","4","html-button-response","215","2609680","0.0-16.0-10.0","99311","List2A","black","woman","","true","4","","","","","","","","","",""
"null","CORRECT","","html-keyboard-response","216","2611186","0.0-16.0-11.0-0.0","99311","List2A","black","woman","","","","null","","","","","","","","",""
"1784.7999999970198","<img src=""portrait/BW2.jpg""style=""height:400px;""></img>","2","html-button-response","217","2612973","0.0-16.0-13.0","99311","List2A","black","woman","","true","2","","","","","","","","","",""
"null","CORRECT","","html-keyboard-response","218","2614476","0.0-16.0-14.0-0.0","99311","List2A","black","woman","","","","null","","","","","","","","",""
"2143.8999999910593","<img src=""portrait/WM2.jpg""style=""height:400px;""></img>","7","html-button-response","219","2616623","0.0-16.0-16.0","99311","List2A","black","woman","","true","7","","","","","","","","","",""
"null","CORRECT","","html-keyboard-response","220","2618128","0.0-16.0-17.0-0.0","99311","List2A","black","woman","","","","null","","","","","","","","",""
"1463.4000000059605","<img src=""portrait/WW2.jpg""style=""height:400px;""></img>","3","html-button-response","221","2619593","0.0-16.0-19.0","99311","List2A","black","woman","","true","3","","","","","","","","","",""
"null","CORRECT","","html-keyboard-response","222","2621098","0.0-16.0-20.0-0.0","99311","List2A","black","woman","","","","null","","","","","","","","",""
"758.2000000029802","<img src=""portrait/WM1.jpg""style=""height:400px;""></img>","6","html-button-response","223","2621858","0.0-16.0-22.0","99311","List2A","black","woman","","true","6","","","","","","","","","",""
"null","CORRECT","","html-keyboard-response","224","2623361","0.0-16.0-23.0-0.0","99311","List2A","black","woman","","","","null","","","","","","","","",""
"7073","<p>You got 8 out of 8 right first time. Press Continue.</p>","0","html-button-response","225","2630437","0.0-16.0-25.0","99311","List2A","black","woman","","","","","","","","","","","","",""
"null","<div style=""font-size:60px;"">+</div>","","html-keyboard-response","226","2631941","0.0-17.0-0.0","99311","List2A","black","woman","","","","null","","","","","","","","",""
"null","<img src=""stim_listA/shout5.gif""style=""height:400px;""></stim_listA>","","html-keyboard-response","227","2633949","0.0-17.0-1.0","99311","List2A","black","woman","","","","null","","","","","","","","",""
"null","is shouting at","","html-keyboard-response","228","2635951","0.0-17.0-2.0","99311","List2A","black","woman","","","","null","","","","","","","","",""
"105069.30000001192","","","survey-text","229","2741021","0.0-17.0-3.0","99311","List2A","black","woman","","","","","{""Q0"":""fred is shouting at luke""}","<img src=""stim_listA/shout5.gif""style=""height:400px;""></stim_listA>","is shouting at","","","","","",""
"null","<div style=""font-size:60px;"">+</div>","","html-keyboard-response","230","2741525","0.0-17.0-0.1","99311","List2A","black","woman","","","","null","","","","","","","","",""
"null","<img src=""stim_listA/challenge3.gif""style=""height:400px;""></stim_listA>","","html-keyboard-response","231","2743529","0.0-17.0-1.1","99311","List2A","black","woman","","","","null","","","","","","","","",""
"null","is challenging","","html-keyboard-response","232","2745535","0.0-17.0-2.1","99311","List2A","black","woman","","","","null","","","","","","","","",""
"27874.29999999702","","","survey-text","233","2773413","0.0-17.0-3.1","99311","List2A","black","woman","","","","","{""Q0"":""beth is challenging mike""}","<img src=""stim_listA/challenge3.gif""style=""height:400px;""></stim_listA>","is challenging","","","","","",""
"null","<div style=""font-size:60px;"">+</div>","","html-keyboard-response","234","2773916","0.0-17.0-0.2","99311","List2A","black","woman","","","","null","","","","","","","","",""
"null","<img src=""stim_listA/look2.gif""style=""height:400px;""></stim_listA>","","html-keyboard-response","235","2775922","0.0-17.0-1.2","99311","List2A","black","woman","","","","null","","","","","","","","",""
"null","is being looked at by","","html-keyboard-response","236","2777924","0.0-17.0-2.2","99311","List2A","black","woman","","","","null","","","","","","","","",""
"39368.70000000298","","","survey-text","237","2817295","0.0-17.0-3.2","99311","List2A","black","woman","","","","","{""Q0"":""jane is being looked at by dave""}","<img src=""stim_listA/look2.gif""style=""height:400px;""></stim_listA>","is being looked at by","","","","","",""
"null","<div style=""font-size:60px;"">+</div>","","html-keyboard-response","238","2817799","0.0-17.0-0.3","99311","List2A","black","woman","","","","null","","","","","","","","",""
"null","<img src=""stim_listA/oppose3.gif""style=""height:400px;""></stim_listA>","","html-keyboard-response","239","2819804","0.0-17.0-1.3","99311","List2A","black","woman","","","","null","","","","","","","","",""
"null","is opposing","","html-keyboard-response","240","2821805","0.0-17.0-2.3","99311","List2A","black","woman","","","","null","","","","","","","","",""
"11205.79999999702","","","survey-text","241","2833015","0.0-17.0-3.3","99311","List2A","black","woman","","","","","{""Q0"":""kate is opposing mike""}","<img src=""stim_listA/oppose3.gif""style=""height:400px;""></stim_listA>","is opposing","","","","","",""
"null","<div style=""font-size:60px;"">+</div>","","html-keyboard-response","242","2833519","0.0-17.0-0.4","99311","List2A","black","woman","","","","null","","","","","","","","",""
"null","<img src=""stim_listA/shout6.gif""style=""height:400px;""></stim_listA>","","html-keyboard-response","243","2835524","0.0-17.0-1.4","99311","List2A","black","woman","","","","null","","","","","","","","",""
"null","is being shouted at by","","html-keyboard-response","244","2837526","0.0-17.0-2.4","99311","List2A","black","woman","","","","null","","","","","","","","",""
"21454.5","","","survey-text","245","2858984","0.0-17.0-3.4","99311","List2A","black","woman","","","","","{""Q0"":""mike is being shouted at by dave""}","<img src=""stim_listA/shout6.gif""style=""height:400px;""></stim_listA>","is being shouted at by","","","","","",""
"null","<div style=""font-size:60px;"">+</div>","","html-keyboard-response","246","2859487","0.0-17.0-0.5","99311","List2A","black","woman","","","","null","","","","","","","","",""
"null","<img src=""stim_listA/shout3.gif""style=""height:400px;""></stim_listA>","","html-keyboard-response","247","2861491","0.0-17.0-1.5","99311","List2A","black","woman","","","","null","","","","","","","","",""
"null","is shouting at","","html-keyboard-response","248","2863493","0.0-17.0-2.5","99311","List2A","black","woman","","","","null","","","","","","","","",""
"37892.59999999404","","","survey-text","249","2901390","0.0-17.0-3.5","99311","List2A","black","woman","","","","","{""Q0"":""fred is shouting at beth""}","<img src=""stim_listA/shout3.gif""style=""height:400px;""></stim_listA>","is shouting at","","","","","",""
"null","<div style=""font-size:60px;"">+</div>","","html-keyboard-response","250","2901893","0.0-17.0-0.6","99311","List2A","black","woman","","","","null","","","","","","","","",""
"null","<img src=""stim_listA/look1.gif""style=""height:400px;""></stim_listA>","","html-keyboard-response","251","2903898","0.0-17.0-1.6","99311","List2A","black","woman","","","","null","","","","","","","","",""
"null","is looking at","","html-keyboard-response","252","2905901","0.0-17.0-2.6","99311","List2A","black","woman","","","","null","","","","","","","","",""
"9809.59999999404","","","survey-text","253","2915714","0.0-17.0-3.6","99311","List2A","black","woman","","","","","{""Q0"":""luke is looking at ruth""}","<img src=""stim_listA/look1.gif""style=""height:400px;""></stim_listA>","is looking at","","","","","",""
"null","<div style=""font-size:60px;"">+</div>","","html-keyboard-response","254","2916216","0.0-17.0-0.7","99311","List2A","black","woman","","","","null","","","","","","","","",""
"null","<img src=""stim_listA/shout2.gif""style=""height:400px;""></stim_listA>","","html-keyboard-response","255","2918218","0.0-17.0-1.7","99311","List2A","black","woman","","","","null","","","","","","","","",""
"null","is being shouted at by","","html-keyboard-response","256","2920220","0.0-17.0-2.7","99311","List2A","black","woman","","","","null","","","","","","","","",""
"12269","","","survey-text","257","2932492","0.0-17.0-3.7","99311","List2A","black","woman","","","","","{""Q0"":""jane is being shouted at by dave""}","<img src=""stim_listA/shout2.gif""style=""height:400px;""></stim_listA>","is being shouted at by","","","","","",""
"null","<div style=""font-size:60px;"">+</div>","","html-keyboard-response","258","2932994","0.0-17.0-0.8","99311","List2A","black","woman","","","","null","","","","","","","","",""
"null","<img src=""stim_listA/challenge4.gif""style=""height:400px;""></stim_listA>","","html-keyboard-response","259","2934999","0.0-17.0-1.8","99311","List2A","black","woman","","","","null","","","","","","","","",""
"null","is being challenged by","","html-keyboard-response","260","2937000","0.0-17.0-2.8","99311","List2A","black","woman","","","","null","","","","","","","","",""
"14274.199999988079","","","survey-text","261","2951279","0.0-17.0-3.8","99311","List2A","black","woman","","","","","{""Q0"":""kate is being challenged by fred""}","<img src=""stim_listA/challenge4.gif""style=""height:400px;""></stim_listA>","is being challenged by","","","","","",""
"null","<div style=""font-size:60px;"">+</div>","","html-keyboard-response","262","2951781","0.0-17.0-0.9","99311","List2A","black","woman","","","","null","","","","","","","","",""
"null","<img src=""stim_listA/kiss1.gif""style=""height:400px;""></stim_listA>","","html-keyboard-response","263","2953785","0.0-17.0-1.9","99311","List2A","black","woman","","","","null","","","","","","","","",""
"null","is kissing","","html-keyboard-response","264","2955787","0.0-17.0-2.9","99311","List2A","black","woman","","","","null","","","","","","","","",""
"8194.199999988079","","","survey-text","265","2963984","0.0-17.0-3.9","99311","List2A","black","woman","","","","","{""Q0"":""ruth is kissing luke""}","<img src=""stim_listA/kiss1.gif""style=""height:400px;""></stim_listA>","is kissing","","","","","",""
"null","<div style=""font-size:60px;"">+</div>","","html-keyboard-response","266","2964485","0.0-17.0-0.10","99311","List2A","black","woman","","","","null","","","","","","","","",""
"null","<img src=""stim_listA/touch5.gif""style=""height:400px;""></stim_listA>","","html-keyboard-response","267","2966488","0.0-17.0-1.10","99311","List2A","black","woman","","","","null","","","","","","","","",""
"null","is touching","","html-keyboard-response","268","2968489","0.0-17.0-2.10","99311","List2A","black","woman","","","","null","","","","","","","","",""
"15966.5","","","survey-text","269","2984460","0.0-17.0-3.10","99311","List2A","black","woman","","","","","{""Q0"":""mike is touching dave""}","<img src=""stim_listA/touch5.gif""style=""height:400px;""></stim_listA>","is touching","","","","","",""
"null","<div style=""font-size:60px;"">+</div>","","html-keyboard-response","270","2984964","0.0-17.0-0.11","99311","List2A","black","woman","","","","null","","","","","","","","",""
"null","<img src=""stim_listA/copy4.gif""style=""height:400px;""></stim_listA>","","html-keyboard-response","271","2986970","0.0-17.0-1.11","99311","List2A","black","woman","","","","null","","","","","","","","",""
"null","is being copied by","","html-keyboard-response","272","2988975","0.0-17.0-2.11","99311","List2A","black","woman","","","","null","","","","","","","","",""
"82843","","","survey-text","273","3071819","0.0-17.0-3.11","99311","List2A","black","woman","","","","","{""Q0"":""fred is being copied by kate""}","<img src=""stim_listA/copy4.gif""style=""height:400px;""></stim_listA>","is being copied by","","","","","",""
"null","<div style=""font-size:60px;"">+</div>","","html-keyboard-response","274","3072321","0.0-17.0-0.12","99311","List2A","black","woman","","","","null","","","","","","","","",""
"null","<img src=""stim_listA/kiss6.gif""style=""height:400px;""></stim_listA>","","html-keyboard-response","275","3074324","0.0-17.0-1.12","99311","List2A","black","woman","","","","null","","","","","","","","",""
"null","is being kissed by","","html-keyboard-response","276","3076326","0.0-17.0-2.12","99311","List2A","black","woman","","","","null","","","","","","","","",""
"11637.90000000596","","","survey-text","277","3087968","0.0-17.0-3.12","99311","List2A","black","woman","","","","","{""Q0"":""mike is being kissed by dave""}","<img src=""stim_listA/kiss6.gif""style=""height:400px;""></stim_listA>","is being kissed by","","","","","",""
"null","<div style=""font-size:60px;"">+</div>","","html-keyboard-response","278","3088472","0.0-17.0-0.13","99311","List2A","black","woman","","","","null","","","","","","","","",""
"null","<img src=""stim_listA/shout1.gif""style=""height:400px;""></stim_listA>","","html-keyboard-response","279","3090477","0.0-17.0-1.13","99311","List2A","black","woman","","","","null","","","","","","","","",""
"null","is shouting at","","html-keyboard-response","280","3092482","0.0-17.0-2.13","99311","List2A","black","woman","","","","null","","","","","","","","",""
"11676.5","","","survey-text","281","3104163","0.0-17.0-3.13","99311","List2A","black","woman","","","","","{""Q0"":""luke is shouting at ruth""}","<img src=""stim_listA/shout1.gif""style=""height:400px;""></stim_listA>","is shouting at","","","","","",""
"null","<div style=""font-size:60px;"">+</div>","","html-keyboard-response","282","3104664","0.0-17.0-0.14","99311","List2A","black","woman","","","","null","","","","","","","","",""
"null","<img src=""stim_listA/challenge2.gif""style=""height:400px;""></stim_listA>","","html-keyboard-response","283","3106671","0.0-17.0-1.14","99311","List2A","black","woman","","","","null","","","","","","","","",""
"null","is being challenged by","","html-keyboard-response","284","3108674","0.0-17.0-2.14","99311","List2A","black","woman","","","","null","","","","","","","","",""
"26971.59999999404","","","survey-text","285","3135649","0.0-17.0-3.14","99311","List2A","black","woman","","","","","{""Q0"":""jane is being challenged by luke""}","<img src=""stim_listA/challenge2.gif""style=""height:400px;""></stim_listA>","is being challenged by","","","","","",""
"null","<div style=""font-size:60px;"">+</div>","","html-keyboard-response","286","3136152","0.0-17.0-0.15","99311","List2A","black","woman","","","","null","","","","","","","","",""
"null","<img src=""stim_listA/touch7.gif""style=""height:400px;""></stim_listA>","","html-keyboard-response","287","3138154","0.0-17.0-1.15","99311","List2A","black","woman","","","","null","","","","","","","","",""
"null","is touching","","html-keyboard-response","288","3140156","0.0-17.0-2.15","99311","List2A","black","woman","","","","null","","","","","","","","",""
"14813","","","survey-text","289","3154973","0.0-17.0-3.15","99311","List2A","black","woman","","","","","{""Q0"":""jane is touching kate""}","<img src=""stim_listA/touch7.gif""style=""height:400px;""></stim_listA>","is touching","","","","","",""
"null","<div style=""font-size:60px;"">+</div>","","html-keyboard-response","290","3155476","0.0-17.0-0.16","99311","List2A","black","woman","","","","null","","","","","","","","",""
"null","<img src=""stim_listA/challenge8.gif""style=""height:400px;""></stim_listA>","","html-keyboard-response","291","3157480","0.0-17.0-1.16","99311","List2A","black","woman","","","","null","","","","","","","","",""
"null","is being challenged by","","html-keyboard-response","292","3159482","0.0-17.0-2.16","99311","List2A","black","woman","","","","null","","","","","","","","",""
"14532.39999999106","","","survey-text","293","3174018","0.0-17.0-3.16","99311","List2A","black","woman","","","","","{""Q0"":""kate is being challenged by ruth""}","<img src=""stim_listA/challenge8.gif""style=""height:400px;""></stim_listA>","is being challenged by","","","","","",""
"null","<div style=""font-size:60px;"">+</div>","","html-keyboard-response","294","3174520","0.0-17.0-0.17","99311","List2A","black","woman","","","","null","","","","","","","","",""
"null","<img src=""stim_listA/seduce1.gif""style=""height:400px;""></stim_listA>","","html-keyboard-response","295","3176527","0.0-17.0-1.17","99311","List2A","black","woman","","","","null","","","","","","","","",""
"null","is seducing","","html-keyboard-response","296","3178533","0.0-17.0-2.17","99311","List2A","black","woman","","","","null","","","","","","","","",""
"58161.29999999702","","","survey-text","297","3236696","0.0-17.0-3.17","99311","List2A","black","woman","","","","","{""Q0"":""luke is seducing jane""}","<img src=""stim_listA/seduce1.gif""style=""height:400px;""></stim_listA>","is seducing","","","","","",""
"null","<div style=""font-size:60px;"">+</div>","","html-keyboard-response","298","3237200","0.0-17.0-0.18","99311","List2A","black","woman","","","","null","","","","","","","","",""
"null","<img src=""stim_listA/copy7.gif""style=""height:400px;""></stim_listA>","","html-keyboard-response","299","3239204","0.0-17.0-1.18","99311","List2A","black","woman","","","","null","","","","","","","","",""
"null","is copying","","html-keyboard-response","300","3241205","0.0-17.0-2.18","99311","List2A","black","woman","","","","null","","","","","","","","",""
"42342.5","","","survey-text","301","3283551","0.0-17.0-3.18","99311","List2A","black","woman","","","","","{""Q0"":""beth is copying jane""}","<img src=""stim_listA/copy7.gif""style=""height:400px;""></stim_listA>","is copying","","","","","",""
"null","<div style=""font-size:60px;"">+</div>","","html-keyboard-response","302","3284053","0.0-17.0-0.19","99311","List2A","black","woman","","","","null","","","","","","","","",""
"null","<img src=""stim_listA/hug3.gif""style=""height:400px;""></stim_listA>","","html-keyboard-response","303","3286060","0.0-17.0-1.19","99311","List2A","black","woman","","","","null","","","","","","","","",""
"null","is hugging","","html-keyboard-response","304","3288064","0.0-17.0-2.19","99311","List2A","black","woman","","","","null","","","","","","","","",""
"12677.5","","","survey-text","305","3300748","0.0-17.0-3.19","99311","List2A","black","woman","","","","","{""Q0"":""fred is hugging beth""}","<img src=""stim_listA/hug3.gif""style=""height:400px;""></stim_listA>","is hugging","","","","","",""
"20607.70000000298","<img src='img/portrait_matrix_list2.jpg' style='width:900px;height:500px;''></img><p>If you have memorised all the portraits and names and are ready to start, press Continue.</p><p><strong>Please note: Your memory of these faces will be tested 4 times during this experiment.</strong></p>","0","html-button-response","306","3321359","0.0-18.0-0.0","99311","List2A","black","woman","","","","","","","","","","","","",""
"2411.800000011921","<img src=""portrait/BW1.jpg""style=""height:400px;""></img>","0","html-button-response","307","3324776","0.0-18.0-1.0","99311","List2A","black","woman","","true","0","","","","","","","","","",""
"null","CORRECT","","html-keyboard-response","308","3326278","0.0-18.0-2.0-0.0","99311","List2A","black","woman","","","","null","","","","","","","","",""
"2014.5","<img src=""portrait/BM1.jpg""style=""height:400px;""></img>","4","html-button-response","309","3328294","0.0-18.0-4.0","99311","List2A","black","woman","","true","4","","","","","","","","","",""
"null","CORRECT","","html-keyboard-response","310","3329798","0.0-18.0-5.0-0.0","99311","List2A","black","woman","","","","null","","","","","","","","",""
"1650.2999999970198","<img src=""portrait/BW2.jpg""style=""height:400px;""></img>","2","html-button-response","311","3331450","0.0-18.0-7.0","99311","List2A","black","woman","","true","2","","","","","","","","","",""
"null","CORRECT","","html-keyboard-response","312","3332960","0.0-18.0-8.0-0.0","99311","List2A","black","woman","","","","null","","","","","","","","",""
"1766.300000011921","<img src=""portrait/BM2.jpg""style=""height:400px;""></img>","5","html-button-response","313","3334729","0.0-18.0-10.0","99311","List2A","black","woman","","true","5","","","","","","","","","",""
"null","CORRECT","","html-keyboard-response","314","3336231","0.0-18.0-11.0-0.0","99311","List2A","black","woman","","","","null","","","","","","","","",""
"2338.0999999940395","<img src=""portrait/WW1.jpg""style=""height:400px;""></img>","1","html-button-response","315","3338572","0.0-18.0-13.0","99311","List2A","black","woman","","true","1","","","","","","","","","",""
"null","CORRECT","","html-keyboard-response","316","3340075","0.0-18.0-14.0-0.0","99311","List2A","black","woman","","","","null","","","","","","","","",""
"1797.2000000029802","<img src=""portrait/WM2.jpg""style=""height:400px;""></img>","7","html-button-response","317","3341874","0.0-18.0-16.0","99311","List2A","black","woman","","true","7","","","","","","","","","",""
"null","CORRECT","","html-keyboard-response","318","3343378","0.0-18.0-17.0-0.0","99311","List2A","black","woman","","","","null","","","","","","","","",""
"1138.2999999970198","<img src=""portrait/WM1.jpg""style=""height:400px;""></img>","6","html-button-response","319","3344519","0.0-18.0-19.0","99311","List2A","black","woman","","true","6","","","","","","","","","",""
"null","CORRECT","","html-keyboard-response","320","3346022","0.0-18.0-20.0-0.0","99311","List2A","black","woman","","","","null","","","","","","","","",""
"1392.6000000089407","<img src=""portrait/WW2.jpg""style=""height:400px;""></img>","3","html-button-response","321","3347417","0.0-18.0-22.0","99311","List2A","black","woman","","true","3","","","","","","","","","",""
"null","CORRECT","","html-keyboard-response","322","3348920","0.0-18.0-23.0-0.0","99311","List2A","black","woman","","","","null","","","","","","","","",""
"4731.29999999702","<p>You got 8 out of 8 right first time. Press Continue.</p>","0","html-button-response","323","3353654","0.0-18.0-25.0","99311","List2A","black","woman","","","","","","","","","","","","",""
"null","<div style=""font-size:60px;"">+</div>","","html-keyboard-response","324","3355158","0.0-19.0-0.0","99311","List2A","black","woman","","","","null","","","","","","","","",""
"null","<img src=""stim_listA/kiss2.gif""style=""height:400px;""></stim_listA>","","html-keyboard-response","325","3357164","0.0-19.0-1.0","99311","List2A","black","woman","","","","null","","","","","","","","",""
"null","is being kissed by","","html-keyboard-response","326","3359166","0.0-19.0-2.0","99311","List2A","black","woman","","","","null","","","","","","","","",""
"32313.39999999106","","","survey-text","327","3391483","0.0-19.0-3.0","99311","List2A","black","woman","","","","","{""Q0"":""jane is being kissed by dave""}","<img src=""stim_listA/kiss2.gif""style=""height:400px;""></stim_listA>","is being kissed by","","","","","",""
"null","<div style=""font-size:60px;"">+</div>","","html-keyboard-response","328","3391987","0.0-19.0-0.1","99311","List2A","black","woman","","","","null","","","","","","","","",""
"null","<img src=""stim_listA/oppose4.gif""style=""height:400px;""></stim_listA>","","html-keyboard-response","329","3393991","0.0-19.0-1.1","99311","List2A","black","woman","","","","null","","","","","","","","",""
"null","is being opposed by","","html-keyboard-response","330","3395993","0.0-19.0-2.1","99311","List2A","black","woman","","","","null","","","","","","","","",""
"58827.79999999702","","","survey-text","331","3454823","0.0-19.0-3.1","99311","List2A","black","woman","","","","","{""Q0"":""beth is being opposed by fred""}","<img src=""stim_listA/oppose4.gif""style=""height:400px;""></stim_listA>","is being opposed by","","","","","",""
"null","<div style=""font-size:60px;"">+</div>","","html-keyboard-response","332","3455325","0.0-19.0-0.2","99311","List2A","black","woman","","","","null","","","","","","","","",""
"null","<img src=""stim_listA/oppose8.gif""style=""height:400px;""></stim_listA>","","html-keyboard-response","333","3457329","0.0-19.0-1.2","99311","List2A","black","woman","","","","null","","","","","","","","",""
"null","is being opposed by","","html-keyboard-response","334","3459330","0.0-19.0-2.2","99311","List2A","black","woman","","","","null","","","","","","","","",""
"49066.20000000298","","","survey-text","335","3508399","0.0-19.0-3.2","99311","List2A","black","woman","","","","","{""Q0"":""beth is being opposed by ruth""}","<img src=""stim_listA/oppose8.gif""style=""height:400px;""></stim_listA>","is being opposed by","","","","","",""
"null","<div style=""font-size:60px;"">+</div>","","html-keyboard-response","336","3508902","0.0-19.0-0.3","99311","List2A","black","woman","","","","null","","","","","","","","",""
"null","<img src=""stim_listA/oppose6.gif""style=""height:400px;""></stim_listA>","","html-keyboard-response","337","3510908","0.0-19.0-1.3","99311","List2A","black","woman","","","","null","","","","","","","","",""
"null","is being opposed by","","html-keyboard-response","338","3512912","0.0-19.0-2.3","99311","List2A","black","woman","","","","null","","","","","","","","",""
"21950.5","","","survey-text","339","3534867","0.0-19.0-3.3","99311","List2A","black","woman","","","","","{""Q0"":""luke is being opposed by fred""}","<img src=""stim_listA/oppose6.gif""style=""height:400px;""></stim_listA>","is being opposed by","","","","","",""
"null","<div style=""font-size:60px;"">+</div>","","html-keyboard-response","340","3535371","0.0-19.0-0.4","99311","List2A","black","woman","","","","null","","","","","","","","",""
"null","<img src=""stim_listA/look8.gif""style=""height:400px;""></stim_listA>","","html-keyboard-response","341","3537374","0.0-19.0-1.4","99311","List2A","black","woman","","","","null","","","","","","","","",""
"null","is being looked at by","","html-keyboard-response","342","3539377","0.0-19.0-2.4","99311","List2A","black","woman","","","","null","","","","","","","","",""
"12944.90000000596","","","survey-text","343","3552326","0.0-19.0-3.4","99311","List2A","black","woman","","","","","{""Q0"":""kate is being looked at by jane""}","<img src=""stim_listA/look8.gif""style=""height:400px;""></stim_listA>","is being looked at by","","","","","",""
"null","<div style=""font-size:60px;"">+</div>","","html-keyboard-response","344","3552829","0.0-19.0-0.5","99311","List2A","black","woman","","","","null","","","","","","","","",""
"null","<img src=""stim_listA/oppose2.gif""style=""height:400px;""></stim_listA>","","html-keyboard-response","345","3554832","0.0-19.0-1.5","99311","List2A","black","woman","","","","null","","","","","","","","",""
"null","is being opposed by","","html-keyboard-response","346","3556834","0.0-19.0-2.5","99311","List2A","black","woman","","","","null","","","","","","","","",""
"118859","","","survey-text","347","3675693","0.0-19.0-3.5","99311","List2A","black","woman","","","","","{""Q0"":""ruth is being opposed by luke""}","<img src=""stim_listA/oppose2.gif""style=""height:400px;""></stim_listA>","is being opposed by","","","","","",""
"null","<div style=""font-size:60px;"">+</div>","","html-keyboard-response","348","3676196","0.0-19.0-0.6","99311","List2A","black","woman","","","","null","","","","","","","","",""
"null","<img src=""stim_listA/kiss8.gif""style=""height:400px;""></stim_listA>","","html-keyboard-response","349","3678203","0.0-19.0-1.6","99311","List2A","black","woman","","","","null","","","","","","","","",""
"null","is being kissed by","","html-keyboard-response","350","3680207","0.0-19.0-2.6","99311","List2A","black","woman","","","","null","","","","","","","","",""
"10812.60000000894","","","survey-text","351","3691024","0.0-19.0-3.6","99311","List2A","black","woman","","","","","{""Q0"":""kate is being kissed by jane""}","<img src=""stim_listA/kiss8.gif""style=""height:400px;""></stim_listA>","is being kissed by","","","","","",""
"null","<div style=""font-size:60px;"">+</div>","","html-keyboard-response","352","3691525","0.0-19.0-0.7","99311","List2A","black","woman","","","","null","","","","","","","","",""
"null","<img src=""stim_listA/copy2.gif""style=""height:400px;""></stim_listA>","","html-keyboard-response","353","3693529","0.0-19.0-1.7","99311","List2A","black","woman","","","","null","","","","","","","","",""
"null","is being copied by","","html-keyboard-response","354","3695530","0.0-19.0-2.7","99311","List2A","black","woman","","","","null","","","","","","","","",""
"26528.60000000894","","","survey-text","355","3722062","0.0-19.0-3.7","99311","List2A","black","woman","","","","","{""Q0"":""jane is being copied by luke""}","<img src=""stim_listA/copy2.gif""style=""height:400px;""></stim_listA>","is being copied by","","","","","",""
"null","<div style=""font-size:60px;"">+</div>","","html-keyboard-response","356","3722563","0.0-19.0-0.8","99311","List2A","black","woman","","","","null","","","","","","","","",""
"null","<img src=""stim_listA/touch1.gif""style=""height:400px;""></stim_listA>","","html-keyboard-response","357","3724569","0.0-19.0-1.8","99311","List2A","black","woman","","","","null","","","","","","","","",""
"null","is touching","","html-keyboard-response","358","3726571","0.0-19.0-2.8","99311","List2A","black","woman","","","","null","","","","","","","","",""
"8786","","","survey-text","359","3735361","0.0-19.0-3.8","99311","List2A","black","woman","","","","","{""Q0"":""dave is touching jane""}","<img src=""stim_listA/touch1.gif""style=""height:400px;""></stim_listA>","is touching","","","","","",""
"null","<div style=""font-size:60px;"">+</div>","","html-keyboard-response","360","3735866","0.0-19.0-0.9","99311","List2A","black","woman","","","","null","","","","","","","","",""
"null","<img src=""stim_listA/hug5.gif""style=""height:400px;""></stim_listA>","","html-keyboard-response","361","3737871","0.0-19.0-1.9","99311","List2A","black","woman","","","","null","","","","","","","","",""
"null","is hugging","","html-keyboard-response","362","3739872","0.0-19.0-2.9","99311","List2A","black","woman","","","","null","","","","","","","","",""
"14659.70000000298","","","survey-text","363","3754536","0.0-19.0-3.9","99311","List2A","black","woman","","","","","{""Q0"":""luke is hugging fred""}","<img src=""stim_listA/hug5.gif""style=""height:400px;""></stim_listA>","is hugging","","","","","",""
"null","<div style=""font-size:60px;"">+</div>","","html-keyboard-response","364","3755040","0.0-19.0-0.10","99311","List2A","black","woman","","","","null","","","","","","","","",""
"null","<img src=""stim_listA/look7.gif""style=""height:400px;""></stim_listA>","","html-keyboard-response","365","3757043","0.0-19.0-1.10","99311","List2A","black","woman","","","","null","","","","","","","","",""
"null","is looking at","","html-keyboard-response","366","3759045","0.0-19.0-2.10","99311","List2A","black","woman","","","","null","","","","","","","","",""
"9875.09999999404","","","survey-text","367","3768925","0.0-19.0-3.10","99311","List2A","black","woman","","","","","{""Q0"":""beth is looking at ruth""}","<img src=""stim_listA/look7.gif""style=""height:400px;""></stim_listA>","is looking at","","","","","",""
"null","<div style=""font-size:60px;"">+</div>","","html-keyboard-response","368","3769429","0.0-19.0-0.11","99311","List2A","black","woman","","","","null","","","","","","","","",""
"null","<img src=""stim_listA/kiss7.gif""style=""height:400px;""></stim_listA>","","html-keyboard-response","369","3771432","0.0-19.0-1.11","99311","List2A","black","woman","","","","null","","","","","","","","",""
"null","is kissing","","html-keyboard-response","370","3773437","0.0-19.0-2.11","99311","List2A","black","woman","","","","null","","","","","","","","",""
"6833.29999999702","","","survey-text","371","3780275","0.0-19.0-3.11","99311","List2A","black","woman","","","","","{""Q0"":""ruth is kissing beth""}","<img src=""stim_listA/kiss7.gif""style=""height:400px;""></stim_listA>","is kissing","","","","","",""
"null","<div style=""font-size:60px;"">+</div>","","html-keyboard-response","372","3780777","0.0-19.0-0.12","99311","List2A","black","woman","","","","null","","","","","","","","",""
"null","<img src=""stim_listA/greet4.gif""style=""height:400px;""></stim_listA>","","html-keyboard-response","373","3782781","0.0-19.0-1.12","99311","List2A","black","woman","","","","null","","","","","","","","",""
"null","is being greeted by","","html-keyboard-response","374","3784783","0.0-19.0-2.12","99311","List2A","black","woman","","","","null","","","","","","","","",""
"20378.79999999702","","","survey-text","375","3805166","0.0-19.0-3.12","99311","List2A","black","woman","","","","","{""Q0"":""kate is being greeted by fred""}","<img src=""stim_listA/greet4.gif""style=""height:400px;""></stim_listA>","is being greeted by","","","","","",""
"null","<div style=""font-size:60px;"">+</div>","","html-keyboard-response","376","3805669","0.0-19.0-0.13","99311","List2A","black","woman","","","","null","","","","","","","","",""
"null","<img src=""stim_listA/kiss5.gif""style=""height:400px;""></stim_listA>","","html-keyboard-response","377","3807673","0.0-19.0-1.13","99311","List2A","black","woman","","","","null","","","","","","","","",""
"null","is kissing","","html-keyboard-response","378","3809677","0.0-19.0-2.13","99311","List2A","black","woman","","","","null","","","","","","","","",""
"13196","","","survey-text","379","3822876","0.0-19.0-3.13","99311","List2A","black","woman","","","","","{""Q0"":""luke is kissing fred""}","<img src=""stim_listA/kiss5.gif""style=""height:400px;""></stim_listA>","is kissing","","","","","",""
"null","<div style=""font-size:60px;"">+</div>","","html-keyboard-response","380","3823379","0.0-19.0-0.14","99311","List2A","black","woman","","","","null","","","","","","","","",""
"null","<img src=""stim_listA/seduce5.gif""style=""height:400px;""></stim_listA>","","html-keyboard-response","381","3825386","0.0-19.0-1.14","99311","List2A","black","woman","","","","null","","","","","","","","",""
"null","is seducing","","html-keyboard-response","382","3827391","0.0-19.0-2.14","99311","List2A","black","woman","","","","null","","","","","","","","",""
"9294.60000000894","","","survey-text","383","3836690","0.0-19.0-3.14","99311","List2A","black","woman","","","","","{""Q0"":""mike is seducing luke""}","<img src=""stim_listA/seduce5.gif""style=""height:400px;""></stim_listA>","is seducing","","","","","",""
"null","<div style=""font-size:60px;"">+</div>","","html-keyboard-response","384","3837192","0.0-19.0-0.15","99311","List2A","black","woman","","","","null","","","","","","","","",""
"null","<img src=""stim_listA/shout8.gif""style=""height:400px;""></stim_listA>","","html-keyboard-response","385","3839198","0.0-19.0-1.15","99311","List2A","black","woman","","","","null","","","","","","","","",""
"null","is being shouted at by","","html-keyboard-response","386","3841200","0.0-19.0-2.15","99311","List2A","black","woman","","","","null","","","","","","","","",""
"11907.89999999106","","","survey-text","387","3853113","0.0-19.0-3.15","99311","List2A","black","woman","","","","","{""Q0"":""kate is being shouted at jane""}","<img src=""stim_listA/shout8.gif""style=""height:400px;""></stim_listA>","is being shouted at by","","","","","",""
"null","<div style=""font-size:60px;"">+</div>","","html-keyboard-response","388","3853615","0.0-19.0-0.16","99311","List2A","black","woman","","","","null","","","","","","","","",""
"null","<img src=""stim_listA/seduce2.gif""style=""height:400px;""></stim_listA>","","html-keyboard-response","389","3855618","0.0-19.0-1.16","99311","List2A","black","woman","","","","null","","","","","","","","",""
"null","is being seduced by","","html-keyboard-response","390","3857620","0.0-19.0-2.16","99311","List2A","black","woman","","","","null","","","","","","","","",""
"12517.5","","","survey-text","391","3870143","0.0-19.0-3.16","99311","List2A","black","woman","","","","","{""Q0"":""ruth is being seduced by dave""}","<img src=""stim_listA/seduce2.gif""style=""height:400px;""></stim_listA>","is being seduced by","","","","","",""
"null","<div style=""font-size:60px;"">+</div>","","html-keyboard-response","392","3870647","0.0-19.0-0.17","99311","List2A","black","woman","","","","null","","","","","","","","",""
"null","<img src=""stim_listA/challenge6.gif""style=""height:400px;""></stim_listA>","","html-keyboard-response","393","3872651","0.0-19.0-1.17","99311","List2A","black","woman","","","","null","","","","","","","","",""
"null","is being challenged by","","html-keyboard-response","394","3874653","0.0-19.0-2.17","99311","List2A","black","woman","","","","null","","","","","","","","",""
"12727","","","survey-text","395","3887383","0.0-19.0-3.17","99311","List2A","black","woman","","","","","{""Q0"":""mike is being challenged by luke""}","<img src=""stim_listA/challenge6.gif""style=""height:400px;""></stim_listA>","is being challenged by","","","","","",""
"null","<div style=""font-size:60px;"">+</div>","","html-keyboard-response","396","3887886","0.0-19.0-0.18","99311","List2A","black","woman","","","","null","","","","","","","","",""
"null","<img src=""stim_listA/shout4.gif""style=""height:400px;""></stim_listA>","","html-keyboard-response","397","3889893","0.0-19.0-1.18","99311","List2A","black","woman","","","","null","","","","","","","","",""
"null","is being shouted at by","","html-keyboard-response","398","3891894","0.0-19.0-2.18","99311","List2A","black","woman","","","","null","","","","","","","","",""
"23020.5","","","survey-text","399","3914919","0.0-19.0-3.18","99311","List2A","black","woman","","","","","{""Q0"":""mike is being shouted at by kate""}","<img src=""stim_listA/shout4.gif""style=""height:400px;""></stim_listA>","is being shouted at by","","","","","",""
"null","<div style=""font-size:60px;"">+</div>","","html-keyboard-response","400","3915421","0.0-19.0-0.19","99311","List2A","black","woman","","","","null","","","","","","","","",""
"null","<img src=""stim_listA/hug8.gif""style=""height:400px;""></stim_listA>","","html-keyboard-response","401","3917426","0.0-19.0-1.19","99311","List2A","black","woman","","","","null","","","","","","","","",""
"null","is being hugged by","","html-keyboard-response","402","3919431","0.0-19.0-2.19","99311","List2A","black","woman","","","","null","","","","","","","","",""
"24764.29999999702","","","survey-text","403","3944198","0.0-19.0-3.19","99311","List2A","black","woman","","","","","{""Q0"":""kate is being hugged by jane""}","<img src=""stim_listA/hug8.gif""style=""height:400px;""></stim_listA>","is being hugged by","","","","","",""
"6640.100000008941","<p>Thank you for completing that task.</p><p>The final part of this session is a questionnaire that will take about 4 minutes.</p><p>Press Continue.</p>","0","html-button-response","404","3950840","0.0-20.0","99311","List2A","black","woman","","","","","","","","","","","","",""
"48498.5","","","survey-text","405","4000346","0.0-21.0","99311","List2A","black","woman","","","","","{""Q0"":""19"",""Q1"":""english"",""Q2"":""english"",""Q3"":""United States"",""Q4"":""jamaican"",""Q5"":""black"",""Q6"":""female""}","","","demographics","","","","",""
"2727.4000000059605","<p>Have you lived in the USA for the last 5 years or more?</p>","1","html-button-response","406","4003080","0.0-22.0","99311","List2A","black","woman","","","","","","","","fiveyears","","","","",""
"2257.2999999970198","<p>Move the slider to show the extent to which you agree with the following statements.</p>","0","html-button-response","407","4006340","0.0-23.0","99311","List2A","black","woman","","","","","","","","","","","","",""
"4810.79999999702","","","html-slider-response","408","4012157","0.0-24.0-0.0-0.0","99311","List2A","black","woman","","","","","","","","survey_race","64","","","People of my race are very similar to each other.","verysimilar"
"3339.2999999970198","","","html-slider-response","409","4015499","0.0-24.0-0.0-0.1","99311","List2A","black","woman","","","","","","","","survey_race","57","","","I am similar to the average person of my race.","similar"
"3192.5","","","html-slider-response","410","4018695","0.0-24.0-0.0-0.2","99311","List2A","black","woman","","","","","","","","survey_race","67","","","I have a lot in common with people of a similar age to me.","filler"
"3038.6000000089407","","","html-slider-response","411","4021738","0.0-24.0-0.0-0.3","99311","List2A","black","woman","","","","","","","","survey_race","70","","","I have a lot in common with the average person of my race.","average"
"3807.5","","","html-slider-response","412","4025548","0.0-24.0-0.0-0.4","99311","List2A","black","woman","","","","","","","","survey_race","67","","","I am glad to be my age.","filler"
"2673","","","html-slider-response","413","4028226","0.0-24.0-0.0-0.5","99311","List2A","black","woman","","","","","","","","survey_race","69","","","I am glad to be the age I am.","filler"
"4238.5","","","html-slider-response","414","4032466","0.0-24.0-0.0-0.6","99311","List2A","black","woman","","","","","","","","survey_race","100","","","Being my race gives me a good feeling.","feeling"
"4462.100000008941","","","html-slider-response","415","4036932","0.0-24.0-0.0-0.7","99311","List2A","black","woman","","","","","","","","survey_race","33","","","Getting older does not worry me.","filler"
"7512.0999999940395","","","html-slider-response","416","4044447","0.0-24.0-0.0-0.8","99311","List2A","black","woman","","","","","","","","survey_race","56","","","I enjoy being in large groups.","filler"
"3273.1000000089407","","","html-slider-response","417","4047723","0.0-24.0-0.0-0.9","99311","List2A","black","woman","","","","","","","","survey_race","100","","","I feel solidarity with my race.","solidarity"
"2855.0999999940395","","","html-slider-response","418","4050580","0.0-24.0-0.0-0.10","99311","List2A","black","woman","","","","","","","","survey_race","100","","","It is pleasant to be my race.","pleasant"
"2219.5999999940395","","","html-slider-response","419","4052804","0.0-24.0-0.0-0.11","99311","List2A","black","woman","","","","","","","","survey_race","100","","","I feel a bond with my race.","bond"
"4480.0999999940395","","","html-slider-response","420","4057286","0.0-24.0-0.0-0.12","99311","List2A","black","woman","","","","","","","","survey_race","83","","","I often think about the fact that I am my age.","filler"
"3702.4000000059605","","","html-slider-response","421","4060992","0.0-24.0-0.0-0.13","99311","List2A","black","woman","","","","","","","","survey_race","0","","","I consider myself an extrovert.","filler"
"5596.20000000298","","","html-slider-response","422","4066590","0.0-24.0-0.0-0.14","99311","List2A","black","woman","","","","","","","","survey_race","95","","","Being my race is an important part of how I see myself.","important"
"3024.4000000059605","","","html-slider-response","423","4069618","0.0-24.0-0.0-0.15","99311","List2A","black","woman","","","","","","","","survey_race","100","","","I feel committed to my race.","committed"
"2803.7999999970198","","","html-slider-response","424","4072423","0.0-24.0-0.0-0.16","99311","List2A","black","woman","","","","","","","","survey_race","100","","","The fact that I am my race is an important part of my identity.","identity"
"2515.5","","","html-slider-response","425","4074941","0.0-24.0-0.0-0.17","99311","List2A","black","woman","","","","","","","","survey_race","100","","","I often think about the fact that I am my race.","often"
"2303.2999999970198","","","html-slider-response","426","4077248","0.0-24.0-0.0-0.18","99311","List2A","black","woman","","","","","","","","survey_race","100","","","I consider myself an introvert.","filler"
"2756","","","html-slider-response","427","4080006","0.0-24.0-0.0-0.19","99311","List2A","black","woman","","","","","","","","survey_race","64","","","I feel solidarity with people the same age as me.","filler"
"3022.6000000089407","","","html-slider-response","428","4083031","0.0-24.0-0.0-0.20","99311","List2A","black","woman","","","","","","","","survey_race","100","","","I think that my race has a lot to be proud of.","proud"
"6664.4000000059605","","","html-slider-response","429","4089698","0.0-24.0-0.0-0.21","99311","List2A","black","woman","","","","","","","","survey_race","68","","","Being my age gives me a good feeling.","filler"
"2279.300000011921","","","html-slider-response","430","4091980","0.0-24.0-0.0-0.22","99311","List2A","black","woman","","","","","","","","survey_race","61","","","People of my race have a lot in common with each other.","common"
"29035.70000000298","","","html-slider-response","431","4121102","0.0-24.0-0.0-0.23","99311","List2A","black","woman","","","","","","","","survey_race","71","","","The older I get, the wiser I feel.","filler"
"3406.699999988079","","","html-slider-response","432","4124511","0.0-24.0-0.0-0.24","99311","List2A","black","woman","","","","","","","","survey_race","100","","","I am glad to be my race.","glad"
"2539.5999999940395","","","html-slider-response","433","4127052","0.0-24.0-0.0-0.25","99311","List2A","black","woman","","","","","","","","survey_race","85","","","I feel a bond with people the same age as me.","filler"
"10508.60000000894","","","html-slider-response","434","4137562","0.0-24.0-0.0-0.26","99311","List2A","black","woman","","","","","","","","survey_race","51","","","My age is not an important part of who I am.","filler"
"4479","","","html-slider-response","435","4142045","0.0-24.0-0.0-0.27","99311","List2A","black","woman","","","","","","","","survey_race","67","","","People my age have a lot in common with each other.","filler"
"3541.5","","","html-slider-response","436","4145589","0.0-24.0-1.0-0.0","99311","List2A","black","woman","","","","","","","","survey_gender","87","","","I am glad to have the friends that I have.","filler"
"1858.5","","","html-slider-response","437","4147451","0.0-24.0-1.0-0.1","99311","List2A","black","woman","","","","","","","","survey_gender","76","","","Most of the friends in my life are very similar to me.","filler"
"6096.20000000298","","","html-slider-response","438","4153551","0.0-24.0-1.0-0.2","99311","List2A","black","woman","","","","","","","","survey_gender","28","","","Routine is not important to me.","filler"
"3418.3999999910593","","","html-slider-response","439","4156973","0.0-24.0-1.0-0.3","99311","List2A","black","woman","","","","","","","","survey_gender","63","","","My friends have a lot in common with each other.","filler"
"2957.5","","","html-slider-response","440","4159934","0.0-24.0-1.0-0.4","99311","List2A","black","woman","","","","","","","","survey_gender","95","","","I am glad to be my gender.","glad"
"2845.5","","","html-slider-response","441","4162782","0.0-24.0-1.0-0.5","99311","List2A","black","woman","","","","","","","","survey_gender","74","","","I feel solidarity with my friends.","filler"
"2539","","","html-slider-response","442","4165324","0.0-24.0-1.0-0.6","99311","List2A","black","woman","","","","","","","","survey_gender","98","","","The fact that I am my gender is an important part of my identity.","identity"
"3085.7999999970198","","","html-slider-response","443","4168413","0.0-24.0-1.0-0.7","99311","List2A","black","woman","","","","","","","","survey_gender","100","","","I think that my gender has a lot to be proud of.","proud"
"3686.5999999940395","","","html-slider-response","444","4172103","0.0-24.0-1.0-0.8","99311","List2A","black","woman","","","","","","","","survey_gender","92","","","I consider myself a highly empathetic person.","filler"
"5475.899999991059","","","html-slider-response","445","4177582","0.0-24.0-1.0-0.9","99311","List2A","black","woman","","","","","","","","survey_gender","62","","","My friends understand me.","filler"
"3067.9000000059605","","","html-slider-response","446","4180655","0.0-24.0-1.0-0.10","99311","List2A","black","woman","","","","","","","","survey_gender","95","","","It is pleasant to be my gender.","pleasant"
"3565.7000000029802","","","html-slider-response","447","4184224","0.0-24.0-1.0-0.11","99311","List2A","black","woman","","","","","","","","survey_gender","70","","","I have a lot in common with my friends.","filler"
"3064.2999999970198","","","html-slider-response","448","4187291","0.0-24.0-1.0-0.12","99311","List2A","black","woman","","","","","","","","survey_gender","99","","","I feel committed to my gender.","committed"
"3524.8999999910593","","","html-slider-response","449","4190819","0.0-24.0-1.0-0.13","99311","List2A","black","woman","","","","","","","","survey_gender","80","","","I feel a bond with my friends.","filler"
"2188.800000011921","","","html-slider-response","450","4193012","0.0-24.0-1.0-0.14","99311","List2A","black","woman","","","","","","","","survey_gender","80","","","Being around my friends gives me a good feeling.","filler"
"2034.2999999970198","","","html-slider-response","451","4195049","0.0-24.0-1.0-0.15","99311","List2A","black","woman","","","","","","","","survey_gender","85","","","I often think about the fact that I am my gender.","often"
"4022.1000000089407","","","html-slider-response","452","4199073","0.0-24.0-1.0-0.16","99311","List2A","black","woman","","","","","","","","survey_gender","98","","","I would say I am an animal person.","filler"
"5343.0999999940395","","","html-slider-response","453","4204420","0.0-24.0-1.0-0.17","99311","List2A","black","woman","","","","","","","","survey_gender","42","","","Family is not more important to me than friendship.","filler"
"3313.2000000029802","","","html-slider-response","454","4207737","0.0-24.0-1.0-0.18","99311","List2A","black","woman","","","","","","","","survey_gender","67","","","People of my gender have a lot in common with each other.","common"
"2966.0999999940395","","","html-slider-response","455","4210707","0.0-24.0-1.0-0.19","99311","List2A","black","woman","","","","","","","","survey_gender","67","","","It is not always easy for people to know what I am thinking.","filler"
"4229.29999999702","","","html-slider-response","456","4214939","0.0-24.0-1.0-0.20","99311","List2A","black","woman","","","","","","","","survey_gender","87","","","Being my gender is an important part of how I see myself.","important"
"2615.7999999970198","","","html-slider-response","457","4217557","0.0-24.0-1.0-0.21","99311","List2A","black","woman","","","","","","","","survey_gender","92","","","People of my gender are very similar to each other.","verysimilar"
"2905.3999999910593","","","html-slider-response","458","4220464","0.0-24.0-1.0-0.22","99311","List2A","black","woman","","","","","","","","survey_gender","87","","","I am similar to the average person of my gender.","similar"
"1617","","","html-slider-response","459","4222084","0.0-24.0-1.0-0.23","99311","List2A","black","woman","","","","","","","","survey_gender","87","","","I feel a bond with my gender.","bond"
"1421.5999999940395","","","html-slider-response","460","4223507","0.0-24.0-1.0-0.24","99311","List2A","black","woman","","","","","","","","survey_gender","76","","","I have a lot in common with the average person of my gender.","average"
"2935","","","html-slider-response","461","4226445","0.0-24.0-1.0-0.25","99311","List2A","black","woman","","","","","","","","survey_gender","89","","","Being my gender gives me a good feeling.","feeling"
"2488","","","html-slider-response","462","4228937","0.0-24.0-1.0-0.26","99311","List2A","black","woman","","","","","","","","survey_gender","100","","","I feel solidarity with my gender.","solidarity"
"1784.5","","","html-slider-response","463","4230723","0.0-24.0-1.0-0.27","99311","List2A","black","woman","","","","","","","","survey_gender","94","","","I often think about my actions.","filler"
"9182.40000000596","","","survey-text","464","4239909","0.0-25.0","99311","List2A","black","woman","","","","","{""Q0"":""6109a27b00ec08c27990eb67""}","","","worker_id","","","","",""
"16480.5","","","external-html","465","4256940","0.0-26.0","99311","List2A","black","woman","debrief.html","","","","","","","","","","","",""
