"rt","stimulus","button_pressed","trial_type","trial_index","time_elapsed","internal_node_id","subject","list","ppt_race","ppt_gender","url","first_guess","correct","key_press","responses","image_type","phrase_type","test_part","response","stimulus1","stimulus2","question_type","survey_item"
"1119243","Welcome to the experiment. Press Continue to begin.","0","html-button-response","0","1119295","0.0-0.0","99392","List2B","white","woman","","","","","","","","","","","","",""
"3553.9000000059605","","","external-html","1","1124121","0.0-1.0","99392","List2B","white","woman","consent.html","","","","","","","","","","","",""
"9870.59999999404","<p>On the next page, you will see portraits of 8 people and their names.</p><p>Your first task is to take a few minutes to memorise the names of these people.</p><p>You will have to recall their names during the rest of the experiment, so it is</p><p>essential that you try to memorise these people and their names as best as you can.</p><br><p><strong>You will then be tested on your memory of these names and portraits.</strong></p><br><p>The experiment will start after you have completed this memory test.</p><br><p>Ready?</p>","0","html-button-response","2","1133993","0.0-2.0","99392","List2B","white","woman","","","","","","","","","","","","",""
"84050.29999998212","<img src='img/portrait_matrix_list2.jpg' style='width:900px;height:500px;''></img><p>If you have memorised all the portraits and names and are ready to start, press Continue.</p><p><strong>Please note: Your memory of these faces will be tested 4 times during this experiment.</strong></p>","0","html-button-response","3","1219054","0.0-3.0-0.0","99392","List2B","white","woman","","","","","","","","","","","","",""
"3874.0999999940395","<img src=""portrait/WM1.jpg""style=""height:400px;""></img>","6","html-button-response","4","1223930","0.0-3.0-1.0","99392","List2B","white","woman","","true","6","","","","","","","","","",""
"null","CORRECT","","html-keyboard-response","5","1225434","0.0-3.0-2.0-0.0","99392","List2B","white","woman","","","","null","","","","","","","","",""
"2390.300000011921","<img src=""portrait/WW2.jpg""style=""height:400px;""></img>","3","html-button-response","6","1227825","0.0-3.0-4.0","99392","List2B","white","woman","","true","3","","","","","","","","","",""
"null","CORRECT","","html-keyboard-response","7","1229333","0.0-3.0-5.0-0.0","99392","List2B","white","woman","","","","null","","","","","","","","",""
"2481.699999988079","<img src=""portrait/WW1.jpg""style=""height:400px;""></img>","1","html-button-response","8","1231816","0.0-3.0-7.0","99392","List2B","white","woman","","true","1","","","","","","","","","",""
"null","CORRECT","","html-keyboard-response","9","1233321","0.0-3.0-8.0-0.0","99392","List2B","white","woman","","","","null","","","","","","","","",""
"2384.300000011921","<img src=""portrait/BM2.jpg""style=""height:400px;""></img>","5","html-button-response","10","1235706","0.0-3.0-10.0","99392","List2B","white","woman","","true","5","","","","","","","","","",""
"null","CORRECT","","html-keyboard-response","11","1237208","0.0-3.0-11.0-0.0","99392","List2B","white","woman","","","","null","","","","","","","","",""
"4835.699999988079","<img src=""portrait/WM2.jpg""style=""height:400px;""></img>","7","html-button-response","12","1242045","0.0-3.0-13.0","99392","List2B","white","woman","","true","7","","","","","","","","","",""
"null","CORRECT","","html-keyboard-response","13","1243548","0.0-3.0-14.0-0.0","99392","List2B","white","woman","","","","null","","","","","","","","",""
"2071","<img src=""portrait/BM1.jpg""style=""height:400px;""></img>","4","html-button-response","14","1245619","0.0-3.0-16.0","99392","List2B","white","woman","","true","4","","","","","","","","","",""
"null","CORRECT","","html-keyboard-response","15","1247126","0.0-3.0-17.0-0.0","99392","List2B","white","woman","","","","null","","","","","","","","",""
"4459.9000000059605","<img src=""portrait/BW1.jpg""style=""height:400px;""></img>","0","html-button-response","16","1251588","0.0-3.0-19.0","99392","List2B","white","woman","","true","0","","","","","","","","","",""
"null","CORRECT","","html-keyboard-response","17","1253096","0.0-3.0-20.0-0.0","99392","List2B","white","woman","","","","null","","","","","","","","",""
"2801.5","<img src=""portrait/BW2.jpg""style=""height:400px;""></img>","2","html-button-response","18","1255898","0.0-3.0-22.0","99392","List2B","white","woman","","true","2","","","","","","","","","",""
"null","CORRECT","","html-keyboard-response","19","1257403","0.0-3.0-23.0-0.0","99392","List2B","white","woman","","","","null","","","","","","","","",""
"1401","<p>You got 8 out of 8 right first time. Press Continue.</p>","0","html-button-response","20","1258805","0.0-3.0-25.0","99392","List2B","white","woman","","","","","","","","","","","","",""
"43342.29999998212","<p>In this experiment, you will view photographs of the people from the memory game interacting.</p><p>By using the <strong>exact</strong> phrase given <i>after</i> the photograph appears and recalling the correct names of the people in the photographs, form a sentence describing the interaction. You do not need to capitalise names.</p><p>Type your answer in the space provided. Please complete every sentence before moving onto the next trial.</p><p>You will only have a few seconds to memorise each given photograph and phrase before you can respond, so try your best to focus.</p><p>An example is given below. Press 'Continue' when you are ready.</p><img src='img/speaking_example.jpg' style='width:800px;height:460px;''></img>","0","html-button-response","21","1303154","0.0-4.0","99392","List2B","white","woman","","","","","","","","","","","","",""
"2455.5","<p>Before the experiment starts, you will watch two example trials. Press 'Continue'.</p>","0","html-button-response","22","1306615","0.0-5.0","99392","List2B","white","woman","","","","","","","","","","","","",""
"null","<img src='img/play_eg.gif' style='height:400px;''></img>","","html-keyboard-response","23","1309618","0.0-6.0","99392","List2B","white","woman","","","","null","","","","","","","","",""
"null","<p>is playing with</p>","","html-keyboard-response","24","1311621","0.0-7.0","99392","List2B","white","woman","","","","null","","","","","","","","",""
"2015.300000011921","<p><b>Answer:</b> jane is playing with ruth</p>","0","html-button-response","25","1313637","0.0-8.0","99392","List2B","white","woman","","","","","","","","","","","","",""
"null","<img src='img/dance_eg.gif' style='height:400px;''></img>","","html-keyboard-response","26","1316644","0.0-9.0","99392","List2B","white","woman","","","","null","","","","","","","","",""
"null","<p>is being entertained by</p>","","html-keyboard-response","27","1318646","0.0-10.0","99392","List2B","white","woman","","","","null","","","","","","","","",""
"108043.29999998212","<p><b>Answer:</b> fred is being entertained by mike</p>","0","html-button-response","28","1426710","0.0-11.0","99392","List2B","white","woman","","","","","","","","","","","","",""
"22791.90000000596","<p>Ready to start the experiment?</p><br><p><strong>Remember to describe the picture using a full sentence,</strong></p><p><strong>that combines the names of the people with the <i>exact</i> phrase given.</strong></p><p><strong>To receive full payment you must do this correctly.</strong></p><p><strong> You do not need to capitalise names or use punctuation.</strong></p><br><p>Press 'Continue' to begin.</p>","0","html-button-response","29","1450509","0.0-12.0","99392","List2B","white","woman","","","","","","","","","","","","",""
"null","<div style=""font-size:60px;"">+</div>","","html-keyboard-response","30","1452015","0.0-13.0-0.0","99392","List2B","white","woman","","","","null","","","","","","","","",""
"null","<img src=""stim_listB/kiss2.gif""style=""height:400px;""></stim_listB>","","html-keyboard-response","31","1454019","0.0-13.0-1.0","99392","List2B","white","woman","","","","null","","","","","","","","",""
"null","is being kissed by","","html-keyboard-response","32","1456023","0.0-13.0-2.0","99392","List2B","white","woman","","","","null","","","","","","","","",""
"14144.699999988079","","","survey-text","33","1470173","0.0-13.0-3.0","99392","List2B","white","woman","","","","","{""Q0"":""Dave is being kissed by Jane""}","<img src=""stim_listB/kiss2.gif""style=""height:400px;""></stim_listB>","is being kissed by","","","","","",""
"null","<div style=""font-size:60px;"">+</div>","","html-keyboard-response","34","1470675","0.0-13.0-0.1","99392","List2B","white","woman","","","","null","","","","","","","","",""
"null","<img src=""stim_listB/oppose4.gif""style=""height:400px;""></stim_listB>","","html-keyboard-response","35","1472678","0.0-13.0-1.1","99392","List2B","white","woman","","","","null","","","","","","","","",""
"null","is being opposed by","","html-keyboard-response","36","1474679","0.0-13.0-2.1","99392","List2B","white","woman","","","","null","","","","","","","","",""
"10205.5","","","survey-text","37","1484886","0.0-13.0-3.1","99392","List2B","white","woman","","","","","{""Q0"":""Fred is being opposed by Beth""}","<img src=""stim_listB/oppose4.gif""style=""height:400px;""></stim_listB>","is being opposed by","","","","","",""
"null","<div style=""font-size:60px;"">+</div>","","html-keyboard-response","38","1485387","0.0-13.0-0.2","99392","List2B","white","woman","","","","null","","","","","","","","",""
"null","<img src=""stim_listB/shout5.gif""style=""height:400px;""></stim_listB>","","html-keyboard-response","39","1487390","0.0-13.0-1.2","99392","List2B","white","woman","","","","null","","","","","","","","",""
"null","is shouting at","","html-keyboard-response","40","1489393","0.0-13.0-2.2","99392","List2B","white","woman","","","","null","","","","","","","","",""
"5622.5","","","survey-text","41","1495017","0.0-13.0-3.2","99392","List2B","white","woman","","","","","{""Q0"":""Luke is shouting at Fred""}","<img src=""stim_listB/shout5.gif""style=""height:400px;""></stim_listB>","is shouting at","","","","","",""
"null","<div style=""font-size:60px;"">+</div>","","html-keyboard-response","42","1495521","0.0-13.0-0.3","99392","List2B","white","woman","","","","null","","","","","","","","",""
"null","<img src=""stim_listB/hug1.gif""style=""height:400px;""></stim_listB>","","html-keyboard-response","43","1497524","0.0-13.0-1.3","99392","List2B","white","woman","","","","null","","","","","","","","",""
"null","is hugging","","html-keyboard-response","44","1499530","0.0-13.0-2.3","99392","List2B","white","woman","","","","null","","","","","","","","",""
"4688.700000017881","","","survey-text","45","1504220","0.0-13.0-3.3","99392","List2B","white","woman","","","","","{""Q0"":""Ruth is hugging Luke""}","<img src=""stim_listB/hug1.gif""style=""height:400px;""></stim_listB>","is hugging","","","","","",""
"null","<div style=""font-size:60px;"">+</div>","","html-keyboard-response","46","1504724","0.0-13.0-0.4","99392","List2B","white","woman","","","","null","","","","","","","","",""
"null","<img src=""stim_listB/shout4.gif""style=""height:400px;""></stim_listB>","","html-keyboard-response","47","1506728","0.0-13.0-1.4","99392","List2B","white","woman","","","","null","","","","","","","","",""
"null","is being shouted at by","","html-keyboard-response","48","1508730","0.0-13.0-2.4","99392","List2B","white","woman","","","","null","","","","","","","","",""
"9048.5","","","survey-text","49","1517781","0.0-13.0-3.4","99392","List2B","white","woman","","","","","{""Q0"":""Kate is being shouted at by Mike""}","<img src=""stim_listB/shout4.gif""style=""height:400px;""></stim_listB>","is being shouted at by","","","","","",""
"null","<div style=""font-size:60px;"">+</div>","","html-keyboard-response","50","1518282","0.0-13.0-0.5","99392","List2B","white","woman","","","","null","","","","","","","","",""
"null","<img src=""stim_listB/challenge4.gif""style=""height:400px;""></stim_listB>","","html-keyboard-response","51","1520285","0.0-13.0-1.5","99392","List2B","white","woman","","","","null","","","","","","","","",""
"null","is being challenged by","","html-keyboard-response","52","1522285","0.0-13.0-2.5","99392","List2B","white","woman","","","","null","","","","","","","","",""
"8237.199999988079","","","survey-text","53","1530525","0.0-13.0-3.5","99392","List2B","white","woman","","","","","{""Q0"":""Kate is being challenged by Fred""}","<img src=""stim_listB/challenge4.gif""style=""height:400px;""></stim_listB>","is being challenged by","","","","","",""
"null","<div style=""font-size:60px;"">+</div>","","html-keyboard-response","54","1531025","0.0-13.0-0.6","99392","List2B","white","woman","","","","null","","","","","","","","",""
"null","<img src=""stim_listB/challenge6.gif""style=""height:400px;""></stim_listB>","","html-keyboard-response","55","1533029","0.0-13.0-1.6","99392","List2B","white","woman","","","","null","","","","","","","","",""
"null","is being challenged by","","html-keyboard-response","56","1535030","0.0-13.0-2.6","99392","List2B","white","woman","","","","null","","","","","","","","",""
"5745.9000000059605","","","survey-text","57","1540778","0.0-13.0-3.6","99392","List2B","white","woman","","","","","{""Q0"":""Mike is being challenged by Luke""}","<img src=""stim_listB/challenge6.gif""style=""height:400px;""></stim_listB>","is being challenged by","","","","","",""
"null","<div style=""font-size:60px;"">+</div>","","html-keyboard-response","58","1541279","0.0-13.0-0.7","99392","List2B","white","woman","","","","null","","","","","","","","",""
"null","<img src=""stim_listB/greet1.gif""style=""height:400px;""></stim_listB>","","html-keyboard-response","59","1543280","0.0-13.0-1.7","99392","List2B","white","woman","","","","null","","","","","","","","",""
"null","is greeting","","html-keyboard-response","60","1545281","0.0-13.0-2.7","99392","List2B","white","woman","","","","null","","","","","","","","",""
"4048.399999976158","","","survey-text","61","1549332","0.0-13.0-3.7","99392","List2B","white","woman","","","","","{""Q0"":""Dave is greeting Ruth""}","<img src=""stim_listB/greet1.gif""style=""height:400px;""></stim_listB>","is greeting","","","","","",""
"null","<div style=""font-size:60px;"">+</div>","","html-keyboard-response","62","1549833","0.0-13.0-0.8","99392","List2B","white","woman","","","","null","","","","","","","","",""
"null","<img src=""stim_listB/greet6.gif""style=""height:400px;""></stim_listB>","","html-keyboard-response","63","1551837","0.0-13.0-1.8","99392","List2B","white","woman","","","","null","","","","","","","","",""
"null","is being greeted by","","html-keyboard-response","64","1553837","0.0-13.0-2.8","99392","List2B","white","woman","","","","null","","","","","","","","",""
"5617.799999982119","","","survey-text","65","1559457","0.0-13.0-3.8","99392","List2B","white","woman","","","","","{""Q0"":""Mike is greeted by Luke""}","<img src=""stim_listB/greet6.gif""style=""height:400px;""></stim_listB>","is being greeted by","","","","","",""
"null","<div style=""font-size:60px;"">+</div>","","html-keyboard-response","66","1559961","0.0-13.0-0.9","99392","List2B","white","woman","","","","null","","","","","","","","",""
"null","<img src=""stim_listB/copy6.gif""style=""height:400px;""></stim_listB>","","html-keyboard-response","67","1561962","0.0-13.0-1.9","99392","List2B","white","woman","","","","null","","","","","","","","",""
"null","is being copied by","","html-keyboard-response","68","1563965","0.0-13.0-2.9","99392","List2B","white","woman","","","","null","","","","","","","","",""
"4474.199999988079","","","survey-text","69","1568441","0.0-13.0-3.9","99392","List2B","white","woman","","","","","{""Q0"":""Mike is being copied by Luke""}","<img src=""stim_listB/copy6.gif""style=""height:400px;""></stim_listB>","is being copied by","","","","","",""
"null","<div style=""font-size:60px;"">+</div>","","html-keyboard-response","70","1568941","0.0-13.0-0.10","99392","List2B","white","woman","","","","null","","","","","","","","",""
"null","<img src=""stim_listB/look7.gif""style=""height:400px;""></stim_listB>","","html-keyboard-response","71","1570943","0.0-13.0-1.10","99392","List2B","white","woman","","","","null","","","","","","","","",""
"null","is looking at","","html-keyboard-response","72","1572945","0.0-13.0-2.10","99392","List2B","white","woman","","","","null","","","","","","","","",""
"4354.5","","","survey-text","73","1577302","0.0-13.0-3.10","99392","List2B","white","woman","","","","","{""Q0"":""Beth is looking at Ruth""}","<img src=""stim_listB/look7.gif""style=""height:400px;""></stim_listB>","is looking at","","","","","",""
"null","<div style=""font-size:60px;"">+</div>","","html-keyboard-response","74","1577803","0.0-13.0-0.11","99392","List2B","white","woman","","","","null","","","","","","","","",""
"null","<img src=""stim_listB/oppose6.gif""style=""height:400px;""></stim_listB>","","html-keyboard-response","75","1579809","0.0-13.0-1.11","99392","List2B","white","woman","","","","null","","","","","","","","",""
"null","is being opposed by","","html-keyboard-response","76","1581814","0.0-13.0-2.11","99392","List2B","white","woman","","","","null","","","","","","","","",""
"7435.0999999940395","","","survey-text","77","1589250","0.0-13.0-3.11","99392","List2B","white","woman","","","","","{""Q0"":""Fred is being opposed by Luke""}","<img src=""stim_listB/oppose6.gif""style=""height:400px;""></stim_listB>","is being opposed by","","","","","",""
"null","<div style=""font-size:60px;"">+</div>","","html-keyboard-response","78","1589751","0.0-13.0-0.12","99392","List2B","white","woman","","","","null","","","","","","","","",""
"null","<img src=""stim_listB/kiss5.gif""style=""height:400px;""></stim_listB>","","html-keyboard-response","79","1591753","0.0-13.0-1.12","99392","List2B","white","woman","","","","null","","","","","","","","",""
"null","is kissing","","html-keyboard-response","80","1593756","0.0-13.0-2.12","99392","List2B","white","woman","","","","null","","","","","","","","",""
"3802.800000011921","","","survey-text","81","1597561","0.0-13.0-3.12","99392","List2B","white","woman","","","","","{""Q0"":""Fred is kissing Luke""}","<img src=""stim_listB/kiss5.gif""style=""height:400px;""></stim_listB>","is kissing","","","","","",""
"null","<div style=""font-size:60px;"">+</div>","","html-keyboard-response","82","1598063","0.0-13.0-0.13","99392","List2B","white","woman","","","","null","","","","","","","","",""
"null","<img src=""stim_listB/look5.gif""style=""height:400px;""></stim_listB>","","html-keyboard-response","83","1600071","0.0-13.0-1.13","99392","List2B","white","woman","","","","null","","","","","","","","",""
"null","is looking at","","html-keyboard-response","84","1602074","0.0-13.0-2.13","99392","List2B","white","woman","","","","null","","","","","","","","",""
"6012.5","","","survey-text","85","1608089","0.0-13.0-3.13","99392","List2B","white","woman","","","","","{""Q0"":""Fred is looking at Luke""}","<img src=""stim_listB/look5.gif""style=""height:400px;""></stim_listB>","is looking at","","","","","",""
"null","<div style=""font-size:60px;"">+</div>","","html-keyboard-response","86","1608590","0.0-13.0-0.14","99392","List2B","white","woman","","","","null","","","","","","","","",""
"null","<img src=""stim_listB/seduce4.gif""style=""height:400px;""></stim_listB>","","html-keyboard-response","87","1610595","0.0-13.0-1.14","99392","List2B","white","woman","","","","null","","","","","","","","",""
"null","is being seduced by","","html-keyboard-response","88","1612597","0.0-13.0-2.14","99392","List2B","white","woman","","","","null","","","","","","","","",""
"5866.9000000059605","","","survey-text","89","1618466","0.0-13.0-3.14","99392","List2B","white","woman","","","","","{""Q0"":""Mike is being seduced by Beth""}","<img src=""stim_listB/seduce4.gif""style=""height:400px;""></stim_listB>","is being seduced by","","","","","",""
"null","<div style=""font-size:60px;"">+</div>","","html-keyboard-response","90","1618967","0.0-13.0-0.15","99392","List2B","white","woman","","","","null","","","","","","","","",""
"null","<img src=""stim_listB/copy8.gif""style=""height:400px;""></stim_listB>","","html-keyboard-response","91","1620969","0.0-13.0-1.15","99392","List2B","white","woman","","","","null","","","","","","","","",""
"null","is being copied by","","html-keyboard-response","92","1622971","0.0-13.0-2.15","99392","List2B","white","woman","","","","null","","","","","","","","",""
"8841.09999999404","","","survey-text","93","1631815","0.0-13.0-3.15","99392","List2B","white","woman","","","","","{""Q0"":""Kate is being copied by Ruth""}","<img src=""stim_listB/copy8.gif""style=""height:400px;""></stim_listB>","is being copied by","","","","","",""
"null","<div style=""font-size:60px;"">+</div>","","html-keyboard-response","94","1632316","0.0-13.0-0.16","99392","List2B","white","woman","","","","null","","","","","","","","",""
"null","<img src=""stim_listB/kiss6.gif""style=""height:400px;""></stim_listB>","","html-keyboard-response","95","1634322","0.0-13.0-1.16","99392","List2B","white","woman","","","","null","","","","","","","","",""
"null","is being kissed by","","html-keyboard-response","96","1636326","0.0-13.0-2.16","99392","List2B","white","woman","","","","null","","","","","","","","",""
"4651.5","","","survey-text","97","1640979","0.0-13.0-3.16","99392","List2B","white","woman","","","","","{""Q0"":""Mike is being kissed by Dave""}","<img src=""stim_listB/kiss6.gif""style=""height:400px;""></stim_listB>","is being kissed by","","","","","",""
"null","<div style=""font-size:60px;"">+</div>","","html-keyboard-response","98","1641483","0.0-13.0-0.17","99392","List2B","white","woman","","","","null","","","","","","","","",""
"null","<img src=""stim_listB/oppose7.gif""style=""height:400px;""></stim_listB>","","html-keyboard-response","99","1643484","0.0-13.0-1.17","99392","List2B","white","woman","","","","null","","","","","","","","",""
"null","is opposing","","html-keyboard-response","100","1645485","0.0-13.0-2.17","99392","List2B","white","woman","","","","null","","","","","","","","",""
"3182.699999988079","","","survey-text","101","1648670","0.0-13.0-3.17","99392","List2B","white","woman","","","","","{""Q0"":""Jane is opposing Kate""}","<img src=""stim_listB/oppose7.gif""style=""height:400px;""></stim_listB>","is opposing","","","","","",""
"null","<div style=""font-size:60px;"">+</div>","","html-keyboard-response","102","1649171","0.0-13.0-0.18","99392","List2B","white","woman","","","","null","","","","","","","","",""
"null","<img src=""stim_listB/touch5.gif""style=""height:400px;""></stim_listB>","","html-keyboard-response","103","1651172","0.0-13.0-1.18","99392","List2B","white","woman","","","","null","","","","","","","","",""
"null","is touching","","html-keyboard-response","104","1653176","0.0-13.0-2.18","99392","List2B","white","woman","","","","null","","","","","","","","",""
"3458.899999976158","","","survey-text","105","1656636","0.0-13.0-3.18","99392","List2B","white","woman","","","","","{""Q0"":""Mike is touching Dave""}","<img src=""stim_listB/touch5.gif""style=""height:400px;""></stim_listB>","is touching","","","","","",""
"null","<div style=""font-size:60px;"">+</div>","","html-keyboard-response","106","1657137","0.0-13.0-0.19","99392","List2B","white","woman","","","","null","","","","","","","","",""
"null","<img src=""stim_listB/touch1.gif""style=""height:400px;""></stim_listB>","","html-keyboard-response","107","1659139","0.0-13.0-1.19","99392","List2B","white","woman","","","","null","","","","","","","","",""
"null","is touching","","html-keyboard-response","108","1661140","0.0-13.0-2.19","99392","List2B","white","woman","","","","null","","","","","","","","",""
"3376.7999999821186","","","survey-text","109","1664519","0.0-13.0-3.19","99392","List2B","white","woman","","","","","{""Q0"":""Jane is touching Dave""}","<img src=""stim_listB/touch1.gif""style=""height:400px;""></stim_listB>","is touching","","","","","",""
"57876.90000000596","<img src='img/portrait_matrix_list2.jpg' style='width:900px;height:500px;''></img><p>If you have memorised all the portraits and names and are ready to start, press Continue.</p><p><strong>Please note: Your memory of these faces will be tested 4 times during this experiment.</strong></p>","0","html-button-response","110","1722399","0.0-14.0-0.0","99392","List2B","white","woman","","","","","","","","","","","","",""
"2938.7000000178814","<img src=""portrait/WM2.jpg""style=""height:400px;""></img>","7","html-button-response","111","1726340","0.0-14.0-1.0","99392","List2B","white","woman","","true","7","","","","","","","","","",""
"null","CORRECT","","html-keyboard-response","112","1727843","0.0-14.0-2.0-0.0","99392","List2B","white","woman","","","","null","","","","","","","","",""
"2201.5999999940395","<img src=""portrait/BM2.jpg""style=""height:400px;""></img>","5","html-button-response","113","1730046","0.0-14.0-4.0","99392","List2B","white","woman","","true","5","","","","","","","","","",""
"null","CORRECT","","html-keyboard-response","114","1731548","0.0-14.0-5.0-0.0","99392","List2B","white","woman","","","","null","","","","","","","","",""
"2018.0999999940395","<img src=""portrait/BW1.jpg""style=""height:400px;""></img>","0","html-button-response","115","1733568","0.0-14.0-7.0","99392","List2B","white","woman","","true","0","","","","","","","","","",""
"null","CORRECT","","html-keyboard-response","116","1735078","0.0-14.0-8.0-0.0","99392","List2B","white","woman","","","","null","","","","","","","","",""
"2529.2000000178814","<img src=""portrait/WW1.jpg""style=""height:400px;""></img>","1","html-button-response","117","1737609","0.0-14.0-10.0","99392","List2B","white","woman","","true","1","","","","","","","","","",""
"null","CORRECT","","html-keyboard-response","118","1739110","0.0-14.0-11.0-0.0","99392","List2B","white","woman","","","","null","","","","","","","","",""
"6659.600000023842","<img src=""portrait/WM1.jpg""style=""height:400px;""></img>","6","html-button-response","119","1745771","0.0-14.0-13.0","99392","List2B","white","woman","","true","6","","","","","","","","","",""
"null","CORRECT","","html-keyboard-response","120","1747281","0.0-14.0-14.0-0.0","99392","List2B","white","woman","","","","null","","","","","","","","",""
"1680.800000011921","<img src=""portrait/BM1.jpg""style=""height:400px;""></img>","4","html-button-response","121","1748963","0.0-14.0-16.0","99392","List2B","white","woman","","true","4","","","","","","","","","",""
"null","CORRECT","","html-keyboard-response","122","1750467","0.0-14.0-17.0-0.0","99392","List2B","white","woman","","","","null","","","","","","","","",""
"1380.300000011921","<img src=""portrait/WW2.jpg""style=""height:400px;""></img>","3","html-button-response","123","1751848","0.0-14.0-19.0","99392","List2B","white","woman","","true","3","","","","","","","","","",""
"null","CORRECT","","html-keyboard-response","124","1753352","0.0-14.0-20.0-0.0","99392","List2B","white","woman","","","","null","","","","","","","","",""
"4512","<img src=""portrait/BW2.jpg""style=""height:400px;""></img>","3","html-button-response","125","1757865","0.0-14.0-22.0","99392","List2B","white","woman","","true","2","","","","","","","","","",""
"2462.199999988079","<img src=""portrait/BW2.jpg""style=""height:400px;""></img>","2","html-button-response","126","1761333","0.0-14.0-24.0-0.0","99392","List2B","white","woman","","false","2","","","","","","","","","",""
"null","CORRECT","","html-keyboard-response","127","1762838","0.0-14.0-24.0-1.0-0.0","99392","List2B","white","woman","","","","null","","","","","","","","",""
"3400.7999999821186","<p>You got 7 out of 8 right first time. Press Continue.</p>","0","html-button-response","128","1766240","0.0-14.0-25.0","99392","List2B","white","woman","","","","","","","","","","","","",""
"2671.100000023842","As you did not score 100%, the memory game will repeat. Press Continue.","0","html-button-response","129","1769913","0.0-14.0-26.0-0.0","99392","List2B","white","woman","","","","","","","","","","","","",""
"3420.699999988079","<img src='img/portrait_matrix_list2.jpg' style='width:900px;height:500px;''></img><p>If you have memorised all the portraits and names and are ready to start, press Continue.</p><p><strong>Please note: Your memory of these faces will be tested 4 times during this experiment.</strong></p>","0","html-button-response","130","1774338","0.0-14.1-0.1","99392","List2B","white","woman","","","","","","","","","","","","",""
"4056.5999999940395","<img src=""portrait/WM2.jpg""style=""height:400px;""></img>","7","html-button-response","131","1779399","0.0-14.1-1.1","99392","List2B","white","woman","","true","7","","","","","","","","","",""
"null","CORRECT","","html-keyboard-response","132","1780906","0.0-14.1-2.1-0.1","99392","List2B","white","woman","","","","null","","","","","","","","",""
"2228.899999976158","<img src=""portrait/BM2.jpg""style=""height:400px;""></img>","5","html-button-response","133","1783136","0.0-14.1-4.1","99392","List2B","white","woman","","true","5","","","","","","","","","",""
"null","CORRECT","","html-keyboard-response","134","1784641","0.0-14.1-5.1-0.1","99392","List2B","white","woman","","","","null","","","","","","","","",""
"1791.5","<img src=""portrait/BW1.jpg""style=""height:400px;""></img>","0","html-button-response","135","1786434","0.0-14.1-7.1","99392","List2B","white","woman","","true","0","","","","","","","","","",""
"null","CORRECT","","html-keyboard-response","136","1787938","0.0-14.1-8.1-0.1","99392","List2B","white","woman","","","","null","","","","","","","","",""
"1554.300000011921","<img src=""portrait/WW1.jpg""style=""height:400px;""></img>","1","html-button-response","137","1789493","0.0-14.1-10.1","99392","List2B","white","woman","","true","1","","","","","","","","","",""
"null","CORRECT","","html-keyboard-response","138","1790999","0.0-14.1-11.1-0.1","99392","List2B","white","woman","","","","null","","","","","","","","",""
"3558.2999999821186","<img src=""portrait/WM1.jpg""style=""height:400px;""></img>","6","html-button-response","139","1794559","0.0-14.1-13.1","99392","List2B","white","woman","","true","6","","","","","","","","","",""
"null","CORRECT","","html-keyboard-response","140","1796068","0.0-14.1-14.1-0.1","99392","List2B","white","woman","","","","null","","","","","","","","",""
"1326.5999999940395","<img src=""portrait/BM1.jpg""style=""height:400px;""></img>","4","html-button-response","141","1797396","0.0-14.1-16.1","99392","List2B","white","woman","","true","4","","","","","","","","","",""
"null","CORRECT","","html-keyboard-response","142","1798903","0.0-14.1-17.1-0.1","99392","List2B","white","woman","","","","null","","","","","","","","",""
"1410.5","<img src=""portrait/WW2.jpg""style=""height:400px;""></img>","3","html-button-response","143","1800315","0.0-14.1-19.1","99392","List2B","white","woman","","true","3","","","","","","","","","",""
"null","CORRECT","","html-keyboard-response","144","1801821","0.0-14.1-20.1-0.1","99392","List2B","white","woman","","","","null","","","","","","","","",""
"875.0999999940395","<img src=""portrait/BW2.jpg""style=""height:400px;""></img>","2","html-button-response","145","1802697","0.0-14.1-22.1","99392","List2B","white","woman","","true","2","","","","","","","","","",""
"null","CORRECT","","html-keyboard-response","146","1804202","0.0-14.1-23.1-0.1","99392","List2B","white","woman","","","","null","","","","","","","","",""
"1113.199999988079","<p>You got 8 out of 8 right first time. Press Continue.</p>","0","html-button-response","147","1805317","0.0-14.1-25.1","99392","List2B","white","woman","","","","","","","","","","","","",""
"null","<div style=""font-size:60px;"">+</div>","","html-keyboard-response","148","1806823","0.0-15.0-0.0","99392","List2B","white","woman","","","","null","","","","","","","","",""
"null","<img src=""stim_listB/touch3.gif""style=""height:400px;""></stim_listB>","","html-keyboard-response","149","1808829","0.0-15.0-1.0","99392","List2B","white","woman","","","","null","","","","","","","","",""
"null","is touching","","html-keyboard-response","150","1810833","0.0-15.0-2.0","99392","List2B","white","woman","","","","null","","","","","","","","",""
"5106","","","survey-text","151","1815940","0.0-15.0-3.0","99392","List2B","white","woman","","","","","{""Q0"":""Kate is touching Mike""}","<img src=""stim_listB/touch3.gif""style=""height:400px;""></stim_listB>","is touching","","","","","",""
"null","<div style=""font-size:60px;"">+</div>","","html-keyboard-response","152","1816445","0.0-15.0-0.1","99392","List2B","white","woman","","","","null","","","","","","","","",""
"null","<img src=""stim_listB/copy2.gif""style=""height:400px;""></stim_listB>","","html-keyboard-response","153","1818446","0.0-15.0-1.1","99392","List2B","white","woman","","","","null","","","","","","","","",""
"null","is being copied by","","html-keyboard-response","154","1820447","0.0-15.0-2.1","99392","List2B","white","woman","","","","null","","","","","","","","",""
"3839.199999988079","","","survey-text","155","1824288","0.0-15.0-3.1","99392","List2B","white","woman","","","","","{""Q0"":""Jane is being copied by Luke""}","<img src=""stim_listB/copy2.gif""style=""height:400px;""></stim_listB>","is being copied by","","","","","",""
"null","<div style=""font-size:60px;"">+</div>","","html-keyboard-response","156","1824789","0.0-15.0-0.2","99392","List2B","white","woman","","","","null","","","","","","","","",""
"null","<img src=""stim_listB/look4.gif""style=""height:400px;""></stim_listB>","","html-keyboard-response","157","1826794","0.0-15.0-1.2","99392","List2B","white","woman","","","","null","","","","","","","","",""
"null","is being looked at by","","html-keyboard-response","158","1828795","0.0-15.0-2.2","99392","List2B","white","woman","","","","null","","","","","","","","",""
"4487.299999982119","","","survey-text","159","1833284","0.0-15.0-3.2","99392","List2B","white","woman","","","","","{""Q0"":""Kate is being looked at by Mike""}","<img src=""stim_listB/look4.gif""style=""height:400px;""></stim_listB>","is being looked at by","","","","","",""
"null","<div style=""font-size:60px;"">+</div>","","html-keyboard-response","160","1833789","0.0-15.0-0.3","99392","List2B","white","woman","","","","null","","","","","","","","",""
"null","<img src=""stim_listB/hug5.gif""style=""height:400px;""></stim_listB>","","html-keyboard-response","161","1835795","0.0-15.0-1.3","99392","List2B","white","woman","","","","null","","","","","","","","",""
"null","is hugging","","html-keyboard-response","162","1837796","0.0-15.0-2.3","99392","List2B","white","woman","","","","null","","","","","","","","",""
"3620.600000023842","","","survey-text","163","1841418","0.0-15.0-3.3","99392","List2B","white","woman","","","","","{""Q0"":""Fred is hugging Luke""}","<img src=""stim_listB/hug5.gif""style=""height:400px;""></stim_listB>","is hugging","","","","","",""
"null","<div style=""font-size:60px;"">+</div>","","html-keyboard-response","164","1841921","0.0-15.0-0.4","99392","List2B","white","woman","","","","null","","","","","","","","",""
"null","<img src=""stim_listB/shout8.gif""style=""height:400px;""></stim_listB>","","html-keyboard-response","165","1843926","0.0-15.0-1.4","99392","List2B","white","woman","","","","null","","","","","","","","",""
"null","is being shouted at by","","html-keyboard-response","166","1845930","0.0-15.0-2.4","99392","List2B","white","woman","","","","null","","","","","","","","",""
"4730.700000017881","","","survey-text","167","1850664","0.0-15.0-3.4","99392","List2B","white","woman","","","","","{""Q0"":""Kate is being shouted at by Jane""}","<img src=""stim_listB/shout8.gif""style=""height:400px;""></stim_listB>","is being shouted at by","","","","","",""
"null","<div style=""font-size:60px;"">+</div>","","html-keyboard-response","168","1851166","0.0-15.0-0.5","99392","List2B","white","woman","","","","null","","","","","","","","",""
"null","<img src=""stim_listB/hug6.gif""style=""height:400px;""></stim_listB>","","html-keyboard-response","169","1853168","0.0-15.0-1.5","99392","List2B","white","woman","","","","null","","","","","","","","",""
"null","is being hugged by","","html-keyboard-response","170","1855172","0.0-15.0-2.5","99392","List2B","white","woman","","","","null","","","","","","","","",""
"4238.9000000059605","","","survey-text","171","1859412","0.0-15.0-3.5","99392","List2B","white","woman","","","","","{""Q0"":""Fred is being hugged by Mike""}","<img src=""stim_listB/hug6.gif""style=""height:400px;""></stim_listB>","is being hugged by","","","","","",""
"null","<div style=""font-size:60px;"">+</div>","","html-keyboard-response","172","1859913","0.0-15.0-0.6","99392","List2B","white","woman","","","","null","","","","","","","","",""
"null","<img src=""stim_listB/hug4.gif""style=""height:400px;""></stim_listB>","","html-keyboard-response","173","1861918","0.0-15.0-1.6","99392","List2B","white","woman","","","","null","","","","","","","","",""
"null","is being hugged by","","html-keyboard-response","174","1863923","0.0-15.0-2.6","99392","List2B","white","woman","","","","null","","","","","","","","",""
"4755.0999999940395","","","survey-text","175","1868680","0.0-15.0-3.6","99392","List2B","white","woman","","","","","{""Q0"":""Mike is being hugged by Kate""}","<img src=""stim_listB/hug4.gif""style=""height:400px;""></stim_listB>","is being hugged by","","","","","",""
"null","<div style=""font-size:60px;"">+</div>","","html-keyboard-response","176","1869185","0.0-15.0-0.7","99392","List2B","white","woman","","","","null","","","","","","","","",""
"null","<img src=""stim_listB/seduce6.gif""style=""height:400px;""></stim_listB>","","html-keyboard-response","177","1871189","0.0-15.0-1.7","99392","List2B","white","woman","","","","null","","","","","","","","",""
"null","is being seduced by","","html-keyboard-response","178","1873194","0.0-15.0-2.7","99392","List2B","white","woman","","","","null","","","","","","","","",""
"7514.5","","","survey-text","179","1880710","0.0-15.0-3.7","99392","List2B","white","woman","","","","","{""Q0"":""Fred is being seduced by Dave""}","<img src=""stim_listB/seduce6.gif""style=""height:400px;""></stim_listB>","is being seduced by","","","","","",""
"null","<div style=""font-size:60px;"">+</div>","","html-keyboard-response","180","1881211","0.0-15.0-0.8","99392","List2B","white","woman","","","","null","","","","","","","","",""
"null","<img src=""stim_listB/shout6.gif""style=""height:400px;""></stim_listB>","","html-keyboard-response","181","1883215","0.0-15.0-1.8","99392","List2B","white","woman","","","","null","","","","","","","","",""
"null","is being shouted at by","","html-keyboard-response","182","1885219","0.0-15.0-2.8","99392","List2B","white","woman","","","","null","","","","","","","","",""
"5563.299999982119","","","survey-text","183","1890784","0.0-15.0-3.8","99392","List2B","white","woman","","","","","{""Q0"":""Fred is being shouted at by Mike""}","<img src=""stim_listB/shout6.gif""style=""height:400px;""></stim_listB>","is being shouted at by","","","","","",""
"null","<div style=""font-size:60px;"">+</div>","","html-keyboard-response","184","1891287","0.0-15.0-0.9","99392","List2B","white","woman","","","","null","","","","","","","","",""
"null","<img src=""stim_listB/touch2.gif""style=""height:400px;""></stim_listB>","","html-keyboard-response","185","1893289","0.0-15.0-1.9","99392","List2B","white","woman","","","","null","","","","","","","","",""
"null","is being touched by","","html-keyboard-response","186","1895290","0.0-15.0-2.9","99392","List2B","white","woman","","","","null","","","","","","","","",""
"5083.9000000059605","","","survey-text","187","1900376","0.0-15.0-3.9","99392","List2B","white","woman","","","","","{""Q0"":""Ruth is being touched by Luke""}","<img src=""stim_listB/touch2.gif""style=""height:400px;""></stim_listB>","is being touched by","","","","","",""
"null","<div style=""font-size:60px;"">+</div>","","html-keyboard-response","188","1900876","0.0-15.0-0.10","99392","List2B","white","woman","","","","null","","","","","","","","",""
"null","<img src=""stim_listB/challenge8.gif""style=""height:400px;""></stim_listB>","","html-keyboard-response","189","1902879","0.0-15.0-1.10","99392","List2B","white","woman","","","","null","","","","","","","","",""
"null","is being challenged by","","html-keyboard-response","190","1904880","0.0-15.0-2.10","99392","List2B","white","woman","","","","null","","","","","","","","",""
"6160.5","","","survey-text","191","1911043","0.0-15.0-3.10","99392","List2B","white","woman","","","","","{""Q0"":""Ruth is being challenged by Kate""}","<img src=""stim_listB/challenge8.gif""style=""height:400px;""></stim_listB>","is being challenged by","","","","","",""
"null","<div style=""font-size:60px;"">+</div>","","html-keyboard-response","192","1911543","0.0-15.0-0.11","99392","List2B","white","woman","","","","null","","","","","","","","",""
"null","<img src=""stim_listB/greet2.gif""style=""height:400px;""></stim_listB>","","html-keyboard-response","193","1913547","0.0-15.0-1.11","99392","List2B","white","woman","","","","null","","","","","","","","",""
"null","is being greeted by","","html-keyboard-response","194","1915548","0.0-15.0-2.11","99392","List2B","white","woman","","","","null","","","","","","","","",""
"5615.799999982119","","","survey-text","195","1921166","0.0-15.0-3.11","99392","List2B","white","woman","","","","","{""Q0"":""Jane is being greeted by Luke""}","<img src=""stim_listB/greet2.gif""style=""height:400px;""></stim_listB>","is being greeted by","","","","","",""
"null","<div style=""font-size:60px;"">+</div>","","html-keyboard-response","196","1921669","0.0-15.0-0.12","99392","List2B","white","woman","","","","null","","","","","","","","",""
"null","<img src=""stim_listB/oppose1.gif""style=""height:400px;""></stim_listB>","","html-keyboard-response","197","1923672","0.0-15.0-1.12","99392","List2B","white","woman","","","","null","","","","","","","","",""
"null","is opposing","","html-keyboard-response","198","1925675","0.0-15.0-2.12","99392","List2B","white","woman","","","","null","","","","","","","","",""
"3637.2999999821186","","","survey-text","199","1929314","0.0-15.0-3.12","99392","List2B","white","woman","","","","","{""Q0"":""Jane is opposing Dave""}","<img src=""stim_listB/oppose1.gif""style=""height:400px;""></stim_listB>","is opposing","","","","","",""
"null","<div style=""font-size:60px;"">+</div>","","html-keyboard-response","200","1929817","0.0-15.0-0.13","99392","List2B","white","woman","","","","null","","","","","","","","",""
"null","<img src=""stim_listB/challenge1.gif""style=""height:400px;""></stim_listB>","","html-keyboard-response","201","1931822","0.0-15.0-1.13","99392","List2B","white","woman","","","","null","","","","","","","","",""
"null","is challenging","","html-keyboard-response","202","1933827","0.0-15.0-2.13","99392","List2B","white","woman","","","","null","","","","","","","","",""
"3793.900000035763","","","survey-text","203","1937622","0.0-15.0-3.13","99392","List2B","white","woman","","","","","{""Q0"":""Ruth is challenging Dave""}","<img src=""stim_listB/challenge1.gif""style=""height:400px;""></stim_listB>","is challenging","","","","","",""
"null","<div style=""font-size:60px;"">+</div>","","html-keyboard-response","204","1938127","0.0-15.0-0.14","99392","List2B","white","woman","","","","null","","","","","","","","",""
"null","<img src=""stim_listB/challenge5.gif""style=""height:400px;""></stim_listB>","","html-keyboard-response","205","1940129","0.0-15.0-1.14","99392","List2B","white","woman","","","","null","","","","","","","","",""
"null","is challenging","","html-keyboard-response","206","1942130","0.0-15.0-2.14","99392","List2B","white","woman","","","","null","","","","","","","","",""
"3484.800000011921","","","survey-text","207","1945616","0.0-15.0-3.14","99392","List2B","white","woman","","","","","{""Q0"":""Fred is challenging Dave""}","<img src=""stim_listB/challenge5.gif""style=""height:400px;""></stim_listB>","is challenging","","","","","",""
"null","<div style=""font-size:60px;"">+</div>","","html-keyboard-response","208","1946117","0.0-15.0-0.15","99392","List2B","white","woman","","","","null","","","","","","","","",""
"null","<img src=""stim_listB/challenge2.gif""style=""height:400px;""></stim_listB>","","html-keyboard-response","209","1948120","0.0-15.0-1.15","99392","List2B","white","woman","","","","null","","","","","","","","",""
"null","is being challenged by","","html-keyboard-response","210","1950121","0.0-15.0-2.15","99392","List2B","white","woman","","","","null","","","","","","","","",""
"5702.899999976158","","","survey-text","211","1955825","0.0-15.0-3.15","99392","List2B","white","woman","","","","","{""Q0"":""Luke is being challenged by Jane""}","<img src=""stim_listB/challenge2.gif""style=""height:400px;""></stim_listB>","is being challenged by","","","","","",""
"null","<div style=""font-size:60px;"">+</div>","","html-keyboard-response","212","1956326","0.0-15.0-0.16","99392","List2B","white","woman","","","","null","","","","","","","","",""
"null","<img src=""stim_listB/copy3.gif""style=""height:400px;""></stim_listB>","","html-keyboard-response","213","1958328","0.0-15.0-1.16","99392","List2B","white","woman","","","","null","","","","","","","","",""
"null","is copying","","html-keyboard-response","214","1960329","0.0-15.0-2.16","99392","List2B","white","woman","","","","null","","","","","","","","",""
"3498.099999964237","","","survey-text","215","1963829","0.0-15.0-3.16","99392","List2B","white","woman","","","","","{""Q0"":""Beth is copying Mike""}","<img src=""stim_listB/copy3.gif""style=""height:400px;""></stim_listB>","is copying","","","","","",""
"null","<div style=""font-size:60px;"">+</div>","","html-keyboard-response","216","1964330","0.0-15.0-0.17","99392","List2B","white","woman","","","","null","","","","","","","","",""
"null","<img src=""stim_listB/challenge3.gif""style=""height:400px;""></stim_listB>","","html-keyboard-response","217","1966332","0.0-15.0-1.17","99392","List2B","white","woman","","","","null","","","","","","","","",""
"null","is challenging","","html-keyboard-response","218","1968334","0.0-15.0-2.17","99392","List2B","white","woman","","","","null","","","","","","","","",""
"3704","","","survey-text","219","1972040","0.0-15.0-3.17","99392","List2B","white","woman","","","","","{""Q0"":""Beth is challenging Mike""}","<img src=""stim_listB/challenge3.gif""style=""height:400px;""></stim_listB>","is challenging","","","","","",""
"null","<div style=""font-size:60px;"">+</div>","","html-keyboard-response","220","1972541","0.0-15.0-0.18","99392","List2B","white","woman","","","","null","","","","","","","","",""
"null","<img src=""stim_listB/oppose2.gif""style=""height:400px;""></stim_listB>","","html-keyboard-response","221","1974544","0.0-15.0-1.18","99392","List2B","white","woman","","","","null","","","","","","","","",""
"null","is being opposed by","","html-keyboard-response","222","1976546","0.0-15.0-2.18","99392","List2B","white","woman","","","","null","","","","","","","","",""
"4104.5","","","survey-text","223","1980652","0.0-15.0-3.18","99392","List2B","white","woman","","","","","{""Q0"":""Luke is being opposed by Ruth""}","<img src=""stim_listB/oppose2.gif""style=""height:400px;""></stim_listB>","is being opposed by","","","","","",""
"null","<div style=""font-size:60px;"">+</div>","","html-keyboard-response","224","1981153","0.0-15.0-0.19","99392","List2B","white","woman","","","","null","","","","","","","","",""
"null","<img src=""stim_listB/touch6.gif""style=""height:400px;""></stim_listB>","","html-keyboard-response","225","1983155","0.0-15.0-1.19","99392","List2B","white","woman","","","","null","","","","","","","","",""
"null","is being touched by","","html-keyboard-response","226","1985157","0.0-15.0-2.19","99392","List2B","white","woman","","","","null","","","","","","","","",""
"7136.800000011921","","","survey-text","227","1992295","0.0-15.0-3.19","99392","List2B","white","woman","","","","","{""Q0"":""Luke is being touched by Fred""}","<img src=""stim_listB/touch6.gif""style=""height:400px;""></stim_listB>","is being touched by","","","","","",""
"13153.100000023842","<img src='img/portrait_matrix_list2.jpg' style='width:900px;height:500px;''></img><p>If you have memorised all the portraits and names and are ready to start, press Continue.</p><p><strong>Please note: Your memory of these faces will be tested 4 times during this experiment.</strong></p>","0","html-button-response","228","2005450","0.0-16.0-0.0","99392","List2B","white","woman","","","","","","","","","","","","",""
"1475.300000011921","<img src=""portrait/WW2.jpg""style=""height:400px;""></img>","3","html-button-response","229","2007928","0.0-16.0-1.0","99392","List2B","white","woman","","true","3","","","","","","","","","",""
"null","CORRECT","","html-keyboard-response","230","2009434","0.0-16.0-2.0-0.0","99392","List2B","white","woman","","","","null","","","","","","","","",""
"1466.800000011921","<img src=""portrait/WW1.jpg""style=""height:400px;""></img>","1","html-button-response","231","2010903","0.0-16.0-4.0","99392","List2B","white","woman","","true","1","","","","","","","","","",""
"null","CORRECT","","html-keyboard-response","232","2012410","0.0-16.0-5.0-0.0","99392","List2B","white","woman","","","","null","","","","","","","","",""
"2366.5","<img src=""portrait/WM2.jpg""style=""height:400px;""></img>","7","html-button-response","233","2014778","0.0-16.0-7.0","99392","List2B","white","woman","","true","7","","","","","","","","","",""
"null","CORRECT","","html-keyboard-response","234","2016283","0.0-16.0-8.0-0.0","99392","List2B","white","woman","","","","null","","","","","","","","",""
"1368.0999999642372","<img src=""portrait/BW1.jpg""style=""height:400px;""></img>","0","html-button-response","235","2017652","0.0-16.0-10.0","99392","List2B","white","woman","","true","0","","","","","","","","","",""
"null","CORRECT","","html-keyboard-response","236","2019155","0.0-16.0-11.0-0.0","99392","List2B","white","woman","","","","null","","","","","","","","",""
"2447.099999964237","<img src=""portrait/BM2.jpg""style=""height:400px;""></img>","5","html-button-response","237","2021603","0.0-16.0-13.0","99392","List2B","white","woman","","true","5","","","","","","","","","",""
"null","CORRECT","","html-keyboard-response","238","2023110","0.0-16.0-14.0-0.0","99392","List2B","white","woman","","","","null","","","","","","","","",""
"3153.599999964237","<img src=""portrait/BW2.jpg""style=""height:400px;""></img>","2","html-button-response","239","2026265","0.0-16.0-16.0","99392","List2B","white","woman","","true","2","","","","","","","","","",""
"null","CORRECT","","html-keyboard-response","240","2027771","0.0-16.0-17.0-0.0","99392","List2B","white","woman","","","","null","","","","","","","","",""
"2636.199999988079","<img src=""portrait/WM1.jpg""style=""height:400px;""></img>","6","html-button-response","241","2030409","0.0-16.0-19.0","99392","List2B","white","woman","","true","6","","","","","","","","","",""
"null","CORRECT","","html-keyboard-response","242","2031913","0.0-16.0-20.0-0.0","99392","List2B","white","woman","","","","null","","","","","","","","",""
"1537","<img src=""portrait/BM1.jpg""style=""height:400px;""></img>","4","html-button-response","243","2033451","0.0-16.0-22.0","99392","List2B","white","woman","","true","4","","","","","","","","","",""
"null","CORRECT","","html-keyboard-response","244","2034953","0.0-16.0-23.0-0.0","99392","List2B","white","woman","","","","null","","","","","","","","",""
"1464","<p>You got 8 out of 8 right first time. Press Continue.</p>","0","html-button-response","245","2036418","0.0-16.0-25.0","99392","List2B","white","woman","","","","","","","","","","","","",""
"null","<div style=""font-size:60px;"">+</div>","","html-keyboard-response","246","2037927","0.0-17.0-0.0","99392","List2B","white","woman","","","","null","","","","","","","","",""
"null","<img src=""stim_listB/oppose5.gif""style=""height:400px;""></stim_listB>","","html-keyboard-response","247","2039929","0.0-17.0-1.0","99392","List2B","white","woman","","","","null","","","","","","","","",""
"null","is opposing","","html-keyboard-response","248","2041931","0.0-17.0-2.0","99392","List2B","white","woman","","","","null","","","","","","","","",""
"4176","","","survey-text","249","2046108","0.0-17.0-3.0","99392","List2B","white","woman","","","","","{""Q0"":""Mike is opposing Dave""}","<img src=""stim_listB/oppose5.gif""style=""height:400px;""></stim_listB>","is opposing","","","","","",""
"null","<div style=""font-size:60px;"">+</div>","","html-keyboard-response","250","2046612","0.0-17.0-0.1","99392","List2B","white","woman","","","","null","","","","","","","","",""
"null","<img src=""stim_listB/hug2.gif""style=""height:400px;""></stim_listB>","","html-keyboard-response","251","2048615","0.0-17.0-1.1","99392","List2B","white","woman","","","","null","","","","","","","","",""
"null","is being hugged by","","html-keyboard-response","252","2050616","0.0-17.0-2.1","99392","List2B","white","woman","","","","null","","","","","","","","",""
"4055.900000035763","","","survey-text","253","2054674","0.0-17.0-3.1","99392","List2B","white","woman","","","","","{""Q0"":""Dave is being hugged by Jane""}","<img src=""stim_listB/hug2.gif""style=""height:400px;""></stim_listB>","is being hugged by","","","","","",""
"null","<div style=""font-size:60px;"">+</div>","","html-keyboard-response","254","2055175","0.0-17.0-0.2","99392","List2B","white","woman","","","","null","","","","","","","","",""
"null","<img src=""stim_listB/look8.gif""style=""height:400px;""></stim_listB>","","html-keyboard-response","255","2057179","0.0-17.0-1.2","99392","List2B","white","woman","","","","null","","","","","","","","",""
"null","is being looked at by","","html-keyboard-response","256","2059185","0.0-17.0-2.2","99392","List2B","white","woman","","","","null","","","","","","","","",""
"4460.400000035763","","","survey-text","257","2063647","0.0-17.0-3.2","99392","List2B","white","woman","","","","","{""Q0"":""Jane is being looked at by Kate""}","<img src=""stim_listB/look8.gif""style=""height:400px;""></stim_listB>","is being looked at by","","","","","",""
"null","<div style=""font-size:60px;"">+</div>","","html-keyboard-response","258","2064149","0.0-17.0-0.3","99392","List2B","white","woman","","","","null","","","","","","","","",""
"null","<img src=""stim_listB/kiss3.gif""style=""height:400px;""></stim_listB>","","html-keyboard-response","259","2066150","0.0-17.0-1.3","99392","List2B","white","woman","","","","null","","","","","","","","",""
"null","is kissing","","html-keyboard-response","260","2068151","0.0-17.0-2.3","99392","List2B","white","woman","","","","null","","","","","","","","",""
"4983.600000023842","","","survey-text","261","2073136","0.0-17.0-3.3","99392","List2B","white","woman","","","","","{""Q0"":""Beth is kissing Fred""}","<img src=""stim_listB/kiss3.gif""style=""height:400px;""></stim_listB>","is kissing","","","","","",""
"null","<div style=""font-size:60px;"">+</div>","","html-keyboard-response","262","2073638","0.0-17.0-0.4","99392","List2B","white","woman","","","","null","","","","","","","","",""
"null","<img src=""stim_listB/seduce7.gif""style=""height:400px;""></stim_listB>","","html-keyboard-response","263","2075642","0.0-17.0-1.4","99392","List2B","white","woman","","","","null","","","","","","","","",""
"null","is seducing","","html-keyboard-response","264","2077647","0.0-17.0-2.4","99392","List2B","white","woman","","","","null","","","","","","","","",""
"3718.7000000476837","","","survey-text","265","2081367","0.0-17.0-3.4","99392","List2B","white","woman","","","","","{""Q0"":""Kate is seducing Ruth""}","<img src=""stim_listB/seduce7.gif""style=""height:400px;""></stim_listB>","is seducing","","","","","",""
"null","<div style=""font-size:60px;"">+</div>","","html-keyboard-response","266","2081868","0.0-17.0-0.5","99392","List2B","white","woman","","","","null","","","","","","","","",""
"null","<img src=""stim_listB/shout1.gif""style=""height:400px;""></stim_listB>","","html-keyboard-response","267","2083870","0.0-17.0-1.5","99392","List2B","white","woman","","","","null","","","","","","","","",""
"null","is shouting at","","html-keyboard-response","268","2085873","0.0-17.0-2.5","99392","List2B","white","woman","","","","null","","","","","","","","",""
"5456.199999988079","","","survey-text","269","2091331","0.0-17.0-3.5","99392","List2B","white","woman","","","","","{""Q0"":""Ruth is shouting at Luke""}","<img src=""stim_listB/shout1.gif""style=""height:400px;""></stim_listB>","is shouting at","","","","","",""
"null","<div style=""font-size:60px;"">+</div>","","html-keyboard-response","270","2091835","0.0-17.0-0.6","99392","List2B","white","woman","","","","null","","","","","","","","",""
"null","<img src=""stim_listB/shout7.gif""style=""height:400px;""></stim_listB>","","html-keyboard-response","271","2093840","0.0-17.0-1.6","99392","List2B","white","woman","","","","null","","","","","","","","",""
"null","is shouting at","","html-keyboard-response","272","2095841","0.0-17.0-2.6","99392","List2B","white","woman","","","","null","","","","","","","","",""
"5155.699999988079","","","survey-text","273","2100999","0.0-17.0-3.6","99392","List2B","white","woman","","","","","{""Q0"":""Beth is shouting at Ruth""}","<img src=""stim_listB/shout7.gif""style=""height:400px;""></stim_listB>","is shouting at","","","","","",""
"null","<div style=""font-size:60px;"">+</div>","","html-keyboard-response","274","2101500","0.0-17.0-0.7","99392","List2B","white","woman","","","","null","","","","","","","","",""
"null","<img src=""stim_listB/oppose3.gif""style=""height:400px;""></stim_listB>","","html-keyboard-response","275","2103501","0.0-17.0-1.7","99392","List2B","white","woman","","","","null","","","","","","","","",""
"null","is opposing","","html-keyboard-response","276","2105503","0.0-17.0-2.7","99392","List2B","white","woman","","","","null","","","","","","","","",""
"4471.599999964237","","","survey-text","277","2109977","0.0-17.0-3.7","99392","List2B","white","woman","","","","","{""Q0"":""Kate is opposing Mike""}","<img src=""stim_listB/oppose3.gif""style=""height:400px;""></stim_listB>","is opposing","","","","","",""
"null","<div style=""font-size:60px;"">+</div>","","html-keyboard-response","278","2110480","0.0-17.0-0.8","99392","List2B","white","woman","","","","null","","","","","","","","",""
"null","<img src=""stim_listB/greet4.gif""style=""height:400px;""></stim_listB>","","html-keyboard-response","279","2112481","0.0-17.0-1.8","99392","List2B","white","woman","","","","null","","","","","","","","",""
"null","is being greeted by","","html-keyboard-response","280","2114483","0.0-17.0-2.8","99392","List2B","white","woman","","","","null","","","","","","","","",""
"4919.800000011921","","","survey-text","281","2119405","0.0-17.0-3.8","99392","List2B","white","woman","","","","","{""Q0"":""Fred is being greeted by Kate""}","<img src=""stim_listB/greet4.gif""style=""height:400px;""></stim_listB>","is being greeted by","","","","","",""
"null","<div style=""font-size:60px;"">+</div>","","html-keyboard-response","282","2119908","0.0-17.0-0.9","99392","List2B","white","woman","","","","null","","","","","","","","",""
"null","<img src=""stim_listB/look3.gif""style=""height:400px;""></stim_listB>","","html-keyboard-response","283","2121910","0.0-17.0-1.9","99392","List2B","white","woman","","","","null","","","","","","","","",""
"null","is looking at","","html-keyboard-response","284","2123912","0.0-17.0-2.9","99392","List2B","white","woman","","","","null","","","","","","","","",""
"3481.900000035763","","","survey-text","285","2127396","0.0-17.0-3.9","99392","List2B","white","woman","","","","","{""Q0"":""Beth is looking at Fred""}","<img src=""stim_listB/look3.gif""style=""height:400px;""></stim_listB>","is looking at","","","","","",""
"null","<div style=""font-size:60px;"">+</div>","","html-keyboard-response","286","2127897","0.0-17.0-0.10","99392","List2B","white","woman","","","","null","","","","","","","","",""
"null","<img src=""stim_listB/look1.gif""style=""height:400px;""></stim_listB>","","html-keyboard-response","287","2129898","0.0-17.0-1.10","99392","List2B","white","woman","","","","null","","","","","","","","",""
"null","is looking at","","html-keyboard-response","288","2131901","0.0-17.0-2.10","99392","List2B","white","woman","","","","null","","","","","","","","",""
"3689.100000023842","","","survey-text","289","2135592","0.0-17.0-3.10","99392","List2B","white","woman","","","","","{""Q0"":""Ruth is looking at Luke""}","<img src=""stim_listB/look1.gif""style=""height:400px;""></stim_listB>","is looking at","","","","","",""
"null","<div style=""font-size:60px;"">+</div>","","html-keyboard-response","290","2136095","0.0-17.0-0.11","99392","List2B","white","woman","","","","null","","","","","","","","",""
"null","<img src=""stim_listB/oppose8.gif""style=""height:400px;""></stim_listB>","","html-keyboard-response","291","2138096","0.0-17.0-1.11","99392","List2B","white","woman","","","","null","","","","","","","","",""
"null","is being opposed by","","html-keyboard-response","292","2140097","0.0-17.0-2.11","99392","List2B","white","woman","","","","null","","","","","","","","",""
"5404.600000023842","","","survey-text","293","2145504","0.0-17.0-3.11","99392","List2B","white","woman","","","","","{""Q0"":""Ruth is being opposed by Beth""}","<img src=""stim_listB/oppose8.gif""style=""height:400px;""></stim_listB>","is being opposed by","","","","","",""
"null","<div style=""font-size:60px;"">+</div>","","html-keyboard-response","294","2146005","0.0-17.0-0.12","99392","List2B","white","woman","","","","null","","","","","","","","",""
"null","<img src=""stim_listB/shout3.gif""style=""height:400px;""></stim_listB>","","html-keyboard-response","295","2148006","0.0-17.0-1.12","99392","List2B","white","woman","","","","null","","","","","","","","",""
"null","is shouting at","","html-keyboard-response","296","2150010","0.0-17.0-2.12","99392","List2B","white","woman","","","","null","","","","","","","","",""
"3615.899999976158","","","survey-text","297","2153627","0.0-17.0-3.12","99392","List2B","white","woman","","","","","{""Q0"":""Beth is shouting at Fred""}","<img src=""stim_listB/shout3.gif""style=""height:400px;""></stim_listB>","is shouting at","","","","","",""
"null","<div style=""font-size:60px;"">+</div>","","html-keyboard-response","298","2154130","0.0-17.0-0.13","99392","List2B","white","woman","","","","null","","","","","","","","",""
"null","<img src=""stim_listB/kiss4.gif""style=""height:400px;""></stim_listB>","","html-keyboard-response","299","2156133","0.0-17.0-1.13","99392","List2B","white","woman","","","","null","","","","","","","","",""
"null","is being kissed by","","html-keyboard-response","300","2158137","0.0-17.0-2.13","99392","List2B","white","woman","","","","null","","","","","","","","",""
"3885.600000023842","","","survey-text","301","2162024","0.0-17.0-3.13","99392","List2B","white","woman","","","","","{""Q0"":""Mike is being kissed by Kate""}","<img src=""stim_listB/kiss4.gif""style=""height:400px;""></stim_listB>","is being kissed by","","","","","",""
"null","<div style=""font-size:60px;"">+</div>","","html-keyboard-response","302","2162525","0.0-17.0-0.14","99392","List2B","white","woman","","","","null","","","","","","","","",""
"null","<img src=""stim_listB/touch8.gif""style=""height:400px;""></stim_listB>","","html-keyboard-response","303","2164526","0.0-17.0-1.14","99392","List2B","white","woman","","","","null","","","","","","","","",""
"null","is being touched by","","html-keyboard-response","304","2166531","0.0-17.0-2.14","99392","List2B","white","woman","","","","null","","","","","","","","",""
"4180.099999964237","","","survey-text","305","2170713","0.0-17.0-3.14","99392","List2B","white","woman","","","","","{""Q0"":""Ruth is being touched by Beth""}","<img src=""stim_listB/touch8.gif""style=""height:400px;""></stim_listB>","is being touched by","","","","","",""
"null","<div style=""font-size:60px;"">+</div>","","html-keyboard-response","306","2171214","0.0-17.0-0.15","99392","List2B","white","woman","","","","null","","","","","","","","",""
"null","<img src=""stim_listB/seduce8.gif""style=""height:400px;""></stim_listB>","","html-keyboard-response","307","2173217","0.0-17.0-1.15","99392","List2B","white","woman","","","","null","","","","","","","","",""
"null","is being seduced by","","html-keyboard-response","308","2175220","0.0-17.0-2.15","99392","List2B","white","woman","","","","null","","","","","","","","",""
"5344.799999952316","","","survey-text","309","2180566","0.0-17.0-3.15","99392","List2B","white","woman","","","","","{""Q0"":""Jane is being seduced by Beth""}","<img src=""stim_listB/seduce8.gif""style=""height:400px;""></stim_listB>","is being seduced by","","","","","",""
"null","<div style=""font-size:60px;"">+</div>","","html-keyboard-response","310","2181070","0.0-17.0-0.16","99392","List2B","white","woman","","","","null","","","","","","","","",""
"null","<img src=""stim_listB/greet5.gif""style=""height:400px;""></stim_listB>","","html-keyboard-response","311","2183071","0.0-17.0-1.16","99392","List2B","white","woman","","","","null","","","","","","","","",""
"null","is greeting","","html-keyboard-response","312","2185072","0.0-17.0-2.16","99392","List2B","white","woman","","","","null","","","","","","","","",""
"3179.399999976158","","","survey-text","313","2188253","0.0-17.0-3.16","99392","List2B","white","woman","","","","","{""Q0"":""Fred is greeting Dave""}","<img src=""stim_listB/greet5.gif""style=""height:400px;""></stim_listB>","is greeting","","","","","",""
"null","<div style=""font-size:60px;"">+</div>","","html-keyboard-response","314","2188754","0.0-17.0-0.17","99392","List2B","white","woman","","","","null","","","","","","","","",""
"null","<img src=""stim_listB/copy1.gif""style=""height:400px;""></stim_listB>","","html-keyboard-response","315","2190755","0.0-17.0-1.17","99392","List2B","white","woman","","","","null","","","","","","","","",""
"null","is copying","","html-keyboard-response","316","2192756","0.0-17.0-2.17","99392","List2B","white","woman","","","","null","","","","","","","","",""
"4823.600000023842","","","survey-text","317","2197582","0.0-17.0-3.17","99392","List2B","white","woman","","","","","{""Q0"":""Ruth is copying Dave""}","<img src=""stim_listB/copy1.gif""style=""height:400px;""></stim_listB>","is copying","","","","","",""
"null","<div style=""font-size:60px;"">+</div>","","html-keyboard-response","318","2198082","0.0-17.0-0.18","99392","List2B","white","woman","","","","null","","","","","","","","",""
"null","<img src=""stim_listB/seduce3.gif""style=""height:400px;""></stim_listB>","","html-keyboard-response","319","2200096","0.0-17.0-1.18","99392","List2B","white","woman","","","","null","","","","","","","","",""
"null","is seducing","","html-keyboard-response","320","2202098","0.0-17.0-2.18","99392","List2B","white","woman","","","","null","","","","","","","","",""
"4161.899999976158","","","survey-text","321","2206262","0.0-17.0-3.18","99392","List2B","white","woman","","","","","{""Q0"":""Kate is seducing Fred""}","<img src=""stim_listB/seduce3.gif""style=""height:400px;""></stim_listB>","is seducing","","","","","",""
"null","<div style=""font-size:60px;"">+</div>","","html-keyboard-response","322","2206763","0.0-17.0-0.19","99392","List2B","white","woman","","","","null","","","","","","","","",""
"null","<img src=""stim_listB/look2.gif""style=""height:400px;""></stim_listB>","","html-keyboard-response","323","2208764","0.0-17.0-1.19","99392","List2B","white","woman","","","","null","","","","","","","","",""
"null","is being looked at by","","html-keyboard-response","324","2210767","0.0-17.0-2.19","99392","List2B","white","woman","","","","null","","","","","","","","",""
"5024.799999952316","","","survey-text","325","2215796","0.0-17.0-3.19","99392","List2B","white","woman","","","","","{""Q0"":""Dave is being looked at by Jane""}","<img src=""stim_listB/look2.gif""style=""height:400px;""></stim_listB>","is being looked at by","","","","","",""
"42334.19999998808","<img src='img/portrait_matrix_list2.jpg' style='width:900px;height:500px;''></img><p>If you have memorised all the portraits and names and are ready to start, press Continue.</p><p><strong>Please note: Your memory of these faces will be tested 4 times during this experiment.</strong></p>","0","html-button-response","326","2258133","0.0-18.0-0.0","99392","List2B","white","woman","","","","","","","","","","","","",""
"1661.3999999761581","<img src=""portrait/WW1.jpg""style=""height:400px;""></img>","1","html-button-response","327","2260800","0.0-18.0-1.0","99392","List2B","white","woman","","true","1","","","","","","","","","",""
"null","CORRECT","","html-keyboard-response","328","2262304","0.0-18.0-2.0-0.0","99392","List2B","white","woman","","","","null","","","","","","","","",""
"3278.300000011921","<img src=""portrait/BW1.jpg""style=""height:400px;""></img>","0","html-button-response","329","2265583","0.0-18.0-4.0","99392","List2B","white","woman","","true","0","","","","","","","","","",""
"null","CORRECT","","html-keyboard-response","330","2267093","0.0-18.0-5.0-0.0","99392","List2B","white","woman","","","","null","","","","","","","","",""
"3966.7999999523163","<img src=""portrait/WM1.jpg""style=""height:400px;""></img>","6","html-button-response","331","2271061","0.0-18.0-7.0","99392","List2B","white","woman","","true","6","","","","","","","","","",""
"null","CORRECT","","html-keyboard-response","332","2272564","0.0-18.0-8.0-0.0","99392","List2B","white","woman","","","","null","","","","","","","","",""
"2619.199999988079","<img src=""portrait/BW2.jpg""style=""height:400px;""></img>","3","html-button-response","333","2275185","0.0-18.0-10.0","99392","List2B","white","woman","","true","2","","","","","","","","","",""
"1907.6000000238419","<img src=""portrait/BW2.jpg""style=""height:400px;""></img>","2","html-button-response","334","2278096","0.0-18.0-12.0-0.0","99392","List2B","white","woman","","false","2","","","","","","","","","",""
"null","CORRECT","","html-keyboard-response","335","2279601","0.0-18.0-12.0-1.0-0.0","99392","List2B","white","woman","","","","null","","","","","","","","",""
"1072","<img src=""portrait/WW2.jpg""style=""height:400px;""></img>","3","html-button-response","336","2280675","0.0-18.0-13.0","99392","List2B","white","woman","","true","3","","","","","","","","","",""
"null","CORRECT","","html-keyboard-response","337","2282183","0.0-18.0-14.0-0.0","99392","List2B","white","woman","","","","null","","","","","","","","",""
"1926","<img src=""portrait/BM2.jpg""style=""height:400px;""></img>","5","html-button-response","338","2284110","0.0-18.0-16.0","99392","List2B","white","woman","","true","5","","","","","","","","","",""
"null","CORRECT","","html-keyboard-response","339","2285615","0.0-18.0-17.0-0.0","99392","List2B","white","woman","","","","null","","","","","","","","",""
"3539.800000011921","<img src=""portrait/WM2.jpg""style=""height:400px;""></img>","7","html-button-response","340","2289157","0.0-18.0-19.0","99392","List2B","white","woman","","true","7","","","","","","","","","",""
"null","CORRECT","","html-keyboard-response","341","2290658","0.0-18.0-20.0-0.0","99392","List2B","white","woman","","","","null","","","","","","","","",""
"1319.8999999761581","<img src=""portrait/BM1.jpg""style=""height:400px;""></img>","4","html-button-response","342","2291979","0.0-18.0-22.0","99392","List2B","white","woman","","true","4","","","","","","","","","",""
"null","CORRECT","","html-keyboard-response","343","2293485","0.0-18.0-23.0-0.0","99392","List2B","white","woman","","","","null","","","","","","","","",""
"1288","<p>You got 7 out of 8 right first time. Press Continue.</p>","0","html-button-response","344","2294775","0.0-18.0-25.0","99392","List2B","white","woman","","","","","","","","","","","","",""
"1427.5","As you did not score 100%, the memory game will repeat. Press Continue.","0","html-button-response","345","2297206","0.0-18.0-26.0-0.0","99392","List2B","white","woman","","","","","","","","","","","","",""
"2276.599999964237","<img src='img/portrait_matrix_list2.jpg' style='width:900px;height:500px;''></img><p>If you have memorised all the portraits and names and are ready to start, press Continue.</p><p><strong>Please note: Your memory of these faces will be tested 4 times during this experiment.</strong></p>","0","html-button-response","346","2300485","0.0-18.1-0.1","99392","List2B","white","woman","","","","","","","","","","","","",""
"1588.300000011921","<img src=""portrait/WW1.jpg""style=""height:400px;""></img>","1","html-button-response","347","2303076","0.0-18.1-1.1","99392","List2B","white","woman","","true","1","","","","","","","","","",""
"null","CORRECT","","html-keyboard-response","348","2304581","0.0-18.1-2.1-0.1","99392","List2B","white","woman","","","","null","","","","","","","","",""
"5062.600000023842","<img src=""portrait/BW1.jpg""style=""height:400px;""></img>","0","html-button-response","349","2309645","0.0-18.1-4.1","99392","List2B","white","woman","","true","0","","","","","","","","","",""
"null","CORRECT","","html-keyboard-response","350","2311153","0.0-18.1-5.1-0.1","99392","List2B","white","woman","","","","null","","","","","","","","",""
"1884.6000000238419","<img src=""portrait/WM1.jpg""style=""height:400px;""></img>","6","html-button-response","351","2313039","0.0-18.1-7.1","99392","List2B","white","woman","","true","6","","","","","","","","","",""
"null","CORRECT","","html-keyboard-response","352","2314546","0.0-18.1-8.1-0.1","99392","List2B","white","woman","","","","null","","","","","","","","",""
"1351.1000000238419","<img src=""portrait/BW2.jpg""style=""height:400px;""></img>","2","html-button-response","353","2315898","0.0-18.1-10.1","99392","List2B","white","woman","","true","2","","","","","","","","","",""
"null","CORRECT","","html-keyboard-response","354","2317403","0.0-18.1-11.1-0.1","99392","List2B","white","woman","","","","null","","","","","","","","",""
"1138.199999988079","<img src=""portrait/WW2.jpg""style=""height:400px;""></img>","3","html-button-response","355","2318542","0.0-18.1-13.1","99392","List2B","white","woman","","true","3","","","","","","","","","",""
"null","CORRECT","","html-keyboard-response","356","2320049","0.0-18.1-14.1-0.1","99392","List2B","white","woman","","","","null","","","","","","","","",""
"2404.300000011921","<img src=""portrait/BM2.jpg""style=""height:400px;""></img>","5","html-button-response","357","2322454","0.0-18.1-16.1","99392","List2B","white","woman","","true","5","","","","","","","","","",""
"null","CORRECT","","html-keyboard-response","358","2323957","0.0-18.1-17.1-0.1","99392","List2B","white","woman","","","","null","","","","","","","","",""
"1770.1000000238419","<img src=""portrait/WM2.jpg""style=""height:400px;""></img>","7","html-button-response","359","2325728","0.0-18.1-19.1","99392","List2B","white","woman","","true","7","","","","","","","","","",""
"null","CORRECT","","html-keyboard-response","360","2327231","0.0-18.1-20.1-0.1","99392","List2B","white","woman","","","","null","","","","","","","","",""
"1349.800000011921","<img src=""portrait/BM1.jpg""style=""height:400px;""></img>","4","html-button-response","361","2328582","0.0-18.1-22.1","99392","List2B","white","woman","","true","4","","","","","","","","","",""
"null","CORRECT","","html-keyboard-response","362","2330090","0.0-18.1-23.1-0.1","99392","List2B","white","woman","","","","null","","","","","","","","",""
"1099.4000000357628","<p>You got 8 out of 8 right first time. Press Continue.</p>","0","html-button-response","363","2331191","0.0-18.1-25.1","99392","List2B","white","woman","","","","","","","","","","","","",""
"null","<div style=""font-size:60px;"">+</div>","","html-keyboard-response","364","2332694","0.0-19.0-0.0","99392","List2B","white","woman","","","","null","","","","","","","","",""
"null","<img src=""stim_listB/seduce5.gif""style=""height:400px;""></stim_listB>","","html-keyboard-response","365","2334696","0.0-19.0-1.0","99392","List2B","white","woman","","","","null","","","","","","","","",""
"null","is seducing","","html-keyboard-response","366","2336702","0.0-19.0-2.0","99392","List2B","white","woman","","","","null","","","","","","","","",""
"3989.100000023842","","","survey-text","367","2340692","0.0-19.0-3.0","99392","List2B","white","woman","","","","","{""Q0"":""Mike is seducing Luke""}","<img src=""stim_listB/seduce5.gif""style=""height:400px;""></stim_listB>","is seducing","","","","","",""
"null","<div style=""font-size:60px;"">+</div>","","html-keyboard-response","368","2341196","0.0-19.0-0.1","99392","List2B","white","woman","","","","null","","","","","","","","",""
"null","<img src=""stim_listB/greet7.gif""style=""height:400px;""></stim_listB>","","html-keyboard-response","369","2343200","0.0-19.0-1.1","99392","List2B","white","woman","","","","null","","","","","","","","",""
"null","is greeting","","html-keyboard-response","370","2345202","0.0-19.0-2.1","99392","List2B","white","woman","","","","null","","","","","","","","",""
"3281.099999964237","","","survey-text","371","2348485","0.0-19.0-3.1","99392","List2B","white","woman","","","","","{""Q0"":""Beth is greeting Jane""}","<img src=""stim_listB/greet7.gif""style=""height:400px;""></stim_listB>","is greeting","","","","","",""
"null","<div style=""font-size:60px;"">+</div>","","html-keyboard-response","372","2348986","0.0-19.0-0.2","99392","List2B","white","woman","","","","null","","","","","","","","",""
"null","<img src=""stim_listB/shout2.gif""style=""height:400px;""></stim_listB>","","html-keyboard-response","373","2350988","0.0-19.0-1.2","99392","List2B","white","woman","","","","null","","","","","","","","",""
"null","is being shouted at by","","html-keyboard-response","374","2352990","0.0-19.0-2.2","99392","List2B","white","woman","","","","null","","","","","","","","",""
"6799","","","survey-text","375","2359800","0.0-19.0-3.2","99392","List2B","white","woman","","","","","{""Q0"":""Dave is being shouted at by Jane""}","<img src=""stim_listB/shout2.gif""style=""height:400px;""></stim_listB>","is being shouted at by","","","","","",""
"null","<div style=""font-size:60px;"">+</div>","","html-keyboard-response","376","2360301","0.0-19.0-0.3","99392","List2B","white","woman","","","","null","","","","","","","","",""
"null","<img src=""stim_listB/copy4.gif""style=""height:400px;""></stim_listB>","","html-keyboard-response","377","2362304","0.0-19.0-1.3","99392","List2B","white","woman","","","","null","","","","","","","","",""
"null","is being copied by","","html-keyboard-response","378","2364309","0.0-19.0-2.3","99392","List2B","white","woman","","","","null","","","","","","","","",""
"6073.699999988079","","","survey-text","379","2370388","0.0-19.0-3.3","99392","List2B","white","woman","","","","","{""Q0"":""Fred is being copied by Kate""}","<img src=""stim_listB/copy4.gif""style=""height:400px;""></stim_listB>","is being copied by","","","","","",""
"null","<div style=""font-size:60px;"">+</div>","","html-keyboard-response","380","2370890","0.0-19.0-0.4","99392","List2B","white","woman","","","","null","","","","","","","","",""
"null","<img src=""stim_listB/seduce1.gif""style=""height:400px;""></stim_listB>","","html-keyboard-response","381","2372894","0.0-19.0-1.4","99392","List2B","white","woman","","","","null","","","","","","","","",""
"null","is seducing","","html-keyboard-response","382","2374897","0.0-19.0-2.4","99392","List2B","white","woman","","","","null","","","","","","","","",""
"3900.2000000476837","","","survey-text","383","2378801","0.0-19.0-3.4","99392","List2B","white","woman","","","","","{""Q0"":""Jane is seducing Luke""}","<img src=""stim_listB/seduce1.gif""style=""height:400px;""></stim_listB>","is seducing","","","","","",""
"null","<div style=""font-size:60px;"">+</div>","","html-keyboard-response","384","2379305","0.0-19.0-0.5","99392","List2B","white","woman","","","","null","","","","","","","","",""
"null","<img src=""stim_listB/look6.gif""style=""height:400px;""></stim_listB>","","html-keyboard-response","385","2381311","0.0-19.0-1.5","99392","List2B","white","woman","","","","null","","","","","","","","",""
"null","is being looked at by","","html-keyboard-response","386","2383313","0.0-19.0-2.5","99392","List2B","white","woman","","","","null","","","","","","","","",""
"4577.399999976158","","","survey-text","387","2387893","0.0-19.0-3.5","99392","List2B","white","woman","","","","","{""Q0"":""Fred is being looked at by Mike""}","<img src=""stim_listB/look6.gif""style=""height:400px;""></stim_listB>","is being looked at by","","","","","",""
"null","<div style=""font-size:60px;"">+</div>","","html-keyboard-response","388","2388394","0.0-19.0-0.6","99392","List2B","white","woman","","","","null","","","","","","","","",""
"null","<img src=""stim_listB/kiss8.gif""style=""height:400px;""></stim_listB>","","html-keyboard-response","389","2390396","0.0-19.0-1.6","99392","List2B","white","woman","","","","null","","","","","","","","",""
"null","is being kissed by","","html-keyboard-response","390","2392398","0.0-19.0-2.6","99392","List2B","white","woman","","","","null","","","","","","","","",""
"3986.2999999523163","","","survey-text","391","2396386","0.0-19.0-3.6","99392","List2B","white","woman","","","","","{""Q0"":""Jane is being kissed by Kate""}","<img src=""stim_listB/kiss8.gif""style=""height:400px;""></stim_listB>","is being kissed by","","","","","",""
"null","<div style=""font-size:60px;"">+</div>","","html-keyboard-response","392","2396887","0.0-19.0-0.7","99392","List2B","white","woman","","","","null","","","","","","","","",""
"null","<img src=""stim_listB/copy7.gif""style=""height:400px;""></stim_listB>","","html-keyboard-response","393","2398890","0.0-19.0-1.7","99392","List2B","white","woman","","","","null","","","","","","","","",""
"null","is copying","","html-keyboard-response","394","2400892","0.0-19.0-2.7","99392","List2B","white","woman","","","","null","","","","","","","","",""
"5220.099999964237","","","survey-text","395","2406114","0.0-19.0-3.7","99392","List2B","white","woman","","","","","{""Q0"":""Beth is copying Jane""}","<img src=""stim_listB/copy7.gif""style=""height:400px;""></stim_listB>","is copying","","","","","",""
"null","<div style=""font-size:60px;"">+</div>","","html-keyboard-response","396","2406618","0.0-19.0-0.8","99392","List2B","white","woman","","","","null","","","","","","","","",""
"null","<img src=""stim_listB/challenge7.gif""style=""height:400px;""></stim_listB>","","html-keyboard-response","397","2408620","0.0-19.0-1.8","99392","List2B","white","woman","","","","null","","","","","","","","",""
"null","is challenging","","html-keyboard-response","398","2410625","0.0-19.0-2.8","99392","List2B","white","woman","","","","null","","","","","","","","",""
"3727.699999988079","","","survey-text","399","2414355","0.0-19.0-3.8","99392","List2B","white","woman","","","","","{""Q0"":""Beth is challenging Jane""}","<img src=""stim_listB/challenge7.gif""style=""height:400px;""></stim_listB>","is challenging","","","","","",""
"null","<div style=""font-size:60px;"">+</div>","","html-keyboard-response","400","2414856","0.0-19.0-0.9","99392","List2B","white","woman","","","","null","","","","","","","","",""
"null","<img src=""stim_listB/seduce2.gif""style=""height:400px;""></stim_listB>","","html-keyboard-response","401","2416860","0.0-19.0-1.9","99392","List2B","white","woman","","","","null","","","","","","","","",""
"null","is being seduced by","","html-keyboard-response","402","2418865","0.0-19.0-2.9","99392","List2B","white","woman","","","","null","","","","","","","","",""
"6033.400000035763","","","survey-text","403","2424900","0.0-19.0-3.9","99392","List2B","white","woman","","","","","{""Q0"":""Fred is being seduced by Ruth""}","<img src=""stim_listB/seduce2.gif""style=""height:400px;""></stim_listB>","is being seduced by","","","","","",""
"null","<div style=""font-size:60px;"">+</div>","","html-keyboard-response","404","2425401","0.0-19.0-0.10","99392","List2B","white","woman","","","","null","","","","","","","","",""
"null","<img src=""stim_listB/touch4.gif""style=""height:400px;""></stim_listB>","","html-keyboard-response","405","2427407","0.0-19.0-1.10","99392","List2B","white","woman","","","","null","","","","","","","","",""
"null","is being touched by","","html-keyboard-response","406","2429411","0.0-19.0-2.10","99392","List2B","white","woman","","","","null","","","","","","","","",""
"6551.100000023842","","","survey-text","407","2435964","0.0-19.0-3.10","99392","List2B","white","woman","","","","","{""Q0"":""Fred is being touched by Beth""}","<img src=""stim_listB/touch4.gif""style=""height:400px;""></stim_listB>","is being touched by","","","","","",""
"null","<div style=""font-size:60px;"">+</div>","","html-keyboard-response","408","2436465","0.0-19.0-0.11","99392","List2B","white","woman","","","","null","","","","","","","","",""
"null","<img src=""stim_listB/hug7.gif""style=""height:400px;""></stim_listB>","","html-keyboard-response","409","2438470","0.0-19.0-1.11","99392","List2B","white","woman","","","","null","","","","","","","","",""
"null","is hugging","","html-keyboard-response","410","2440471","0.0-19.0-2.11","99392","List2B","white","woman","","","","null","","","","","","","","",""
"4988.600000023842","","","survey-text","411","2445461","0.0-19.0-3.11","99392","List2B","white","woman","","","","","{""Q0"":""Beth is hugging Ruth""}","<img src=""stim_listB/hug7.gif""style=""height:400px;""></stim_listB>","is hugging","","","","","",""
"null","<div style=""font-size:60px;"">+</div>","","html-keyboard-response","412","2445962","0.0-19.0-0.12","99392","List2B","white","woman","","","","null","","","","","","","","",""
"null","<img src=""stim_listB/greet3.gif""style=""height:400px;""></stim_listB>","","html-keyboard-response","413","2447965","0.0-19.0-1.12","99392","List2B","white","woman","","","","null","","","","","","","","",""
"null","is greeting","","html-keyboard-response","414","2449971","0.0-19.0-2.12","99392","List2B","white","woman","","","","null","","","","","","","","",""
"3615.800000011921","","","survey-text","415","2453589","0.0-19.0-3.12","99392","List2B","white","woman","","","","","{""Q0"":""Beth is greeting Mike""}","<img src=""stim_listB/greet3.gif""style=""height:400px;""></stim_listB>","is greeting","","","","","",""
"null","<div style=""font-size:60px;"">+</div>","","html-keyboard-response","416","2454090","0.0-19.0-0.13","99392","List2B","white","woman","","","","null","","","","","","","","",""
"null","<img src=""stim_listB/kiss7.gif""style=""height:400px;""></stim_listB>","","html-keyboard-response","417","2456093","0.0-19.0-1.13","99392","List2B","white","woman","","","","null","","","","","","","","",""
"null","is kissing","","html-keyboard-response","418","2458095","0.0-19.0-2.13","99392","List2B","white","woman","","","","null","","","","","","","","",""
"3860.199999988079","","","survey-text","419","2461957","0.0-19.0-3.13","99392","List2B","white","woman","","","","","{""Q0"":""Beth is kissing Ruth""}","<img src=""stim_listB/kiss7.gif""style=""height:400px;""></stim_listB>","is kissing","","","","","",""
"null","<div style=""font-size:60px;"">+</div>","","html-keyboard-response","420","2462461","0.0-19.0-0.14","99392","List2B","white","woman","","","","null","","","","","","","","",""
"null","<img src=""stim_listB/copy5.gif""style=""height:400px;""></stim_listB>","","html-keyboard-response","421","2464465","0.0-19.0-1.14","99392","List2B","white","woman","","","","null","","","","","","","","",""
"null","is copying","","html-keyboard-response","422","2466467","0.0-19.0-2.14","99392","List2B","white","woman","","","","null","","","","","","","","",""
"3553.800000011921","","","survey-text","423","2470022","0.0-19.0-3.14","99392","List2B","white","woman","","","","","{""Q0"":""Fred is copying Dave""}","<img src=""stim_listB/copy5.gif""style=""height:400px;""></stim_listB>","is copying","","","","","",""
"null","<div style=""font-size:60px;"">+</div>","","html-keyboard-response","424","2470524","0.0-19.0-0.15","99392","List2B","white","woman","","","","null","","","","","","","","",""
"null","<img src=""stim_listB/hug8.gif""style=""height:400px;""></stim_listB>","","html-keyboard-response","425","2472528","0.0-19.0-1.15","99392","List2B","white","woman","","","","null","","","","","","","","",""
"null","is being hugged by","","html-keyboard-response","426","2474531","0.0-19.0-2.15","99392","List2B","white","woman","","","","null","","","","","","","","",""
"4896.5","","","survey-text","427","2479429","0.0-19.0-3.15","99392","List2B","white","woman","","","","","{""Q0"":""Jane is being hugged by Kate""}","<img src=""stim_listB/hug8.gif""style=""height:400px;""></stim_listB>","is being hugged by","","","","","",""
"null","<div style=""font-size:60px;"">+</div>","","html-keyboard-response","428","2479931","0.0-19.0-0.16","99392","List2B","white","woman","","","","null","","","","","","","","",""
"null","<img src=""stim_listB/hug3.gif""style=""height:400px;""></stim_listB>","","html-keyboard-response","429","2481932","0.0-19.0-1.16","99392","List2B","white","woman","","","","null","","","","","","","","",""
"null","is hugging","","html-keyboard-response","430","2483932","0.0-19.0-2.16","99392","List2B","white","woman","","","","null","","","","","","","","",""
"5651.199999988079","","","survey-text","431","2489586","0.0-19.0-3.16","99392","List2B","white","woman","","","","","{""Q0"":""Beth is hugging Fred""}","<img src=""stim_listB/hug3.gif""style=""height:400px;""></stim_listB>","is hugging","","","","","",""
"null","<div style=""font-size:60px;"">+</div>","","html-keyboard-response","432","2490090","0.0-19.0-0.17","99392","List2B","white","woman","","","","null","","","","","","","","",""
"null","<img src=""stim_listB/touch7.gif""style=""height:400px;""></stim_listB>","","html-keyboard-response","433","2492091","0.0-19.0-1.17","99392","List2B","white","woman","","","","null","","","","","","","","",""
"null","is touching","","html-keyboard-response","434","2494092","0.0-19.0-2.17","99392","List2B","white","woman","","","","null","","","","","","","","",""
"3291.199999988079","","","survey-text","435","2497385","0.0-19.0-3.17","99392","List2B","white","woman","","","","","{""Q0"":""Kate is touching Jane""}","<img src=""stim_listB/touch7.gif""style=""height:400px;""></stim_listB>","is touching","","","","","",""
"null","<div style=""font-size:60px;"">+</div>","","html-keyboard-response","436","2497889","0.0-19.0-0.18","99392","List2B","white","woman","","","","null","","","","","","","","",""
"null","<img src=""stim_listB/greet8.gif""style=""height:400px;""></stim_listB>","","html-keyboard-response","437","2499890","0.0-19.0-1.18","99392","List2B","white","woman","","","","null","","","","","","","","",""
"null","is being greeted by","","html-keyboard-response","438","2501891","0.0-19.0-2.18","99392","List2B","white","woman","","","","null","","","","","","","","",""
"4189.299999952316","","","survey-text","439","2506082","0.0-19.0-3.18","99392","List2B","white","woman","","","","","{""Q0"":""Ruth is being greeted by Kate""}","<img src=""stim_listB/greet8.gif""style=""height:400px;""></stim_listB>","is being greeted by","","","","","",""
"null","<div style=""font-size:60px;"">+</div>","","html-keyboard-response","440","2506584","0.0-19.0-0.19","99392","List2B","white","woman","","","","null","","","","","","","","",""
"null","<img src=""stim_listB/kiss1.gif""style=""height:400px;""></stim_listB>","","html-keyboard-response","441","2508589","0.0-19.0-1.19","99392","List2B","white","woman","","","","null","","","","","","","","",""
"null","is kissing","","html-keyboard-response","442","2510590","0.0-19.0-2.19","99392","List2B","white","woman","","","","null","","","","","","","","",""
"4049.100000023842","","","survey-text","443","2514641","0.0-19.0-3.19","99392","List2B","white","woman","","","","","{""Q0"":""Ruth is kissing Luke""}","<img src=""stim_listB/kiss1.gif""style=""height:400px;""></stim_listB>","is kissing","","","","","",""
"2162.399999976158","<p>Thank you for completing that task.</p><p>The final part of this session is a questionnaire that will take about 4 minutes.</p><p>Press Continue.</p>","0","html-button-response","444","2516804","0.0-20.0","99392","List2B","white","woman","","","","","","","","","","","","",""
"19988.099999964237","","","survey-text","445","2537797","0.0-21.0","99392","List2B","white","woman","","","","","{""Q0"":""29"",""Q1"":""English"",""Q2"":""English"",""Q3"":""United States of America"",""Q4"":""American"",""Q5"":""White"",""Q6"":""Female""}","","","demographics","","","","",""
"2136.2999999523163","<p>Have you lived in the USA for the last 5 years or more?</p>","0","html-button-response","446","2539935","0.0-22.0","99392","List2B","white","woman","","","","","","","","fiveyears","","","","",""
"2348.100000023842","<p>Move the slider to show the extent to which you agree with the following statements.</p>","0","html-button-response","447","2543285","0.0-23.0","99392","List2B","white","woman","","","","","","","","","","","","",""
"3702.5","","","html-slider-response","448","2547994","0.0-24.0-0.0-0.0","99392","List2B","white","woman","","","","","","","","survey_race","70","","","I consider myself an introvert.","filler"
"7912.799999952316","","","html-slider-response","449","2555908","0.0-24.0-0.0-0.1","99392","List2B","white","woman","","","","","","","","survey_race","40","","","People of my race have a lot in common with each other.","common"
"3212.099999964237","","","html-slider-response","450","2559122","0.0-24.0-0.0-0.2","99392","List2B","white","woman","","","","","","","","survey_race","59","","","I feel solidarity with people the same age as me.","filler"
"7343.400000035763","","","html-slider-response","451","2566467","0.0-24.0-0.0-0.3","99392","List2B","white","woman","","","","","","","","survey_race","46","","","I am glad to be my race.","glad"
"2772.300000011921","","","html-slider-response","452","2569241","0.0-24.0-0.0-0.4","99392","List2B","white","woman","","","","","","","","survey_race","46","","","It is pleasant to be my race.","pleasant"
"11038.900000035763","","","html-slider-response","453","2580282","0.0-24.0-0.0-0.5","99392","List2B","white","woman","","","","","","","","survey_race","42","","","Getting older does not worry me.","filler"
"2768.800000011921","","","html-slider-response","454","2583052","0.0-24.0-0.0-0.6","99392","List2B","white","woman","","","","","","","","survey_race","43","","","I feel a bond with my race.","bond"
"3630.599999964237","","","html-slider-response","455","2586685","0.0-24.0-0.0-0.7","99392","List2B","white","woman","","","","","","","","survey_race","14","","","Being my race is an important part of how I see myself.","important"
"3416.399999976158","","","html-slider-response","456","2590102","0.0-24.0-0.0-0.8","99392","List2B","white","woman","","","","","","","","survey_race","9","","","Being my race gives me a good feeling.","feeling"
"3527","","","html-slider-response","457","2593631","0.0-24.0-0.0-0.9","99392","List2B","white","woman","","","","","","","","survey_race","41","","","My age is not an important part of who I am.","filler"
"3303.699999988079","","","html-slider-response","458","2596936","0.0-24.0-0.0-0.10","99392","List2B","white","woman","","","","","","","","survey_race","2","","","I often think about the fact that I am my race.","often"
"3451.5","","","html-slider-response","459","2600389","0.0-24.0-0.0-0.11","99392","List2B","white","woman","","","","","","","","survey_race","55","","","I am glad to be the age I am.","filler"
"2805.699999988079","","","html-slider-response","460","2603196","0.0-24.0-0.0-0.12","99392","List2B","white","woman","","","","","","","","survey_race","1","","","The fact that I am my race is an important part of my identity.","identity"
"2573.099999964237","","","html-slider-response","461","2605771","0.0-24.0-0.0-0.13","99392","List2B","white","woman","","","","","","","","survey_race","0","","","I feel committed to my race.","committed"
"2626.5","","","html-slider-response","462","2608398","0.0-24.0-0.0-0.14","99392","List2B","white","woman","","","","","","","","survey_race","55","","","I feel a bond with people the same age as me.","filler"
"2740.099999964237","","","html-slider-response","463","2611140","0.0-24.0-0.0-0.15","99392","List2B","white","woman","","","","","","","","survey_race","38","","","I consider myself an extrovert.","filler"
"3721.800000011921","","","html-slider-response","464","2614863","0.0-24.0-0.0-0.16","99392","List2B","white","woman","","","","","","","","survey_race","12","","","I often think about the fact that I am my age.","filler"
"2504.600000023842","","","html-slider-response","465","2617369","0.0-24.0-0.0-0.17","99392","List2B","white","woman","","","","","","","","survey_race","45","","","I am glad to be my age.","filler"
"3973.699999988079","","","html-slider-response","466","2621344","0.0-24.0-0.0-0.18","99392","List2B","white","woman","","","","","","","","survey_race","5","","","I feel solidarity with my race.","solidarity"
"2798.199999988079","","","html-slider-response","467","2624144","0.0-24.0-0.0-0.19","99392","List2B","white","woman","","","","","","","","survey_race","68","","","The older I get, the wiser I feel.","filler"
"3400.599999964237","","","html-slider-response","468","2627545","0.0-24.0-0.0-0.20","99392","List2B","white","woman","","","","","","","","survey_race","54","","","People my age have a lot in common with each other.","filler"
"4722.300000011921","","","html-slider-response","469","2632269","0.0-24.0-0.0-0.21","99392","List2B","white","woman","","","","","","","","survey_race","8","","","I am similar to the average person of my race.","similar"
"6695.699999988079","","","html-slider-response","470","2638966","0.0-24.0-0.0-0.22","99392","List2B","white","woman","","","","","","","","survey_race","5","","","I think that my race has a lot to be proud of.","proud"
"4313.600000023842","","","html-slider-response","471","2643281","0.0-24.0-0.0-0.23","99392","List2B","white","woman","","","","","","","","survey_race","36","","","I enjoy being in large groups.","filler"
"4347.100000023842","","","html-slider-response","472","2647630","0.0-24.0-0.0-0.24","99392","List2B","white","woman","","","","","","","","survey_race","18","","","Being my age gives me a good feeling.","filler"
"3288.800000011921","","","html-slider-response","473","2650921","0.0-24.0-0.0-0.25","99392","List2B","white","woman","","","","","","","","survey_race","54","","","I have a lot in common with people of a similar age to me.","filler"
"4805","","","html-slider-response","474","2655727","0.0-24.0-0.0-0.26","99392","List2B","white","woman","","","","","","","","survey_race","26","","","People of my race are very similar to each other.","verysimilar"
"3013.400000035763","","","html-slider-response","475","2658742","0.0-24.0-0.0-0.27","99392","List2B","white","woman","","","","","","","","survey_race","13","","","I have a lot in common with the average person of my race.","average"
