"rt","stimulus","button_pressed","trial_type","trial_index","time_elapsed","internal_node_id","subject","list","ppt_race","ppt_gender","url","first_guess","correct","key_press","responses","image_type","phrase_type","test_part","response","stimulus1","stimulus2","question_type","survey_item"
"2823.399999976158","Welcome to the experiment. Press Continue to begin.","0","html-button-response","0","2827","0.0-0.0","99930","List1B","black","man","","","","","","","","","","","","",""
"57158.799999952316","","","external-html","1","61139","0.0-1.0","99930","List1B","black","man","consent.html","","","","","","","","","","","",""
"27589.700000047684","<p>On the next page, you will see portraits of 8 people and their names.</p><p>Your first task is to take a few minutes to memorise the names of these people.</p><p>You will have to recall their names during the rest of the experiment, so it is</p><p>essential that you try to memorise these people and their names as best as you can.</p><br><p><strong>You will then be tested on your memory of these names and portraits.</strong></p><br><p>The experiment will start after you have completed this memory test.</p><br><p>Ready?</p>","0","html-button-response","2","88731","0.0-2.0","99930","List1B","black","man","","","","","","","","","","","","",""
"77131.70000004768","<img src='img/portrait_matrix_list1.jpg' style='width:900px;height:500px;''></img><p>If you have memorised all the portraits and names and are ready to start, press Continue.</p><p><strong>Please note: Your memory of these faces will be tested 4 times during this experiment.</strong></p>","0","html-button-response","3","166875","0.0-3.0-0.0","99930","List1B","black","man","","","","","","","","","","","","",""
"6928.399999976158","<img src=""portrait/WW1.jpg""style=""height:400px;""></img>","1","html-button-response","4","174807","0.0-3.0-1.0","99930","List1B","black","man","","true","1","","","","","","","","","",""
"null","CORRECT","","html-keyboard-response","5","176313","0.0-3.0-2.0-0.0","99930","List1B","black","man","","","","null","","","","","","","","",""
"7976.800000071526","<img src=""portrait/BM2.jpg""style=""height:400px;""></img>","5","html-button-response","6","184291","0.0-3.0-4.0","99930","List1B","black","man","","true","5","","","","","","","","","",""
"null","CORRECT","","html-keyboard-response","7","185814","0.0-3.0-5.0-0.0","99930","List1B","black","man","","","","null","","","","","","","","",""
"8071.800000071526","<img src=""portrait/BM1.jpg""style=""height:400px;""></img>","4","html-button-response","8","193887","0.0-3.0-7.0","99930","List1B","black","man","","true","4","","","","","","","","","",""
"null","CORRECT","","html-keyboard-response","9","195410","0.0-3.0-8.0-0.0","99930","List1B","black","man","","","","null","","","","","","","","",""
"5765.600000023842","<img src=""portrait/WW2.jpg""style=""height:400px;""></img>","3","html-button-response","10","201177","0.0-3.0-10.0","99930","List1B","black","man","","true","3","","","","","","","","","",""
"null","CORRECT","","html-keyboard-response","11","202695","0.0-3.0-11.0-0.0","99930","List1B","black","man","","","","null","","","","","","","","",""
"6777","<img src=""portrait/WM1.jpg""style=""height:400px;""></img>","6","html-button-response","12","209473","0.0-3.0-13.0","99930","List1B","black","man","","true","6","","","","","","","","","",""
"null","CORRECT","","html-keyboard-response","13","210987","0.0-3.0-14.0-0.0","99930","List1B","black","man","","","","null","","","","","","","","",""
"13470.600000023842","<img src=""portrait/BW2.jpg""style=""height:400px;""></img>","2","html-button-response","14","224459","0.0-3.0-16.0","99930","List1B","black","man","","true","2","","","","","","","","","",""
"null","CORRECT","","html-keyboard-response","15","225970","0.0-3.0-17.0-0.0","99930","List1B","black","man","","","","null","","","","","","","","",""
"5623.799999952316","<img src=""portrait/WM2.jpg""style=""height:400px;""></img>","7","html-button-response","16","231595","0.0-3.0-19.0","99930","List1B","black","man","","true","7","","","","","","","","","",""
"null","CORRECT","","html-keyboard-response","17","233107","0.0-3.0-20.0-0.0","99930","List1B","black","man","","","","null","","","","","","","","",""
"4862.899999976158","<img src=""portrait/BW1.jpg""style=""height:400px;""></img>","0","html-button-response","18","237971","0.0-3.0-22.0","99930","List1B","black","man","","true","0","","","","","","","","","",""
"null","CORRECT","","html-keyboard-response","19","239488","0.0-3.0-23.0-0.0","99930","List1B","black","man","","","","null","","","","","","","","",""
"3926.5","<p>You got 8 out of 8 right first time. Press Continue.</p>","0","html-button-response","20","243417","0.0-3.0-25.0","99930","List1B","black","man","","","","","","","","","","","","",""
"66784.29999995232","<p>In this experiment, you will view photographs of the people from the memory game interacting.</p><p>By using the <strong>exact</strong> phrase given <i>after</i> the photograph appears and recalling the correct names of the people in the photographs, form a sentence describing the interaction. You do not need to capitalise names.</p><p>Type your answer in the space provided. Please complete every sentence before moving onto the next trial.</p><p>You will only have a few seconds to memorise each given photograph and phrase before you can respond, so try your best to focus.</p><p>An example is given below. Press 'Continue' when you are ready.</p><img src='img/speaking_example.jpg' style='width:800px;height:460px;''></img>","0","html-button-response","21","311207","0.0-4.0","99930","List1B","black","man","","","","","","","","","","","","",""
"7081.299999952316","<p>Before the experiment starts, you will watch two example trials. Press 'Continue'.</p>","0","html-button-response","22","319305","0.0-5.0","99930","List1B","black","man","","","","","","","","","","","","",""
"null","<img src='img/play_eg.gif' style='height:400px;''></img>","","html-keyboard-response","23","322308","0.0-6.0","99930","List1B","black","man","","","","null","","","","","","","","",""
"null","<p>is playing with</p>","","html-keyboard-response","24","324310","0.0-7.0","99930","List1B","black","man","","","","null","","","","","","","","",""
"10001.899999976158","<p><b>Answer:</b> kate is playing with beth</p>","0","html-button-response","25","334313","0.0-8.0","99930","List1B","black","man","","","","","","","","","","","","",""
"null","<img src='img/dance_eg.gif' style='height:400px;''></img>","","html-keyboard-response","26","337315","0.0-9.0","99930","List1B","black","man","","","","null","","","","","","","","",""
"null","<p>is being entertained by</p>","","html-keyboard-response","27","339317","0.0-10.0","99930","List1B","black","man","","","","null","","","","","","","","",""
"15646.799999952316","<p><b>Answer:</b> luke is being entertained by dave</p>","0","html-button-response","28","354965","0.0-11.0","99930","List1B","black","man","","","","","","","","","","","","",""
"10414.799999952316","<p>Ready to start the experiment?</p><br><p><strong>Remember to describe the picture using a full sentence,</strong></p><p><strong>that combines the names of the people with the <i>exact</i> phrase given.</strong></p><p><strong>To receive full payment you must do this correctly.</strong></p><p><strong> You do not need to capitalise names or use punctuation.</strong></p><br><p>Press 'Continue' to begin.</p>","0","html-button-response","29","366383","0.0-12.0","99930","List1B","black","man","","","","","","","","","","","","",""
"null","<div style=""font-size:60px;"">+</div>","","html-keyboard-response","30","367887","0.0-13.0-0.0","99930","List1B","black","man","","","","null","","","","","","","","",""
"null","<img src=""stim_listB/shout8.gif""style=""height:400px;""></stim_listB>","","html-keyboard-response","31","369899","0.0-13.0-1.0","99930","List1B","black","man","","","","null","","","","","","","","",""
"null","is being shouted at by","","html-keyboard-response","32","371901","0.0-13.0-2.0","99930","List1B","black","man","","","","null","","","","","","","","",""
"142673.30000007153","","","survey-text","33","514578","0.0-13.0-3.0","99930","List1B","black","man","","","","","{""Q0"":""jane is being shouted at by kate""}","<img src=""stim_listB/shout8.gif""style=""height:400px;""></stim_listB>","is being shouted at by","","","","","",""
"null","<div style=""font-size:60px;"">+</div>","","html-keyboard-response","34","515080","0.0-13.0-0.1","99930","List1B","black","man","","","","null","","","","","","","","",""
"null","<img src=""stim_listB/challenge7.gif""style=""height:400px;""></stim_listB>","","html-keyboard-response","35","517094","0.0-13.0-1.1","99930","List1B","black","man","","","","null","","","","","","","","",""
"null","is challenging","","html-keyboard-response","36","519110","0.0-13.0-2.1","99930","List1B","black","man","","","","null","","","","","","","","",""
"60836.10000002384","","","survey-text","37","579948","0.0-13.0-3.1","99930","List1B","black","man","","","","","{""Q0"":""kate is challenging ruth""}","<img src=""stim_listB/challenge7.gif""style=""height:400px;""></stim_listB>","is challenging","","","","","",""
"null","<div style=""font-size:60px;"">+</div>","","html-keyboard-response","38","580460","0.0-13.0-0.2","99930","List1B","black","man","","","","null","","","","","","","","",""
"null","<img src=""stim_listB/look4.gif""style=""height:400px;""></stim_listB>","","html-keyboard-response","39","582463","0.0-13.0-1.2","99930","List1B","black","man","","","","null","","","","","","","","",""
"null","is being looked at by","","html-keyboard-response","40","584465","0.0-13.0-2.2","99930","List1B","black","man","","","","null","","","","","","","","",""
"62549.89999997616","","","survey-text","41","647018","0.0-13.0-3.2","99930","List1B","black","man","","","","","{""Q0"":""dave is being looked at by jane""}","<img src=""stim_listB/look4.gif""style=""height:400px;""></stim_listB>","is being looked at by","","","","","",""
"null","<div style=""font-size:60px;"">+</div>","","html-keyboard-response","42","647534","0.0-13.0-0.3","99930","List1B","black","man","","","","null","","","","","","","","",""
"null","<img src=""stim_listB/copy5.gif""style=""height:400px;""></stim_listB>","","html-keyboard-response","43","649536","0.0-13.0-1.3","99930","List1B","black","man","","","","null","","","","","","","","",""
"null","is copying","","html-keyboard-response","44","651537","0.0-13.0-2.3","99930","List1B","black","man","","","","null","","","","","","","","",""
"71475.89999997616","","","survey-text","45","723016","0.0-13.0-3.3","99930","List1B","black","man","","","","","{""Q0"":""mike is copying luke""}","<img src=""stim_listB/copy5.gif""style=""height:400px;""></stim_listB>","is copying","","","","","",""
"null","<div style=""font-size:60px;"">+</div>","","html-keyboard-response","46","723531","0.0-13.0-0.4","99930","List1B","black","man","","","","null","","","","","","","","",""
"null","<img src=""stim_listB/kiss8.gif""style=""height:400px;""></stim_listB>","","html-keyboard-response","47","725534","0.0-13.0-1.4","99930","List1B","black","man","","","","null","","","","","","","","",""
"null","is being kissed by","","html-keyboard-response","48","727535","0.0-13.0-2.4","99930","List1B","black","man","","","","null","","","","","","","","",""
"107396.39999997616","","","survey-text","49","834935","0.0-13.0-3.4","99930","List1B","black","man","","","","","{""Q0"":""jane is being kissed by kate""}","<img src=""stim_listB/kiss8.gif""style=""height:400px;""></stim_listB>","is being kissed by","","","","","",""
"null","<div style=""font-size:60px;"">+</div>","","html-keyboard-response","50","835450","0.0-13.0-0.5","99930","List1B","black","man","","","","null","","","","","","","","",""
"null","<img src=""stim_listB/seduce4.gif""style=""height:400px;""></stim_listB>","","html-keyboard-response","51","837452","0.0-13.0-1.5","99930","List1B","black","man","","","","null","","","","","","","","",""
"null","is being seduced by","","html-keyboard-response","52","839454","0.0-13.0-2.5","99930","List1B","black","man","","","","null","","","","","","","","",""
"75831.10000002384","","","survey-text","53","915289","0.0-13.0-3.5","99930","List1B","black","man","","","","","{""Q0"":""ruth is being seduced by dave""}","<img src=""stim_listB/seduce4.gif""style=""height:400px;""></stim_listB>","is being seduced by","","","","","",""
"null","<div style=""font-size:60px;"">+</div>","","html-keyboard-response","54","915799","0.0-13.0-0.6","99930","List1B","black","man","","","","null","","","","","","","","",""
"null","<img src=""stim_listB/touch7.gif""style=""height:400px;""></stim_listB>","","html-keyboard-response","55","917811","0.0-13.0-1.6","99930","List1B","black","man","","","","null","","","","","","","","",""
"null","is touching","","html-keyboard-response","56","919813","0.0-13.0-2.6","99930","List1B","black","man","","","","null","","","","","","","","",""
"40978.700000047684","","","survey-text","57","960794","0.0-13.0-3.6","99930","List1B","black","man","","","","","{""Q0"":""jane is touching kate""}","<img src=""stim_listB/touch7.gif""style=""height:400px;""></stim_listB>","is touching","","","","","",""
"null","<div style=""font-size:60px;"">+</div>","","html-keyboard-response","58","961308","0.0-13.0-0.7","99930","List1B","black","man","","","","null","","","","","","","","",""
"null","<img src=""stim_listB/shout2.gif""style=""height:400px;""></stim_listB>","","html-keyboard-response","59","963311","0.0-13.0-1.7","99930","List1B","black","man","","","","null","","","","","","","","",""
"null","is being shouted at by","","html-keyboard-response","60","965313","0.0-13.0-2.7","99930","List1B","black","man","","","","null","","","","","","","","",""
"61362.60000002384","","","survey-text","61","1026678","0.0-13.0-3.7","99930","List1B","black","man","","","","","{""Q0"":""mike is being shouted at by kate""}","<img src=""stim_listB/shout2.gif""style=""height:400px;""></stim_listB>","is being shouted at by","","","","","",""
"null","<div style=""font-size:60px;"">+</div>","","html-keyboard-response","62","1027189","0.0-13.0-0.8","99930","List1B","black","man","","","","null","","","","","","","","",""
"null","<img src=""stim_listB/touch5.gif""style=""height:400px;""></stim_listB>","","html-keyboard-response","63","1029192","0.0-13.0-1.8","99930","List1B","black","man","","","","null","","","","","","","","",""
"null","is touching","","html-keyboard-response","64","1031194","0.0-13.0-2.8","99930","List1B","black","man","","","","null","","","","","","","","",""
"48352","","","survey-text","65","1079549","0.0-13.0-3.8","99930","List1B","black","man","","","","","{""Q0"":""mike is touching dave""}","<img src=""stim_listB/touch5.gif""style=""height:400px;""></stim_listB>","is touching","","","","","",""
"null","<div style=""font-size:60px;"">+</div>","","html-keyboard-response","66","1080050","0.0-13.0-0.9","99930","List1B","black","man","","","","null","","","","","","","","",""
"null","<img src=""stim_listB/oppose8.gif""style=""height:400px;""></stim_listB>","","html-keyboard-response","67","1082054","0.0-13.0-1.9","99930","List1B","black","man","","","","null","","","","","","","","",""
"null","is being opposed by","","html-keyboard-response","68","1084067","0.0-13.0-2.9","99930","List1B","black","man","","","","null","","","","","","","","",""
"62674.799999952316","","","survey-text","69","1146745","0.0-13.0-3.9","99930","List1B","black","man","","","","","{""Q0"":""ruth is being opposed by beth""}","<img src=""stim_listB/oppose8.gif""style=""height:400px;""></stim_listB>","is being opposed by","","","","","",""
"null","<div style=""font-size:60px;"">+</div>","","html-keyboard-response","70","1147252","0.0-13.0-0.10","99930","List1B","black","man","","","","null","","","","","","","","",""
"null","<img src=""stim_listB/shout7.gif""style=""height:400px;""></stim_listB>","","html-keyboard-response","71","1149255","0.0-13.0-1.10","99930","List1B","black","man","","","","null","","","","","","","","",""
"null","is shouting at","","html-keyboard-response","72","1151262","0.0-13.0-2.10","99930","List1B","black","man","","","","null","","","","","","","","",""
"49430.200000047684","","","survey-text","73","1200695","0.0-13.0-3.10","99930","List1B","black","man","","","","","{""Q0"":""ruth is shouting at beth""}","<img src=""stim_listB/shout7.gif""style=""height:400px;""></stim_listB>","is shouting at","","","","","",""
"null","<div style=""font-size:60px;"">+</div>","","html-keyboard-response","74","1201196","0.0-13.0-0.11","99930","List1B","black","man","","","","null","","","","","","","","",""
"null","<img src=""stim_listB/seduce7.gif""style=""height:400px;""></stim_listB>","","html-keyboard-response","75","1203199","0.0-13.0-1.11","99930","List1B","black","man","","","","null","","","","","","","","",""
"null","is seducing","","html-keyboard-response","76","1205211","0.0-13.0-2.11","99930","List1B","black","man","","","","null","","","","","","","","",""
"38959","","","survey-text","77","1244173","0.0-13.0-3.11","99930","List1B","black","man","","","","","{""Q0"":""jane is seducing beth""}","<img src=""stim_listB/seduce7.gif""style=""height:400px;""></stim_listB>","is seducing","","","","","",""
"null","<div style=""font-size:60px;"">+</div>","","html-keyboard-response","78","1244688","0.0-13.0-0.12","99930","List1B","black","man","","","","null","","","","","","","","",""
"null","<img src=""stim_listB/seduce6.gif""style=""height:400px;""></stim_listB>","","html-keyboard-response","79","1246700","0.0-13.0-1.12","99930","List1B","black","man","","","","null","","","","","","","","",""
"null","is being seduced by","","html-keyboard-response","80","1248702","0.0-13.0-2.12","99930","List1B","black","man","","","","null","","","","","","","","",""
"61215.89999997616","","","survey-text","81","1309921","0.0-13.0-3.12","99930","List1B","black","man","","","","","{""Q0"":""mike is being seduced by luke""}","<img src=""stim_listB/seduce6.gif""style=""height:400px;""></stim_listB>","is being seduced by","","","","","",""
"null","<div style=""font-size:60px;"">+</div>","","html-keyboard-response","82","1310429","0.0-13.0-0.13","99930","List1B","black","man","","","","null","","","","","","","","",""
"null","<img src=""stim_listB/oppose3.gif""style=""height:400px;""></stim_listB>","","html-keyboard-response","83","1312432","0.0-13.0-1.13","99930","List1B","black","man","","","","null","","","","","","","","",""
"null","is opposing","","html-keyboard-response","84","1314434","0.0-13.0-2.13","99930","List1B","black","man","","","","null","","","","","","","","",""
"34238.799999952316","","","survey-text","85","1348675","0.0-13.0-3.13","99930","List1B","black","man","","","","","{""Q0"":""dave is opposing jane""}","<img src=""stim_listB/oppose3.gif""style=""height:400px;""></stim_listB>","is opposing","","","","","",""
"null","<div style=""font-size:60px;"">+</div>","","html-keyboard-response","86","1349178","0.0-13.0-0.14","99930","List1B","black","man","","","","null","","","","","","","","",""
"null","<img src=""stim_listB/challenge6.gif""style=""height:400px;""></stim_listB>","","html-keyboard-response","87","1351180","0.0-13.0-1.14","99930","List1B","black","man","","","","null","","","","","","","","",""
"null","is being challenged by","","html-keyboard-response","88","1353191","0.0-13.0-2.14","99930","List1B","black","man","","","","null","","","","","","","","",""
"43835.299999952316","","","survey-text","89","1397029","0.0-13.0-3.14","99930","List1B","black","man","","","","","{""Q0"":""fred is being challenged by dave""}","<img src=""stim_listB/challenge6.gif""style=""height:400px;""></stim_listB>","is being challenged by","","","","","",""
"null","<div style=""font-size:60px;"">+</div>","","html-keyboard-response","90","1397531","0.0-13.0-0.15","99930","List1B","black","man","","","","null","","","","","","","","",""
"null","<img src=""stim_listB/seduce8.gif""style=""height:400px;""></stim_listB>","","html-keyboard-response","91","1399541","0.0-13.0-1.15","99930","List1B","black","man","","","","null","","","","","","","","",""
"null","is being seduced by","","html-keyboard-response","92","1401555","0.0-13.0-2.15","99930","List1B","black","man","","","","null","","","","","","","","",""
"46206","","","survey-text","93","1447763","0.0-13.0-3.15","99930","List1B","black","man","","","","","{""Q0"":""kate is being seduced by ruth""}","<img src=""stim_listB/seduce8.gif""style=""height:400px;""></stim_listB>","is being seduced by","","","","","",""
"null","<div style=""font-size:60px;"">+</div>","","html-keyboard-response","94","1448265","0.0-13.0-0.16","99930","List1B","black","man","","","","null","","","","","","","","",""
"null","<img src=""stim_listB/hug2.gif""style=""height:400px;""></stim_listB>","","html-keyboard-response","95","1450278","0.0-13.0-1.16","99930","List1B","black","man","","","","null","","","","","","","","",""
"null","is being hugged by","","html-keyboard-response","96","1452280","0.0-13.0-2.16","99930","List1B","black","man","","","","null","","","","","","","","",""
"71041.10000002384","","","survey-text","97","1523324","0.0-13.0-3.16","99930","List1B","black","man","","","","","{""Q0"":""mike is being hugged by kate""}","<img src=""stim_listB/hug2.gif""style=""height:400px;""></stim_listB>","is being hugged by","","","","","",""
"null","<div style=""font-size:60px;"">+</div>","","html-keyboard-response","98","1523836","0.0-13.0-0.17","99930","List1B","black","man","","","","null","","","","","","","","",""
"null","<img src=""stim_listB/copy7.gif""style=""height:400px;""></stim_listB>","","html-keyboard-response","99","1525839","0.0-13.0-1.17","99930","List1B","black","man","","","","null","","","","","","","","",""
"null","is copying","","html-keyboard-response","100","1527841","0.0-13.0-2.17","99930","List1B","black","man","","","","null","","","","","","","","",""
"17807.399999976158","","","survey-text","101","1545651","0.0-13.0-3.17","99930","List1B","black","man","","","","","{""Q0"":""ruth is copying kate""}","<img src=""stim_listB/copy7.gif""style=""height:400px;""></stim_listB>","is copying","","","","","",""
"null","<div style=""font-size:60px;"">+</div>","","html-keyboard-response","102","1546153","0.0-13.0-0.18","99930","List1B","black","man","","","","null","","","","","","","","",""
"null","<img src=""stim_listB/hug5.gif""style=""height:400px;""></stim_listB>","","html-keyboard-response","103","1548167","0.0-13.0-1.18","99930","List1B","black","man","","","","null","","","","","","","","",""
"null","is hugging","","html-keyboard-response","104","1550183","0.0-13.0-2.18","99930","List1B","black","man","","","","null","","","","","","","","",""
"17965.700000047684","","","survey-text","105","1568152","0.0-13.0-3.18","99930","List1B","black","man","","","","","{""Q0"":""fred is hugging luke""}","<img src=""stim_listB/hug5.gif""style=""height:400px;""></stim_listB>","is hugging","","","","","",""
"null","<div style=""font-size:60px;"">+</div>","","html-keyboard-response","106","1568655","0.0-13.0-0.19","99930","List1B","black","man","","","","null","","","","","","","","",""
"null","<img src=""stim_listB/greet1.gif""style=""height:400px;""></stim_listB>","","html-keyboard-response","107","1570660","0.0-13.0-1.19","99930","List1B","black","man","","","","null","","","","","","","","",""
"null","is greeting","","html-keyboard-response","108","1572662","0.0-13.0-2.19","99930","List1B","black","man","","","","null","","","","","","","","",""
"25469","","","survey-text","109","1598134","0.0-13.0-3.19","99930","List1B","black","man","","","","","{""Q0"":""beth is greeting mike""}","<img src=""stim_listB/greet1.gif""style=""height:400px;""></stim_listB>","is greeting","","","","","",""
"33666.299999952316","<img src='img/portrait_matrix_list1.jpg' style='width:900px;height:500px;''></img><p>If you have memorised all the portraits and names and are ready to start, press Continue.</p><p><strong>Please note: Your memory of these faces will be tested 4 times during this experiment.</strong></p>","0","html-button-response","110","1631801","0.0-14.0-0.0","99930","List1B","black","man","","","","","","","","","","","","",""
"2967.7000000476837","<img src=""portrait/WW2.jpg""style=""height:400px;""></img>","3","html-button-response","111","1635773","0.0-14.0-1.0","99930","List1B","black","man","","true","3","","","","","","","","","",""
"null","CORRECT","","html-keyboard-response","112","1637278","0.0-14.0-2.0-0.0","99930","List1B","black","man","","","","null","","","","","","","","",""
"4980.799999952316","<img src=""portrait/BM2.jpg""style=""height:400px;""></img>","5","html-button-response","113","1642261","0.0-14.0-4.0","99930","List1B","black","man","","true","5","","","","","","","","","",""
"null","CORRECT","","html-keyboard-response","114","1643766","0.0-14.0-5.0-0.0","99930","List1B","black","man","","","","null","","","","","","","","",""
"4221.200000047684","<img src=""portrait/BW2.jpg""style=""height:400px;""></img>","2","html-button-response","115","1647989","0.0-14.0-7.0","99930","List1B","black","man","","true","2","","","","","","","","","",""
"null","CORRECT","","html-keyboard-response","116","1649510","0.0-14.0-8.0-0.0","99930","List1B","black","man","","","","null","","","","","","","","",""
"3400.399999976158","<img src=""portrait/BW1.jpg""style=""height:400px;""></img>","0","html-button-response","117","1652913","0.0-14.0-10.0","99930","List1B","black","man","","true","0","","","","","","","","","",""
"null","CORRECT","","html-keyboard-response","118","1654417","0.0-14.0-11.0-0.0","99930","List1B","black","man","","","","null","","","","","","","","",""
"2186.5","<img src=""portrait/WW1.jpg""style=""height:400px;""></img>","1","html-button-response","119","1656605","0.0-14.0-13.0","99930","List1B","black","man","","true","1","","","","","","","","","",""
"null","CORRECT","","html-keyboard-response","120","1658126","0.0-14.0-14.0-0.0","99930","List1B","black","man","","","","null","","","","","","","","",""
"1897.6000000238419","<img src=""portrait/WM2.jpg""style=""height:400px;""></img>","7","html-button-response","121","1660025","0.0-14.0-16.0","99930","List1B","black","man","","true","7","","","","","","","","","",""
"null","CORRECT","","html-keyboard-response","122","1661527","0.0-14.0-17.0-0.0","99930","List1B","black","man","","","","null","","","","","","","","",""
"3532.7999999523163","<img src=""portrait/WM1.jpg""style=""height:400px;""></img>","6","html-button-response","123","1665061","0.0-14.0-19.0","99930","List1B","black","man","","true","6","","","","","","","","","",""
"null","CORRECT","","html-keyboard-response","124","1666565","0.0-14.0-20.0-0.0","99930","List1B","black","man","","","","null","","","","","","","","",""
"2304","<img src=""portrait/BM1.jpg""style=""height:400px;""></img>","4","html-button-response","125","1668871","0.0-14.0-22.0","99930","List1B","black","man","","true","4","","","","","","","","","",""
"null","CORRECT","","html-keyboard-response","126","1670375","0.0-14.0-23.0-0.0","99930","List1B","black","man","","","","null","","","","","","","","",""
"13860.399999976158","<p>You got 8 out of 8 right first time. Press Continue.</p>","0","html-button-response","127","1684238","0.0-14.0-25.0","99930","List1B","black","man","","","","","","","","","","","","",""
"null","<div style=""font-size:60px;"">+</div>","","html-keyboard-response","128","1685749","0.0-15.0-0.0","99930","List1B","black","man","","","","null","","","","","","","","",""
"null","<img src=""stim_listB/kiss6.gif""style=""height:400px;""></stim_listB>","","html-keyboard-response","129","1687763","0.0-15.0-1.0","99930","List1B","black","man","","","","null","","","","","","","","",""
"null","is being kissed by","","html-keyboard-response","130","1689777","0.0-15.0-2.0","99930","List1B","black","man","","","","null","","","","","","","","",""
"20692.299999952316","","","survey-text","131","1710472","0.0-15.0-3.0","99930","List1B","black","man","","","","","{""Q0"":""mike is being kissed by dave""}","<img src=""stim_listB/kiss6.gif""style=""height:400px;""></stim_listB>","is being kissed by","","","","","",""
"null","<div style=""font-size:60px;"">+</div>","","html-keyboard-response","132","1710973","0.0-15.0-0.1","99930","List1B","black","man","","","","null","","","","","","","","",""
"null","<img src=""stim_listB/touch1.gif""style=""height:400px;""></stim_listB>","","html-keyboard-response","133","1712976","0.0-15.0-1.1","99930","List1B","black","man","","","","null","","","","","","","","",""
"null","is touching","","html-keyboard-response","134","1714977","0.0-15.0-2.1","99930","List1B","black","man","","","","null","","","","","","","","",""
"12258.100000023842","","","survey-text","135","1727238","0.0-15.0-3.1","99930","List1B","black","man","","","","","{""Q0"":""mike is touching kate""}","<img src=""stim_listB/touch1.gif""style=""height:400px;""></stim_listB>","is touching","","","","","",""
"null","<div style=""font-size:60px;"">+</div>","","html-keyboard-response","136","1727740","0.0-15.0-0.2","99930","List1B","black","man","","","","null","","","","","","","","",""
"null","<img src=""stim_listB/greet3.gif""style=""height:400px;""></stim_listB>","","html-keyboard-response","137","1729743","0.0-15.0-1.2","99930","List1B","black","man","","","","null","","","","","","","","",""
"null","is greeting","","html-keyboard-response","138","1731745","0.0-15.0-2.2","99930","List1B","black","man","","","","null","","","","","","","","",""
"13978.699999928474","","","survey-text","139","1745726","0.0-15.0-3.2","99930","List1B","black","man","","","","","{""Q0"":""ruth is greeting dave""}","<img src=""stim_listB/greet3.gif""style=""height:400px;""></stim_listB>","is greeting","","","","","",""
"null","<div style=""font-size:60px;"">+</div>","","html-keyboard-response","140","1746227","0.0-15.0-0.3","99930","List1B","black","man","","","","null","","","","","","","","",""
"null","<img src=""stim_listB/touch2.gif""style=""height:400px;""></stim_listB>","","html-keyboard-response","141","1748244","0.0-15.0-1.3","99930","List1B","black","man","","","","null","","","","","","","","",""
"null","is being touched by","","html-keyboard-response","142","1750246","0.0-15.0-2.3","99930","List1B","black","man","","","","null","","","","","","","","",""
"24256.799999952316","","","survey-text","143","1774506","0.0-15.0-3.3","99930","List1B","black","man","","","","","{""Q0"":""fred is being touched by beth""}","<img src=""stim_listB/touch2.gif""style=""height:400px;""></stim_listB>","is being touched by","","","","","",""
"null","<div style=""font-size:60px;"">+</div>","","html-keyboard-response","144","1775009","0.0-15.0-0.4","99930","List1B","black","man","","","","null","","","","","","","","",""
"null","<img src=""stim_listB/look8.gif""style=""height:400px;""></stim_listB>","","html-keyboard-response","145","1777020","0.0-15.0-1.4","99930","List1B","black","man","","","","null","","","","","","","","",""
"null","is being looked at by","","html-keyboard-response","146","1779036","0.0-15.0-2.4","99930","List1B","black","man","","","","null","","","","","","","","",""
"15649.800000071526","","","survey-text","147","1794688","0.0-15.0-3.4","99930","List1B","black","man","","","","","{""Q0"":""jane is being looked at by kate""}","<img src=""stim_listB/look8.gif""style=""height:400px;""></stim_listB>","is being looked at by","","","","","",""
"null","<div style=""font-size:60px;"">+</div>","","html-keyboard-response","148","1795190","0.0-15.0-0.5","99930","List1B","black","man","","","","null","","","","","","","","",""
"null","<img src=""stim_listB/copy1.gif""style=""height:400px;""></stim_listB>","","html-keyboard-response","149","1797196","0.0-15.0-1.5","99930","List1B","black","man","","","","null","","","","","","","","",""
"null","is copying","","html-keyboard-response","150","1799211","0.0-15.0-2.5","99930","List1B","black","man","","","","null","","","","","","","","",""
"12604.100000023842","","","survey-text","151","1811818","0.0-15.0-3.5","99930","List1B","black","man","","","","","{""Q0"":""mike is copying beth""}","<img src=""stim_listB/copy1.gif""style=""height:400px;""></stim_listB>","is copying","","","","","",""
"null","<div style=""font-size:60px;"">+</div>","","html-keyboard-response","152","1812319","0.0-15.0-0.6","99930","List1B","black","man","","","","null","","","","","","","","",""
"null","<img src=""stim_listB/oppose4.gif""style=""height:400px;""></stim_listB>","","html-keyboard-response","153","1814322","0.0-15.0-1.6","99930","List1B","black","man","","","","null","","","","","","","","",""
"null","is being opposed by","","html-keyboard-response","154","1816335","0.0-15.0-2.6","99930","List1B","black","man","","","","null","","","","","","","","",""
"17395.600000023842","","","survey-text","155","1833734","0.0-15.0-3.6","99930","List1B","black","man","","","","","{""Q0"":""luke is being opposed by ruth""}","<img src=""stim_listB/oppose4.gif""style=""height:400px;""></stim_listB>","is being opposed by","","","","","",""
"null","<div style=""font-size:60px;"">+</div>","","html-keyboard-response","156","1834241","0.0-15.0-0.7","99930","List1B","black","man","","","","null","","","","","","","","",""
"null","<img src=""stim_listB/greet6.gif""style=""height:400px;""></stim_listB>","","html-keyboard-response","157","1836244","0.0-15.0-1.7","99930","List1B","black","man","","","","null","","","","","","","","",""
"null","is being greeted by","","html-keyboard-response","158","1838253","0.0-15.0-2.7","99930","List1B","black","man","","","","null","","","","","","","","",""
"23288.100000023842","","","survey-text","159","1861544","0.0-15.0-3.7","99930","List1B","black","man","","","","","{""Q0"":""fred is being greeted by dave""}","<img src=""stim_listB/greet6.gif""style=""height:400px;""></stim_listB>","is being greeted by","","","","","",""
"null","<div style=""font-size:60px;"">+</div>","","html-keyboard-response","160","1862048","0.0-15.0-0.8","99930","List1B","black","man","","","","null","","","","","","","","",""
"null","<img src=""stim_listB/kiss5.gif""style=""height:400px;""></stim_listB>","","html-keyboard-response","161","1864052","0.0-15.0-1.8","99930","List1B","black","man","","","","null","","","","","","","","",""
"null","is kissing","","html-keyboard-response","162","1866060","0.0-15.0-2.8","99930","List1B","black","man","","","","null","","","","","","","","",""
"12239.399999976158","","","survey-text","163","1878302","0.0-15.0-3.8","99930","List1B","black","man","","","","","{""Q0"":""luke is kissing fred""}","<img src=""stim_listB/kiss5.gif""style=""height:400px;""></stim_listB>","is kissing","","","","","",""
"null","<div style=""font-size:60px;"">+</div>","","html-keyboard-response","164","1878804","0.0-15.0-0.9","99930","List1B","black","man","","","","null","","","","","","","","",""
"null","<img src=""stim_listB/shout3.gif""style=""height:400px;""></stim_listB>","","html-keyboard-response","165","1880819","0.0-15.0-1.9","99930","List1B","black","man","","","","null","","","","","","","","",""
"null","is shouting at","","html-keyboard-response","166","1882820","0.0-15.0-2.9","99930","List1B","black","man","","","","null","","","","","","","","",""
"15203.100000023842","","","survey-text","167","1898026","0.0-15.0-3.9","99930","List1B","black","man","","","","","{""Q0"":""ruth is shouting at luke""}","<img src=""stim_listB/shout3.gif""style=""height:400px;""></stim_listB>","is shouting at","","","","","",""
"null","<div style=""font-size:60px;"">+</div>","","html-keyboard-response","168","1898528","0.0-15.0-0.10","99930","List1B","black","man","","","","null","","","","","","","","",""
"null","<img src=""stim_listB/greet5.gif""style=""height:400px;""></stim_listB>","","html-keyboard-response","169","1900530","0.0-15.0-1.10","99930","List1B","black","man","","","","null","","","","","","","","",""
"null","is greeting","","html-keyboard-response","170","1902537","0.0-15.0-2.10","99930","List1B","black","man","","","","null","","","","","","","","",""
"12808.200000047684","","","survey-text","171","1915348","0.0-15.0-3.10","99930","List1B","black","man","","","","","{""Q0"":""mike is greeting luke""}","<img src=""stim_listB/greet5.gif""style=""height:400px;""></stim_listB>","is greeting","","","","","",""
"null","<div style=""font-size:60px;"">+</div>","","html-keyboard-response","172","1915850","0.0-15.0-0.11","99930","List1B","black","man","","","","null","","","","","","","","",""
"null","<img src=""stim_listB/oppose7.gif""style=""height:400px;""></stim_listB>","","html-keyboard-response","173","1917852","0.0-15.0-1.11","99930","List1B","black","man","","","","null","","","","","","","","",""
"null","is opposing","","html-keyboard-response","174","1919854","0.0-15.0-2.11","99930","List1B","black","man","","","","null","","","","","","","","",""
"13313.400000095367","","","survey-text","175","1933170","0.0-15.0-3.11","99930","List1B","black","man","","","","","{""Q0"":""jane is opposing kate""}","<img src=""stim_listB/oppose7.gif""style=""height:400px;""></stim_listB>","is opposing","","","","","",""
"null","<div style=""font-size:60px;"">+</div>","","html-keyboard-response","176","1933681","0.0-15.0-0.12","99930","List1B","black","man","","","","null","","","","","","","","",""
"null","<img src=""stim_listB/copy4.gif""style=""height:400px;""></stim_listB>","","html-keyboard-response","177","1935697","0.0-15.0-1.12","99930","List1B","black","man","","","","null","","","","","","","","",""
"null","is being copied by","","html-keyboard-response","178","1937711","0.0-15.0-2.12","99930","List1B","black","man","","","","null","","","","","","","","",""
"16877.5","","","survey-text","179","1954592","0.0-15.0-3.12","99930","List1B","black","man","","","","","{""Q0"":""luke is being copied by jane""}","<img src=""stim_listB/copy4.gif""style=""height:400px;""></stim_listB>","is being copied by","","","","","",""
"null","<div style=""font-size:60px;"">+</div>","","html-keyboard-response","180","1955095","0.0-15.0-0.13","99930","List1B","black","man","","","","null","","","","","","","","",""
"null","<img src=""stim_listB/hug3.gif""style=""height:400px;""></stim_listB>","","html-keyboard-response","181","1957098","0.0-15.0-1.13","99930","List1B","black","man","","","","null","","","","","","","","",""
"null","is hugging","","html-keyboard-response","182","1959107","0.0-15.0-2.13","99930","List1B","black","man","","","","null","","","","","","","","",""
"14053.699999928474","","","survey-text","183","1973164","0.0-15.0-3.13","99930","List1B","black","man","","","","","{""Q0"":""ruth is hugging luke""}","<img src=""stim_listB/hug3.gif""style=""height:400px;""></stim_listB>","is hugging","","","","","",""
"null","<div style=""font-size:60px;"">+</div>","","html-keyboard-response","184","1973677","0.0-15.0-0.14","99930","List1B","black","man","","","","null","","","","","","","","",""
"null","<img src=""stim_listB/look2.gif""style=""height:400px;""></stim_listB>","","html-keyboard-response","185","1975692","0.0-15.0-1.14","99930","List1B","black","man","","","","null","","","","","","","","",""
"null","is being looked at by","","html-keyboard-response","186","1977694","0.0-15.0-2.14","99930","List1B","black","man","","","","null","","","","","","","","",""
"20574.899999976158","","","survey-text","187","1998272","0.0-15.0-3.14","99930","List1B","black","man","","","","","{""Q0"":""mike is being looked at by kate""}","<img src=""stim_listB/look2.gif""style=""height:400px;""></stim_listB>","is being looked at by","","","","","",""
"null","<div style=""font-size:60px;"">+</div>","","html-keyboard-response","188","1998773","0.0-15.0-0.15","99930","List1B","black","man","","","","null","","","","","","","","",""
"null","<img src=""stim_listB/kiss2.gif""style=""height:400px;""></stim_listB>","","html-keyboard-response","189","2000786","0.0-15.0-1.15","99930","List1B","black","man","","","","null","","","","","","","","",""
"null","is being kissed by","","html-keyboard-response","190","2002788","0.0-15.0-2.15","99930","List1B","black","man","","","","null","","","","","","","","",""
"15693.199999928474","","","survey-text","191","2018484","0.0-15.0-3.15","99930","List1B","black","man","","","","","{""Q0"":""mike is being kissed by kate""}","<img src=""stim_listB/kiss2.gif""style=""height:400px;""></stim_listB>","is being kissed by","","","","","",""
"null","<div style=""font-size:60px;"">+</div>","","html-keyboard-response","192","2018985","0.0-15.0-0.16","99930","List1B","black","man","","","","null","","","","","","","","",""
"null","<img src=""stim_listB/copy3.gif""style=""height:400px;""></stim_listB>","","html-keyboard-response","193","2020989","0.0-15.0-1.16","99930","List1B","black","man","","","","null","","","","","","","","",""
"null","is copying","","html-keyboard-response","194","2023004","0.0-15.0-2.16","99930","List1B","black","man","","","","null","","","","","","","","",""
"12193.5","","","survey-text","195","2035200","0.0-15.0-3.16","99930","List1B","black","man","","","","","{""Q0"":""ruth is copying dave""}","<img src=""stim_listB/copy3.gif""style=""height:400px;""></stim_listB>","is copying","","","","","",""
"null","<div style=""font-size:60px;"">+</div>","","html-keyboard-response","196","2035711","0.0-15.0-0.17","99930","List1B","black","man","","","","null","","","","","","","","",""
"null","<img src=""stim_listB/hug7.gif""style=""height:400px;""></stim_listB>","","html-keyboard-response","197","2037714","0.0-15.0-1.17","99930","List1B","black","man","","","","null","","","","","","","","",""
"null","is hugging","","html-keyboard-response","198","2039729","0.0-15.0-2.17","99930","List1B","black","man","","","","null","","","","","","","","",""
"12374.399999976158","","","survey-text","199","2052106","0.0-15.0-3.17","99930","List1B","black","man","","","","","{""Q0"":""beth is hugging ruth""}","<img src=""stim_listB/hug7.gif""style=""height:400px;""></stim_listB>","is hugging","","","","","",""
"null","<div style=""font-size:60px;"">+</div>","","html-keyboard-response","200","2052607","0.0-15.0-0.18","99930","List1B","black","man","","","","null","","","","","","","","",""
"null","<img src=""stim_listB/touch3.gif""style=""height:400px;""></stim_listB>","","html-keyboard-response","201","2054610","0.0-15.0-1.18","99930","List1B","black","man","","","","null","","","","","","","","",""
"null","is touching","","html-keyboard-response","202","2056612","0.0-15.0-2.18","99930","List1B","black","man","","","","null","","","","","","","","",""
"16433.399999976158","","","survey-text","203","2073048","0.0-15.0-3.18","99930","List1B","black","man","","","","","{""Q0"":""dave is touching jane""}","<img src=""stim_listB/touch3.gif""style=""height:400px;""></stim_listB>","is touching","","","","","",""
"null","<div style=""font-size:60px;"">+</div>","","html-keyboard-response","204","2073565","0.0-15.0-0.19","99930","List1B","black","man","","","","null","","","","","","","","",""
"null","<img src=""stim_listB/seduce1.gif""style=""height:400px;""></stim_listB>","","html-keyboard-response","205","2075568","0.0-15.0-1.19","99930","List1B","black","man","","","","null","","","","","","","","",""
"null","is seducing","","html-keyboard-response","206","2077570","0.0-15.0-2.19","99930","List1B","black","man","","","","null","","","","","","","","",""
"9503.5","","","survey-text","207","2087076","0.0-15.0-3.19","99930","List1B","black","man","","","","","{""Q0"":""fred is seducing kate""}","<img src=""stim_listB/seduce1.gif""style=""height:400px;""></stim_listB>","is seducing","","","","","",""
"5590.5","<img src='img/portrait_matrix_list1.jpg' style='width:900px;height:500px;''></img><p>If you have memorised all the portraits and names and are ready to start, press Continue.</p><p><strong>Please note: Your memory of these faces will be tested 4 times during this experiment.</strong></p>","0","html-button-response","208","2092668","0.0-16.0-0.0","99930","List1B","black","man","","","","","","","","","","","","",""
"3590.6999999284744","<img src=""portrait/WW2.jpg""style=""height:400px;""></img>","3","html-button-response","209","2097262","0.0-16.0-1.0","99930","List1B","black","man","","true","3","","","","","","","","","",""
"null","CORRECT","","html-keyboard-response","210","2098777","0.0-16.0-2.0-0.0","99930","List1B","black","man","","","","null","","","","","","","","",""
"2288.8000000715256","<img src=""portrait/BW2.jpg""style=""height:400px;""></img>","2","html-button-response","211","2101068","0.0-16.0-4.0","99930","List1B","black","man","","true","2","","","","","","","","","",""
"null","CORRECT","","html-keyboard-response","212","2102572","0.0-16.0-5.0-0.0","99930","List1B","black","man","","","","null","","","","","","","","",""
"2503.9000000953674","<img src=""portrait/WM1.jpg""style=""height:400px;""></img>","6","html-button-response","213","2105079","0.0-16.0-7.0","99930","List1B","black","man","","true","6","","","","","","","","","",""
"null","CORRECT","","html-keyboard-response","214","2106582","0.0-16.0-8.0-0.0","99930","List1B","black","man","","","","null","","","","","","","","",""
"2119.2999999523163","<img src=""portrait/WW1.jpg""style=""height:400px;""></img>","1","html-button-response","215","2108703","0.0-16.0-10.0","99930","List1B","black","man","","true","1","","","","","","","","","",""
"null","CORRECT","","html-keyboard-response","216","2110217","0.0-16.0-11.0-0.0","99930","List1B","black","man","","","","null","","","","","","","","",""
"1937.4000000953674","<img src=""portrait/BW1.jpg""style=""height:400px;""></img>","0","html-button-response","217","2112157","0.0-16.0-13.0","99930","List1B","black","man","","true","0","","","","","","","","","",""
"null","CORRECT","","html-keyboard-response","218","2113669","0.0-16.0-14.0-0.0","99930","List1B","black","man","","","","null","","","","","","","","",""
"1985.6999999284744","<img src=""portrait/BM1.jpg""style=""height:400px;""></img>","4","html-button-response","219","2115657","0.0-16.0-16.0","99930","List1B","black","man","","true","4","","","","","","","","","",""
"null","CORRECT","","html-keyboard-response","220","2117170","0.0-16.0-17.0-0.0","99930","List1B","black","man","","","","null","","","","","","","","",""
"1536.7000000476837","<img src=""portrait/WM2.jpg""style=""height:400px;""></img>","7","html-button-response","221","2118709","0.0-16.0-19.0","99930","List1B","black","man","","true","7","","","","","","","","","",""
"null","CORRECT","","html-keyboard-response","222","2120224","0.0-16.0-20.0-0.0","99930","List1B","black","man","","","","null","","","","","","","","",""
"1794.9000000953674","<img src=""portrait/BM2.jpg""style=""height:400px;""></img>","5","html-button-response","223","2122021","0.0-16.0-22.0","99930","List1B","black","man","","true","5","","","","","","","","","",""
"null","CORRECT","","html-keyboard-response","224","2123532","0.0-16.0-23.0-0.0","99930","List1B","black","man","","","","null","","","","","","","","",""
"3694.899999976158","<p>You got 8 out of 8 right first time. Press Continue.</p>","0","html-button-response","225","2127229","0.0-16.0-25.0","99930","List1B","black","man","","","","","","","","","","","","",""
"null","<div style=""font-size:60px;"">+</div>","","html-keyboard-response","226","2128742","0.0-17.0-0.0","99930","List1B","black","man","","","","null","","","","","","","","",""
"null","<img src=""stim_listB/seduce5.gif""style=""height:400px;""></stim_listB>","","html-keyboard-response","227","2130750","0.0-17.0-1.0","99930","List1B","black","man","","","","null","","","","","","","","",""
"null","is seducing","","html-keyboard-response","228","2132764","0.0-17.0-2.0","99930","List1B","black","man","","","","null","","","","","","","","",""
"12851.600000023842","","","survey-text","229","2145620","0.0-17.0-3.0","99930","List1B","black","man","","","","","{""Q0"":""fred is seducing dave""}","<img src=""stim_listB/seduce5.gif""style=""height:400px;""></stim_listB>","is seducing","","","","","",""
"null","<div style=""font-size:60px;"">+</div>","","html-keyboard-response","230","2146121","0.0-17.0-0.1","99930","List1B","black","man","","","","null","","","","","","","","",""
"null","<img src=""stim_listB/kiss4.gif""style=""height:400px;""></stim_listB>","","html-keyboard-response","231","2148123","0.0-17.0-1.1","99930","List1B","black","man","","","","null","","","","","","","","",""
"null","is being kissed by","","html-keyboard-response","232","2150126","0.0-17.0-2.1","99930","List1B","black","man","","","","null","","","","","","","","",""
"11832.200000047684","","","survey-text","233","2161961","0.0-17.0-3.1","99930","List1B","black","man","","","","","{""Q0"":""jane is being kissed by dave""}","<img src=""stim_listB/kiss4.gif""style=""height:400px;""></stim_listB>","is being kissed by","","","","","",""
"null","<div style=""font-size:60px;"">+</div>","","html-keyboard-response","234","2162463","0.0-17.0-0.2","99930","List1B","black","man","","","","null","","","","","","","","",""
"null","<img src=""stim_listB/challenge8.gif""style=""height:400px;""></stim_listB>","","html-keyboard-response","235","2164476","0.0-17.0-1.2","99930","List1B","black","man","","","","null","","","","","","","","",""
"null","is being challenged by","","html-keyboard-response","236","2166492","0.0-17.0-2.2","99930","List1B","black","man","","","","null","","","","","","","","",""
"20589.400000095367","","","survey-text","237","2187084","0.0-17.0-3.2","99930","List1B","black","man","","","","","{""Q0"":""beth is being challenged by jane""}","<img src=""stim_listB/challenge8.gif""style=""height:400px;""></stim_listB>","is being challenged by","","","","","",""
"null","<div style=""font-size:60px;"">+</div>","","html-keyboard-response","238","2187586","0.0-17.0-0.3","99930","List1B","black","man","","","","null","","","","","","","","",""
"null","<img src=""stim_listB/challenge2.gif""style=""height:400px;""></stim_listB>","","html-keyboard-response","239","2189589","0.0-17.0-1.3","99930","List1B","black","man","","","","null","","","","","","","","",""
"null","is being challenged by","","html-keyboard-response","240","2191591","0.0-17.0-2.3","99930","List1B","black","man","","","","null","","","","","","","","",""
"22882.700000047684","","","survey-text","241","2214476","0.0-17.0-3.3","99930","List1B","black","man","","","","","{""Q0"":""fred is being challenged by kate""}","<img src=""stim_listB/challenge2.gif""style=""height:400px;""></stim_listB>","is being challenged by","","","","","",""
"null","<div style=""font-size:60px;"">+</div>","","html-keyboard-response","242","2214977","0.0-17.0-0.4","99930","List1B","black","man","","","","null","","","","","","","","",""
"null","<img src=""stim_listB/hug8.gif""style=""height:400px;""></stim_listB>","","html-keyboard-response","243","2216982","0.0-17.0-1.4","99930","List1B","black","man","","","","null","","","","","","","","",""
"null","is being hugged by","","html-keyboard-response","244","2218994","0.0-17.0-2.4","99930","List1B","black","man","","","","null","","","","","","","","",""
"16765.200000047684","","","survey-text","245","2235763","0.0-17.0-3.4","99930","List1B","black","man","","","","","{""Q0"":""kate is being hugged by jane""}","<img src=""stim_listB/hug8.gif""style=""height:400px;""></stim_listB>","is being hugged by","","","","","",""
"null","<div style=""font-size:60px;"">+</div>","","html-keyboard-response","246","2236264","0.0-17.0-0.5","99930","List1B","black","man","","","","null","","","","","","","","",""
"null","<img src=""stim_listB/look1.gif""style=""height:400px;""></stim_listB>","","html-keyboard-response","247","2238276","0.0-17.0-1.5","99930","List1B","black","man","","","","null","","","","","","","","",""
"null","is looking at","","html-keyboard-response","248","2240290","0.0-17.0-2.5","99930","List1B","black","man","","","","null","","","","","","","","",""
"12562.199999928474","","","survey-text","249","2252855","0.0-17.0-3.5","99930","List1B","black","man","","","","","{""Q0"":""fred is looking at beth""}","<img src=""stim_listB/look1.gif""style=""height:400px;""></stim_listB>","is looking at","","","","","",""
"null","<div style=""font-size:60px;"">+</div>","","html-keyboard-response","250","2253357","0.0-17.0-0.6","99930","List1B","black","man","","","","null","","","","","","","","",""
"null","<img src=""stim_listB/look5.gif""style=""height:400px;""></stim_listB>","","html-keyboard-response","251","2255372","0.0-17.0-1.6","99930","List1B","black","man","","","","null","","","","","","","","",""
"null","is looking at","","html-keyboard-response","252","2257387","0.0-17.0-2.6","99930","List1B","black","man","","","","null","","","","","","","","",""
"9965.099999904633","","","survey-text","253","2267355","0.0-17.0-3.6","99930","List1B","black","man","","","","","{""Q0"":""fred is looking at luke""}","<img src=""stim_listB/look5.gif""style=""height:400px;""></stim_listB>","is looking at","","","","","",""
"null","<div style=""font-size:60px;"">+</div>","","html-keyboard-response","254","2267857","0.0-17.0-0.7","99930","List1B","black","man","","","","null","","","","","","","","",""
"null","<img src=""stim_listB/seduce2.gif""style=""height:400px;""></stim_listB>","","html-keyboard-response","255","2269860","0.0-17.0-1.7","99930","List1B","black","man","","","","null","","","","","","","","",""
"null","is being seduced by","","html-keyboard-response","256","2271862","0.0-17.0-2.7","99930","List1B","black","man","","","","null","","","","","","","","",""
"18712.399999976158","","","survey-text","257","2290577","0.0-17.0-3.7","99930","List1B","black","man","","","","","{""Q0"":""mike is being seduced by beth""}","<img src=""stim_listB/seduce2.gif""style=""height:400px;""></stim_listB>","is being seduced by","","","","","",""
"null","<div style=""font-size:60px;"">+</div>","","html-keyboard-response","258","2291080","0.0-17.0-0.8","99930","List1B","black","man","","","","null","","","","","","","","",""
"null","<img src=""stim_listB/shout1.gif""style=""height:400px;""></stim_listB>","","html-keyboard-response","259","2293083","0.0-17.0-1.8","99930","List1B","black","man","","","","null","","","","","","","","",""
"null","is shouting at","","html-keyboard-response","260","2295085","0.0-17.0-2.8","99930","List1B","black","man","","","","null","","","","","","","","",""
"29797.899999976158","","","survey-text","261","2324885","0.0-17.0-3.8","99930","List1B","black","man","","","","","{""Q0"":""fred is shouting at beth""}","<img src=""stim_listB/shout1.gif""style=""height:400px;""></stim_listB>","is shouting at","","","","","",""
"null","<div style=""font-size:60px;"">+</div>","","html-keyboard-response","262","2325389","0.0-17.0-0.9","99930","List1B","black","man","","","","null","","","","","","","","",""
"null","<img src=""stim_listB/touch4.gif""style=""height:400px;""></stim_listB>","","html-keyboard-response","263","2327392","0.0-17.0-1.9","99930","List1B","black","man","","","","null","","","","","","","","",""
"null","is being touched by","","html-keyboard-response","264","2329400","0.0-17.0-2.9","99930","List1B","black","man","","","","null","","","","","","","","",""
"16952.5","","","survey-text","265","2346355","0.0-17.0-3.9","99930","List1B","black","man","","","","","{""Q0"":""luke is being touched by ruth""}","<img src=""stim_listB/touch4.gif""style=""height:400px;""></stim_listB>","is being touched by","","","","","",""
"null","<div style=""font-size:60px;"">+</div>","","html-keyboard-response","266","2346871","0.0-17.0-0.10","99930","List1B","black","man","","","","null","","","","","","","","",""
"null","<img src=""stim_listB/seduce3.gif""style=""height:400px;""></stim_listB>","","html-keyboard-response","267","2348874","0.0-17.0-1.10","99930","List1B","black","man","","","","null","","","","","","","","",""
"null","is seducing","","html-keyboard-response","268","2350882","0.0-17.0-2.10","99930","List1B","black","man","","","","null","","","","","","","","",""
"13771.799999952316","","","survey-text","269","2364657","0.0-17.0-3.10","99930","List1B","black","man","","","","","{""Q0"":""luke is seducing jane""}","<img src=""stim_listB/seduce3.gif""style=""height:400px;""></stim_listB>","is seducing","","","","","",""
"null","<div style=""font-size:60px;"">+</div>","","html-keyboard-response","270","2365158","0.0-17.0-0.11","99930","List1B","black","man","","","","null","","","","","","","","",""
"null","<img src=""stim_listB/oppose6.gif""style=""height:400px;""></stim_listB>","","html-keyboard-response","271","2367163","0.0-17.0-1.11","99930","List1B","black","man","","","","null","","","","","","","","",""
"null","is being opposed by","","html-keyboard-response","272","2369176","0.0-17.0-2.11","99930","List1B","black","man","","","","null","","","","","","","","",""
"15930","","","survey-text","273","2385109","0.0-17.0-3.11","99930","List1B","black","man","","","","","{""Q0"":""luke is being opposed by fred""}","<img src=""stim_listB/oppose6.gif""style=""height:400px;""></stim_listB>","is being opposed by","","","","","",""
"null","<div style=""font-size:60px;"">+</div>","","html-keyboard-response","274","2385620","0.0-17.0-0.12","99930","List1B","black","man","","","","null","","","","","","","","",""
"null","<img src=""stim_listB/copy2.gif""style=""height:400px;""></stim_listB>","","html-keyboard-response","275","2387623","0.0-17.0-1.12","99930","List1B","black","man","","","","null","","","","","","","","",""
"null","is being copied by","","html-keyboard-response","276","2389633","0.0-17.0-2.12","99930","List1B","black","man","","","","null","","","","","","","","",""
"13582.700000047684","","","survey-text","277","2403219","0.0-17.0-3.12","99930","List1B","black","man","","","","","{""Q0"":""fred is being copied by kate""}","<img src=""stim_listB/copy2.gif""style=""height:400px;""></stim_listB>","is being copied by","","","","","",""
"null","<div style=""font-size:60px;"">+</div>","","html-keyboard-response","278","2403735","0.0-17.0-0.13","99930","List1B","black","man","","","","null","","","","","","","","",""
"null","<img src=""stim_listB/shout5.gif""style=""height:400px;""></stim_listB>","","html-keyboard-response","279","2405738","0.0-17.0-1.13","99930","List1B","black","man","","","","null","","","","","","","","",""
"null","is shouting at","","html-keyboard-response","280","2407747","0.0-17.0-2.13","99930","List1B","black","man","","","","null","","","","","","","","",""
"11543.200000047684","","","survey-text","281","2419293","0.0-17.0-3.13","99930","List1B","black","man","","","","","{""Q0"":""fred is shouting at luke""}","<img src=""stim_listB/shout5.gif""style=""height:400px;""></stim_listB>","is shouting at","","","","","",""
"null","<div style=""font-size:60px;"">+</div>","","html-keyboard-response","282","2419804","0.0-17.0-0.14","99930","List1B","black","man","","","","null","","","","","","","","",""
"null","<img src=""stim_listB/hug1.gif""style=""height:400px;""></stim_listB>","","html-keyboard-response","283","2421807","0.0-17.0-1.14","99930","List1B","black","man","","","","null","","","","","","","","",""
"null","is hugging","","html-keyboard-response","284","2423816","0.0-17.0-2.14","99930","List1B","black","man","","","","null","","","","","","","","",""
"12864","","","survey-text","285","2436683","0.0-17.0-3.14","99930","List1B","black","man","","","","","{""Q0"":""fred is hugging beth""}","<img src=""stim_listB/hug1.gif""style=""height:400px;""></stim_listB>","is hugging","","","","","",""
"null","<div style=""font-size:60px;"">+</div>","","html-keyboard-response","286","2437189","0.0-17.0-0.15","99930","List1B","black","man","","","","null","","","","","","","","",""
"null","<img src=""stim_listB/oppose2.gif""style=""height:400px;""></stim_listB>","","html-keyboard-response","287","2439205","0.0-17.0-1.15","99930","List1B","black","man","","","","null","","","","","","","","",""
"null","is being opposed by","","html-keyboard-response","288","2441215","0.0-17.0-2.15","99930","List1B","black","man","","","","null","","","","","","","","",""
"13717.200000047684","","","survey-text","289","2454935","0.0-17.0-3.15","99930","List1B","black","man","","","","","{""Q0"":""fred is being opposed by beth""}","<img src=""stim_listB/oppose2.gif""style=""height:400px;""></stim_listB>","is being opposed by","","","","","",""
"null","<div style=""font-size:60px;"">+</div>","","html-keyboard-response","290","2455452","0.0-17.0-0.16","99930","List1B","black","man","","","","null","","","","","","","","",""
"null","<img src=""stim_listB/copy6.gif""style=""height:400px;""></stim_listB>","","html-keyboard-response","291","2457467","0.0-17.0-1.16","99930","List1B","black","man","","","","null","","","","","","","","",""
"null","is being copied by","","html-keyboard-response","292","2459468","0.0-17.0-2.16","99930","List1B","black","man","","","","null","","","","","","","","",""
"13771.899999976158","","","survey-text","293","2473243","0.0-17.0-3.16","99930","List1B","black","man","","","","","{""Q0"":""dave is being copied by fred""}","<img src=""stim_listB/copy6.gif""style=""height:400px;""></stim_listB>","is being copied by","","","","","",""
"null","<div style=""font-size:60px;"">+</div>","","html-keyboard-response","294","2473745","0.0-17.0-0.17","99930","List1B","black","man","","","","null","","","","","","","","",""
"null","<img src=""stim_listB/challenge4.gif""style=""height:400px;""></stim_listB>","","html-keyboard-response","295","2475758","0.0-17.0-1.17","99930","List1B","black","man","","","","null","","","","","","","","",""
"null","is being challenged by","","html-keyboard-response","296","2477772","0.0-17.0-2.17","99930","List1B","black","man","","","","null","","","","","","","","",""
"22996","","","survey-text","297","2500771","0.0-17.0-3.17","99930","List1B","black","man","","","","","{""Q0"":""luke is being challenged by jane""}","<img src=""stim_listB/challenge4.gif""style=""height:400px;""></stim_listB>","is being challenged by","","","","","",""
"null","<div style=""font-size:60px;"">+</div>","","html-keyboard-response","298","2501272","0.0-17.0-0.18","99930","List1B","black","man","","","","null","","","","","","","","",""
"null","<img src=""stim_listB/hug4.gif""style=""height:400px;""></stim_listB>","","html-keyboard-response","299","2503275","0.0-17.0-1.18","99930","List1B","black","man","","","","null","","","","","","","","",""
"null","is being hugged by","","html-keyboard-response","300","2505277","0.0-17.0-2.18","99930","List1B","black","man","","","","null","","","","","","","","",""
"24055.599999904633","","","survey-text","301","2529335","0.0-17.0-3.18","99930","List1B","black","man","","","","","{""Q0"":""dave is being hugged by jane""}","<img src=""stim_listB/hug4.gif""style=""height:400px;""></stim_listB>","is being hugged by","","","","","",""
"null","<div style=""font-size:60px;"">+</div>","","html-keyboard-response","302","2529836","0.0-17.0-0.19","99930","List1B","black","man","","","","null","","","","","","","","",""
"null","<img src=""stim_listB/shout6.gif""style=""height:400px;""></stim_listB>","","html-keyboard-response","303","2531842","0.0-17.0-1.19","99930","List1B","black","man","","","","null","","","","","","","","",""
"null","is being shouted at by","","html-keyboard-response","304","2533844","0.0-17.0-2.19","99930","List1B","black","man","","","","null","","","","","","","","",""
"17516.299999952316","","","survey-text","305","2551363","0.0-17.0-3.19","99930","List1B","black","man","","","","","{""Q0"":""mike is being shouted at by dave""}","<img src=""stim_listB/shout6.gif""style=""height:400px;""></stim_listB>","is being shouted at by","","","","","",""
"4702.399999976158","<img src='img/portrait_matrix_list1.jpg' style='width:900px;height:500px;''></img><p>If you have memorised all the portraits and names and are ready to start, press Continue.</p><p><strong>Please note: Your memory of these faces will be tested 4 times during this experiment.</strong></p>","0","html-button-response","306","2556067","0.0-18.0-0.0","99930","List1B","black","man","","","","","","","","","","","","",""
"2122.9000000953674","<img src=""portrait/WW1.jpg""style=""height:400px;""></img>","1","html-button-response","307","2559201","0.0-18.0-1.0","99930","List1B","black","man","","true","1","","","","","","","","","",""
"null","CORRECT","","html-keyboard-response","308","2560707","0.0-18.0-2.0-0.0","99930","List1B","black","man","","","","null","","","","","","","","",""
"1984.6000000238419","<img src=""portrait/WM2.jpg""style=""height:400px;""></img>","7","html-button-response","309","2562693","0.0-18.0-4.0","99930","List1B","black","man","","true","7","","","","","","","","","",""
"null","CORRECT","","html-keyboard-response","310","2564197","0.0-18.0-5.0-0.0","99930","List1B","black","man","","","","null","","","","","","","","",""
"2339.2999999523163","<img src=""portrait/BM1.jpg""style=""height:400px;""></img>","4","html-button-response","311","2566537","0.0-18.0-7.0","99930","List1B","black","man","","true","4","","","","","","","","","",""
"null","CORRECT","","html-keyboard-response","312","2568043","0.0-18.0-8.0-0.0","99930","List1B","black","man","","","","null","","","","","","","","",""
"2262.2000000476837","<img src=""portrait/BW1.jpg""style=""height:400px;""></img>","0","html-button-response","313","2570307","0.0-18.0-10.0","99930","List1B","black","man","","true","0","","","","","","","","","",""
"null","CORRECT","","html-keyboard-response","314","2571825","0.0-18.0-11.0-0.0","99930","List1B","black","man","","","","null","","","","","","","","",""
"2404.5","<img src=""portrait/WM1.jpg""style=""height:400px;""></img>","6","html-button-response","315","2574231","0.0-18.0-13.0","99930","List1B","black","man","","true","6","","","","","","","","","",""
"null","CORRECT","","html-keyboard-response","316","2575757","0.0-18.0-14.0-0.0","99930","List1B","black","man","","","","null","","","","","","","","",""
"2390.5","<img src=""portrait/BM2.jpg""style=""height:400px;""></img>","5","html-button-response","317","2578149","0.0-18.0-16.0","99930","List1B","black","man","","true","5","","","","","","","","","",""
"null","CORRECT","","html-keyboard-response","318","2579657","0.0-18.0-17.0-0.0","99930","List1B","black","man","","","","null","","","","","","","","",""
"5268.600000023842","<img src=""portrait/WW2.jpg""style=""height:400px;""></img>","3","html-button-response","319","2584927","0.0-18.0-19.0","99930","List1B","black","man","","true","3","","","","","","","","","",""
"null","CORRECT","","html-keyboard-response","320","2586447","0.0-18.0-20.0-0.0","99930","List1B","black","man","","","","null","","","","","","","","",""
"2339","<img src=""portrait/BW2.jpg""style=""height:400px;""></img>","2","html-button-response","321","2588787","0.0-18.0-22.0","99930","List1B","black","man","","true","2","","","","","","","","","",""
"null","CORRECT","","html-keyboard-response","322","2590300","0.0-18.0-23.0-0.0","99930","List1B","black","man","","","","null","","","","","","","","",""
"3051.2000000476837","<p>You got 8 out of 8 right first time. Press Continue.</p>","0","html-button-response","323","2593353","0.0-18.0-25.0","99930","List1B","black","man","","","","","","","","","","","","",""
"null","<div style=""font-size:60px;"">+</div>","","html-keyboard-response","324","2594858","0.0-19.0-0.0","99930","List1B","black","man","","","","null","","","","","","","","",""
"null","<img src=""stim_listB/greet2.gif""style=""height:400px;""></stim_listB>","","html-keyboard-response","325","2596871","0.0-19.0-1.0","99930","List1B","black","man","","","","null","","","","","","","","",""
"null","is being greeted by","","html-keyboard-response","326","2598874","0.0-19.0-2.0","99930","List1B","black","man","","","","null","","","","","","","","",""
"36532.89999997616","","","survey-text","327","2635410","0.0-19.0-3.0","99930","List1B","black","man","","","","","{""Q0"":""kate is being greeted by fred""}","<img src=""stim_listB/greet2.gif""style=""height:400px;""></stim_listB>","is being greeted by","","","","","",""
"null","<div style=""font-size:60px;"">+</div>","","html-keyboard-response","328","2635915","0.0-19.0-0.1","99930","List1B","black","man","","","","null","","","","","","","","",""
"null","<img src=""stim_listB/kiss7.gif""style=""height:400px;""></stim_listB>","","html-keyboard-response","329","2637922","0.0-19.0-1.1","99930","List1B","black","man","","","","null","","","","","","","","",""
"null","is kissing","","html-keyboard-response","330","2639929","0.0-19.0-2.1","99930","List1B","black","man","","","","null","","","","","","","","",""
"12117.799999952316","","","survey-text","331","2652049","0.0-19.0-3.1","99930","List1B","black","man","","","","","{""Q0"":""beth is kissing ruth""}","<img src=""stim_listB/kiss7.gif""style=""height:400px;""></stim_listB>","is kissing","","","","","",""
"null","<div style=""font-size:60px;"">+</div>","","html-keyboard-response","332","2652550","0.0-19.0-0.2","99930","List1B","black","man","","","","null","","","","","","","","",""
"null","<img src=""stim_listB/touch6.gif""style=""height:400px;""></stim_listB>","","html-keyboard-response","333","2654553","0.0-19.0-1.2","99930","List1B","black","man","","","","null","","","","","","","","",""
"null","is being touched by","","html-keyboard-response","334","2656555","0.0-19.0-2.2","99930","List1B","black","man","","","","null","","","","","","","","",""
"13737.100000023842","","","survey-text","335","2670295","0.0-19.0-3.2","99930","List1B","black","man","","","","","{""Q0"":""luke is being touched by fred""}","<img src=""stim_listB/touch6.gif""style=""height:400px;""></stim_listB>","is being touched by","","","","","",""
"null","<div style=""font-size:60px;"">+</div>","","html-keyboard-response","336","2670796","0.0-19.0-0.3","99930","List1B","black","man","","","","null","","","","","","","","",""
"null","<img src=""stim_listB/copy8.gif""style=""height:400px;""></stim_listB>","","html-keyboard-response","337","2672803","0.0-19.0-1.3","99930","List1B","black","man","","","","null","","","","","","","","",""
"null","is being copied by","","html-keyboard-response","338","2674817","0.0-19.0-2.3","99930","List1B","black","man","","","","null","","","","","","","","",""
"11335.399999976158","","","survey-text","339","2686155","0.0-19.0-3.3","99930","List1B","black","man","","","","","{""Q0"":""beth is being copied by jane""}","<img src=""stim_listB/copy8.gif""style=""height:400px;""></stim_listB>","is being copied by","","","","","",""
"null","<div style=""font-size:60px;"">+</div>","","html-keyboard-response","340","2686658","0.0-19.0-0.4","99930","List1B","black","man","","","","null","","","","","","","","",""
"null","<img src=""stim_listB/greet8.gif""style=""height:400px;""></stim_listB>","","html-keyboard-response","341","2688661","0.0-19.0-1.4","99930","List1B","black","man","","","","null","","","","","","","","",""
"null","is being greeted by","","html-keyboard-response","342","2690663","0.0-19.0-2.4","99930","List1B","black","man","","","","null","","","","","","","","",""
"20115.600000023842","","","survey-text","343","2710781","0.0-19.0-3.4","99930","List1B","black","man","","","","","{""Q0"":""beth is being greeted by jane""}","<img src=""stim_listB/greet8.gif""style=""height:400px;""></stim_listB>","is being greeted by","","","","","",""
"null","<div style=""font-size:60px;"">+</div>","","html-keyboard-response","344","2711295","0.0-19.0-0.5","99930","List1B","black","man","","","","null","","","","","","","","",""
"null","<img src=""stim_listB/challenge5.gif""style=""height:400px;""></stim_listB>","","html-keyboard-response","345","2713310","0.0-19.0-1.5","99930","List1B","black","man","","","","null","","","","","","","","",""
"null","is challenging","","html-keyboard-response","346","2715321","0.0-19.0-2.5","99930","List1B","black","man","","","","null","","","","","","","","",""
"14227.899999976158","","","survey-text","347","2729552","0.0-19.0-3.5","99930","List1B","black","man","","","","","{""Q0"":""luke is challenging mike""}","<img src=""stim_listB/challenge5.gif""style=""height:400px;""></stim_listB>","is challenging","","","","","",""
"null","<div style=""font-size:60px;"">+</div>","","html-keyboard-response","348","2730057","0.0-19.0-0.6","99930","List1B","black","man","","","","null","","","","","","","","",""
"null","<img src=""stim_listB/kiss3.gif""style=""height:400px;""></stim_listB>","","html-keyboard-response","349","2732070","0.0-19.0-1.6","99930","List1B","black","man","","","","null","","","","","","","","",""
"null","is kissing","","html-keyboard-response","350","2734085","0.0-19.0-2.6","99930","List1B","black","man","","","","null","","","","","","","","",""
"10841.099999904633","","","survey-text","351","2744929","0.0-19.0-3.6","99930","List1B","black","man","","","","","{""Q0"":""luke is kissing ruth""}","<img src=""stim_listB/kiss3.gif""style=""height:400px;""></stim_listB>","is kissing","","","","","",""
"null","<div style=""font-size:60px;"">+</div>","","html-keyboard-response","352","2745440","0.0-19.0-0.7","99930","List1B","black","man","","","","null","","","","","","","","",""
"null","<img src=""stim_listB/touch8.gif""style=""height:400px;""></stim_listB>","","html-keyboard-response","353","2747450","0.0-19.0-1.7","99930","List1B","black","man","","","","null","","","","","","","","",""
"null","is being touched by","","html-keyboard-response","354","2749452","0.0-19.0-2.7","99930","List1B","black","man","","","","null","","","","","","","","",""
"19314","","","survey-text","355","2768768","0.0-19.0-3.7","99930","List1B","black","man","","","","","{""Q0"":""ruth is being touched by beth""}","<img src=""stim_listB/touch8.gif""style=""height:400px;""></stim_listB>","is being touched by","","","","","",""
"null","<div style=""font-size:60px;"">+</div>","","html-keyboard-response","356","2769277","0.0-19.0-0.8","99930","List1B","black","man","","","","null","","","","","","","","",""
"null","<img src=""stim_listB/shout4.gif""style=""height:400px;""></stim_listB>","","html-keyboard-response","357","2771289","0.0-19.0-1.8","99930","List1B","black","man","","","","null","","","","","","","","",""
"null","is being shouted at by","","html-keyboard-response","358","2773291","0.0-19.0-2.8","99930","List1B","black","man","","","","null","","","","","","","","",""
"16930.400000095367","","","survey-text","359","2790224","0.0-19.0-3.8","99930","List1B","black","man","","","","","{""Q0"":""dave is being shouted at by jane""}","<img src=""stim_listB/shout4.gif""style=""height:400px;""></stim_listB>","is being shouted at by","","","","","",""
"null","<div style=""font-size:60px;"">+</div>","","html-keyboard-response","360","2790740","0.0-19.0-0.9","99930","List1B","black","man","","","","null","","","","","","","","",""
"null","<img src=""stim_listB/hug6.gif""style=""height:400px;""></stim_listB>","","html-keyboard-response","361","2792755","0.0-19.0-1.9","99930","List1B","black","man","","","","null","","","","","","","","",""
"null","is being hugged by","","html-keyboard-response","362","2794771","0.0-19.0-2.9","99930","List1B","black","man","","","","null","","","","","","","","",""
"11930.699999928474","","","survey-text","363","2806704","0.0-19.0-3.9","99930","List1B","black","man","","","","","{""Q0"":""mike is being hugged by dave""}","<img src=""stim_listB/hug6.gif""style=""height:400px;""></stim_listB>","is being hugged by","","","","","",""
"null","<div style=""font-size:60px;"">+</div>","","html-keyboard-response","364","2807218","0.0-19.0-0.10","99930","List1B","black","man","","","","null","","","","","","","","",""
"null","<img src=""stim_listB/look6.gif""style=""height:400px;""></stim_listB>","","html-keyboard-response","365","2809232","0.0-19.0-1.10","99930","List1B","black","man","","","","null","","","","","","","","",""
"null","is being looked at by","","html-keyboard-response","366","2811245","0.0-19.0-2.10","99930","List1B","black","man","","","","null","","","","","","","","",""
"10328.600000023842","","","survey-text","367","2821576","0.0-19.0-3.10","99930","List1B","black","man","","","","","{""Q0"":""mike is being looked at by dave""}","<img src=""stim_listB/look6.gif""style=""height:400px;""></stim_listB>","is being looked at by","","","","","",""
"null","<div style=""font-size:60px;"">+</div>","","html-keyboard-response","368","2822087","0.0-19.0-0.11","99930","List1B","black","man","","","","null","","","","","","","","",""
"null","<img src=""stim_listB/look3.gif""style=""height:400px;""></stim_listB>","","html-keyboard-response","369","2824090","0.0-19.0-1.11","99930","List1B","black","man","","","","null","","","","","","","","",""
"null","is looking at","","html-keyboard-response","370","2826092","0.0-19.0-2.11","99930","List1B","black","man","","","","null","","","","","","","","",""
"11737.700000047684","","","survey-text","371","2837833","0.0-19.0-3.11","99930","List1B","black","man","","","","","{""Q0"":""ruth is looking at luke""}","<img src=""stim_listB/look3.gif""style=""height:400px;""></stim_listB>","is looking at","","","","","",""
"null","<div style=""font-size:60px;"">+</div>","","html-keyboard-response","372","2838347","0.0-19.0-0.12","99930","List1B","black","man","","","","null","","","","","","","","",""
"null","<img src=""stim_listB/oppose1.gif""style=""height:400px;""></stim_listB>","","html-keyboard-response","373","2840350","0.0-19.0-1.12","99930","List1B","black","man","","","","null","","","","","","","","",""
"null","is opposing","","html-keyboard-response","374","2842352","0.0-19.0-2.12","99930","List1B","black","man","","","","null","","","","","","","","",""
"8790.399999976158","","","survey-text","375","2851145","0.0-19.0-3.12","99930","List1B","black","man","","","","","{""Q0"":""kate is opposing mike""}","<img src=""stim_listB/oppose1.gif""style=""height:400px;""></stim_listB>","is opposing","","","","","",""
"null","<div style=""font-size:60px;"">+</div>","","html-keyboard-response","376","2851657","0.0-19.0-0.13","99930","List1B","black","man","","","","null","","","","","","","","",""
"null","<img src=""stim_listB/greet7.gif""style=""height:400px;""></stim_listB>","","html-keyboard-response","377","2853660","0.0-19.0-1.13","99930","List1B","black","man","","","","null","","","","","","","","",""
"null","is greeting","","html-keyboard-response","378","2855662","0.0-19.0-2.13","99930","List1B","black","man","","","","null","","","","","","","","",""
"9512.199999928474","","","survey-text","379","2865177","0.0-19.0-3.13","99930","List1B","black","man","","","","","{""Q0"":""ruth is greeting kate""}","<img src=""stim_listB/greet7.gif""style=""height:400px;""></stim_listB>","is greeting","","","","","",""
"null","<div style=""font-size:60px;"">+</div>","","html-keyboard-response","380","2865679","0.0-19.0-0.14","99930","List1B","black","man","","","","null","","","","","","","","",""
"null","<img src=""stim_listB/greet4.gif""style=""height:400px;""></stim_listB>","","html-keyboard-response","381","2867689","0.0-19.0-1.14","99930","List1B","black","man","","","","null","","","","","","","","",""
"null","is being greeted by","","html-keyboard-response","382","2869703","0.0-19.0-2.14","99930","List1B","black","man","","","","null","","","","","","","","",""
"14735.100000023842","","","survey-text","383","2884441","0.0-19.0-3.14","99930","List1B","black","man","","","","","{""Q0"":""jane is being greeted by luke""}","<img src=""stim_listB/greet4.gif""style=""height:400px;""></stim_listB>","is being greeted by","","","","","",""
"null","<div style=""font-size:60px;"">+</div>","","html-keyboard-response","384","2884949","0.0-19.0-0.15","99930","List1B","black","man","","","","null","","","","","","","","",""
"null","<img src=""stim_listB/challenge1.gif""style=""height:400px;""></stim_listB>","","html-keyboard-response","385","2886961","0.0-19.0-1.15","99930","List1B","black","man","","","","null","","","","","","","","",""
"null","is challenging","","html-keyboard-response","386","2888975","0.0-19.0-2.15","99930","List1B","black","man","","","","null","","","","","","","","",""
"12679.299999952316","","","survey-text","387","2901657","0.0-19.0-3.15","99930","List1B","black","man","","","","","{""Q0"":""beth is challenging mike""}","<img src=""stim_listB/challenge1.gif""style=""height:400px;""></stim_listB>","is challenging","","","","","",""
"null","<div style=""font-size:60px;"">+</div>","","html-keyboard-response","388","2902170","0.0-19.0-0.16","99930","List1B","black","man","","","","null","","","","","","","","",""
"null","<img src=""stim_listB/look7.gif""style=""height:400px;""></stim_listB>","","html-keyboard-response","389","2904185","0.0-19.0-1.16","99930","List1B","black","man","","","","null","","","","","","","","",""
"null","is looking at","","html-keyboard-response","390","2906187","0.0-19.0-2.16","99930","List1B","black","man","","","","null","","","","","","","","",""
"9319.799999952316","","","survey-text","391","2915513","0.0-19.0-3.16","99930","List1B","black","man","","","","","{""Q0"":""beth is looking at ruth""}","<img src=""stim_listB/look7.gif""style=""height:400px;""></stim_listB>","is looking at","","","","","",""
"null","<div style=""font-size:60px;"">+</div>","","html-keyboard-response","392","2916028","0.0-19.0-0.17","99930","List1B","black","man","","","","null","","","","","","","","",""
"null","<img src=""stim_listB/challenge3.gif""style=""height:400px;""></stim_listB>","","html-keyboard-response","393","2918042","0.0-19.0-1.17","99930","List1B","black","man","","","","null","","","","","","","","",""
"null","is challenging","","html-keyboard-response","394","2920044","0.0-19.0-2.17","99930","List1B","black","man","","","","null","","","","","","","","",""
"9737.700000047684","","","survey-text","395","2929785","0.0-19.0-3.17","99930","List1B","black","man","","","","","{""Q0"":""ruth is challenging dave""}","<img src=""stim_listB/challenge3.gif""style=""height:400px;""></stim_listB>","is challenging","","","","","",""
"null","<div style=""font-size:60px;"">+</div>","","html-keyboard-response","396","2930298","0.0-19.0-0.18","99930","List1B","black","man","","","","null","","","","","","","","",""
"null","<img src=""stim_listB/oppose5.gif""style=""height:400px;""></stim_listB>","","html-keyboard-response","397","2932301","0.0-19.0-1.18","99930","List1B","black","man","","","","null","","","","","","","","",""
"null","is opposing","","html-keyboard-response","398","2934311","0.0-19.0-2.18","99930","List1B","black","man","","","","null","","","","","","","","",""
"10231","","","survey-text","399","2944545","0.0-19.0-3.18","99930","List1B","black","man","","","","","{""Q0"":""dave is opposing mike""}","<img src=""stim_listB/oppose5.gif""style=""height:400px;""></stim_listB>","is opposing","","","","","",""
"null","<div style=""font-size:60px;"">+</div>","","html-keyboard-response","400","2945057","0.0-19.0-0.19","99930","List1B","black","man","","","","null","","","","","","","","",""
"null","<img src=""stim_listB/kiss1.gif""style=""height:400px;""></stim_listB>","","html-keyboard-response","401","2947060","0.0-19.0-1.19","99930","List1B","black","man","","","","null","","","","","","","","",""
"null","is kissing","","html-keyboard-response","402","2949070","0.0-19.0-2.19","99930","List1B","black","man","","","","null","","","","","","","","",""
"9823.5","","","survey-text","403","2958897","0.0-19.0-3.19","99930","List1B","black","man","","","","","{""Q0"":""fred is kissing beth""}","<img src=""stim_listB/kiss1.gif""style=""height:400px;""></stim_listB>","is kissing","","","","","",""
"4551","<p>Thank you for completing that task.</p><p>The final part of this session is a questionnaire that will take about 4 minutes.</p><p>Press Continue.</p>","0","html-button-response","404","2963450","0.0-20.0","99930","List1B","black","man","","","","","","","","","","","","",""
"57113.10000002384","","","survey-text","405","3021575","0.0-21.0","99930","List1B","black","man","","","","","{""Q0"":""34"",""Q1"":""english"",""Q2"":""english"",""Q3"":""USA"",""Q4"":""American"",""Q5"":""Black "",""Q6"":""male""}","","","demographics","","","","",""
"3933","<p>Have you lived in the USA for the last 5 years or more?</p>","0","html-button-response","406","3025510","0.0-22.0","99930","List1B","black","man","","","","","","","","fiveyears","","","","",""
"3946.7000000476837","<p>Move the slider to show the extent to which you agree with the following statements.</p>","0","html-button-response","407","3030472","0.0-23.0","99930","List1B","black","man","","","","","","","","","","","","",""
"5378.799999952316","","","html-slider-response","408","3036856","0.0-24.0-0.0-0.0","99930","List1B","black","man","","","","","","","","survey_race","93","","","I feel solidarity with my race.","solidarity"
"9236","","","html-slider-response","409","3046094","0.0-24.0-0.0-0.1","99930","List1B","black","man","","","","","","","","survey_race","86","","","The fact that I am my race is an important part of my identity.","identity"
"7682","","","html-slider-response","410","3053778","0.0-24.0-0.0-0.2","99930","List1B","black","man","","","","","","","","survey_race","15","","","I enjoy being in large groups.","filler"
"6354.100000023842","","","html-slider-response","411","3060134","0.0-24.0-0.0-0.3","99930","List1B","black","man","","","","","","","","survey_race","89","","","I think that my race has a lot to be proud of.","proud"
"14272.100000023842","","","html-slider-response","412","3074408","0.0-24.0-0.0-0.4","99930","List1B","black","man","","","","","","","","survey_race","89","","","I consider myself an introvert.","filler"
"14188.100000023842","","","html-slider-response","413","3088598","0.0-24.0-0.0-0.5","99930","List1B","black","man","","","","","","","","survey_race","47","","","My age is not an important part of who I am.","filler"
"8117.700000047684","","","html-slider-response","414","3096718","0.0-24.0-0.0-0.6","99930","List1B","black","man","","","","","","","","survey_race","25","","","People my age have a lot in common with each other.","filler"
"5922.300000071526","","","html-slider-response","415","3102642","0.0-24.0-0.0-0.7","99930","List1B","black","man","","","","","","","","survey_race","88","","","I am glad to be my age.","filler"
"8500.100000023842","","","html-slider-response","416","3111144","0.0-24.0-0.0-0.8","99930","List1B","black","man","","","","","","","","survey_race","69","","","Being my race gives me a good feeling.","feeling"
"7696.200000047684","","","html-slider-response","417","3118842","0.0-24.0-0.0-0.9","99930","List1B","black","man","","","","","","","","survey_race","92","","","I feel a bond with my race.","bond"
"6038.200000047684","","","html-slider-response","418","3124882","0.0-24.0-0.0-0.10","99930","List1B","black","man","","","","","","","","survey_race","43","","","It is pleasant to be my race.","pleasant"
"10948.100000023842","","","html-slider-response","419","3135832","0.0-24.0-0.0-0.11","99930","List1B","black","man","","","","","","","","survey_race","22","","","I often think about the fact that I am my age.","filler"
"6652.200000047684","","","html-slider-response","420","3142486","0.0-24.0-0.0-0.12","99930","List1B","black","man","","","","","","","","survey_race","75","","","I often think about the fact that I am my race.","often"
"6204.200000047684","","","html-slider-response","421","3148692","0.0-24.0-0.0-0.13","99930","List1B","black","man","","","","","","","","survey_race","81","","","Getting older does not worry me.","filler"
"6792.200000047684","","","html-slider-response","422","3155486","0.0-24.0-0.0-0.14","99930","List1B","black","man","","","","","","","","survey_race","77","","","Being my age gives me a good feeling.","filler"
"8368.300000071526","","","html-slider-response","423","3163856","0.0-24.0-0.0-0.15","99930","List1B","black","man","","","","","","","","survey_race","30","","","The older I get, the wiser I feel.","filler"
"6892","","","html-slider-response","424","3170750","0.0-24.0-0.0-0.16","99930","List1B","black","man","","","","","","","","survey_race","20","","","I consider myself an extrovert.","filler"
"8670.399999976158","","","html-slider-response","425","3179422","0.0-24.0-0.0-0.17","99930","List1B","black","man","","","","","","","","survey_race","26","","","I am similar to the average person of my race.","similar"
"9638","","","html-slider-response","426","3189062","0.0-24.0-0.0-0.18","99930","List1B","black","man","","","","","","","","survey_race","78","","","I feel committed to my race.","committed"
"8852.099999904633","","","html-slider-response","427","3197916","0.0-24.0-0.0-0.19","99930","List1B","black","man","","","","","","","","survey_race","27","","","I have a lot in common with people of a similar age to me.","filler"
"4650","","","html-slider-response","428","3202568","0.0-24.0-0.0-0.20","99930","List1B","black","man","","","","","","","","survey_race","79","","","I am glad to be my race.","glad"
"6242.199999928474","","","html-slider-response","429","3208812","0.0-24.0-0.0-0.21","99930","List1B","black","man","","","","","","","","survey_race","79","","","I am glad to be the age I am.","filler"
"6478.199999928474","","","html-slider-response","430","3215292","0.0-24.0-0.0-0.22","99930","List1B","black","man","","","","","","","","survey_race","21","","","People of my race are very similar to each other.","verysimilar"
"6694.200000047684","","","html-slider-response","431","3221988","0.0-24.0-0.0-0.23","99930","List1B","black","man","","","","","","","","survey_race","29","","","I have a lot in common with the average person of my race.","average"
"7654.199999928474","","","html-slider-response","432","3229644","0.0-24.0-0.0-0.24","99930","List1B","black","man","","","","","","","","survey_race","28","","","I feel solidarity with people the same age as me.","filler"
"7536.299999952316","","","html-slider-response","433","3237182","0.0-24.0-0.0-0.25","99930","List1B","black","man","","","","","","","","survey_race","41","","","People of my race have a lot in common with each other.","common"
"5172","","","html-slider-response","434","3242356","0.0-24.0-0.0-0.26","99930","List1B","black","man","","","","","","","","survey_race","80","","","Being my race is an important part of how I see myself.","important"
"5280.100000023842","","","html-slider-response","435","3247638","0.0-24.0-0.0-0.27","99930","List1B","black","man","","","","","","","","survey_race","26","","","I feel a bond with people the same age as me.","filler"
"4995.899999976158","","","html-slider-response","436","3252637","0.0-24.0-1.0-0.0","99930","List1B","black","man","","","","","","","","survey_gender","94","","","I am glad to be my gender.","glad"
"6004.100000023842","","","html-slider-response","437","3258643","0.0-24.0-1.0-0.1","99930","List1B","black","man","","","","","","","","survey_gender","32","","","I am similar to the average person of my gender.","similar"
"7730.099999904633","","","html-slider-response","438","3266374","0.0-24.0-1.0-0.2","99930","List1B","black","man","","","","","","","","survey_gender","90","","","It is not always easy for people to know what I am thinking.","filler"
"6428.299999952316","","","html-slider-response","439","3272804","0.0-24.0-1.0-0.3","99930","List1B","black","man","","","","","","","","survey_gender","0","","","I would say I am an animal person.","filler"
"7530.299999952316","","","html-slider-response","440","3280336","0.0-24.0-1.0-0.4","99930","List1B","black","man","","","","","","","","survey_gender","79","","","The fact that I am my gender is an important part of my identity.","identity"
"5558.299999952316","","","html-slider-response","441","3285896","0.0-24.0-1.0-0.5","99930","List1B","black","man","","","","","","","","survey_gender","83","","","I think that my gender has a lot to be proud of.","proud"
"7058.199999928474","","","html-slider-response","442","3292957","0.0-24.0-1.0-0.6","99930","List1B","black","man","","","","","","","","survey_gender","82","","","I often think about my actions.","filler"
"8690","","","html-slider-response","443","3301649","0.0-24.0-1.0-0.7","99930","List1B","black","man","","","","","","","","survey_gender","82","","","I feel solidarity with my friends.","filler"
"9851.699999928474","","","html-slider-response","444","3311503","0.0-24.0-1.0-0.8","99930","List1B","black","man","","","","","","","","survey_gender","78","","","Being my gender is an important part of how I see myself.","important"
"6774","","","html-slider-response","445","3318279","0.0-24.0-1.0-0.9","99930","List1B","black","man","","","","","","","","survey_gender","68","","","I feel a bond with my gender.","bond"
"5940.299999952316","","","html-slider-response","446","3324221","0.0-24.0-1.0-0.10","99930","List1B","black","man","","","","","","","","survey_gender","60","","","I have a lot in common with the average person of my gender.","average"
"6926.399999976158","","","html-slider-response","447","3331149","0.0-24.0-1.0-0.11","99930","List1B","black","man","","","","","","","","survey_gender","80","","","I feel a bond with my friends.","filler"
"8404.5","","","html-slider-response","448","3339555","0.0-24.0-1.0-0.12","99930","List1B","black","man","","","","","","","","survey_gender","0","","","Family is not more important to me than friendship.","filler"
"5893.899999976158","","","html-slider-response","449","3345451","0.0-24.0-1.0-0.13","99930","List1B","black","man","","","","","","","","survey_gender","29","","","Routine is not important to me.","filler"
"7334.299999952316","","","html-slider-response","450","3352787","0.0-24.0-1.0-0.14","99930","List1B","black","man","","","","","","","","survey_gender","59","","","People of my gender have a lot in common with each other.","common"
"5814.200000047684","","","html-slider-response","451","3358603","0.0-24.0-1.0-0.15","99930","List1B","black","man","","","","","","","","survey_gender","73","","","Being around my friends gives me a good feeling.","filler"
"6006.200000047684","","","html-slider-response","452","3364611","0.0-24.0-1.0-0.16","99930","List1B","black","man","","","","","","","","survey_gender","99","","","I consider myself a highly empathetic person.","filler"
"5990.100000023842","","","html-slider-response","453","3370603","0.0-24.0-1.0-0.17","99930","List1B","black","man","","","","","","","","survey_gender","85","","","I have a lot in common with my friends.","filler"
"4882.199999928474","","","html-slider-response","454","3375486","0.0-24.0-1.0-0.18","99930","List1B","black","man","","","","","","","","survey_gender","100","","","I feel committed to my gender.","committed"
"7646.399999976158","","","html-slider-response","455","3383134","0.0-24.0-1.0-0.19","99930","List1B","black","man","","","","","","","","survey_gender","60","","","People of my gender are very similar to each other.","verysimilar"
"8504.300000071526","","","html-slider-response","456","3391640","0.0-24.0-1.0-0.20","99930","List1B","black","man","","","","","","","","survey_gender","67","","","Most of the friends in my life are very similar to me.","filler"
"8654","","","html-slider-response","457","3400296","0.0-24.0-1.0-0.21","99930","List1B","black","man","","","","","","","","survey_gender","86","","","I am glad to have the friends that I have.","filler"
"6168.600000023842","","","html-slider-response","458","3406467","0.0-24.0-1.0-0.22","99930","List1B","black","man","","","","","","","","survey_gender","79","","","My friends understand me.","filler"
"6259.300000071526","","","html-slider-response","459","3412728","0.0-24.0-1.0-0.23","99930","List1B","black","man","","","","","","","","survey_gender","65","","","Being my gender gives me a good feeling.","feeling"
"8026.200000047684","","","html-slider-response","460","3420756","0.0-24.0-1.0-0.24","99930","List1B","black","man","","","","","","","","survey_gender","54","","","It is pleasant to be my gender.","pleasant"
"7475.899999976158","","","html-slider-response","461","3428234","0.0-24.0-1.0-0.25","99930","List1B","black","man","","","","","","","","survey_gender","84","","","My friends have a lot in common with each other.","filler"
"4716","","","html-slider-response","462","3432952","0.0-24.0-1.0-0.26","99930","List1B","black","man","","","","","","","","survey_gender","63","","","I feel solidarity with my gender.","solidarity"
"9950.200000047684","","","html-slider-response","463","3442904","0.0-24.0-1.0-0.27","99930","List1B","black","man","","","","","","","","survey_gender","60","","","I often think about the fact that I am my gender.","often"
"9227.100000023842","","","survey-text","464","3452134","0.0-25.0","99930","List1B","black","man","","","","","{""Q0"":""612323ddbebadb638a141ce3""}","","","worker_id","","","","",""
"36823.299999952316","","","external-html","465","3489258","0.0-26.0","99930","List1B","black","man","debrief.html","","","","","","","","","","","",""
