subject,rt,list,button_pressed,trial_type,trial_index,responses,image,verb,phrase,condition,ppt_language,ppt_gender,ppt_race,test_part,gif,picture_condition,left_name,right_name,left_race,right_race,left_gender,right_gender,left_figure_mentioned,right_figure_mentioned,both_figures_mentioned,first_figure,first_figure_gender,first_figure_race,syntax_correct,excluded_trial_mention,excluded_trial_syntax,excluded_trial,man_first,asian_first,trial_number
11298,9532,listb,NA,survey-text,57,luke is approaching ruth.,<img src='gifs/ChineseGender3a.gif' style='height:400px;''></img>,approaching,is approaching,english,english,woman,asian,NA,ChineseGender3a,gender_asian,dave,ruth,asian,asian,male,female,FALSE,TRUE,FALSE,cannot auto compute,cannot auto compute,cannot auto compute,TRUE,excluded,included,excluded,NA,NA,2
11298,20472,listb,NA,survey-text,61,dave is praising mike.,<img src='gifs/MaleRace3a.gif' style='height:400px;''></img>,praising,is praising,english,english,woman,asian,NA,MaleRace3a,race_male,dave,fred,asian,black,male,male,TRUE,FALSE,FALSE,cannot auto compute,cannot auto compute,cannot auto compute,TRUE,excluded,included,excluded,NA,NA,3
11298,6137,listb,NA,survey-text,77,luke mike,<img src='gifs/MaleRace4a.gif' style='height:400px;''></img>,promising,is promising,english,english,woman,asian,NA,MaleRace4a,race_male,dave,mike,asian,black,male,male,FALSE,TRUE,FALSE,cannot auto compute,cannot auto compute,cannot auto compute,FALSE,excluded,excluded,excluded,NA,NA,7
11298,11786,listb,NA,survey-text,85,kate is looking at fred.,<img src='gifs/MaleRace1a.gif' style='height:400px;''></img>,looking at,is looking at,english,english,woman,asian,NA,MaleRace1a,race_male,luke,fred,asian,black,male,male,FALSE,TRUE,FALSE,cannot auto compute,cannot auto compute,cannot auto compute,TRUE,excluded,included,excluded,NA,NA,9
11298,6994,listb,NA,survey-text,109,fred is joining dave.,<img src='gifs/MaleRace1a.gif' style='height:400px;''></img>,join,is joining,english,english,woman,asian,NA,MaleRace1a,race_male,luke,fred,asian,black,male,male,FALSE,TRUE,FALSE,cannot auto compute,cannot auto compute,cannot auto compute,TRUE,excluded,included,excluded,NA,NA,15
11298,9691,listb,NA,survey-text,207,ruth is walking towards beth.,<img src='gifs/FemaleRace4b.gif' style='height:400px;''></img>,walking towards,is walking towards,english,english,woman,asian,NA,FemaleRace4b,race_female,ruth,kate,asian,black,female,female,TRUE,FALSE,FALSE,cannot auto compute,cannot auto compute,cannot auto compute,TRUE,excluded,included,excluded,NA,NA,30
11298,11676,listb,NA,survey-text,215,luke is listening to fred.,<img src='gifs/MaleRace2b.gif' style='height:400px;''></img>,listening to,is listening to,english,english,woman,asian,NA,MaleRace2b,race_male,mike,luke,black,asian,male,male,FALSE,TRUE,FALSE,cannot auto compute,cannot auto compute,cannot auto compute,TRUE,excluded,included,excluded,NA,NA,32
13413,58483.30000001192,lista,NA,survey-text,45,露丝正在倾听戴维,<img src='gifs/BlackGender2a.gif' style='height:400px;''></img>,提到,正在提到,chinese,chinese,man,asian,NA,BlackGender2a,gender_black,露丝,戴夫,black,black,female,male,TRUE,FALSE,FALSE,cannot auto compute,cannot auto compute,cannot auto compute,FALSE,excluded,excluded,excluded,NA,NA,58
13413,14044.099999964237,lista,NA,survey-text,65,霍普正在陪伴贝斯,<img src='gifs/FemaleRace3a.gif' style='height:400px;''></img>,陪伴,正在陪伴,chinese,chinese,man,asian,NA,FemaleRace3a,race_female,露丝,贝斯,black,asian,female,female,FALSE,TRUE,FALSE,cannot auto compute,cannot auto compute,cannot auto compute,TRUE,excluded,included,excluded,NA,NA,63
13413,17150.099999964237,lista,NA,survey-text,81,霍普正在加入凯特,<img src='gifs/FemaleRace1a.gif' style='height:400px;''></img>,加入,正在加入,chinese,chinese,man,asian,NA,FemaleRace1a,race_female,露丝,凯特,black,asian,female,female,FALSE,TRUE,FALSE,cannot auto compute,cannot auto compute,cannot auto compute,TRUE,excluded,included,excluded,NA,NA,67
13413,20199.099999964237,lista,NA,survey-text,123,戴夫正在接近露丝,<img src='gifs/BlackGender4b.gif' style='height:400px;''></img>,接近,正在接近,chinese,chinese,man,asian,NA,BlackGender4b,gender_black,戴夫,霍普,black,black,male,female,TRUE,FALSE,FALSE,cannot auto compute,cannot auto compute,cannot auto compute,TRUE,excluded,included,excluded,NA,NA,73
13413,11020.5,lista,NA,survey-text,155,露丝正在接近贝斯,<img src='gifs/FemaleRace3b.gif' style='height:400px;''></img>,聆听,正在聆听,chinese,chinese,man,asian,NA,FemaleRace3b,race_female,贝斯,露丝,asian,black,female,female,TRUE,TRUE,TRUE,right_name,female,black,FALSE,included,excluded,excluded,0,0,81
13413,34415.5,lista,NA,survey-text,171,卢克正在面向露丝,<img src='gifs/BlackGender3b.gif' style='height:400px;''></img>,面向,正在面向,chinese,chinese,man,asian,NA,BlackGender3b,gender_black,卢克,霍普,black,black,male,female,TRUE,FALSE,FALSE,cannot auto compute,cannot auto compute,cannot auto compute,TRUE,excluded,included,excluded,NA,NA,85
13413,14385.600000023842,lista,NA,survey-text,261,麦克正在表扬凯特,<img src='gifs/ChineseGender4b.gif' style='height:400px;''></img>,答应,正在答应,chinese,chinese,man,asian,NA,ChineseGender4b,gender_asian,凯特,麦克,asian,asian,female,male,TRUE,TRUE,TRUE,right_name,male,asian,FALSE,included,excluded,excluded,1,1,13
15487,31807.3999999985,listb,NA,survey-text,41,贝斯正在xx麦克。,<img src='gifs/BlackGender2a.gif' style='height:400px;''></img>,接近,正在接近,chinese,chinese,man,asian,NA,BlackGender2a,gender_black,贝斯,麦克,black,black,female,male,TRUE,TRUE,TRUE,left_name,female,black,FALSE,included,excluded,excluded,0,0,75
15487,4442.199999995530,listb,NA,survey-text,85,卢克正在聆听麦克,<img src='gifs/MaleRace1b.gif' style='height:400px;''></img>,聆听,正在聆听,chinese,chinese,man,asian,NA,MaleRace1b,race_male,弗雷,卢克,black,asian,male,male,FALSE,TRUE,FALSE,cannot auto compute,cannot auto compute,cannot auto compute,TRUE,excluded,included,excluded,NA,NA,86
15487,11515.8999999985,listb,NA,survey-text,191,麦克正在接近露丝。,<img src='gifs/ChineseGender2b.gif' style='height:400px;''></img>,接近,正在接近,chinese,chinese,man,asian,NA,ChineseGender2b,gender_asian,露丝,卢克,asian,asian,female,male,TRUE,FALSE,FALSE,cannot auto compute,cannot auto compute,cannot auto compute,TRUE,excluded,included,excluded,NA,NA,18
16769,29363.400000095367,listb,NA,survey-text,37,麦克正在提到霍普,<img src='gifs/BlackGender4a.gif' style='height:400px;''></img>,提到,正在提到,chinese,chinese,man,asian,NA,BlackGender4a,gender_black,凯特,麦克,black,black,female,male,FALSE,TRUE,FALSE,cannot auto compute,cannot auto compute,cannot auto compute,TRUE,excluded,included,excluded,NA,NA,38
16769,36225.39999985695,listb,NA,survey-text,57,麦克正在联系霍普,<img src='gifs/MaleRace2b.gif' style='height:400px;''></img>,联系,正在联系,chinese,chinese,man,asian,NA,MaleRace2b,race_male,麦克,卢克,black,asian,male,male,TRUE,FALSE,FALSE,cannot auto compute,cannot auto compute,cannot auto compute,TRUE,excluded,included,excluded,NA,NA,43
16769,35338.5,listb,NA,survey-text,61,霍普正在陪伴露丝,<img src='gifs/BlackGender1a.gif' style='height:400px;''></img>,陪伴,正在陪伴,chinese,chinese,man,asian,NA,BlackGender1a,gender_black,贝斯,弗雷,black,black,female,male,FALSE,FALSE,FALSE,cannot auto compute,cannot auto compute,cannot auto compute,TRUE,excluded,included,excluded,NA,NA,44
16769,16526.60000014305,listb,NA,survey-text,69,霍普正在聘用麦克,<img src='gifs/BlackGender4b.gif' style='height:400px;''></img>,聘用,正在聘用,chinese,chinese,man,asian,NA,BlackGender4b,gender_black,麦克,凯特,black,black,male,female,TRUE,FALSE,FALSE,cannot auto compute,cannot auto compute,cannot auto compute,TRUE,excluded,included,excluded,NA,NA,46
16769,26305.39999985695,listb,NA,survey-text,73,霍普正在约见露丝,<img src='gifs/FemaleRace2a.gif' style='height:400px;''></img>,跟随,正在跟随,chinese,chinese,man,asian,NA,FemaleRace2a,race_female,凯特,霍普,black,asian,female,female,FALSE,TRUE,FALSE,cannot auto compute,cannot auto compute,cannot auto compute,FALSE,excluded,excluded,excluded,NA,NA,47
16769,51216.200000047684,listb,NA,survey-text,81,霍普正在聘用约翰,<img src='gifs/BlackGender3b.gif' style='height:400px;''></img>,聘用,正在聘用,chinese,chinese,man,asian,NA,BlackGender3b,gender_black,弗雷,凯特,black,black,male,female,FALSE,FALSE,FALSE,cannot auto compute,cannot auto compute,cannot auto compute,TRUE,excluded,included,excluded,NA,NA,49
16769,24098.89999985695,listb,NA,survey-text,85,霍普正在面见露丝,<img src='gifs/FemaleRace1a.gif' style='height:400px;''></img>,面向,正在面向,chinese,chinese,man,asian,NA,FemaleRace1a,race_female,贝斯,霍普,black,asian,female,female,FALSE,TRUE,FALSE,cannot auto compute,cannot auto compute,cannot auto compute,FALSE,excluded,excluded,excluded,NA,NA,50
16769,13238.299999952316,listb,NA,survey-text,89,麦克正在联系霍普,<img src='gifs/BlackGender4a.gif' style='height:400px;''></img>,联系,正在联系,chinese,chinese,man,asian,NA,BlackGender4a,gender_black,凯特,麦克,black,black,female,male,FALSE,TRUE,FALSE,cannot auto compute,cannot auto compute,cannot auto compute,TRUE,excluded,included,excluded,NA,NA,51
16769,27112.5,listb,NA,survey-text,93,代克正在说服霍普,<img src='gifs/BlackGender1b.gif' style='height:400px;''></img>,说服,正在说服,chinese,chinese,man,asian,NA,BlackGender1b,gender_black,弗雷,贝斯,black,black,male,female,FALSE,FALSE,FALSE,cannot auto compute,cannot auto compute,cannot auto compute,TRUE,excluded,included,excluded,NA,NA,52
16769,16348,listb,NA,survey-text,97,露丝正在触摸霍普,<img src='gifs/FemaleRace3a.gif' style='height:400px;''></img>,触摸,正在触摸,chinese,chinese,man,asian,NA,FemaleRace3a,race_female,贝斯,露丝,black,asian,female,female,FALSE,TRUE,FALSE,cannot auto compute,cannot auto compute,cannot auto compute,TRUE,excluded,included,excluded,NA,NA,53
16769,138651.90000009537,listb,NA,survey-text,175,弗雷正在答应麦克,<img src='gifs/MaleRace3a.gif' style='height:400px;''></img>,答应,正在答应,chinese,chinese,man,asian,NA,MaleRace3a,race_male,戴夫,弗雷,asian,black,male,male,FALSE,TRUE,FALSE,cannot auto compute,cannot auto compute,cannot auto compute,TRUE,excluded,included,excluded,NA,NA,63
16769,10891.700000047684,listb,NA,survey-text,207,露丝正在,<img src='gifs/FemaleRace4b.gif' style='height:400px;''></img>,聘用,正在聘用,chinese,chinese,man,asian,NA,FemaleRace4b,race_female,露丝,凯特,asian,black,female,female,TRUE,FALSE,FALSE,cannot auto compute,cannot auto compute,cannot auto compute,FALSE,excluded,excluded,excluded,NA,NA,71
16769,13129.600000143051,listb,NA,survey-text,285,凯特正在触摸卢克,<img src='gifs/ChineseGender1a.gif' style='height:400px;''></img>,触摸,正在触摸,chinese,chinese,man,asian,NA,ChineseGender1a,gender_asian,卢克,霍普,asian,asian,male,female,TRUE,FALSE,FALSE,cannot auto compute,cannot auto compute,cannot auto compute,TRUE,excluded,included,excluded,NA,NA,86
16769,10385.900000095367,listb,NA,survey-text,289,卢克正在聆听凯特,<img src='gifs/ChineseGender1b.gif' style='height:400px;''></img>,聆听,正在聆听,chinese,chinese,man,asian,NA,ChineseGender1b,gender_asian,霍普,卢克,asian,asian,female,male,FALSE,TRUE,FALSE,cannot auto compute,cannot auto compute,cannot auto compute,TRUE,excluded,included,excluded,NA,NA,87
18833,11757,lista,NA,survey-text,135,贝斯正在走向卢克,<img src='gifs/ChineseGender2a.gif' style='height:400px;''></img>,走向,正在走向,chinese,chinese,woman,asian,NA,ChineseGender2a,gender_asian,弗雷,贝斯,asian,asian,male,female,FALSE,TRUE,FALSE,cannot auto compute,cannot auto compute,cannot auto compute,TRUE,excluded,included,excluded,NA,NA,22
18833,14260,lista,NA,survey-text,155,卢克正在触摸麦克,<img src='gifs/MaleRace3a.gif' style='height:400px;''></img>,聆听,正在聆听,chinese,chinese,woman,asian,NA,MaleRace3a,race_male,麦克,卢克,asian,black,male,male,TRUE,TRUE,TRUE,right_name,male,black,FALSE,included,excluded,excluded,1,0,27
18833,11549,lista,NA,survey-text,249,霍普正在跟随卢克,<img src='gifs/FemaleRace2b.gif' style='height:400px;''></img>,跟随,正在跟随,chinese,chinese,woman,asian,NA,FemaleRace2b,race_female,凯特,霍普,asian,black,female,female,FALSE,TRUE,FALSE,cannot auto compute,cannot auto compute,cannot auto compute,TRUE,excluded,included,excluded,NA,NA,46
18833,9100,lista,NA,survey-text,281,麦克正在介绍戴夫,<img src='gifs/MaleRace2b.gif' style='height:400px;''></img>,介绍,正在介绍,chinese,chinese,woman,asian,NA,MaleRace2b,race_male,戴夫,弗雷,black,asian,male,male,TRUE,FALSE,FALSE,cannot auto compute,cannot auto compute,cannot auto compute,TRUE,excluded,included,excluded,NA,NA,54
23521,7282,listb,NA,survey-text,33,露丝正在走向弗雷,<img src='gifs/FemaleRace3a.gif' style='height:400px;''></img>,走向,正在走向,chinese,chinese,man,asian,NA,FemaleRace3a,race_female,贝斯,露丝,black,asian,female,female,FALSE,TRUE,FALSE,cannot auto compute,cannot auto compute,cannot auto compute,TRUE,excluded,included,excluded,NA,NA,55
23521,9389.399999976158,listb,NA,survey-text,49,凯特正在触摸,<img src='gifs/FemaleRace2b.gif' style='height:400px;''></img>,触摸,正在触摸,chinese,chinese,man,asian,NA,FemaleRace2b,race_female,霍普,凯特,asian,black,female,female,FALSE,TRUE,FALSE,cannot auto compute,cannot auto compute,cannot auto compute,TRUE,excluded,included,excluded,NA,NA,59
23521,7614.100000023842,listb,NA,survey-text,77,正在触摸霍普,<img src='gifs/ChineseGender4b.gif' style='height:400px;''></img>,触摸,正在触摸,chinese,chinese,man,asian,NA,ChineseGender4b,gender_asian,霍普,戴夫,asian,asian,female,male,TRUE,FALSE,FALSE,cannot auto compute,cannot auto compute,cannot auto compute,TRUE,excluded,included,excluded,NA,NA,66
23521,19569.899999976158,listb,NA,survey-text,81,露丝正在,<img src='gifs/FemaleRace4a.gif' style='height:400px;''></img>,提到,正在提到,chinese,chinese,man,asian,NA,FemaleRace4a,race_female,凯特,露丝,black,asian,female,female,FALSE,TRUE,FALSE,cannot auto compute,cannot auto compute,cannot auto compute,FALSE,excluded,excluded,excluded,NA,NA,67
23521,4935.799999952316,listb,NA,survey-text,155,露丝正在加入戴夫,<img src='gifs/ChineseGender2b.gif' style='height:400px;''></img>,加入,正在加入,chinese,chinese,man,asian,NA,ChineseGender2b,gender_asian,露丝,卢克,asian,asian,female,male,TRUE,FALSE,FALSE,cannot auto compute,cannot auto compute,cannot auto compute,TRUE,excluded,included,excluded,NA,NA,81
24789,27733.89999985695,listb,NA,survey-text,163,戴夫正在表扬露丝,<img src='gifs/ChineseGender2b.gif' style='height:400px;''></img>,表扬,正在表扬,chinese,chinese,woman,asian,NA,ChineseGender2b,gender_asian,露丝,卢克,asian,asian,female,male,TRUE,FALSE,FALSE,cannot auto compute,cannot auto compute,cannot auto compute,TRUE,excluded,included,excluded,NA,NA,47
24894,8767,lista,NA,survey-text,33,霍普正在表扬露丝,<img src='gifs/BlackGender3b.gif' style='height:400px;''></img>,表扬,正在表扬,chinese,chinese,woman,asian,NA,BlackGender3b,gender_black,卢克,霍普,black,black,male,female,FALSE,TRUE,FALSE,cannot auto compute,cannot auto compute,cannot auto compute,TRUE,excluded,included,excluded,NA,NA,73
24894,3460,lista,NA,survey-text,93,凯特正在加入卢克,<img src='gifs/FemaleRace1b.gif' style='height:400px;''></img>,加入,正在加入,chinese,chinese,woman,asian,NA,FemaleRace1b,race_female,凯特,露丝,asian,black,female,female,TRUE,FALSE,FALSE,cannot auto compute,cannot auto compute,cannot auto compute,TRUE,excluded,included,excluded,NA,NA,88
24894,3996,lista,NA,survey-text,131,凯特正在走向贝斯,<img src='gifs/ChineseGender4a.gif' style='height:400px;''></img>,走向,正在走向,chinese,chinese,woman,asian,NA,ChineseGender4a,gender_asian,麦克,凯特,asian,asian,male,female,FALSE,TRUE,FALSE,cannot auto compute,cannot auto compute,cannot auto compute,TRUE,excluded,included,excluded,NA,NA,3
24894,6252.000000000116,lista,NA,survey-text,217,霍普正在走向麦克,<img src='gifs/MaleRace2a.gif' style='height:400px;''></img>,走向,正在走向,chinese,chinese,woman,asian,NA,MaleRace2a,race_male,弗雷,戴夫,asian,black,male,male,FALSE,FALSE,FALSE,cannot auto compute,cannot auto compute,cannot auto compute,TRUE,excluded,included,excluded,NA,NA,20
24894,4462,lista,NA,survey-text,257,卢克正在聆听凯特,<img src='gifs/BlackGender3a.gif' style='height:400px;''></img>,聆听,正在聆听,chinese,chinese,woman,asian,NA,BlackGender3a,gender_black,霍普,卢克,black,black,female,male,FALSE,TRUE,FALSE,cannot auto compute,cannot auto compute,cannot auto compute,TRUE,excluded,included,excluded,NA,NA,30
24894,6215,lista,NA,survey-text,265,霍普正在介绍戴夫,<img src='gifs/BlackGender2a.gif' style='height:400px;''></img>,介绍,正在介绍,chinese,chinese,woman,asian,NA,BlackGender2a,gender_black,露丝,戴夫,black,black,female,male,FALSE,TRUE,FALSE,cannot auto compute,cannot auto compute,cannot auto compute,TRUE,excluded,included,excluded,NA,NA,32
25238,27360.600000023842,listb,NA,survey-text,33,beth is meeting fred,<img src='gifs/BlackGender1b.gif' style='height:400px;''></img>,introducing,is introducing,english,english,man,asian,NA,BlackGender1b,gender_black,fred,beth,black,black,male,female,TRUE,TRUE,TRUE,right_name,female,black,FALSE,included,excluded,excluded,0,0,37
25238,4669.0999999940395,listb,NA,survey-text,53,dave is mentioning fred,<img src='gifs/MaleRace3a.gif' style='height:400px;''></img>,facing,is facing,english,english,man,asian,NA,MaleRace3a,race_male,dave,fred,asian,black,male,male,TRUE,TRUE,TRUE,left_name,male,asian,FALSE,included,excluded,excluded,1,1,42
25238,10811.09999999404,listb,NA,survey-text,85,jane is convincing kate,<img src='gifs/FemaleRace1a.gif' style='height:400px;''></img>,convincing,is convincing,english,english,man,asian,NA,FemaleRace1a,race_female,beth,jane,black,asian,female,female,FALSE,TRUE,FALSE,cannot auto compute,cannot auto compute,cannot auto compute,TRUE,excluded,included,excluded,NA,NA,50
25238,6524.5999999940395,listb,NA,survey-text,233,jane is contacting fred,<img src='gifs/BlackGender3b.gif' style='height:400px;''></img>,contacting,is contacting,english,english,man,asian,NA,BlackGender3b,gender_black,fred,kate,black,black,male,female,TRUE,FALSE,FALSE,cannot auto compute,cannot auto compute,cannot auto compute,TRUE,excluded,included,excluded,NA,NA,78
25238,6891.5999999940395,listb,NA,survey-text,241,ruth is employing luke,<img src='gifs/ChineseGender3a.gif' style='height:400px;''></img>,employing,is employing,english,english,man,asian,NA,ChineseGender3a,gender_asian,dave,ruth,asian,asian,male,female,FALSE,TRUE,FALSE,cannot auto compute,cannot auto compute,cannot auto compute,TRUE,excluded,included,excluded,NA,NA,80
28850,40326.699999809265,lista,NA,survey-text,106,luke is praising fred,<img src='gifs/MaleRace3b.gif' style='height:400px;''></img>,praising,is praising,english,english,woman,asian,NA,MaleRace3b,race_male,luke,mike,black,asian,male,male,TRUE,FALSE,FALSE,cannot auto compute,cannot auto compute,cannot auto compute,TRUE,excluded,included,excluded,NA,NA,14
28850,18701.099999904633,lista,NA,survey-text,172,kate is following mike,<img src='gifs/ChineseGender4b.gif' style='height:400px;''></img>,join,is joining,english,english,woman,asian,NA,ChineseGender4b,gender_asian,kate,mike,asian,asian,female,male,TRUE,TRUE,TRUE,left_name,female,asian,FALSE,included,excluded,excluded,0,1,26
28850,19574.200000047684,lista,NA,survey-text,176,luke is following ruth ,<img src='gifs/BlackGender1b.gif' style='height:400px;''></img>,mention,is mentioning,english,english,woman,asian,NA,BlackGender1b,gender_black,luke,ruth,black,black,male,female,TRUE,TRUE,TRUE,left_name,male,black,FALSE,included,excluded,excluded,1,0,27
28850,19120.89999985695,lista,NA,survey-text,266,fred is convincing luke,<img src='gifs/MaleRace1b.gif' style='height:400px;''></img>,promising,is promising,english,english,woman,asian,NA,MaleRace1b,race_male,luke,fred,black,asian,male,male,TRUE,TRUE,TRUE,right_name,male,asian,FALSE,included,excluded,excluded,1,1,40
28850,24471.299999952316,lista,NA,survey-text,294,dave is walking towards fred,<img src='gifs/BlackGender4b.gif' style='height:400px;''></img>,walking towards,is walking towards,english,english,woman,asian,NA,BlackGender4b,gender_black,dave,jane,black,black,male,female,TRUE,FALSE,FALSE,cannot auto compute,cannot auto compute,cannot auto compute,TRUE,excluded,included,excluded,NA,NA,47
29418,158411.80000001192,listb,NA,survey-text,33,dave is    fred,<img src='gifs/MaleRace3a.gif' style='height:400px;''></img>,convincing,is convincing,english,english,man,asian,NA,MaleRace3a,race_male,dave,fred,asian,black,male,male,TRUE,TRUE,TRUE,left_name,male,asian,FALSE,included,excluded,excluded,1,1,55
29418,19158,listb,NA,survey-text,123,mike is touching dave,<img src='gifs/MaleRace2a.gif' style='height:400px;''></img>,touching,is touching,english,english,man,asian,NA,MaleRace2a,race_male,luke,mike,asian,black,male,male,FALSE,TRUE,FALSE,cannot auto compute,cannot auto compute,cannot auto compute,TRUE,excluded,included,excluded,NA,NA,73
29459,10353,lista,NA,survey-text,95,fred is beth,<img src='gifs/ChineseGender2b.gif' style='height:400px;''></img>,praising,is praising,english,english,woman,asian,NA,ChineseGender2b,gender_asian,beth,fred,asian,asian,female,male,TRUE,TRUE,TRUE,right_name,male,asian,FALSE,included,excluded,excluded,1,1,19
29459,15558,lista,NA,survey-text,103,beth dave ,<img src='gifs/BlackGender2a.gif' style='height:400px;''></img>,promising,is promising,english,english,woman,asian,NA,BlackGender2a,gender_black,ruth,dave,black,black,female,male,FALSE,TRUE,FALSE,cannot auto compute,cannot auto compute,cannot auto compute,FALSE,excluded,excluded,excluded,NA,NA,21
29459,10787,lista,NA,survey-text,111,jane is dave ,<img src='gifs/BlackGender4a.gif' style='height:400px;''></img>,approaching,is approaching,english,english,woman,asian,NA,BlackGender4a,gender_black,jane,dave,black,black,female,male,TRUE,TRUE,TRUE,left_name,female,black,FALSE,included,excluded,excluded,0,0,23
29459,36468,lista,NA,survey-text,119,fred is convincing luke,<img src='gifs/MaleRace3b.gif' style='height:400px;''></img>,convincing,is convincing,english,english,woman,asian,NA,MaleRace3b,race_male,luke,mike,black,asian,male,male,TRUE,FALSE,FALSE,cannot auto compute,cannot auto compute,cannot auto compute,TRUE,excluded,included,excluded,NA,NA,25
29459,5262,lista,NA,survey-text,123,mike kate ,<img src='gifs/ChineseGender1b.gif' style='height:400px;''></img>,accompanying,is accompanying,english,english,woman,asian,NA,ChineseGender1b,gender_asian,kate,fred,asian,asian,female,male,TRUE,FALSE,FALSE,cannot auto compute,cannot auto compute,cannot auto compute,FALSE,excluded,excluded,excluded,NA,NA,26
29459,9346,lista,NA,survey-text,127,mike is mentioning kate ,<img src='gifs/ChineseGender1a.gif' style='height:400px;''></img>,mention,is mentioning,english,english,woman,asian,NA,ChineseGender1a,gender_asian,fred,kate,asian,asian,male,female,FALSE,TRUE,FALSE,cannot auto compute,cannot auto compute,cannot auto compute,TRUE,excluded,included,excluded,NA,NA,27
29459,6842,lista,NA,survey-text,131,fred is beth,<img src='gifs/ChineseGender3a.gif' style='height:400px;''></img>,convincing,is convincing,english,english,woman,asian,NA,ChineseGender3a,gender_asian,mike,beth,asian,asian,male,female,FALSE,TRUE,FALSE,cannot auto compute,cannot auto compute,cannot auto compute,FALSE,excluded,excluded,excluded,NA,NA,28
29459,16101.999999999884,lista,NA,survey-text,135,beth is listening to beth ,<img src='gifs/FemaleRace3b.gif' style='height:400px;''></img>,listening to,is listening to,english,english,woman,asian,NA,FemaleRace3b,race_female,beth,ruth,asian,black,female,female,TRUE,FALSE,FALSE,cannot auto compute,cannot auto compute,cannot auto compute,TRUE,excluded,included,excluded,NA,NA,29
29459,14772.999999999884,lista,NA,survey-text,139,fred is listening to dave,<img src='gifs/MaleRace4a.gif' style='height:400px;''></img>,listening to,is listening to,english,english,woman,asian,NA,MaleRace4a,race_male,mike,dave,asian,black,male,male,FALSE,TRUE,FALSE,cannot auto compute,cannot auto compute,cannot auto compute,TRUE,excluded,included,excluded,NA,NA,30
29459,9945.000000000116,lista,NA,survey-text,143,dave is following beth,<img src='gifs/BlackGender2a.gif' style='height:400px;''></img>,following,is following,english,english,woman,asian,NA,BlackGender2a,gender_black,ruth,dave,black,black,female,male,FALSE,TRUE,FALSE,cannot auto compute,cannot auto compute,cannot auto compute,TRUE,excluded,included,excluded,NA,NA,31
29459,9830,lista,NA,survey-text,147,mike is praising dave,<img src='gifs/MaleRace2b.gif' style='height:400px;''></img>,praising,is praising,english,english,woman,asian,NA,MaleRace2b,race_male,dave,fred,black,asian,male,male,TRUE,FALSE,FALSE,cannot auto compute,cannot auto compute,cannot auto compute,TRUE,excluded,included,excluded,NA,NA,32
29459,10780,lista,NA,survey-text,151,beth is contacting fred,<img src='gifs/ChineseGender3a.gif' style='height:400px;''></img>,contacting,is contacting,english,english,woman,asian,NA,ChineseGender3a,gender_asian,mike,beth,asian,asian,male,female,FALSE,TRUE,FALSE,cannot auto compute,cannot auto compute,cannot auto compute,TRUE,excluded,included,excluded,NA,NA,33
29459,7457,lista,NA,survey-text,155,mike,<img src='gifs/FemaleRace3a.gif' style='height:400px;''></img>,join,is joining,english,english,woman,asian,NA,FemaleRace3a,race_female,ruth,beth,black,asian,female,female,FALSE,FALSE,FALSE,cannot auto compute,cannot auto compute,cannot auto compute,FALSE,excluded,excluded,excluded,NA,NA,34
29459,9607,lista,NA,survey-text,159,beth is contacting kate,<img src='gifs/FemaleRace1b.gif' style='height:400px;''></img>,contacting,is contacting,english,english,woman,asian,NA,FemaleRace1b,race_female,kate,ruth,asian,black,female,female,TRUE,FALSE,FALSE,cannot auto compute,cannot auto compute,cannot auto compute,TRUE,excluded,included,excluded,NA,NA,35
29459,6978,lista,NA,survey-text,163,mike is praising dave,<img src='gifs/MaleRace2b.gif' style='height:400px;''></img>,praising,is praising,english,english,woman,asian,NA,MaleRace2b,race_male,dave,fred,black,asian,male,male,TRUE,FALSE,FALSE,cannot auto compute,cannot auto compute,cannot auto compute,TRUE,excluded,included,excluded,NA,NA,36
29459,13971,lista,NA,survey-text,218,jane is promising kate ,<img src='gifs/FemaleRace4b.gif' style='height:400px;''></img>,promising,is promising,english,english,woman,asian,NA,FemaleRace4b,race_female,beth,jane,asian,black,female,female,FALSE,TRUE,FALSE,cannot auto compute,cannot auto compute,cannot auto compute,TRUE,excluded,included,excluded,NA,NA,40
29459,14740.000000000116,lista,NA,survey-text,222,ruth is contacting luke ,<img src='gifs/BlackGender1a.gif' style='height:400px;''></img>,touching,is touching,english,english,woman,asian,NA,BlackGender1a,gender_black,ruth,luke,black,black,female,male,TRUE,TRUE,TRUE,left_name,female,black,FALSE,included,excluded,excluded,0,0,41
29459,8816,lista,NA,survey-text,238,beth is ruth,<img src='gifs/FemaleRace3b.gif' style='height:400px;''></img>,facing,is facing,english,english,woman,asian,NA,FemaleRace3b,race_female,beth,ruth,asian,black,female,female,TRUE,TRUE,TRUE,left_name,female,asian,FALSE,included,excluded,excluded,0,1,45
29459,13827,lista,NA,survey-text,242,fred is mentioning beth ,<img src='gifs/ChineseGender3b.gif' style='height:400px;''></img>,mention,is mentioning,english,english,woman,asian,NA,ChineseGender3b,gender_asian,beth,mike,asian,asian,female,male,TRUE,FALSE,FALSE,cannot auto compute,cannot auto compute,cannot auto compute,TRUE,excluded,included,excluded,NA,NA,46
29459,9300,lista,NA,survey-text,258,mike is following beth,<img src='gifs/ChineseGender2b.gif' style='height:400px;''></img>,following,is following,english,english,woman,asian,NA,ChineseGender2b,gender_asian,beth,fred,asian,asian,female,male,TRUE,FALSE,FALSE,cannot auto compute,cannot auto compute,cannot auto compute,TRUE,excluded,included,excluded,NA,NA,50
29459,11038,lista,NA,survey-text,262,mike is convincing luke ,<img src='gifs/MaleRace1a.gif' style='height:400px;''></img>,convincing,is convincing,english,english,woman,asian,NA,MaleRace1a,race_male,fred,luke,asian,black,male,male,FALSE,TRUE,FALSE,cannot auto compute,cannot auto compute,cannot auto compute,TRUE,excluded,included,excluded,NA,NA,51
29459,7330.000000000233,lista,NA,survey-text,384,dave is facing ruth,<img src='gifs/BlackGender2b.gif' style='height:400px;''></img>,employing,is employing,english,english,woman,asian,NA,BlackGender2b,gender_black,dave,ruth,black,black,male,female,TRUE,TRUE,TRUE,left_name,male,black,FALSE,included,excluded,excluded,1,0,72
29802,7181,listb,NA,survey-text,53,卢克正在表扬弗雷,<img src='gifs/MaleRace3a.gif' style='height:400px;''></img>,表扬,正在表扬,chinese,chinese,woman,asian,NA,MaleRace3a,race_male,戴夫,弗雷,asian,black,male,male,FALSE,TRUE,FALSE,cannot auto compute,cannot auto compute,cannot auto compute,TRUE,excluded,included,excluded,NA,NA,78
29802,4183.300000000750,listb,NA,survey-text,69,卢克正在介绍霍普,<img src='gifs/ChineseGender4a.gif' style='height:400px;''></img>,介绍,正在介绍,chinese,chinese,woman,asian,NA,ChineseGender4a,gender_asian,戴夫,霍普,asian,asian,male,female,FALSE,TRUE,FALSE,cannot auto compute,cannot auto compute,cannot auto compute,TRUE,excluded,included,excluded,NA,NA,82
29802,10444,listb,NA,survey-text,73,弗雷正在面向露丝,<img src='gifs/BlackGender1b.gif' style='height:400px;''></img>,面向,正在面向,chinese,chinese,woman,asian,NA,BlackGender1b,gender_black,弗雷,贝斯,black,black,male,female,TRUE,FALSE,FALSE,cannot auto compute,cannot auto compute,cannot auto compute,TRUE,excluded,included,excluded,NA,NA,83
29802,3746.699999999260,listb,NA,survey-text,77,卢克正在接近麦克,<img src='gifs/MaleRace4a.gif' style='height:400px;''></img>,接近,正在接近,chinese,chinese,woman,asian,NA,MaleRace4a,race_male,戴夫,麦克,asian,black,male,male,FALSE,TRUE,FALSE,cannot auto compute,cannot auto compute,cannot auto compute,TRUE,excluded,included,excluded,NA,NA,84
29802,20241.6000000015,listb,NA,survey-text,93,贝丝正在走向霍普,<img src='gifs/FemaleRace3b.gif' style='height:400px;''></img>,走向,正在走向,chinese,chinese,woman,asian,NA,FemaleRace3b,race_female,露丝,贝斯,asian,black,female,female,FALSE,FALSE,FALSE,cannot auto compute,cannot auto compute,cannot auto compute,TRUE,excluded,included,excluded,NA,NA,88
29802,7721.099999997770,listb,NA,survey-text,191,麦克正在面向戴夫,<img src='gifs/MaleRace2b.gif' style='height:400px;''></img>,面向,正在面向,chinese,chinese,woman,asian,NA,MaleRace2b,race_male,麦克,卢克,black,asian,male,male,TRUE,FALSE,FALSE,cannot auto compute,cannot auto compute,cannot auto compute,TRUE,excluded,included,excluded,NA,NA,13
29802,8931.099999997770,listb,NA,survey-text,195,戴夫正在说服露丝,<img src='gifs/ChineseGender2b.gif' style='height:400px;''></img>,说服,正在说服,chinese,chinese,woman,asian,NA,ChineseGender2b,gender_asian,露丝,卢克,asian,asian,female,male,TRUE,FALSE,FALSE,cannot auto compute,cannot auto compute,cannot auto compute,TRUE,excluded,included,excluded,NA,NA,14
29802,5289.900000002240,listb,NA,survey-text,199,卢克正在陪伴露丝,<img src='gifs/ChineseGender3a.gif' style='height:400px;''></img>,陪伴,正在陪伴,chinese,chinese,woman,asian,NA,ChineseGender3a,gender_asian,戴夫,露丝,asian,asian,male,female,FALSE,TRUE,FALSE,cannot auto compute,cannot auto compute,cannot auto compute,TRUE,excluded,included,excluded,NA,NA,15
29802,6264.899999998510,listb,NA,survey-text,211,弗雷正在加入戴夫,<img src='gifs/MaleRace1b.gif' style='height:400px;''></img>,加入,正在加入,chinese,chinese,woman,asian,NA,MaleRace1b,race_male,弗雷,卢克,black,asian,male,male,TRUE,FALSE,FALSE,cannot auto compute,cannot auto compute,cannot auto compute,TRUE,excluded,included,excluded,NA,NA,18
29802,6633.899999998510,listb,NA,survey-text,241,麦克正在加入戴夫,<img src='gifs/MaleRace3a.gif' style='height:400px;''></img>,加入,正在加入,chinese,chinese,woman,asian,NA,MaleRace3a,race_male,戴夫,弗雷,asian,black,male,male,TRUE,FALSE,FALSE,cannot auto compute,cannot auto compute,cannot auto compute,TRUE,excluded,included,excluded,NA,NA,21
29802,14142,listb,NA,survey-text,265,戴夫正在答应凯特,<img src='gifs/MaleRace4a.gif' style='height:400px;''></img>,答应,正在答应,chinese,chinese,woman,asian,NA,MaleRace4a,race_male,戴夫,麦克,asian,black,male,male,TRUE,FALSE,FALSE,cannot auto compute,cannot auto compute,cannot auto compute,TRUE,excluded,included,excluded,NA,NA,27
29802,5329.399999998510,listb,NA,survey-text,293,卢克正在聘用弗雷,<img src='gifs/MaleRace3b.gif' style='height:400px;''></img>,聘用,正在聘用,chinese,chinese,woman,asian,NA,MaleRace3b,race_male,弗雷,戴夫,black,asian,male,male,TRUE,FALSE,FALSE,cannot auto compute,cannot auto compute,cannot auto compute,TRUE,excluded,included,excluded,NA,NA,34
31460,10762.099999999627,lista,NA,survey-text,63,卢克正在答应麦克,<img src='gifs/MaleRace1b.gif' style='height:400px;''></img>,答应,正在答应,chinese,chinese,woman,asian,NA,MaleRace1b,race_male,卢克,弗雷,black,asian,male,male,TRUE,FALSE,FALSE,cannot auto compute,cannot auto compute,cannot auto compute,TRUE,excluded,included,excluded,NA,NA,39
31460,3366.2999999998137,lista,NA,survey-text,123,霍普正在联系贝斯,<img src='gifs/ChineseGender2a.gif' style='height:400px;''></img>,联系,正在联系,chinese,chinese,woman,asian,NA,ChineseGender2a,gender_asian,弗雷,贝斯,asian,asian,male,female,FALSE,TRUE,FALSE,cannot auto compute,cannot auto compute,cannot auto compute,TRUE,excluded,included,excluded,NA,NA,54
31460,5511.600000000559,lista,NA,survey-text,149,凯特正在聘用戴夫,<img src='gifs/MaleRace4a.gif' style='height:400px;''></img>,聘用,正在聘用,chinese,chinese,woman,asian,NA,MaleRace4a,race_male,麦克,戴夫,asian,black,male,male,FALSE,TRUE,FALSE,cannot auto compute,cannot auto compute,cannot auto compute,TRUE,excluded,included,excluded,NA,NA,56
31460,8207,lista,NA,survey-text,255,戴夫正在聘用凯特,<img src='gifs/BlackGender4b.gif' style='height:400px;''></img>,聘用,正在聘用,chinese,chinese,woman,asian,NA,BlackGender4b,gender_black,戴夫,霍普,black,black,male,female,TRUE,FALSE,FALSE,cannot auto compute,cannot auto compute,cannot auto compute,TRUE,excluded,included,excluded,NA,NA,73
31857,7975,listb,NA,survey-text,69,霍普正在面向贝斯,<img src='gifs/FemaleRace2b.gif' style='height:400px;''></img>,面向,正在面向,chinese,chinese,woman,asian,NA,FemaleRace2b,race_female,霍普,凯特,asian,black,female,female,TRUE,FALSE,FALSE,cannot auto compute,cannot auto compute,cannot auto compute,TRUE,excluded,included,excluded,NA,NA,10
31857,6907.899999976158,listb,NA,survey-text,123,霍普正在走向卢克,<img src='gifs/ChineseGender4b.gif' style='height:400px;''></img>,走向,正在走向,chinese,chinese,woman,asian,NA,ChineseGender4b,gender_asian,霍普,戴夫,asian,asian,female,male,TRUE,FALSE,FALSE,cannot auto compute,cannot auto compute,cannot auto compute,TRUE,excluded,included,excluded,NA,NA,19
31857,19455.100000023842,listb,NA,survey-text,281,贝斯正在陪伴弗雷,<img src='gifs/BlackGender3b.gif' style='height:400px;''></img>,陪伴,正在陪伴,chinese,chinese,woman,asian,NA,BlackGender3b,gender_black,弗雷,凯特,black,black,male,female,TRUE,FALSE,FALSE,cannot auto compute,cannot auto compute,cannot auto compute,TRUE,excluded,included,excluded,NA,NA,54
32447,51825.4000000358,lista,NA,survey-text,53,贝丝正在接近凯特,<img src='gifs/FemaleRace2a.gif' style='height:400px;''></img>,接近,正在接近,chinese,chinese,man,asian,NA,FemaleRace2a,race_female,霍普,凯特,black,asian,female,female,FALSE,TRUE,FALSE,cannot auto compute,cannot auto compute,cannot auto compute,TRUE,excluded,included,excluded,NA,NA,55
32447,15293.3999999762,lista,NA,survey-text,61,贝丝正在提到凯特,<img src='gifs/FemaleRace2b.gif' style='height:400px;''></img>,提到,正在提到,chinese,chinese,man,asian,NA,FemaleRace2b,race_female,凯特,霍普,asian,black,female,female,TRUE,FALSE,FALSE,cannot auto compute,cannot auto compute,cannot auto compute,TRUE,excluded,included,excluded,NA,NA,57
32447,7369.800000011920,lista,NA,survey-text,65,贝丝正在联系凯特,<img src='gifs/FemaleRace2a.gif' style='height:400px;''></img>,联系,正在联系,chinese,chinese,man,asian,NA,FemaleRace2a,race_female,霍普,凯特,black,asian,female,female,FALSE,TRUE,FALSE,cannot auto compute,cannot auto compute,cannot auto compute,TRUE,excluded,included,excluded,NA,NA,58
32447,31154.1999999881,lista,NA,survey-text,69,鲁西麦克,<img src='gifs/ChineseGender3b.gif' style='height:400px;''></img>,加入,正在加入,chinese,chinese,man,asian,NA,ChineseGender3b,gender_asian,贝斯,麦克,asian,asian,female,male,FALSE,TRUE,FALSE,cannot auto compute,cannot auto compute,cannot auto compute,FALSE,excluded,excluded,excluded,NA,NA,59
32447,13660.3000000119,lista,NA,survey-text,73,贝丝正在触摸麦克,<img src='gifs/ChineseGender4a.gif' style='height:400px;''></img>,触摸,正在触摸,chinese,chinese,man,asian,NA,ChineseGender4a,gender_asian,麦克,凯特,asian,asian,male,female,TRUE,FALSE,FALSE,cannot auto compute,cannot auto compute,cannot auto compute,TRUE,excluded,included,excluded,NA,NA,60
32447,12242.5,lista,NA,survey-text,77,凯特正在介绍露西,<img src='gifs/FemaleRace4a.gif' style='height:400px;''></img>,介绍,正在介绍,chinese,chinese,man,asian,NA,FemaleRace4a,race_female,霍普,贝斯,black,asian,female,female,FALSE,FALSE,FALSE,cannot auto compute,cannot auto compute,cannot auto compute,TRUE,excluded,included,excluded,NA,NA,61
32447,10291.0999999642,lista,NA,survey-text,81,霍普正在接近露西,<img src='gifs/FemaleRace3a.gif' style='height:400px;''></img>,接近,正在接近,chinese,chinese,man,asian,NA,FemaleRace3a,race_female,露丝,贝斯,black,asian,female,female,FALSE,FALSE,FALSE,cannot auto compute,cannot auto compute,cannot auto compute,TRUE,excluded,included,excluded,NA,NA,62
32447,12764.8000000119,lista,NA,survey-text,93,戴夫正在介绍凯特,<img src='gifs/BlackGender2b.gif' style='height:400px;''></img>,介绍,正在介绍,chinese,chinese,man,asian,NA,BlackGender2b,gender_black,戴夫,露丝,black,black,male,female,TRUE,FALSE,FALSE,cannot auto compute,cannot auto compute,cannot auto compute,TRUE,excluded,included,excluded,NA,NA,65
32447,8773,lista,NA,survey-text,97,贝丝正在聘用凯特,<img src='gifs/FemaleRace1a.gif' style='height:400px;''></img>,聘用,正在聘用,chinese,chinese,man,asian,NA,FemaleRace1a,race_female,露丝,凯特,black,asian,female,female,FALSE,TRUE,FALSE,cannot auto compute,cannot auto compute,cannot auto compute,TRUE,excluded,included,excluded,NA,NA,66
32447,14958.3000000119,lista,NA,survey-text,101,弗雷正在陪伴露西,<img src='gifs/ChineseGender2a.gif' style='height:400px;''></img>,陪伴,正在陪伴,chinese,chinese,man,asian,NA,ChineseGender2a,gender_asian,弗雷,贝斯,asian,asian,male,female,TRUE,FALSE,FALSE,cannot auto compute,cannot auto compute,cannot auto compute,TRUE,excluded,included,excluded,NA,NA,67
32447,12026.4000000358,lista,NA,survey-text,117,戴夫正在说服凯特,<img src='gifs/BlackGender2a.gif' style='height:400px;''></img>,说服,正在说服,chinese,chinese,man,asian,NA,BlackGender2a,gender_black,露丝,戴夫,black,black,female,male,FALSE,TRUE,FALSE,cannot auto compute,cannot auto compute,cannot auto compute,TRUE,excluded,included,excluded,NA,NA,71
32702,154230.20000000298,listb,NA,survey-text,41,弗雷正在交谈凯特,<img src='gifs/BlackGender3a.gif' style='height:400px;''></img>,答应,正在答应,chinese,chinese,man,asian,NA,BlackGender3a,gender_black,凯特,弗雷,black,black,female,male,TRUE,TRUE,TRUE,right_name,male,black,FALSE,included,excluded,excluded,1,0,21
32702,25293.5,listb,NA,survey-text,65,卢克正在触摸霍普,<img src='gifs/ChineseGender4b.gif' style='height:400px;''></img>,触摸,正在触摸,chinese,chinese,man,asian,NA,ChineseGender4b,gender_asian,霍普,戴夫,asian,asian,female,male,TRUE,FALSE,FALSE,cannot auto compute,cannot auto compute,cannot auto compute,TRUE,excluded,included,excluded,NA,NA,27
32702,10694.80000000447,listb,NA,survey-text,265,弗雷正在陪伴卢克,<img src='gifs/MaleRace3b.gif' style='height:400px;''></img>,陪伴,正在陪伴,chinese,chinese,man,asian,NA,MaleRace3b,race_male,弗雷,戴夫,black,asian,male,male,TRUE,FALSE,FALSE,cannot auto compute,cannot auto compute,cannot auto compute,TRUE,excluded,included,excluded,NA,NA,68
32894,26069.1000000238,listb,NA,survey-text,33,戴夫正在触摸凯特,<img src='gifs/BlackGender4b.gif' style='height:400px;''></img>,触摸,正在触摸,chinese,chinese,man,asian,NA,BlackGender4b,gender_black,麦克,凯特,black,black,male,female,FALSE,TRUE,FALSE,cannot auto compute,cannot auto compute,cannot auto compute,TRUE,excluded,included,excluded,NA,NA,73
32894,38866,listb,NA,survey-text,37,弗雷正在监视贝斯,<img src='gifs/BlackGender1b.gif' style='height:400px;''></img>,跟随,正在跟随,chinese,chinese,man,asian,NA,BlackGender1b,gender_black,弗雷,贝斯,black,black,male,female,TRUE,TRUE,TRUE,left_name,male,black,FALSE,included,excluded,excluded,1,0,74
32894,14585.1999999285,listb,NA,survey-text,77,霍普正在答应弗雷,<img src='gifs/FemaleRace2a.gif' style='height:400px;''></img>,答应,正在答应,chinese,chinese,man,asian,NA,FemaleRace2a,race_female,凯特,霍普,black,asian,female,female,FALSE,TRUE,FALSE,cannot auto compute,cannot auto compute,cannot auto compute,TRUE,excluded,included,excluded,NA,NA,84
32894,49306.1000000238,listb,NA,survey-text,123,露丝正在答应霍普,<img src='gifs/FemaleRace4a.gif' style='height:400px;''></img>,答应,正在答应,chinese,chinese,man,asian,NA,FemaleRace4a,race_female,凯特,露丝,black,asian,female,female,FALSE,TRUE,FALSE,cannot auto compute,cannot auto compute,cannot auto compute,TRUE,excluded,included,excluded,NA,NA,1
32894,220027.799999952,listb,NA,survey-text,127,霍普正在约见露丝,<img src='gifs/MaleRace2a.gif' style='height:400px;''></img>,加入,正在加入,chinese,chinese,man,asian,NA,MaleRace2a,race_male,卢克,麦克,asian,black,male,male,FALSE,FALSE,FALSE,cannot auto compute,cannot auto compute,cannot auto compute,FALSE,excluded,excluded,excluded,NA,NA,2
32894,10951.7999999523,listb,NA,survey-text,253,露丝正在聘用露丝,<img src='gifs/FemaleRace3a.gif' style='height:400px;''></img>,聘用,正在聘用,chinese,chinese,man,asian,NA,FemaleRace3a,race_female,贝斯,露丝,black,asian,female,female,FALSE,TRUE,FALSE,cannot auto compute,cannot auto compute,cannot auto compute,TRUE,excluded,included,excluded,NA,NA,29
32912,10714.199999809265,listb,NA,survey-text,57,kate is approaching mike,<img src='gifs/BlackGender3a.gif' style='height:400px;''></img>,approaching,is approaching,english,english,woman,asian,NA,BlackGender3a,gender_black,kate,fred,black,black,female,male,TRUE,FALSE,FALSE,cannot auto compute,cannot auto compute,cannot auto compute,TRUE,excluded,included,excluded,NA,NA,38
32912,7633.600000143051,listb,NA,survey-text,73,ruth dave,<img src='gifs/ChineseGender3a.gif' style='height:400px;''></img>,mention,is mentioning,english,english,woman,asian,NA,ChineseGender3a,gender_asian,dave,ruth,asian,asian,male,female,TRUE,TRUE,TRUE,right_name,female,asian,FALSE,included,excluded,excluded,0,1,42
32912,8198.799999952316,listb,NA,survey-text,77,jane is employing fred,<img src='gifs/BlackGender1b.gif' style='height:400px;''></img>,employing,is employing,english,english,woman,asian,NA,BlackGender1b,gender_black,fred,beth,black,black,male,female,TRUE,FALSE,FALSE,cannot auto compute,cannot auto compute,cannot auto compute,TRUE,excluded,included,excluded,NA,NA,43
32912,17067.799999952316,listb,NA,survey-text,81,luke is facing fred,<img src='gifs/MaleRace3b.gif' style='height:400px;''></img>,facing,is facing,english,english,woman,asian,NA,MaleRace3b,race_male,fred,dave,black,asian,male,male,TRUE,FALSE,FALSE,cannot auto compute,cannot auto compute,cannot auto compute,TRUE,excluded,included,excluded,NA,NA,44
32912,4997,listb,NA,survey-text,89,jane is facing beth,<img src='gifs/FemaleRace2a.gif' style='height:400px;''></img>,facing,is facing,english,english,woman,asian,NA,FemaleRace2a,race_female,kate,jane,black,asian,female,female,FALSE,TRUE,FALSE,cannot auto compute,cannot auto compute,cannot auto compute,TRUE,excluded,included,excluded,NA,NA,46
32912,10257.699999809265,listb,NA,survey-text,93,fred is mentioning beth,<img src='gifs/BlackGender3b.gif' style='height:400px;''></img>,mention,is mentioning,english,english,woman,asian,NA,BlackGender3b,gender_black,fred,kate,black,black,male,female,TRUE,FALSE,FALSE,cannot auto compute,cannot auto compute,cannot auto compute,TRUE,excluded,included,excluded,NA,NA,47
32912,5672.199999809265,listb,NA,survey-text,113,luke is introducting jane,<img src='gifs/ChineseGender4a.gif' style='height:400px;''></img>,introducing,is introducing,english,english,woman,asian,NA,ChineseGender4a,gender_asian,dave,jane,asian,asian,male,female,FALSE,TRUE,FALSE,cannot auto compute,cannot auto compute,cannot auto compute,FALSE,excluded,excluded,excluded,NA,NA,52
32912,4951.800000190735,listb,NA,survey-text,117,luke is contactin mike,<img src='gifs/MaleRace4a.gif' style='height:400px;''></img>,contacting,is contacting,english,english,woman,asian,NA,MaleRace4a,race_male,dave,mike,asian,black,male,male,FALSE,TRUE,FALSE,cannot auto compute,cannot auto compute,cannot auto compute,FALSE,excluded,excluded,excluded,NA,NA,53
32912,6639.200000047684,listb,NA,survey-text,121,ruth is listening to mike,<img src='gifs/ChineseGender2a.gif' style='height:400px;''></img>,listening to,is listening to,english,english,woman,asian,NA,ChineseGender2a,gender_asian,luke,ruth,asian,asian,male,female,FALSE,TRUE,FALSE,cannot auto compute,cannot auto compute,cannot auto compute,TRUE,excluded,included,excluded,NA,NA,54
32912,12437.5,listb,NA,survey-text,143,mike is convicing luke,<img src='gifs/MaleRace4b.gif' style='height:400px;''></img>,convincing,is convincing,english,english,woman,asian,NA,MaleRace4b,race_male,mike,dave,black,asian,male,male,TRUE,FALSE,FALSE,cannot auto compute,cannot auto compute,cannot auto compute,FALSE,excluded,excluded,excluded,NA,NA,55
32912,4838.599999904633,listb,NA,survey-text,147,dave is approching luke,<img src='gifs/MaleRace2a.gif' style='height:400px;''></img>,approaching,is approaching,english,english,woman,asian,NA,MaleRace2a,race_male,luke,mike,asian,black,male,male,TRUE,FALSE,FALSE,cannot auto compute,cannot auto compute,cannot auto compute,FALSE,excluded,excluded,excluded,NA,NA,56
32912,6771.400000095367,listb,NA,survey-text,151,kate is employing dave,<img src='gifs/BlackGender4a.gif' style='height:400px;''></img>,employing,is employing,english,english,woman,asian,NA,BlackGender4a,gender_black,kate,mike,black,black,female,male,TRUE,FALSE,FALSE,cannot auto compute,cannot auto compute,cannot auto compute,TRUE,excluded,included,excluded,NA,NA,57
32912,6539,listb,NA,survey-text,167,is continuing ,<img src='gifs/MaleRace3a.gif' style='height:400px;''></img>,employing,is employing,english,english,woman,asian,NA,MaleRace3a,race_male,dave,fred,asian,black,male,male,FALSE,FALSE,FALSE,cannot auto compute,cannot auto compute,cannot auto compute,FALSE,excluded,excluded,excluded,NA,NA,61
32912,5427.599999904633,listb,NA,survey-text,171,beth is conattcing mike,<img src='gifs/BlackGender4b.gif' style='height:400px;''></img>,contacting,is contacting,english,english,woman,asian,NA,BlackGender4b,gender_black,mike,kate,black,black,male,female,TRUE,FALSE,FALSE,cannot auto compute,cannot auto compute,cannot auto compute,FALSE,excluded,excluded,excluded,NA,NA,62
32912,3610.4000000953674,listb,NA,survey-text,183,beth is joing mike,<img src='gifs/BlackGender1b.gif' style='height:400px;''></img>,join,is joining,english,english,woman,asian,NA,BlackGender1b,gender_black,fred,beth,black,black,male,female,FALSE,TRUE,FALSE,cannot auto compute,cannot auto compute,cannot auto compute,FALSE,excluded,excluded,excluded,NA,NA,65
32912,5120.799999952316,listb,NA,survey-text,199,fred is listening to,<img src='gifs/BlackGender3a.gif' style='height:400px;''></img>,listening to,is listening to,english,english,woman,asian,NA,BlackGender3a,gender_black,kate,fred,black,black,female,male,FALSE,TRUE,FALSE,cannot auto compute,cannot auto compute,cannot auto compute,TRUE,excluded,included,excluded,NA,NA,69
32912,7473.100000143051,listb,NA,survey-text,211,jane is touhing luke,<img src='gifs/ChineseGender4a.gif' style='height:400px;''></img>,touching,is touching,english,english,woman,asian,NA,ChineseGender4a,gender_asian,dave,jane,asian,asian,male,female,FALSE,TRUE,FALSE,cannot auto compute,cannot auto compute,cannot auto compute,FALSE,excluded,excluded,excluded,NA,NA,72
32912,9483.300000190735,listb,NA,survey-text,276,beth is joining luke,<img src='gifs/ChineseGender1a.gif' style='height:400px;''></img>,join,is joining,english,english,woman,asian,NA,ChineseGender1a,gender_asian,luke,jane,asian,asian,male,female,TRUE,FALSE,FALSE,cannot auto compute,cannot auto compute,cannot auto compute,TRUE,excluded,included,excluded,NA,NA,73
32912,6067.299999952316,listb,NA,survey-text,292,luke is convincing mike,<img src='gifs/MaleRace1a.gif' style='height:400px;''></img>,convincing,is convincing,english,english,woman,asian,NA,MaleRace1a,race_male,luke,fred,asian,black,male,male,TRUE,FALSE,FALSE,cannot auto compute,cannot auto compute,cannot auto compute,TRUE,excluded,included,excluded,NA,NA,77
32912,7221.200000047684,listb,NA,survey-text,300,dave is accomying david,<img src='gifs/MaleRace3b.gif' style='height:400px;''></img>,accompanying,is accompanying,english,english,woman,asian,NA,MaleRace3b,race_male,fred,dave,black,asian,male,male,FALSE,TRUE,FALSE,cannot auto compute,cannot auto compute,cannot auto compute,FALSE,excluded,excluded,excluded,NA,NA,79
32912,4518.600000143051,listb,NA,survey-text,316,kate is prasing fred,<img src='gifs/BlackGender3b.gif' style='height:400px;''></img>,facing,is facing,english,english,woman,asian,NA,BlackGender3b,gender_black,fred,kate,black,black,male,female,TRUE,TRUE,TRUE,right_name,female,black,FALSE,included,excluded,excluded,0,0,83
32912,12310.799999952316,listb,NA,survey-text,332,sss,<img src='gifs/FemaleRace2a.gif' style='height:400px;''></img>,contacting,is contacting,english,english,woman,asian,NA,FemaleRace2a,race_female,kate,jane,black,asian,female,female,FALSE,FALSE,FALSE,cannot auto compute,cannot auto compute,cannot auto compute,FALSE,excluded,excluded,excluded,NA,NA,87
32912,2682,listb,NA,survey-text,336,ruth is facing dave,<img src='gifs/ChineseGender3b.gif' style='height:400px;''></img>,join,is joining,english,english,woman,asian,NA,ChineseGender3b,gender_asian,ruth,dave,asian,asian,female,male,TRUE,TRUE,TRUE,left_name,female,asian,FALSE,included,excluded,excluded,0,1,88
3478,32689,lista,NA,survey-text,33,fred is touching mike,<img src='gifs/MaleRace4b.gif' style='height:400px;''></img>,touching,is touching,english,english,woman,asian,NA,MaleRace4b,race_male,dave,mike,black,asian,male,male,FALSE,TRUE,FALSE,cannot auto compute,cannot auto compute,cannot auto compute,TRUE,excluded,included,excluded,NA,NA,1
3478,103351,lista,NA,survey-text,41,beth is introducing fred,<img src='gifs/ChineseGender2b.gif' style='height:400px;''></img>,contacting,is contacting,english,english,woman,asian,NA,ChineseGender2b,gender_asian,beth,fred,asian,asian,female,male,TRUE,TRUE,TRUE,left_name,female,asian,FALSE,included,excluded,excluded,0,1,3
3478,13711,lista,NA,survey-text,101,jane is convening kate,<img src='gifs/FemaleRace4b.gif' style='height:400px;''></img>,convincing,is convincing,english,english,woman,asian,NA,FemaleRace4b,race_female,beth,jane,asian,black,female,female,FALSE,TRUE,FALSE,cannot auto compute,cannot auto compute,cannot auto compute,FALSE,excluded,excluded,excluded,NA,NA,18
3478,7255,lista,NA,survey-text,179,dave is facing mike,<img src='gifs/MaleRace2a.gif' style='height:400px;''></img>,facing,is facing,english,english,woman,asian,NA,MaleRace2a,race_male,fred,dave,asian,black,male,male,FALSE,TRUE,FALSE,cannot auto compute,cannot auto compute,cannot auto compute,TRUE,excluded,included,excluded,NA,NA,33
37721,23320.999999999884,lista,NA,survey-text,97,麦克正在介绍弗雷,<img src='gifs/MaleRace2a.gif' style='height:400px;''></img>,介绍,正在介绍,chinese,chinese,woman,asian,NA,MaleRace2a,race_male,弗雷,戴夫,asian,black,male,male,TRUE,FALSE,FALSE,cannot auto compute,cannot auto compute,cannot auto compute,TRUE,excluded,included,excluded,NA,NA,66
37721,12464,lista,NA,survey-text,203,弗雷正在联系卢克,<img src='gifs/MaleRace1a.gif' style='height:400px;''></img>,聆听,正在聆听,chinese,chinese,woman,asian,NA,MaleRace1a,race_male,弗雷,卢克,asian,black,male,male,TRUE,TRUE,TRUE,left_name,male,asian,FALSE,included,excluded,excluded,1,1,88
39831,12213.0000000001,listb,NA,survey-text,97,dave is listening to mike,<img src='gifs/MaleRace3b.gif' style='height:400px;''></img>,listening to,is listening to,english,english,man,asian,NA,MaleRace3b,race_male,fred,dave,black,asian,male,male,FALSE,TRUE,FALSE,cannot auto compute,cannot auto compute,cannot auto compute,TRUE,excluded,included,excluded,NA,NA,29
4066,7165.5,listb,NA,survey-text,81,贝斯正在联系露丝,<img src='gifs/BlackGender2a.gif' style='height:400px;''></img>,联系,正在联系,chinese,chinese,man,asian,NA,BlackGender2a,gender_black,贝斯,麦克,black,black,female,male,TRUE,FALSE,FALSE,cannot auto compute,cannot auto compute,cannot auto compute,TRUE,excluded,included,excluded,NA,NA,80
4066,5550.299999952316,listb,NA,survey-text,171,卢克正在聘用霍普,<img src='gifs/ChineseGender1a.gif' style='height:400px;''></img>,看着,正在看着,chinese,chinese,man,asian,NA,ChineseGender1a,gender_asian,卢克,霍普,asian,asian,male,female,TRUE,TRUE,TRUE,left_name,male,asian,FALSE,included,excluded,excluded,1,1,8
4066,6580.899999976158,listb,NA,survey-text,183,弗雷正在陪伴戴夫,<img src='gifs/ChineseGender4b.gif' style='height:400px;''></img>,陪伴,正在陪伴,chinese,chinese,man,asian,NA,ChineseGender4b,gender_asian,霍普,戴夫,asian,asian,female,male,FALSE,TRUE,FALSE,cannot auto compute,cannot auto compute,cannot auto compute,TRUE,excluded,included,excluded,NA,NA,11
4066,13951.200000047684,listb,NA,survey-text,269,戴夫正在陪伴露丝,<img src='gifs/MaleRace4a.gif' style='height:400px;''></img>,陪伴,正在陪伴,chinese,chinese,man,asian,NA,MaleRace4a,race_male,戴夫,麦克,asian,black,male,male,TRUE,FALSE,FALSE,cannot auto compute,cannot auto compute,cannot auto compute,TRUE,excluded,included,excluded,NA,NA,28
41323,9223.800000011919,lista,NA,survey-text,99,卢克正在加入弗雷,<img src='gifs/MaleRace3b.gif' style='height:400px;''></img>,加入,正在加入,chinese,chinese,man,asian,NA,MaleRace3b,race_male,卢克,麦克,black,asian,male,male,TRUE,FALSE,FALSE,cannot auto compute,cannot auto compute,cannot auto compute,TRUE,excluded,included,excluded,NA,NA,37
41323,6513.300000011920,lista,NA,survey-text,103,凯特正在聆听弗雷,<img src='gifs/ChineseGender4b.gif' style='height:400px;''></img>,聆听,正在聆听,chinese,chinese,man,asian,NA,ChineseGender4b,gender_asian,凯特,麦克,asian,asian,female,male,TRUE,FALSE,FALSE,cannot auto compute,cannot auto compute,cannot auto compute,TRUE,excluded,included,excluded,NA,NA,38
41323,9913.100000023840,lista,NA,survey-text,115,露丝正在面向贝斯,<img src='gifs/FemaleRace4a.gif' style='height:400px;''></img>,面向,正在面向,chinese,chinese,man,asian,NA,FemaleRace4a,race_female,霍普,贝斯,black,asian,female,female,FALSE,TRUE,FALSE,cannot auto compute,cannot auto compute,cannot auto compute,TRUE,excluded,included,excluded,NA,NA,41
41323,6704.799999952320,lista,NA,survey-text,119,凯特正在联系贝斯,<img src='gifs/FemaleRace2b.gif' style='height:400px;''></img>,联系,正在联系,chinese,chinese,man,asian,NA,FemaleRace2b,race_female,凯特,霍普,asian,black,female,female,TRUE,FALSE,FALSE,cannot auto compute,cannot auto compute,cannot auto compute,TRUE,excluded,included,excluded,NA,NA,42
41323,10579.4000000358,lista,NA,survey-text,127,霍普正在面向凯特,<img src='gifs/FemaleRace2a.gif' style='height:400px;''></img>,触摸,正在触摸,chinese,chinese,man,asian,NA,FemaleRace2a,race_female,霍普,凯特,black,asian,female,female,TRUE,TRUE,TRUE,left_name,female,black,FALSE,included,excluded,excluded,0,0,44
41323,20351,lista,NA,survey-text,131,霍普正在介绍贝斯,<img src='gifs/FemaleRace3a.gif' style='height:400px;''></img>,介绍,正在介绍,chinese,chinese,man,asian,NA,FemaleRace3a,race_female,露丝,贝斯,black,asian,female,female,FALSE,TRUE,FALSE,cannot auto compute,cannot auto compute,cannot auto compute,TRUE,excluded,included,excluded,NA,NA,45
41323,13249.1999999881,lista,NA,survey-text,135,戴夫正在联系凯特,<img src='gifs/BlackGender4b.gif' style='height:400px;''></img>,联系,正在联系,chinese,chinese,man,asian,NA,BlackGender4b,gender_black,戴夫,霍普,black,black,male,female,TRUE,FALSE,FALSE,cannot auto compute,cannot auto compute,cannot auto compute,TRUE,excluded,included,excluded,NA,NA,46
41323,11620.0999999642,lista,NA,survey-text,147,弗雷正在介绍露丝,<img src='gifs/ChineseGender2a.gif' style='height:400px;''></img>,接近,正在接近,chinese,chinese,man,asian,NA,ChineseGender2a,gender_asian,弗雷,贝斯,asian,asian,male,female,TRUE,FALSE,FALSE,cannot auto compute,cannot auto compute,cannot auto compute,FALSE,excluded,excluded,excluded,NA,NA,49
41323,11673.3999999762,lista,NA,survey-text,159,戴夫正在表扬麦克,<img src='gifs/BlackGender4b.gif' style='height:400px;''></img>,表扬,正在表扬,chinese,chinese,man,asian,NA,BlackGender4b,gender_black,戴夫,霍普,black,black,male,female,TRUE,FALSE,FALSE,cannot auto compute,cannot auto compute,cannot auto compute,TRUE,excluded,included,excluded,NA,NA,52
41323,6222.600000023840,lista,NA,survey-text,163,霍普正在答应凯特,<img src='gifs/FemaleRace1b.gif' style='height:400px;''></img>,答应,正在答应,chinese,chinese,man,asian,NA,FemaleRace1b,race_female,凯特,露丝,asian,black,female,female,TRUE,FALSE,FALSE,cannot auto compute,cannot auto compute,cannot auto compute,TRUE,excluded,included,excluded,NA,NA,53
41323,5574.599999964240,lista,NA,survey-text,167,霍普正在答应卢克,<img src='gifs/ChineseGender4a.gif' style='height:400px;''></img>,答应,正在答应,chinese,chinese,man,asian,NA,ChineseGender4a,gender_asian,麦克,凯特,asian,asian,male,female,FALSE,FALSE,FALSE,cannot auto compute,cannot auto compute,cannot auto compute,TRUE,excluded,included,excluded,NA,NA,54
41323,9554.900000035759,lista,NA,survey-text,193,麦克正在表扬凯特,<img src='gifs/ChineseGender4b.gif' style='height:400px;''></img>,走向,正在走向,chinese,chinese,man,asian,NA,ChineseGender4b,gender_asian,凯特,麦克,asian,asian,female,male,TRUE,TRUE,TRUE,right_name,male,asian,FALSE,included,excluded,excluded,1,1,56
41323,7321.900000035760,lista,NA,survey-text,233,s,<img src='gifs/MaleRace4b.gif' style='height:400px;''></img>,触摸,正在触摸,chinese,chinese,man,asian,NA,MaleRace4b,race_male,戴夫,麦克,black,asian,male,male,FALSE,FALSE,FALSE,cannot auto compute,cannot auto compute,cannot auto compute,FALSE,excluded,excluded,excluded,NA,NA,66
41323,7478.399999976160,lista,NA,survey-text,253,戴夫正在联系凯特,<img src='gifs/ChineseGender1b.gif' style='height:400px;''></img>,联系,正在联系,chinese,chinese,man,asian,NA,ChineseGender1b,gender_asian,凯特,弗雷,asian,asian,female,male,TRUE,FALSE,FALSE,cannot auto compute,cannot auto compute,cannot auto compute,TRUE,excluded,included,excluded,NA,NA,71
41596,15519.9999999999,listb,NA,survey-text,57,ruth is looking at kate,<img src='gifs/ChineseGender2a.gif' style='height:400px;''></img>,looking at,is looking at,english,english,man,asian,NA,ChineseGender2a,gender_asian,luke,ruth,asian,asian,male,female,FALSE,TRUE,FALSE,cannot auto compute,cannot auto compute,cannot auto compute,TRUE,excluded,included,excluded,NA,NA,7
41596,12186,listb,NA,survey-text,69,ruth is walking toward kate,<img src='gifs/ChineseGender2b.gif' style='height:400px;''></img>,walking towards,is walking towards,english,english,man,asian,NA,ChineseGender2b,gender_asian,ruth,luke,asian,asian,female,male,TRUE,FALSE,FALSE,cannot auto compute,cannot auto compute,cannot auto compute,FALSE,excluded,excluded,excluded,NA,NA,10
41596,8574,listb,NA,survey-text,77,luke is contacting beth ,<img src='gifs/MaleRace1a.gif' style='height:400px;''></img>,contacting,is contacting,english,english,man,asian,NA,MaleRace1a,race_male,luke,fred,asian,black,male,male,TRUE,FALSE,FALSE,cannot auto compute,cannot auto compute,cannot auto compute,TRUE,excluded,included,excluded,NA,NA,12
41596,10088.0000000001,listb,NA,survey-text,81,kate is mentioning beth ,<img src='gifs/BlackGender3a.gif' style='height:400px;''></img>,mention,is mentioning,english,english,man,asian,NA,BlackGender3a,gender_black,kate,fred,black,black,female,male,TRUE,FALSE,FALSE,cannot auto compute,cannot auto compute,cannot auto compute,TRUE,excluded,included,excluded,NA,NA,13
41596,11214,listb,NA,survey-text,89,mike is convincing dave,<img src='gifs/BlackGender4a.gif' style='height:400px;''></img>,convincing,is convincing,english,english,man,asian,NA,BlackGender4a,gender_black,kate,mike,black,black,female,male,FALSE,TRUE,FALSE,cannot auto compute,cannot auto compute,cannot auto compute,TRUE,excluded,included,excluded,NA,NA,15
41596,9522,listb,NA,survey-text,97,luke is following beth,<img src='gifs/MaleRace1b.gif' style='height:400px;''></img>,following,is following,english,english,man,asian,NA,MaleRace1b,race_male,fred,luke,black,asian,male,male,FALSE,TRUE,FALSE,cannot auto compute,cannot auto compute,cannot auto compute,TRUE,excluded,included,excluded,NA,NA,17
41596,9372.000000000060,listb,NA,survey-text,101,kate is facing beth ,<img src='gifs/BlackGender4b.gif' style='height:400px;''></img>,facing,is facing,english,english,man,asian,NA,BlackGender4b,gender_black,mike,kate,black,black,male,female,FALSE,TRUE,FALSE,cannot auto compute,cannot auto compute,cannot auto compute,TRUE,excluded,included,excluded,NA,NA,18
41596,16802,listb,NA,survey-text,155,luke is accompanying ruth,<img src='gifs/ChineseGender1b.gif' style='height:400px;''></img>,accompanying,is accompanying,english,english,man,asian,NA,ChineseGender1b,gender_asian,jane,luke,asian,asian,female,male,FALSE,TRUE,FALSE,cannot auto compute,cannot auto compute,cannot auto compute,TRUE,excluded,included,excluded,NA,NA,22
41596,10971,listb,NA,survey-text,163,luke is listening fred,<img src='gifs/MaleRace1b.gif' style='height:400px;''></img>,listening to,is listening to,english,english,man,asian,NA,MaleRace1b,race_male,fred,luke,black,asian,male,male,TRUE,TRUE,TRUE,right_name,male,asian,FALSE,included,excluded,excluded,1,1,24
41596,17369,listb,NA,survey-text,167,cs,<img src='gifs/MaleRace2a.gif' style='height:400px;''></img>,following,is following,english,english,man,asian,NA,MaleRace2a,race_male,luke,mike,asian,black,male,male,FALSE,FALSE,FALSE,cannot auto compute,cannot auto compute,cannot auto compute,FALSE,excluded,excluded,excluded,NA,NA,25
41596,6715,listb,NA,survey-text,175,mike is convincing kate,<img src='gifs/BlackGender2b.gif' style='height:400px;''></img>,convincing,is convincing,english,english,man,asian,NA,BlackGender2b,gender_black,mike,beth,black,black,male,female,TRUE,FALSE,FALSE,cannot auto compute,cannot auto compute,cannot auto compute,TRUE,excluded,included,excluded,NA,NA,27
41596,12770.9999999999,listb,NA,survey-text,183,kate is walking toward kate,<img src='gifs/BlackGender4b.gif' style='height:400px;''></img>,walking towards,is walking towards,english,english,man,asian,NA,BlackGender4b,gender_black,mike,kate,black,black,male,female,FALSE,TRUE,FALSE,cannot auto compute,cannot auto compute,cannot auto compute,FALSE,excluded,excluded,excluded,NA,NA,29
41596,3403.999999999880,listb,NA,survey-text,187,beth is ,<img src='gifs/FemaleRace3a.gif' style='height:400px;''></img>,introducing,is introducing,english,english,man,asian,NA,FemaleRace3a,race_female,beth,ruth,black,asian,female,female,TRUE,FALSE,FALSE,cannot auto compute,cannot auto compute,cannot auto compute,FALSE,excluded,excluded,excluded,NA,NA,30
41596,7772,listb,NA,survey-text,207,fred ,<img src='gifs/BlackGender1a.gif' style='height:400px;''></img>,promising,is promising,english,english,man,asian,NA,BlackGender1a,gender_black,beth,fred,black,black,female,male,FALSE,TRUE,FALSE,cannot auto compute,cannot auto compute,cannot auto compute,FALSE,excluded,excluded,excluded,NA,NA,35
41596,12322,listb,NA,survey-text,253,fred is promising kate,<img src='gifs/MaleRace3b.gif' style='height:400px;''></img>,promising,is promising,english,english,man,asian,NA,MaleRace3b,race_male,fred,dave,black,asian,male,male,TRUE,FALSE,FALSE,cannot auto compute,cannot auto compute,cannot auto compute,TRUE,excluded,included,excluded,NA,NA,42
41596,1137,listb,NA,survey-text,257,d,<img src='gifs/FemaleRace3b.gif' style='height:400px;''></img>,promising,is promising,english,english,man,asian,NA,FemaleRace3b,race_female,ruth,beth,asian,black,female,female,FALSE,FALSE,FALSE,cannot auto compute,cannot auto compute,cannot auto compute,FALSE,excluded,excluded,excluded,NA,NA,43
41596,2752.999999999770,listb,NA,survey-text,265,d,<img src='gifs/FemaleRace1b.gif' style='height:400px;''></img>,join,is joining,english,english,man,asian,NA,FemaleRace1b,race_female,jane,beth,asian,black,female,female,FALSE,FALSE,FALSE,cannot auto compute,cannot auto compute,cannot auto compute,FALSE,excluded,excluded,excluded,NA,NA,45
41596,19057,listb,NA,survey-text,273,kate is joing ,<img src='gifs/ChineseGender4a.gif' style='height:400px;''></img>,employing,is employing,english,english,man,asian,NA,ChineseGender4a,gender_asian,dave,jane,asian,asian,male,female,FALSE,FALSE,FALSE,cannot auto compute,cannot auto compute,cannot auto compute,FALSE,excluded,excluded,excluded,NA,NA,47
41596,10510,listb,NA,survey-text,277,d,<img src='gifs/ChineseGender4b.gif' style='height:400px;''></img>,walking towards,is walking towards,english,english,man,asian,NA,ChineseGender4b,gender_asian,jane,dave,asian,asian,female,male,FALSE,FALSE,FALSE,cannot auto compute,cannot auto compute,cannot auto compute,FALSE,excluded,excluded,excluded,NA,NA,48
41596,25522,listb,NA,survey-text,281,d,<img src='gifs/MaleRace2a.gif' style='height:400px;''></img>,employing,is employing,english,english,man,asian,NA,MaleRace2a,race_male,luke,mike,asian,black,male,male,FALSE,FALSE,FALSE,cannot auto compute,cannot auto compute,cannot auto compute,FALSE,excluded,excluded,excluded,NA,NA,49
4299,28714.899999976158,listb,NA,survey-text,33,凯特正在答应霍普,<img src='gifs/FemaleRace4b.gif' style='height:400px;''></img>,答应,正在答应,chinese,chinese,woman,asian,NA,FemaleRace4b,race_female,露丝,凯特,asian,black,female,female,FALSE,TRUE,FALSE,cannot auto compute,cannot auto compute,cannot auto compute,TRUE,excluded,included,excluded,NA,NA,55
4299,58640.299999952316,listb,NA,survey-text,41,正在陪伴,<img src='gifs/BlackGender2b.gif' style='height:400px;''></img>,陪伴,正在陪伴,chinese,chinese,woman,asian,NA,BlackGender2b,gender_black,麦克,贝斯,black,black,male,female,FALSE,FALSE,FALSE,cannot auto compute,cannot auto compute,cannot auto compute,TRUE,excluded,included,excluded,NA,NA,57
4299,54853.299999952316,listb,NA,survey-text,45,凯特正在看着,<img src='gifs/BlackGender3b.gif' style='height:400px;''></img>,看着,正在看着,chinese,chinese,woman,asian,NA,BlackGender3b,gender_black,弗雷,凯特,black,black,male,female,FALSE,TRUE,FALSE,cannot auto compute,cannot auto compute,cannot auto compute,TRUE,excluded,included,excluded,NA,NA,58
4299,29787,listb,NA,survey-text,49,凯特正在触摸戴夫,<img src='gifs/BlackGender3b.gif' style='height:400px;''></img>,触摸,正在触摸,chinese,chinese,woman,asian,NA,BlackGender3b,gender_black,弗雷,凯特,black,black,male,female,FALSE,TRUE,FALSE,cannot auto compute,cannot auto compute,cannot auto compute,TRUE,excluded,included,excluded,NA,NA,59
4299,49162.799999952316,listb,NA,survey-text,53,贝斯正在介绍戴夫,<img src='gifs/BlackGender1b.gif' style='height:400px;''></img>,介绍,正在介绍,chinese,chinese,woman,asian,NA,BlackGender1b,gender_black,弗雷,贝斯,black,black,male,female,FALSE,TRUE,FALSE,cannot auto compute,cannot auto compute,cannot auto compute,TRUE,excluded,included,excluded,NA,NA,60
4299,15495.100000023842,listb,NA,survey-text,57,贝斯正在聘用戴夫,<img src='gifs/BlackGender1a.gif' style='height:400px;''></img>,聘用,正在聘用,chinese,chinese,woman,asian,NA,BlackGender1a,gender_black,贝斯,弗雷,black,black,female,male,TRUE,FALSE,FALSE,cannot auto compute,cannot auto compute,cannot auto compute,TRUE,excluded,included,excluded,NA,NA,61
4299,10941.300000071526,listb,NA,survey-text,65,卢克正在加入戴夫,<img src='gifs/MaleRace3b.gif' style='height:400px;''></img>,加入,正在加入,chinese,chinese,woman,asian,NA,MaleRace3b,race_male,弗雷,戴夫,black,asian,male,male,FALSE,TRUE,FALSE,cannot auto compute,cannot auto compute,cannot auto compute,TRUE,excluded,included,excluded,NA,NA,63
4299,5268.800000071526,listb,NA,survey-text,69,正在跟随,<img src='gifs/MaleRace2a.gif' style='height:400px;''></img>,跟随,正在跟随,chinese,chinese,woman,asian,NA,MaleRace2a,race_male,卢克,麦克,asian,black,male,male,FALSE,FALSE,FALSE,cannot auto compute,cannot auto compute,cannot auto compute,TRUE,excluded,included,excluded,NA,NA,64
4299,42927.60000002384,listb,NA,survey-text,73,露丝正在跟随,<img src='gifs/ChineseGender3b.gif' style='height:400px;''></img>,聆听,正在聆听,chinese,chinese,woman,asian,NA,ChineseGender3b,gender_asian,露丝,戴夫,asian,asian,female,male,TRUE,FALSE,FALSE,cannot auto compute,cannot auto compute,cannot auto compute,FALSE,excluded,excluded,excluded,NA,NA,65
4299,16220.100000023842,listb,NA,survey-text,93,霍普正在加入卢克,<img src='gifs/ChineseGender4a.gif' style='height:400px;''></img>,加入,正在加入,chinese,chinese,woman,asian,NA,ChineseGender4a,gender_asian,戴夫,霍普,asian,asian,male,female,FALSE,TRUE,FALSE,cannot auto compute,cannot auto compute,cannot auto compute,TRUE,excluded,included,excluded,NA,NA,70
4299,17816.299999952316,listb,NA,survey-text,97,卢克正在表扬,<img src='gifs/MaleRace4b.gif' style='height:400px;''></img>,表扬,正在表扬,chinese,chinese,woman,asian,NA,MaleRace4b,race_male,麦克,戴夫,black,asian,male,male,FALSE,FALSE,FALSE,cannot auto compute,cannot auto compute,cannot auto compute,TRUE,excluded,included,excluded,NA,NA,71
4299,10397.600000023842,listb,NA,survey-text,139,麦克正在联系贝斯,<img src='gifs/BlackGender2a.gif' style='height:400px;''></img>,聆听,正在聆听,chinese,chinese,woman,asian,NA,BlackGender2a,gender_black,贝斯,麦克,black,black,female,male,TRUE,TRUE,TRUE,right_name,male,black,FALSE,included,excluded,excluded,1,0,77
43615,24682.39999999851,lista,NA,survey-text,101,卢克正在聘用贝斯,<img src='gifs/FemaleRace4a.gif' style='height:400px;''></img>,聘用,正在聘用,chinese,chinese,man,asian,NA,FemaleRace4a,race_female,霍普,贝斯,black,asian,female,female,FALSE,TRUE,FALSE,cannot auto compute,cannot auto compute,cannot auto compute,TRUE,excluded,included,excluded,NA,NA,36
43772,18837,lista,NA,survey-text,33,luke is introducing dave,<img src='gifs/MaleRace3a.gif' style='height:400px;''></img>,introducing,is introducing,english,english,woman,asian,NA,MaleRace3a,race_male,mike,luke,asian,black,male,male,FALSE,TRUE,FALSE,cannot auto compute,cannot auto compute,cannot auto compute,TRUE,excluded,included,excluded,NA,NA,73
43772,10358,lista,NA,survey-text,37,mike is introducing kate,<img src='gifs/ChineseGender4b.gif' style='height:400px;''></img>,mention,is mentioning,english,english,woman,asian,NA,ChineseGender4b,gender_asian,kate,mike,asian,asian,female,male,TRUE,TRUE,TRUE,right_name,male,asian,FALSE,included,excluded,excluded,1,1,74
43772,34080,lista,NA,survey-text,65,mike is convincing dave ,<img src='gifs/MaleRace3b.gif' style='height:400px;''></img>,convincing,is convincing,english,english,woman,asian,NA,MaleRace3b,race_male,luke,mike,black,asian,male,male,FALSE,TRUE,FALSE,cannot auto compute,cannot auto compute,cannot auto compute,TRUE,excluded,included,excluded,NA,NA,81
43772,9548,lista,NA,survey-text,97,fred is following kate ,<img src='gifs/ChineseGender1a.gif' style='height:400px;''></img>,promising,is promising,english,english,woman,asian,NA,ChineseGender1a,gender_asian,fred,kate,asian,asian,male,female,TRUE,TRUE,TRUE,left_name,male,asian,FALSE,included,excluded,excluded,1,1,89
43772,5831,lista,NA,survey-text,143,mike is joining dave ,<img src='gifs/MaleRace2b.gif' style='height:400px;''></img>,join,is joining,english,english,woman,asian,NA,MaleRace2b,race_male,dave,fred,black,asian,male,male,TRUE,FALSE,FALSE,cannot auto compute,cannot auto compute,cannot auto compute,TRUE,excluded,included,excluded,NA,NA,6
43772,5812,lista,NA,survey-text,147,jane is convincing mike ,<img src='gifs/ChineseGender4a.gif' style='height:400px;''></img>,convincing,is convincing,english,english,woman,asian,NA,ChineseGender4a,gender_asian,mike,kate,asian,asian,male,female,TRUE,FALSE,FALSE,cannot auto compute,cannot auto compute,cannot auto compute,TRUE,excluded,included,excluded,NA,NA,7
43772,8836,lista,NA,survey-text,151,ruth is joining kate ,<img src='gifs/FemaleRace1a.gif' style='height:400px;''></img>,touching,is touching,english,english,woman,asian,NA,FemaleRace1a,race_female,ruth,kate,black,asian,female,female,TRUE,TRUE,TRUE,left_name,female,black,FALSE,included,excluded,excluded,0,0,8
43772,5149,lista,NA,survey-text,309,kate is touching jane ,<img src='gifs/FemaleRace1b.gif' style='height:400px;''></img>,touching,is touching,english,english,woman,asian,NA,FemaleRace1b,race_female,kate,ruth,asian,black,female,female,TRUE,FALSE,FALSE,cannot auto compute,cannot auto compute,cannot auto compute,TRUE,excluded,included,excluded,NA,NA,33
4438,27275,listb,NA,survey-text,53,mike is praising jane ,<img src='gifs/BlackGender4b.gif' style='height:400px;''></img>,praising,is praising,english,english,man,asian,NA,BlackGender4b,gender_black,mike,kate,black,black,male,female,TRUE,FALSE,FALSE,cannot auto compute,cannot auto compute,cannot auto compute,TRUE,excluded,included,excluded,NA,NA,42
4438,34045,listb,NA,survey-text,61,fred is approaching beth,<img src='gifs/MaleRace3b.gif' style='height:400px;''></img>,approaching,is approaching,english,english,man,asian,NA,MaleRace3b,race_male,fred,dave,black,asian,male,male,TRUE,FALSE,FALSE,cannot auto compute,cannot auto compute,cannot auto compute,TRUE,excluded,included,excluded,NA,NA,44
4438,18754,listb,NA,survey-text,97,luke is joining dave,<img src='gifs/MaleRace1a.gif' style='height:400px;''></img>,join,is joining,english,english,man,asian,NA,MaleRace1a,race_male,luke,fred,asian,black,male,male,TRUE,FALSE,FALSE,cannot auto compute,cannot auto compute,cannot auto compute,TRUE,excluded,included,excluded,NA,NA,53
4438,22956,listb,NA,survey-text,147,luke is joining fred,<img src='gifs/MaleRace1b.gif' style='height:400px;''></img>,promising,is promising,english,english,man,asian,NA,MaleRace1b,race_male,fred,luke,black,asian,male,male,TRUE,TRUE,TRUE,right_name,male,asian,FALSE,included,excluded,excluded,1,1,61
4438,18091,listb,NA,survey-text,245,fred is followinng jane,<img src='gifs/FemaleRace2b.gif' style='height:400px;''></img>,following,is following,english,english,man,asian,NA,FemaleRace2b,race_female,jane,kate,asian,black,female,female,TRUE,FALSE,FALSE,cannot auto compute,cannot auto compute,cannot auto compute,FALSE,excluded,excluded,excluded,NA,NA,81
44820,14409,lista,NA,survey-text,57,kate is touching ruth,<img src='gifs/FemaleRace2a.gif' style='height:400px;''></img>,touching,is touching,english,english,man,asian,NA,FemaleRace2a,race_female,jane,kate,black,asian,female,female,FALSE,TRUE,FALSE,cannot auto compute,cannot auto compute,cannot auto compute,TRUE,excluded,included,excluded,NA,NA,2
44820,12489,lista,NA,survey-text,65,mike is employing luke,<img src='gifs/MaleRace1b.gif' style='height:400px;''></img>,employing,is employing,english,english,man,asian,NA,MaleRace1b,race_male,luke,fred,black,asian,male,male,TRUE,FALSE,FALSE,cannot auto compute,cannot auto compute,cannot auto compute,TRUE,excluded,included,excluded,NA,NA,4
44820,11254,lista,NA,survey-text,191,beth is praising jane,<img src='gifs/FemaleRace3a.gif' style='height:400px;''></img>,praising,is praising,english,english,man,asian,NA,FemaleRace3a,race_female,ruth,beth,black,asian,female,female,FALSE,TRUE,FALSE,cannot auto compute,cannot auto compute,cannot auto compute,TRUE,excluded,included,excluded,NA,NA,31
44820,14177,lista,NA,survey-text,199,mike is looking at beth,<img src='gifs/ChineseGender3b.gif' style='height:400px;''></img>,accompanying,is accompanying,english,english,man,asian,NA,ChineseGender3b,gender_asian,beth,mike,asian,asian,female,male,TRUE,TRUE,TRUE,right_name,male,asian,FALSE,included,excluded,excluded,1,1,33
44820,24746,lista,NA,survey-text,241,luke is looking at mike,<img src='gifs/MaleRace3a.gif' style='height:400px;''></img>,praising,is praising,english,english,man,asian,NA,MaleRace3a,race_male,mike,luke,asian,black,male,male,TRUE,TRUE,TRUE,right_name,male,black,FALSE,included,excluded,excluded,1,0,39
44820,11047,lista,NA,survey-text,289,ruth is what beth,<img src='gifs/FemaleRace3b.gif' style='height:400px;''></img>,listening to,is listening to,english,english,man,asian,NA,FemaleRace3b,race_female,beth,ruth,asian,black,female,female,TRUE,TRUE,TRUE,right_name,female,black,FALSE,included,excluded,excluded,0,0,51
44944,146398.59999999404,listb,NA,survey-text,53,kateencounteredfred,<img src='gifs/BlackGender3a.gif' style='height:400px;''></img>,listening to,is listening to,english,english,man,asian,NA,BlackGender3a,gender_black,kate,fred,black,black,female,male,TRUE,TRUE,TRUE,left_name,female,black,FALSE,included,excluded,excluded,0,0,55
44944,55059.89999999851,listb,NA,survey-text,57,kateismonitoringfred,<img src='gifs/BlackGender3b.gif' style='height:400px;''></img>,praising,is praising,english,english,man,asian,NA,BlackGender3b,gender_black,fred,kate,black,black,male,female,TRUE,TRUE,TRUE,right_name,female,black,FALSE,included,excluded,excluded,0,0,56
44944,151268.30000000447,listb,NA,survey-text,61,davebelievethatfredhasgreatprospects,<img src='gifs/MaleRace3a.gif' style='height:400px;''></img>,promising,is promising,english,english,man,asian,NA,MaleRace3a,race_male,dave,fred,asian,black,male,male,TRUE,TRUE,TRUE,left_name,male,asian,FALSE,included,excluded,excluded,1,1,57
44944,391715,listb,NA,survey-text,85,dave and ruth are reading a touching story,<img src='gifs/ChineseGender3a.gif' style='height:400px;''></img>,touching,is touching,english,english,man,asian,NA,ChineseGender3a,gender_asian,dave,ruth,asian,asian,male,female,TRUE,TRUE,TRUE,left_name,male,asian,FALSE,included,excluded,excluded,1,1,63
44944,216156.5,listb,NA,survey-text,89,mike moving luke,<img src='gifs/MaleRace2b.gif' style='height:400px;''></img>,touching,is touching,english,english,man,asian,NA,MaleRace2b,race_male,mike,luke,black,asian,male,male,TRUE,TRUE,TRUE,left_name,male,black,FALSE,included,excluded,excluded,1,0,64
44944,63558,listb,NA,survey-text,233,ruth monitoring kate,<img src='gifs/FemaleRace4a.gif' style='height:400px;''></img>,listening to,is listening to,english,english,man,asian,NA,FemaleRace4a,race_female,kate,ruth,black,asian,female,female,TRUE,TRUE,TRUE,right_name,female,asian,FALSE,included,excluded,excluded,0,1,1
4555,5796,listb,NA,survey-text,37,dave is touching ruth ,<img src='gifs/ChineseGender2b.gif' style='height:400px;''></img>,touching,is touching,english,english,woman,asian,NA,ChineseGender2b,gender_asian,ruth,luke,asian,asian,female,male,TRUE,FALSE,FALSE,cannot auto compute,cannot auto compute,cannot auto compute,TRUE,excluded,included,excluded,NA,NA,20
4555,6003.000000000470,listb,NA,survey-text,41,dave is listening to ruth ,<img src='gifs/ChineseGender2b.gif' style='height:400px;''></img>,listening to,is listening to,english,english,woman,asian,NA,ChineseGender2b,gender_asian,ruth,luke,asian,asian,female,male,TRUE,FALSE,FALSE,cannot auto compute,cannot auto compute,cannot auto compute,TRUE,excluded,included,excluded,NA,NA,21
4555,6397,listb,NA,survey-text,53,dave is introducing ruth,<img src='gifs/ChineseGender2a.gif' style='height:400px;''></img>,introducing,is introducing,english,english,woman,asian,NA,ChineseGender2a,gender_asian,luke,ruth,asian,asian,male,female,FALSE,TRUE,FALSE,cannot auto compute,cannot auto compute,cannot auto compute,TRUE,excluded,included,excluded,NA,NA,24
4555,10236,listb,NA,survey-text,57,jane is listening to beth,<img src='gifs/FemaleRace1b.gif' style='height:400px;''></img>,contacting,is contacting,english,english,woman,asian,NA,FemaleRace1b,race_female,jane,beth,asian,black,female,female,TRUE,TRUE,TRUE,left_name,female,asian,FALSE,included,excluded,excluded,0,1,25
4555,7913,listb,NA,survey-text,65,dave is employing jane ,<img src='gifs/ChineseGender1a.gif' style='height:400px;''></img>,employing,is employing,english,english,woman,asian,NA,ChineseGender1a,gender_asian,luke,jane,asian,asian,male,female,FALSE,TRUE,FALSE,cannot auto compute,cannot auto compute,cannot auto compute,TRUE,excluded,included,excluded,NA,NA,27
4555,5032,listb,NA,survey-text,85,dave is promising mike ,<img src='gifs/MaleRace2a.gif' style='height:400px;''></img>,promising,is promising,english,english,woman,asian,NA,MaleRace2a,race_male,luke,mike,asian,black,male,male,FALSE,TRUE,FALSE,cannot auto compute,cannot auto compute,cannot auto compute,TRUE,excluded,included,excluded,NA,NA,32
4555,5307,listb,NA,survey-text,89,dave is following mike ,<img src='gifs/MaleRace2b.gif' style='height:400px;''></img>,following,is following,english,english,woman,asian,NA,MaleRace2b,race_male,mike,luke,black,asian,male,male,TRUE,FALSE,FALSE,cannot auto compute,cannot auto compute,cannot auto compute,TRUE,excluded,included,excluded,NA,NA,33
4555,6280,listb,NA,survey-text,93,beth is walking towards jane,<img src='gifs/FemaleRace2a.gif' style='height:400px;''></img>,walking towards,is walking towards,english,english,woman,asian,NA,FemaleRace2a,race_female,kate,jane,black,asian,female,female,FALSE,TRUE,FALSE,cannot auto compute,cannot auto compute,cannot auto compute,TRUE,excluded,included,excluded,NA,NA,34
4555,18551,listb,NA,survey-text,97,ruth is convincing beth ,<img src='gifs/FemaleRace4a.gif' style='height:400px;''></img>,convincing,is convincing,english,english,woman,asian,NA,FemaleRace4a,race_female,kate,ruth,black,asian,female,female,FALSE,TRUE,FALSE,cannot auto compute,cannot auto compute,cannot auto compute,TRUE,excluded,included,excluded,NA,NA,35
4555,7048.999999999530,listb,NA,survey-text,101,beth is joining jane,<img src='gifs/FemaleRace2b.gif' style='height:400px;''></img>,join,is joining,english,english,woman,asian,NA,FemaleRace2b,race_female,jane,kate,asian,black,female,female,TRUE,FALSE,FALSE,cannot auto compute,cannot auto compute,cannot auto compute,TRUE,excluded,included,excluded,NA,NA,36
4555,13947.9999999995,listb,NA,survey-text,187,mike is praising kate ,<img src='gifs/BlackGender3a.gif' style='height:400px;''></img>,praising,is praising,english,english,woman,asian,NA,BlackGender3a,gender_black,kate,fred,black,black,female,male,TRUE,FALSE,FALSE,cannot auto compute,cannot auto compute,cannot auto compute,TRUE,excluded,included,excluded,NA,NA,48
4555,13472,listb,NA,survey-text,203,mike is accompanying beth,<img src='gifs/BlackGender1b.gif' style='height:400px;''></img>,accompanying,is accompanying,english,english,woman,asian,NA,BlackGender1b,gender_black,fred,beth,black,black,male,female,FALSE,TRUE,FALSE,cannot auto compute,cannot auto compute,cannot auto compute,TRUE,excluded,included,excluded,NA,NA,52
4555,7331.000000000470,listb,NA,survey-text,253,luke is meeting ruth,<img src='gifs/ChineseGender2a.gif' style='height:400px;''></img>,mention,is mentioning,english,english,woman,asian,NA,ChineseGender2a,gender_asian,luke,ruth,asian,asian,male,female,TRUE,TRUE,TRUE,left_name,male,asian,FALSE,included,excluded,excluded,1,1,60
4555,10086,listb,NA,survey-text,257,beth is walking towards fred,<img src='gifs/BlackGender3b.gif' style='height:400px;''></img>,walking towards,is walking towards,english,english,woman,asian,NA,BlackGender3b,gender_black,fred,kate,black,black,male,female,TRUE,FALSE,FALSE,cannot auto compute,cannot auto compute,cannot auto compute,TRUE,excluded,included,excluded,NA,NA,61
4555,10596.9999999995,listb,NA,survey-text,273,beth is accompanying ruth ,<img src='gifs/FemaleRace4b.gif' style='height:400px;''></img>,accompanying,is accompanying,english,english,woman,asian,NA,FemaleRace4b,race_female,ruth,kate,asian,black,female,female,TRUE,FALSE,FALSE,cannot auto compute,cannot auto compute,cannot auto compute,TRUE,excluded,included,excluded,NA,NA,65
45822,3409.8900000099093,listb,NA,survey-text,69,mike is introducing dave,<img src='gifs/MaleRace2b.gif' style='height:400px;''></img>,introducing,is introducing,english,english,woman,asian,NA,MaleRace2b,race_male,mike,luke,black,asian,male,male,TRUE,FALSE,FALSE,cannot auto compute,cannot auto compute,cannot auto compute,TRUE,excluded,included,excluded,NA,NA,77
45822,4491.070000003674,listb,NA,survey-text,155,jane is walking towards kate,<img src='gifs/FemaleRace1b.gif' style='height:400px;''></img>,walking towards,is walking towards,english,english,woman,asian,NA,FemaleRace1b,race_female,jane,beth,asian,black,female,female,TRUE,FALSE,FALSE,cannot auto compute,cannot auto compute,cannot auto compute,TRUE,excluded,included,excluded,NA,NA,4
46348,24436,listb,NA,survey-text,45,露丝正面向弗雷,<img src='gifs/BlackGender1b.gif' style='height:400px;''></img>,面向,正在面向,chinese,chinese,man,asian,NA,BlackGender1b,gender_black,弗雷,贝斯,black,black,male,female,TRUE,FALSE,FALSE,cannot auto compute,cannot auto compute,cannot auto compute,FALSE,excluded,excluded,excluded,NA,NA,40
46348,24330,listb,NA,survey-text,53,霍普正在介绍露丝,<img src='gifs/FemaleRace1a.gif' style='height:400px;''></img>,介绍,正在介绍,chinese,chinese,man,asian,NA,FemaleRace1a,race_female,贝斯,霍普,black,asian,female,female,FALSE,TRUE,FALSE,cannot auto compute,cannot auto compute,cannot auto compute,TRUE,excluded,included,excluded,NA,NA,42
46348,6446,listb,NA,survey-text,57,戴夫正在加入露丝,<img src='gifs/ChineseGender2b.gif' style='height:400px;''></img>,加入,正在加入,chinese,chinese,man,asian,NA,ChineseGender2b,gender_asian,露丝,卢克,asian,asian,female,male,TRUE,FALSE,FALSE,cannot auto compute,cannot auto compute,cannot auto compute,TRUE,excluded,included,excluded,NA,NA,43
46348,8181.000000000058,listb,NA,survey-text,61,麦克正在看着戴夫,<img src='gifs/MaleRace2a.gif' style='height:400px;''></img>,看着,正在看着,chinese,chinese,man,asian,NA,MaleRace2a,race_male,卢克,麦克,asian,black,male,male,FALSE,TRUE,FALSE,cannot auto compute,cannot auto compute,cannot auto compute,TRUE,excluded,included,excluded,NA,NA,44
46348,14400.000000000116,listb,NA,survey-text,97,戴夫正在提到弗雷,<img src='gifs/MaleRace1b.gif' style='height:400px;''></img>,提到,正在提到,chinese,chinese,man,asian,NA,MaleRace1b,race_male,弗雷,卢克,black,asian,male,male,TRUE,FALSE,FALSE,cannot auto compute,cannot auto compute,cannot auto compute,TRUE,excluded,included,excluded,NA,NA,53
46348,7401,listb,NA,survey-text,183,戴夫正在提到霍普,<img src='gifs/ChineseGender1b.gif' style='height:400px;''></img>,提到,正在提到,chinese,chinese,man,asian,NA,ChineseGender1b,gender_asian,霍普,卢克,asian,asian,female,male,TRUE,FALSE,FALSE,cannot auto compute,cannot auto compute,cannot auto compute,TRUE,excluded,included,excluded,NA,NA,65
46409,21217.100000023842,listb,NA,survey-text,53,fred is mentioning to fred,<img src='gifs/BlackGender1b.gif' style='height:400px;''></img>,mention,is mentioning,english,english,man,asian,NA,BlackGender1b,gender_black,fred,beth,black,black,male,female,TRUE,FALSE,FALSE,cannot auto compute,cannot auto compute,cannot auto compute,TRUE,excluded,included,excluded,NA,NA,1
46409,11037.300000071526,listb,NA,survey-text,61,mike is beth,<img src='gifs/BlackGender2a.gif' style='height:400px;''></img>,contacting,is contacting,english,english,man,asian,NA,BlackGender2a,gender_black,beth,mike,black,black,female,male,TRUE,TRUE,TRUE,right_name,male,black,FALSE,included,excluded,excluded,1,0,3
46409,10619.800000071526,listb,NA,survey-text,65,kate is ruth,<img src='gifs/FemaleRace4a.gif' style='height:400px;''></img>,employing,is employing,english,english,man,asian,NA,FemaleRace4a,race_female,kate,ruth,black,asian,female,female,TRUE,TRUE,TRUE,left_name,female,black,FALSE,included,excluded,excluded,0,0,4
46409,9471.800000071526,listb,NA,survey-text,117,beth,<img src='gifs/BlackGender2b.gif' style='height:400px;''></img>,walking towards,is walking towards,english,english,man,asian,NA,BlackGender2b,gender_black,mike,beth,black,black,male,female,FALSE,TRUE,FALSE,cannot auto compute,cannot auto compute,cannot auto compute,FALSE,excluded,excluded,excluded,NA,NA,17
46409,12287.5,listb,NA,survey-text,233,luke is looking at kate,<img src='gifs/MaleRace1b.gif' style='height:400px;''></img>,looking at,is looking at,english,english,man,asian,NA,MaleRace1b,race_male,fred,luke,black,asian,male,male,FALSE,TRUE,FALSE,cannot auto compute,cannot auto compute,cannot auto compute,TRUE,excluded,included,excluded,NA,NA,37
46409,687.3000000715256,listb,NA,survey-text,241,da,<img src='gifs/MaleRace3b.gif' style='height:400px;''></img>,convincing,is convincing,english,english,man,asian,NA,MaleRace3b,race_male,fred,dave,black,asian,male,male,FALSE,FALSE,FALSE,cannot auto compute,cannot auto compute,cannot auto compute,FALSE,excluded,excluded,excluded,NA,NA,39
46416,28667,lista,NA,survey-text,134,戴夫正在表扬凯特,<img src='gifs/BlackGender4b.gif' style='height:400px;''></img>,联系,正在联系,chinese,chinese,woman,asian,NA,BlackGender4b,gender_black,戴夫,霍普,black,black,male,female,TRUE,FALSE,FALSE,cannot auto compute,cannot auto compute,cannot auto compute,FALSE,excluded,excluded,excluded,NA,NA,59
46416,6839,lista,NA,survey-text,182,贝斯正在说服霍普,<img src='gifs/FemaleRace3b.gif' style='height:400px;''></img>,说服,正在说服,chinese,chinese,woman,asian,NA,FemaleRace3b,race_female,贝斯,露丝,asian,black,female,female,TRUE,FALSE,FALSE,cannot auto compute,cannot auto compute,cannot auto compute,TRUE,excluded,included,excluded,NA,NA,71
46416,10710.99999999255,lista,NA,survey-text,240,凯特正在接近弗雷,<img src='gifs/ChineseGender1a.gif' style='height:400px;''></img>,加入,正在加入,chinese,chinese,woman,asian,NA,ChineseGender1a,gender_asian,弗雷,凯特,asian,asian,male,female,TRUE,TRUE,TRUE,right_name,female,asian,FALSE,included,excluded,excluded,0,1,76
46416,5912,lista,NA,survey-text,386,露丝正在看着卢克,<img src='gifs/BlackGender1b.gif' style='height:400px;''></img>,面向,正在面向,chinese,chinese,woman,asian,NA,BlackGender1b,gender_black,卢克,露丝,black,black,male,female,TRUE,TRUE,TRUE,right_name,female,black,FALSE,included,excluded,excluded,0,0,18
47740,5959.300000190735,lista,NA,survey-text,209,弗雷正在聆听露丝,<img src='gifs/BlackGender2a.gif' style='height:400px;''></img>,聆听,正在聆听,chinese,chinese,woman,asian,NA,BlackGender2a,gender_black,露丝,戴夫,black,black,female,male,TRUE,FALSE,FALSE,cannot auto compute,cannot auto compute,cannot auto compute,TRUE,excluded,included,excluded,NA,NA,43
47740,13891.800000190735,lista,NA,survey-text,213,卢克正在说服弗雷,<img src='gifs/MaleRace1a.gif' style='height:400px;''></img>,加入,正在加入,chinese,chinese,woman,asian,NA,MaleRace1a,race_male,弗雷,卢克,asian,black,male,male,TRUE,TRUE,TRUE,right_name,male,black,FALSE,included,excluded,excluded,1,0,44
47740,9057,lista,NA,survey-text,249,露丝正在答应贝斯,<img src='gifs/FemaleRace3b.gif' style='height:400px;''></img>,介绍,正在介绍,chinese,chinese,woman,asian,NA,FemaleRace3b,race_female,贝斯,露丝,asian,black,female,female,TRUE,TRUE,TRUE,right_name,female,black,FALSE,included,excluded,excluded,0,0,53
489,20532.00000000006,lista,NA,survey-text,37,霍普正在联系凯特,<img src='gifs/FemaleRace2b.gif' style='height:400px;''></img>,聘用,正在聘用,chinese,chinese,man,asian,NA,FemaleRace2b,race_female,凯特,霍普,asian,black,female,female,TRUE,TRUE,TRUE,right_name,female,black,FALSE,included,excluded,excluded,0,0,74
489,25883,lista,NA,survey-text,45,弗雷正在联系,<img src='gifs/MaleRace2a.gif' style='height:400px;''></img>,联系,正在联系,chinese,chinese,man,asian,NA,MaleRace2a,race_male,弗雷,戴夫,asian,black,male,male,TRUE,FALSE,FALSE,cannot auto compute,cannot auto compute,cannot auto compute,TRUE,excluded,included,excluded,NA,NA,76
489,13721,lista,NA,survey-text,49,麦克正在陪伴,<img src='gifs/MaleRace3a.gif' style='height:400px;''></img>,陪伴,正在陪伴,chinese,chinese,man,asian,NA,MaleRace3a,race_male,麦克,卢克,asian,black,male,male,TRUE,FALSE,FALSE,cannot auto compute,cannot auto compute,cannot auto compute,TRUE,excluded,included,excluded,NA,NA,77
489,5499,lista,NA,survey-text,57,麦克正在介绍,<img src='gifs/MaleRace4a.gif' style='height:400px;''></img>,介绍,正在介绍,chinese,chinese,man,asian,NA,MaleRace4a,race_male,麦克,戴夫,asian,black,male,male,TRUE,FALSE,FALSE,cannot auto compute,cannot auto compute,cannot auto compute,TRUE,excluded,included,excluded,NA,NA,79
489,251228.99999999988,lista,NA,survey-text,73,弗雷正在跟随凯特,<img src='gifs/ChineseGender1a.gif' style='height:400px;''></img>,看着,正在看着,chinese,chinese,man,asian,NA,ChineseGender1a,gender_asian,弗雷,凯特,asian,asian,male,female,TRUE,TRUE,TRUE,left_name,male,asian,FALSE,included,excluded,excluded,1,1,83
489,18665.000000000116,lista,NA,survey-text,81,卢克正在聆听,<img src='gifs/BlackGender1b.gif' style='height:400px;''></img>,聆听,正在聆听,chinese,chinese,man,asian,NA,BlackGender1b,gender_black,卢克,露丝,black,black,male,female,TRUE,FALSE,FALSE,cannot auto compute,cannot auto compute,cannot auto compute,TRUE,excluded,included,excluded,NA,NA,85
489,4610.000000000116,lista,NA,survey-text,101,弗雷正在答应,<img src='gifs/MaleRace2b.gif' style='height:400px;''></img>,答应,正在答应,chinese,chinese,man,asian,NA,MaleRace2b,race_male,戴夫,弗雷,black,asian,male,male,FALSE,TRUE,FALSE,cannot auto compute,cannot auto compute,cannot auto compute,TRUE,excluded,included,excluded,NA,NA,90
4913,8270.400000095369,lista,NA,survey-text,61,卢克正在提到麦克,<img src='gifs/MaleRace1a.gif' style='height:400px;''></img>,提到,正在提到,chinese,chinese,woman,asian,NA,MaleRace1a,race_male,弗雷,卢克,asian,black,male,male,FALSE,TRUE,FALSE,cannot auto compute,cannot auto compute,cannot auto compute,TRUE,excluded,included,excluded,NA,NA,44
4913,6205.099999904630,lista,NA,survey-text,69,戴夫正在说服麦克,<img src='gifs/MaleRace2a.gif' style='height:400px;''></img>,说服,正在说服,chinese,chinese,woman,asian,NA,MaleRace2a,race_male,弗雷,戴夫,asian,black,male,male,FALSE,TRUE,FALSE,cannot auto compute,cannot auto compute,cannot auto compute,TRUE,excluded,included,excluded,NA,NA,46
4913,8886.2000002861,lista,NA,survey-text,73,麦克正在看着戴夫,<img src='gifs/MaleRace2b.gif' style='height:400px;''></img>,看着,正在看着,chinese,chinese,woman,asian,NA,MaleRace2b,race_male,戴夫,弗雷,black,asian,male,male,TRUE,FALSE,FALSE,cannot auto compute,cannot auto compute,cannot auto compute,TRUE,excluded,included,excluded,NA,NA,47
4913,10150.4000000954,lista,NA,survey-text,85,凯斯正在接近露丝,<img src='gifs/FemaleRace1a.gif' style='height:400px;''></img>,跟随,正在跟随,chinese,chinese,woman,asian,NA,FemaleRace1a,race_female,露丝,凯特,black,asian,female,female,TRUE,FALSE,FALSE,cannot auto compute,cannot auto compute,cannot auto compute,FALSE,excluded,excluded,excluded,NA,NA,50
51361,30263.400000002235,listb,NA,survey-text,77,mike is employing jane,<img src='gifs/BlackGender4b.gif' style='height:400px;''></img>,employing,is employing,english,english,woman,asian,NA,BlackGender4b,gender_black,mike,kate,black,black,male,female,TRUE,FALSE,FALSE,cannot auto compute,cannot auto compute,cannot auto compute,TRUE,excluded,included,excluded,NA,NA,12
51361,30924.699999999255,listb,NA,survey-text,245,jane is mentioning mike,<img src='gifs/ChineseGender1b.gif' style='height:400px;''></img>,mention,is mentioning,english,english,woman,asian,NA,ChineseGender1b,gender_asian,jane,luke,asian,asian,female,male,TRUE,FALSE,FALSE,cannot auto compute,cannot auto compute,cannot auto compute,TRUE,excluded,included,excluded,NA,NA,45
51637,11002.5,listb,NA,survey-text,139,弗雷正在表扬贝斯,<img src='gifs/BlackGender1a.gif' style='height:400px;''></img>,介绍,正在介绍,chinese,chinese,woman,asian,NA,BlackGender1a,gender_black,贝斯,弗雷,black,black,female,male,TRUE,TRUE,TRUE,right_name,male,black,FALSE,included,excluded,excluded,1,0,77
52558,8907.000000000120,listb,NA,survey-text,195,mike is joining dave,<img src='gifs/MaleRace2b.gif' style='height:400px;''></img>,join,is joining,english,english,woman,asian,NA,MaleRace2b,race_male,mike,luke,black,asian,male,male,TRUE,FALSE,FALSE,cannot auto compute,cannot auto compute,cannot auto compute,TRUE,excluded,included,excluded,NA,NA,50
52558,6294.000000000120,listb,NA,survey-text,199,mike is joining dave,<img src='gifs/MaleRace2a.gif' style='height:400px;''></img>,join,is joining,english,english,woman,asian,NA,MaleRace2a,race_male,luke,mike,asian,black,male,male,FALSE,TRUE,FALSE,cannot auto compute,cannot auto compute,cannot auto compute,TRUE,excluded,included,excluded,NA,NA,51
53661,7051,lista,NA,survey-text,37,贝斯,<img src='gifs/FemaleRace4a.gif' style='height:400px;''></img>,接近,正在接近,chinese,chinese,woman,asian,NA,FemaleRace4a,race_female,霍普,贝斯,black,asian,female,female,FALSE,TRUE,FALSE,cannot auto compute,cannot auto compute,cannot auto compute,FALSE,excluded,excluded,excluded,NA,NA,74
53661,33337,lista,NA,survey-text,57,贝斯正在说到rose,<img src='gifs/FemaleRace1b.gif' style='height:400px;''></img>,提到,正在提到,chinese,chinese,woman,asian,NA,FemaleRace1b,race_female,凯特,露丝,asian,black,female,female,FALSE,FALSE,FALSE,cannot auto compute,cannot auto compute,cannot auto compute,FALSE,excluded,excluded,excluded,NA,NA,79
53661,14664,lista,NA,survey-text,61,贝斯正在跟随弗雷,<img src='gifs/ChineseGender1b.gif' style='height:400px;''></img>,跟随,正在跟随,chinese,chinese,woman,asian,NA,ChineseGender1b,gender_asian,凯特,弗雷,asian,asian,female,male,FALSE,TRUE,FALSE,cannot auto compute,cannot auto compute,cannot auto compute,TRUE,excluded,included,excluded,NA,NA,80
53661,12426,lista,NA,survey-text,65,凯特正在联系弗雷,<img src='gifs/ChineseGender2a.gif' style='height:400px;''></img>,联系,正在联系,chinese,chinese,woman,asian,NA,ChineseGender2a,gender_asian,弗雷,贝斯,asian,asian,male,female,TRUE,FALSE,FALSE,cannot auto compute,cannot auto compute,cannot auto compute,TRUE,excluded,included,excluded,NA,NA,81
53661,22216,lista,NA,survey-text,69,柔斯正在陪伴,<img src='gifs/BlackGender2b.gif' style='height:400px;''></img>,陪伴,正在陪伴,chinese,chinese,woman,asian,NA,BlackGender2b,gender_black,戴夫,露丝,black,black,male,female,FALSE,FALSE,FALSE,cannot auto compute,cannot auto compute,cannot auto compute,TRUE,excluded,included,excluded,NA,NA,82
53661,10186,lista,NA,survey-text,73,贝斯正在聘用霍普,<img src='gifs/FemaleRace2a.gif' style='height:400px;''></img>,聘用,正在聘用,chinese,chinese,woman,asian,NA,FemaleRace2a,race_female,霍普,凯特,black,asian,female,female,TRUE,FALSE,FALSE,cannot auto compute,cannot auto compute,cannot auto compute,TRUE,excluded,included,excluded,NA,NA,83
53661,11026,lista,NA,survey-text,77,弗雷正在陪伴凯特,<img src='gifs/ChineseGender2b.gif' style='height:400px;''></img>,陪伴,正在陪伴,chinese,chinese,woman,asian,NA,ChineseGender2b,gender_asian,贝斯,弗雷,asian,asian,female,male,FALSE,TRUE,FALSE,cannot auto compute,cannot auto compute,cannot auto compute,TRUE,excluded,included,excluded,NA,NA,84
53661,11727,lista,NA,survey-text,81,麦克正在触摸凯特,<img src='gifs/ChineseGender3b.gif' style='height:400px;''></img>,触摸,正在触摸,chinese,chinese,woman,asian,NA,ChineseGender3b,gender_asian,贝斯,麦克,asian,asian,female,male,FALSE,TRUE,FALSE,cannot auto compute,cannot auto compute,cannot auto compute,TRUE,excluded,included,excluded,NA,NA,85
53661,18608.000000000116,lista,NA,survey-text,85,麦克正在说服,<img src='gifs/MaleRace4a.gif' style='height:400px;''></img>,说服,正在说服,chinese,chinese,woman,asian,NA,MaleRace4a,race_male,麦克,戴夫,asian,black,male,male,TRUE,FALSE,FALSE,cannot auto compute,cannot auto compute,cannot auto compute,TRUE,excluded,included,excluded,NA,NA,86
53661,11887,lista,NA,survey-text,89,霍普正在聘用,<img src='gifs/BlackGender3a.gif' style='height:400px;''></img>,聘用,正在聘用,chinese,chinese,woman,asian,NA,BlackGender3a,gender_black,霍普,卢克,black,black,female,male,TRUE,FALSE,FALSE,cannot auto compute,cannot auto compute,cannot auto compute,TRUE,excluded,included,excluded,NA,NA,87
53661,15900,lista,NA,survey-text,93,卢克正在答应霍普,<img src='gifs/BlackGender1a.gif' style='height:400px;''></img>,答应,正在答应,chinese,chinese,woman,asian,NA,BlackGender1a,gender_black,露丝,卢克,black,black,female,male,FALSE,TRUE,FALSE,cannot auto compute,cannot auto compute,cannot auto compute,TRUE,excluded,included,excluded,NA,NA,88
53661,15278,lista,NA,survey-text,97,贝斯正在表扬rose,<img src='gifs/FemaleRace1b.gif' style='height:400px;''></img>,表扬,正在表扬,chinese,chinese,woman,asian,NA,FemaleRace1b,race_female,凯特,露丝,asian,black,female,female,FALSE,FALSE,FALSE,cannot auto compute,cannot auto compute,cannot auto compute,TRUE,excluded,included,excluded,NA,NA,89
53661,7228,lista,NA,survey-text,155,麦克正在提到凯特,<img src='gifs/ChineseGender1b.gif' style='height:400px;''></img>,提到,正在提到,chinese,chinese,woman,asian,NA,ChineseGender1b,gender_asian,凯特,弗雷,asian,asian,female,male,TRUE,FALSE,FALSE,cannot auto compute,cannot auto compute,cannot auto compute,TRUE,excluded,included,excluded,NA,NA,4
53661,6637,lista,NA,survey-text,159,麦克正在加入凯特,<img src='gifs/ChineseGender1a.gif' style='height:400px;''></img>,加入,正在加入,chinese,chinese,woman,asian,NA,ChineseGender1a,gender_asian,弗雷,凯特,asian,asian,male,female,FALSE,TRUE,FALSE,cannot auto compute,cannot auto compute,cannot auto compute,TRUE,excluded,included,excluded,NA,NA,5
53661,9146.000000000116,lista,NA,survey-text,187,麦克正在介绍戴夫,<img src='gifs/MaleRace2b.gif' style='height:400px;''></img>,介绍,正在介绍,chinese,chinese,woman,asian,NA,MaleRace2b,race_male,戴夫,弗雷,black,asian,male,male,TRUE,FALSE,FALSE,cannot auto compute,cannot auto compute,cannot auto compute,TRUE,excluded,included,excluded,NA,NA,12
5532,14338.0000000002,lista,NA,survey-text,207,贝斯正在提到麦克,<img src='gifs/FemaleRace4a.gif' style='height:400px;''></img>,走向,正在走向,chinese,chinese,man,asian,NA,FemaleRace4a,race_female,霍普,贝斯,black,asian,female,female,FALSE,TRUE,FALSE,cannot auto compute,cannot auto compute,cannot auto compute,FALSE,excluded,excluded,excluded,NA,NA,71
5532,10629,lista,NA,survey-text,237,戴夫正在答应霍普,<img src='gifs/BlackGender2a.gif' style='height:400px;''></img>,答应,正在答应,chinese,chinese,man,asian,NA,BlackGender2a,gender_black,露丝,戴夫,black,black,female,male,FALSE,TRUE,FALSE,cannot auto compute,cannot auto compute,cannot auto compute,TRUE,excluded,included,excluded,NA,NA,74
5532,12334.0000000005,lista,NA,survey-text,241,麦克正在表扬露丝,<img src='gifs/ChineseGender4b.gif' style='height:400px;''></img>,表扬,正在表扬,chinese,chinese,man,asian,NA,ChineseGender4b,gender_asian,凯特,麦克,asian,asian,female,male,FALSE,TRUE,FALSE,cannot auto compute,cannot auto compute,cannot auto compute,TRUE,excluded,included,excluded,NA,NA,75
5532,16480,lista,NA,survey-text,249,卢克正在加入露丝,<img src='gifs/BlackGender3b.gif' style='height:400px;''></img>,陪伴,正在陪伴,chinese,chinese,man,asian,NA,BlackGender3b,gender_black,卢克,霍普,black,black,male,female,TRUE,FALSE,FALSE,cannot auto compute,cannot auto compute,cannot auto compute,FALSE,excluded,excluded,excluded,NA,NA,77
