subject,rt,list,button_pressed,trial_type,trial_index,responses,image,verb,phrase,condition,ppt_language,ppt_gender,ppt_race,test_part,gif,picture_condition,left_name,right_name,left_race,right_race,left_gender,right_gender,left_figure_mentioned,right_figure_mentioned,both_figures_mentioned,first_figure,first_figure_gender,first_figure_race,syntax_correct,excluded_trial_mention,excluded_trial_syntax,excluded_trial,man_first,asian_first,trial_number,rt.mean,rt.sd,rt.se,ppt_gender_code,LikeMeGender,OverallLikeMe
489,16313,lista,NA,survey-text,33,戴夫正在联系霍普,<img src='gifs/BlackGender4b.gif' style='height:400px;''></img>,联系,正在联系,chinese,chinese,man,asian,NA,BlackGender4b,gender_black,戴夫,霍普,black,black,male,female,TRUE,TRUE,TRUE,left_name,male,black,TRUE,included,included,included,1,0,73,12864.191489361703,11930.07769871249,1740.180682091919,male,1,1
489,44800.00000000006,lista,NA,survey-text,41,弗雷正在加入贝斯的对话,<img src='gifs/ChineseGender2b.gif' style='height:400px;''></img>,加入,正在加入,chinese,chinese,man,asian,NA,ChineseGender2b,gender_asian,贝斯,弗雷,asian,asian,female,male,TRUE,TRUE,TRUE,right_name,male,asian,TRUE,included,included,included,1,1,75,12864.191489361703,11930.07769871249,1740.180682091919,male,1,1
489,15923,lista,NA,survey-text,53,霍普正在接近凯特,<img src='gifs/FemaleRace2b.gif' style='height:400px;''></img>,接近,正在接近,chinese,chinese,man,asian,NA,FemaleRace2b,race_female,凯特,霍普,asian,black,female,female,TRUE,TRUE,TRUE,right_name,female,black,TRUE,included,included,included,0,0,78,12864.191489361703,11930.07769871249,1740.180682091919,male,0,0
489,16854,lista,NA,survey-text,61,弗雷正在答应贝斯的请求,<img src='gifs/ChineseGender2a.gif' style='height:400px;''></img>,答应,正在答应,chinese,chinese,man,asian,NA,ChineseGender2a,gender_asian,弗雷,贝斯,asian,asian,male,female,TRUE,TRUE,TRUE,left_name,male,asian,TRUE,included,included,included,1,1,80,12864.191489361703,11930.07769871249,1740.180682091919,male,1,1
489,8786,lista,NA,survey-text,65,露丝正在表扬凯特,<img src='gifs/FemaleRace1a.gif' style='height:400px;''></img>,表扬,正在表扬,chinese,chinese,man,asian,NA,FemaleRace1a,race_female,露丝,凯特,black,asian,female,female,TRUE,TRUE,TRUE,left_name,female,black,TRUE,included,included,included,0,0,81,12864.191489361703,11930.07769871249,1740.180682091919,male,0,0
489,13802,lista,NA,survey-text,69,弗雷正在跟随贝斯,<img src='gifs/ChineseGender2b.gif' style='height:400px;''></img>,跟随,正在跟随,chinese,chinese,man,asian,NA,ChineseGender2b,gender_asian,贝斯,弗雷,asian,asian,female,male,TRUE,TRUE,TRUE,right_name,male,asian,TRUE,included,included,included,1,1,82,12864.191489361703,11930.07769871249,1740.180682091919,male,1,1
489,15995.999999999884,lista,NA,survey-text,77,露丝正在加入凯特的谈话,<img src='gifs/FemaleRace1b.gif' style='height:400px;''></img>,加入,正在加入,chinese,chinese,man,asian,NA,FemaleRace1b,race_female,凯特,露丝,asian,black,female,female,TRUE,TRUE,TRUE,right_name,female,black,TRUE,included,included,included,0,0,84,12864.191489361703,11930.07769871249,1740.180682091919,male,0,0
489,17063,lista,NA,survey-text,85,贝斯正在联系麦克,<img src='gifs/ChineseGender3a.gif' style='height:400px;''></img>,联系,正在联系,chinese,chinese,man,asian,NA,ChineseGender3a,gender_asian,麦克,贝斯,asian,asian,male,female,TRUE,TRUE,TRUE,right_name,female,asian,TRUE,included,included,included,0,1,86,12864.191489361703,11930.07769871249,1740.180682091919,male,0,0
489,21384,lista,NA,survey-text,89,贝斯正在面向霍普,<img src='gifs/FemaleRace4a.gif' style='height:400px;''></img>,面向,正在面向,chinese,chinese,man,asian,NA,FemaleRace4a,race_female,霍普,贝斯,black,asian,female,female,TRUE,TRUE,TRUE,right_name,female,asian,TRUE,included,included,included,0,1,87,12864.191489361703,11930.07769871249,1740.180682091919,male,0,1
489,10659,lista,NA,survey-text,93,弗雷正在说服卢克,<img src='gifs/MaleRace1b.gif' style='height:400px;''></img>,说服,正在说服,chinese,chinese,man,asian,NA,MaleRace1b,race_male,卢克,弗雷,black,asian,male,male,TRUE,TRUE,TRUE,right_name,male,asian,TRUE,included,included,included,1,1,88,12864.191489361703,11930.07769871249,1740.180682091919,male,1,1
489,9392.000000000116,lista,NA,survey-text,97,霍普正在触摸卢克,<img src='gifs/BlackGender3a.gif' style='height:400px;''></img>,触摸,正在触摸,chinese,chinese,man,asian,NA,BlackGender3a,gender_black,霍普,卢克,black,black,female,male,TRUE,TRUE,TRUE,left_name,female,black,TRUE,included,included,included,0,0,89,12864.191489361703,11930.07769871249,1740.180682091919,male,0,0
489,20279.999999999767,lista,NA,survey-text,123,贝斯正在提到霍普,<img src='gifs/FemaleRace4a.gif' style='height:400px;''></img>,提到,正在提到,chinese,chinese,man,asian,NA,FemaleRace4a,race_female,霍普,贝斯,black,asian,female,female,TRUE,TRUE,TRUE,right_name,female,asian,TRUE,included,included,included,0,1,1,12864.191489361703,11930.07769871249,1740.180682091919,male,0,1
489,14334,lista,NA,survey-text,127,戴夫正在答应麦克,<img src='gifs/MaleRace4a.gif' style='height:400px;''></img>,答应,正在答应,chinese,chinese,man,asian,NA,MaleRace4a,race_male,麦克,戴夫,asian,black,male,male,TRUE,TRUE,TRUE,right_name,male,black,TRUE,included,included,included,1,0,2,12864.191489361703,11930.07769871249,1740.180682091919,male,1,0
489,23152.999999999767,lista,NA,survey-text,131,霍普正在面向卢克,<img src='gifs/BlackGender3a.gif' style='height:400px;''></img>,面向,正在面向,chinese,chinese,man,asian,NA,BlackGender3a,gender_black,霍普,卢克,black,black,female,male,TRUE,TRUE,TRUE,left_name,female,black,TRUE,included,included,included,0,0,3,12864.191489361703,11930.07769871249,1740.180682091919,male,0,0
489,13229,lista,NA,survey-text,139,露丝正在陪伴贝斯,<img src='gifs/FemaleRace3b.gif' style='height:400px;''></img>,陪伴,正在陪伴,chinese,chinese,man,asian,NA,FemaleRace3b,race_female,贝斯,露丝,asian,black,female,female,TRUE,TRUE,TRUE,right_name,female,black,TRUE,included,included,included,0,0,5,12864.191489361703,11930.07769871249,1740.180682091919,male,0,0
489,5706,lista,NA,survey-text,143,卢克正在跟随麦克,<img src='gifs/MaleRace3b.gif' style='height:400px;''></img>,跟随,正在跟随,chinese,chinese,man,asian,NA,MaleRace3b,race_male,卢克,麦克,black,asian,male,male,TRUE,TRUE,TRUE,left_name,male,black,TRUE,included,included,included,1,0,6,12864.191489361703,11930.07769871249,1740.180682091919,male,1,0
489,15280,lista,NA,survey-text,147,弗雷正在说服凯特,<img src='gifs/ChineseGender1a.gif' style='height:400px;''></img>,说服,正在说服,chinese,chinese,man,asian,NA,ChineseGender1a,gender_asian,弗雷,凯特,asian,asian,male,female,TRUE,TRUE,TRUE,left_name,male,asian,TRUE,included,included,included,1,1,7,12864.191489361703,11930.07769871249,1740.180682091919,male,1,1
489,6946,lista,NA,survey-text,151,贝斯正在介绍霍普,<img src='gifs/FemaleRace4b.gif' style='height:400px;''></img>,介绍,正在介绍,chinese,chinese,man,asian,NA,FemaleRace4b,race_female,贝斯,霍普,asian,black,female,female,TRUE,TRUE,TRUE,left_name,female,asian,TRUE,included,included,included,0,1,8,12864.191489361703,11930.07769871249,1740.180682091919,male,0,1
489,5512.000000000233,lista,NA,survey-text,155,弗雷正在看着凯特,<img src='gifs/ChineseGender1b.gif' style='height:400px;''></img>,看着,正在看着,chinese,chinese,man,asian,NA,ChineseGender1b,gender_asian,凯特,弗雷,asian,asian,female,male,TRUE,TRUE,TRUE,right_name,male,asian,TRUE,included,included,included,1,1,9,12864.191489361703,11930.07769871249,1740.180682091919,male,1,1
489,13868,lista,NA,survey-text,159,露丝正在走向凯特,<img src='gifs/FemaleRace1a.gif' style='height:400px;''></img>,走向,正在走向,chinese,chinese,man,asian,NA,FemaleRace1a,race_female,露丝,凯特,black,asian,female,female,TRUE,TRUE,TRUE,left_name,female,black,TRUE,included,included,included,0,0,10,12864.191489361703,11930.07769871249,1740.180682091919,male,0,0
489,9071,lista,NA,survey-text,163,戴夫正在聆听霍普,<img src='gifs/BlackGender4a.gif' style='height:400px;''></img>,聆听,正在聆听,chinese,chinese,man,asian,NA,BlackGender4a,gender_black,霍普,戴夫,black,black,female,male,TRUE,TRUE,TRUE,right_name,male,black,TRUE,included,included,included,1,0,11,12864.191489361703,11930.07769871249,1740.180682091919,male,1,1
489,9626,lista,NA,survey-text,167,露丝正在面向贝斯,<img src='gifs/FemaleRace3a.gif' style='height:400px;''></img>,面向,正在面向,chinese,chinese,man,asian,NA,FemaleRace3a,race_female,露丝,贝斯,black,asian,female,female,TRUE,TRUE,TRUE,left_name,female,black,TRUE,included,included,included,0,0,12,12864.191489361703,11930.07769871249,1740.180682091919,male,0,0
489,4570.999999999767,lista,NA,survey-text,171,弗雷正在触摸卢克,<img src='gifs/MaleRace1b.gif' style='height:400px;''></img>,触摸,正在触摸,chinese,chinese,man,asian,NA,MaleRace1b,race_male,卢克,弗雷,black,asian,male,male,TRUE,TRUE,TRUE,right_name,male,asian,TRUE,included,included,included,1,1,13,12864.191489361703,11930.07769871249,1740.180682091919,male,1,1
489,12529.999999999767,lista,NA,survey-text,175,凯特正在陪伴麦克,<img src='gifs/ChineseGender4a.gif' style='height:400px;''></img>,陪伴,正在陪伴,chinese,chinese,man,asian,NA,ChineseGender4a,gender_asian,麦克,凯特,asian,asian,male,female,TRUE,TRUE,TRUE,right_name,female,asian,TRUE,included,included,included,0,1,14,12864.191489361703,11930.07769871249,1740.180682091919,male,0,0
489,19686.000000000233,lista,NA,survey-text,179,凯特正在加入霍普,<img src='gifs/FemaleRace2a.gif' style='height:400px;''></img>,加入,正在加入,chinese,chinese,man,asian,NA,FemaleRace2a,race_female,霍普,凯特,black,asian,female,female,TRUE,TRUE,TRUE,right_name,female,asian,TRUE,included,included,included,0,1,15,12864.191489361703,11930.07769871249,1740.180682091919,male,0,1
489,4873,lista,NA,survey-text,183,卢克正在触摸麦克,<img src='gifs/MaleRace3b.gif' style='height:400px;''></img>,触摸,正在触摸,chinese,chinese,man,asian,NA,MaleRace3b,race_male,卢克,麦克,black,asian,male,male,TRUE,TRUE,TRUE,left_name,male,black,TRUE,included,included,included,1,0,16,12864.191489361703,11930.07769871249,1740.180682091919,male,1,0
489,7130,lista,NA,survey-text,187,露丝正在接近卢克,<img src='gifs/BlackGender1b.gif' style='height:400px;''></img>,接近,正在接近,chinese,chinese,man,asian,NA,BlackGender1b,gender_black,卢克,露丝,black,black,male,female,TRUE,TRUE,TRUE,right_name,female,black,TRUE,included,included,included,0,0,17,12864.191489361703,11930.07769871249,1740.180682091919,male,0,0
489,5957,lista,NA,survey-text,191,戴夫正在触摸露丝,<img src='gifs/BlackGender2b.gif' style='height:400px;''></img>,触摸,正在触摸,chinese,chinese,man,asian,NA,BlackGender2b,gender_black,戴夫,露丝,black,black,male,female,TRUE,TRUE,TRUE,left_name,male,black,TRUE,included,included,included,1,0,18,12864.191489361703,11930.07769871249,1740.180682091919,male,1,1
489,5249.000000000233,lista,NA,survey-text,213,戴夫正在看着露丝,<img src='gifs/BlackGender2a.gif' style='height:400px;''></img>,看着,正在看着,chinese,chinese,man,asian,NA,BlackGender2a,gender_black,露丝,戴夫,black,black,female,male,TRUE,TRUE,TRUE,right_name,male,black,TRUE,included,included,included,1,0,19,12864.191489361703,11930.07769871249,1740.180682091919,male,1,1
489,6458,lista,NA,survey-text,217,弗雷正在提到戴夫,<img src='gifs/MaleRace2a.gif' style='height:400px;''></img>,提到,正在提到,chinese,chinese,man,asian,NA,MaleRace2a,race_male,弗雷,戴夫,asian,black,male,male,TRUE,TRUE,TRUE,left_name,male,asian,TRUE,included,included,included,1,1,20,12864.191489361703,11930.07769871249,1740.180682091919,male,1,1
489,6238,lista,NA,survey-text,221,霍普正在看着卢克,<img src='gifs/BlackGender3b.gif' style='height:400px;''></img>,看着,正在看着,chinese,chinese,man,asian,NA,BlackGender3b,gender_black,卢克,霍普,black,black,male,female,TRUE,TRUE,TRUE,right_name,female,black,TRUE,included,included,included,0,0,21,12864.191489361703,11930.07769871249,1740.180682091919,male,0,0
489,6187,lista,NA,survey-text,225,戴夫正在走向麦克,<img src='gifs/MaleRace4b.gif' style='height:400px;''></img>,走向,正在走向,chinese,chinese,man,asian,NA,MaleRace4b,race_male,戴夫,麦克,black,asian,male,male,TRUE,TRUE,TRUE,left_name,male,black,TRUE,included,included,included,1,0,22,12864.191489361703,11930.07769871249,1740.180682091919,male,1,0
489,6828,lista,NA,survey-text,229,贝斯正在走向霍普,<img src='gifs/FemaleRace4b.gif' style='height:400px;''></img>,走向,正在走向,chinese,chinese,man,asian,NA,FemaleRace4b,race_female,贝斯,霍普,asian,black,female,female,TRUE,TRUE,TRUE,left_name,female,asian,TRUE,included,included,included,0,1,23,12864.191489361703,11930.07769871249,1740.180682091919,male,0,1
489,5738,lista,NA,survey-text,233,戴夫正在陪伴霍普,<img src='gifs/BlackGender4b.gif' style='height:400px;''></img>,陪伴,正在陪伴,chinese,chinese,man,asian,NA,BlackGender4b,gender_black,戴夫,霍普,black,black,male,female,TRUE,TRUE,TRUE,left_name,male,black,TRUE,included,included,included,1,0,24,12864.191489361703,11930.07769871249,1740.180682091919,male,1,1
489,6470,lista,NA,survey-text,237,凯特正在介绍麦克,<img src='gifs/ChineseGender4a.gif' style='height:400px;''></img>,介绍,正在介绍,chinese,chinese,man,asian,NA,ChineseGender4a,gender_asian,麦克,凯特,asian,asian,male,female,TRUE,TRUE,TRUE,right_name,female,asian,TRUE,included,included,included,0,1,25,12864.191489361703,11930.07769871249,1740.180682091919,male,0,0
489,10106,lista,NA,survey-text,241,戴夫正在聘用露丝,<img src='gifs/BlackGender2b.gif' style='height:400px;''></img>,聘用,正在聘用,chinese,chinese,man,asian,NA,BlackGender2b,gender_black,戴夫,露丝,black,black,male,female,TRUE,TRUE,TRUE,left_name,male,black,TRUE,included,included,included,1,0,26,12864.191489361703,11930.07769871249,1740.180682091919,male,1,1
489,7888,lista,NA,survey-text,245,露丝正在表扬卢克,<img src='gifs/BlackGender1a.gif' style='height:400px;''></img>,表扬,正在表扬,chinese,chinese,man,asian,NA,BlackGender1a,gender_black,露丝,卢克,black,black,female,male,TRUE,TRUE,TRUE,left_name,female,black,TRUE,included,included,included,0,0,27,12864.191489361703,11930.07769871249,1740.180682091919,male,0,0
489,6034.000000000233,lista,NA,survey-text,249,贝斯正在聘用麦克,<img src='gifs/ChineseGender3a.gif' style='height:400px;''></img>,聘用,正在聘用,chinese,chinese,man,asian,NA,ChineseGender3a,gender_asian,麦克,贝斯,asian,asian,male,female,TRUE,TRUE,TRUE,right_name,female,asian,TRUE,included,included,included,0,1,28,12864.191489361703,11930.07769871249,1740.180682091919,male,0,0
489,14727,lista,NA,survey-text,253,戴夫正在答应麦克,<img src='gifs/MaleRace4b.gif' style='height:400px;''></img>,答应,正在答应,chinese,chinese,man,asian,NA,MaleRace4b,race_male,戴夫,麦克,black,asian,male,male,TRUE,TRUE,TRUE,left_name,male,black,TRUE,included,included,included,1,0,29,12864.191489361703,11930.07769871249,1740.180682091919,male,1,0
489,28789,lista,NA,survey-text,257,弗雷正在走向贝斯,<img src='gifs/ChineseGender2a.gif' style='height:400px;''></img>,走向,正在走向,chinese,chinese,man,asian,NA,ChineseGender2a,gender_asian,弗雷,贝斯,asian,asian,male,female,TRUE,TRUE,TRUE,left_name,male,asian,TRUE,included,included,included,1,1,30,12864.191489361703,11930.07769871249,1740.180682091919,male,1,1
489,5932,lista,NA,survey-text,261,露丝正在跟随贝斯,<img src='gifs/FemaleRace3b.gif' style='height:400px;''></img>,跟随,正在跟随,chinese,chinese,man,asian,NA,FemaleRace3b,race_female,贝斯,露丝,asian,black,female,female,TRUE,TRUE,TRUE,right_name,female,black,TRUE,included,included,included,0,0,31,12864.191489361703,11930.07769871249,1740.180682091919,male,0,0
489,6450,lista,NA,survey-text,265,露丝正在表扬卢克,<img src='gifs/BlackGender1a.gif' style='height:400px;''></img>,表扬,正在表扬,chinese,chinese,man,asian,NA,BlackGender1a,gender_black,露丝,卢克,black,black,female,male,TRUE,TRUE,TRUE,left_name,female,black,TRUE,included,included,included,0,0,32,12864.191489361703,11930.07769871249,1740.180682091919,male,0,0
489,7505.999999999767,lista,NA,survey-text,269,卢克正在表扬麦克,<img src='gifs/MaleRace3a.gif' style='height:400px;''></img>,表扬,正在表扬,chinese,chinese,man,asian,NA,MaleRace3a,race_male,麦克,卢克,asian,black,male,male,TRUE,TRUE,TRUE,right_name,male,black,TRUE,included,included,included,1,0,33,12864.191489361703,11930.07769871249,1740.180682091919,male,1,0
489,6593,lista,NA,survey-text,273,贝斯正在聘用麦克,<img src='gifs/ChineseGender3b.gif' style='height:400px;''></img>,聘用,正在聘用,chinese,chinese,man,asian,NA,ChineseGender3b,gender_asian,贝斯,麦克,asian,asian,female,male,TRUE,TRUE,TRUE,left_name,female,asian,TRUE,included,included,included,0,1,34,12864.191489361703,11930.07769871249,1740.180682091919,male,0,0
489,4211,lista,NA,survey-text,277,露丝正在介绍凯特,<img src='gifs/FemaleRace1b.gif' style='height:400px;''></img>,介绍,正在介绍,chinese,chinese,man,asian,NA,FemaleRace1b,race_female,凯特,露丝,asian,black,female,female,TRUE,TRUE,TRUE,right_name,female,black,TRUE,included,included,included,0,0,35,12864.191489361703,11930.07769871249,1740.180682091919,male,0,0
489,5768.000000000233,lista,NA,survey-text,281,凯特正在说服麦克,<img src='gifs/ChineseGender4b.gif' style='height:400px;''></img>,说服,正在说服,chinese,chinese,man,asian,NA,ChineseGender4b,gender_asian,凯特,麦克,asian,asian,female,male,TRUE,TRUE,TRUE,left_name,female,asian,TRUE,included,included,included,0,1,36,12864.191489361703,11930.07769871249,1740.180682091919,male,0,0
600,14235,lista,NA,survey-text,144,mike is contacting dave,<img src='gifs/MaleRace4b.gif' style='height:400px;''></img>,contacting,is contacting,english,english,man,asian,NA,MaleRace4b,race_male,dave,mike,black,asian,male,male,TRUE,TRUE,TRUE,right_name,male,asian,TRUE,included,included,included,1,1,73,9629.451612903233,2956.0265203897193,530.918035993752,male,1,1
600,8801,lista,NA,survey-text,148,kate is joining fred,<img src='gifs/ChineseGender1b.gif' style='height:400px;''></img>,join,is joining,english,english,man,asian,NA,ChineseGender1b,gender_asian,kate,fred,asian,asian,female,male,TRUE,TRUE,TRUE,left_name,female,asian,TRUE,included,included,included,0,1,74,9629.451612903233,2956.0265203897193,530.918035993752,male,0,0
600,7847,lista,NA,survey-text,152,kate is approaching fred,<img src='gifs/ChineseGender1a.gif' style='height:400px;''></img>,approaching,is approaching,english,english,man,asian,NA,ChineseGender1a,gender_asian,fred,kate,asian,asian,male,female,TRUE,TRUE,TRUE,right_name,female,asian,TRUE,included,included,included,0,1,75,9629.451612903233,2956.0265203897193,530.918035993752,male,0,0
600,10674.000000000116,lista,NA,survey-text,156,dave is walking towards ruth,<img src='gifs/BlackGender2b.gif' style='height:400px;''></img>,walking towards,is walking towards,english,english,man,asian,NA,BlackGender2b,gender_black,dave,ruth,black,black,male,female,TRUE,TRUE,TRUE,left_name,male,black,TRUE,included,included,included,1,0,76,9629.451612903233,2956.0265203897193,530.918035993752,male,1,1
600,13376,lista,NA,survey-text,160,beth is mentioning ruth,<img src='gifs/FemaleRace3b.gif' style='height:400px;''></img>,mention,is mentioning,english,english,man,asian,NA,FemaleRace3b,race_female,beth,ruth,asian,black,female,female,TRUE,TRUE,TRUE,left_name,female,asian,TRUE,included,included,included,0,1,77,9629.451612903233,2956.0265203897193,530.918035993752,male,0,1
600,17121,lista,NA,survey-text,168,mike is touching luke,<img src='gifs/MaleRace3b.gif' style='height:400px;''></img>,touching,is touching,english,english,man,asian,NA,MaleRace3b,race_male,luke,mike,black,asian,male,male,TRUE,TRUE,TRUE,right_name,male,asian,TRUE,included,included,included,1,1,79,9629.451612903233,2956.0265203897193,530.918035993752,male,1,1
600,8942,lista,NA,survey-text,172,beth is praising jane,<img src='gifs/FemaleRace4a.gif' style='height:400px;''></img>,praising,is praising,english,english,man,asian,NA,FemaleRace4a,race_female,jane,beth,black,asian,female,female,TRUE,TRUE,TRUE,right_name,female,asian,TRUE,included,included,included,0,1,80,9629.451612903233,2956.0265203897193,530.918035993752,male,0,1
600,7589,lista,NA,survey-text,176,jane is convincing kate,<img src='gifs/FemaleRace2a.gif' style='height:400px;''></img>,convincing,is convincing,english,english,man,asian,NA,FemaleRace2a,race_female,jane,kate,black,asian,female,female,TRUE,TRUE,TRUE,left_name,female,black,TRUE,included,included,included,0,0,81,9629.451612903233,2956.0265203897193,530.918035993752,male,0,0
600,8184,lista,NA,survey-text,180,jane is employing kate,<img src='gifs/FemaleRace2b.gif' style='height:400px;''></img>,employing,is employing,english,english,man,asian,NA,FemaleRace2b,race_female,kate,jane,asian,black,female,female,TRUE,TRUE,TRUE,right_name,female,black,TRUE,included,included,included,0,0,82,9629.451612903233,2956.0265203897193,530.918035993752,male,0,0
600,5951,lista,NA,survey-text,188,fred is approaching dave,<img src='gifs/MaleRace2a.gif' style='height:400px;''></img>,approaching,is approaching,english,english,man,asian,NA,MaleRace2a,race_male,fred,dave,asian,black,male,male,TRUE,TRUE,TRUE,left_name,male,asian,TRUE,included,included,included,1,1,84,9629.451612903233,2956.0265203897193,530.918035993752,male,1,1
600,11109,lista,NA,survey-text,192,fred is joining beth,<img src='gifs/ChineseGender2a.gif' style='height:400px;''></img>,join,is joining,english,english,man,asian,NA,ChineseGender2a,gender_asian,fred,beth,asian,asian,male,female,TRUE,TRUE,TRUE,left_name,male,asian,TRUE,included,included,included,1,1,85,9629.451612903233,2956.0265203897193,530.918035993752,male,1,1
600,9742,lista,NA,survey-text,196,ruth is employing dave,<img src='gifs/BlackGender2b.gif' style='height:400px;''></img>,employing,is employing,english,english,man,asian,NA,BlackGender2b,gender_black,dave,ruth,black,black,male,female,TRUE,TRUE,TRUE,right_name,female,black,TRUE,included,included,included,0,0,86,9629.451612903233,2956.0265203897193,530.918035993752,male,0,0
600,9167.000000000116,lista,NA,survey-text,200,mike is mentioning dave,<img src='gifs/MaleRace4a.gif' style='height:400px;''></img>,mention,is mentioning,english,english,man,asian,NA,MaleRace4a,race_male,mike,dave,asian,black,male,male,TRUE,TRUE,TRUE,left_name,male,asian,TRUE,included,included,included,1,1,87,9629.451612903233,2956.0265203897193,530.918035993752,male,1,1
600,6172,lista,NA,survey-text,204,kate is listening to mike,<img src='gifs/ChineseGender4a.gif' style='height:400px;''></img>,listening to,is listening to,english,english,man,asian,NA,ChineseGender4a,gender_asian,mike,kate,asian,asian,male,female,TRUE,TRUE,TRUE,right_name,female,asian,TRUE,included,included,included,0,1,88,9629.451612903233,2956.0265203897193,530.918035993752,male,0,0
600,11202,lista,NA,survey-text,208,dave is accompanying ruth,<img src='gifs/BlackGender2a.gif' style='height:400px;''></img>,accompanying,is accompanying,english,english,man,asian,NA,BlackGender2a,gender_black,ruth,dave,black,black,female,male,TRUE,TRUE,TRUE,right_name,male,black,TRUE,included,included,included,1,0,89,9629.451612903233,2956.0265203897193,530.918035993752,male,1,1
600,12201.000000000116,lista,NA,survey-text,212,kate is listening to ruth,<img src='gifs/FemaleRace1a.gif' style='height:400px;''></img>,listening to,is listening to,english,english,man,asian,NA,FemaleRace1a,race_female,ruth,kate,black,asian,female,female,TRUE,TRUE,TRUE,right_name,female,asian,TRUE,included,included,included,0,1,90,9629.451612903233,2956.0265203897193,530.918035993752,male,0,1
600,10801,lista,NA,survey-text,234,luke is approaching mike,<img src='gifs/MaleRace3a.gif' style='height:400px;''></img>,approaching,is approaching,english,english,man,asian,NA,MaleRace3a,race_male,mike,luke,asian,black,male,male,TRUE,TRUE,TRUE,right_name,male,black,TRUE,included,included,included,1,0,1,9629.451612903233,2956.0265203897193,530.918035993752,male,1,0
600,9873.999999999884,lista,NA,survey-text,238,luke is accompanying jane,<img src='gifs/BlackGender3b.gif' style='height:400px;''></img>,accompanying,is accompanying,english,english,man,asian,NA,BlackGender3b,gender_black,luke,jane,black,black,male,female,TRUE,TRUE,TRUE,left_name,male,black,TRUE,included,included,included,1,0,2,9629.451612903233,2956.0265203897193,530.918035993752,male,1,1
600,11928,lista,NA,survey-text,246,ruth is approaching kate,<img src='gifs/FemaleRace1b.gif' style='height:400px;''></img>,approaching,is approaching,english,english,man,asian,NA,FemaleRace1b,race_female,kate,ruth,asian,black,female,female,TRUE,TRUE,TRUE,right_name,female,black,TRUE,included,included,included,0,0,4,9629.451612903233,2956.0265203897193,530.918035993752,male,0,0
600,8933,lista,NA,survey-text,250,ruth is joining luke,<img src='gifs/BlackGender1b.gif' style='height:400px;''></img>,join,is joining,english,english,man,asian,NA,BlackGender1b,gender_black,luke,ruth,black,black,male,female,TRUE,TRUE,TRUE,right_name,female,black,TRUE,included,included,included,0,0,5,9629.451612903233,2956.0265203897193,530.918035993752,male,0,0
600,5947,lista,NA,survey-text,258,jane is following kate,<img src='gifs/FemaleRace2b.gif' style='height:400px;''></img>,following,is following,english,english,man,asian,NA,FemaleRace2b,race_female,kate,jane,asian,black,female,female,TRUE,TRUE,TRUE,right_name,female,black,TRUE,included,included,included,0,0,7,9629.451612903233,2956.0265203897193,530.918035993752,male,0,0
600,8726,lista,NA,survey-text,262,ruth is introducing beth,<img src='gifs/FemaleRace3b.gif' style='height:400px;''></img>,introducing,is introducing,english,english,man,asian,NA,FemaleRace3b,race_female,beth,ruth,asian,black,female,female,TRUE,TRUE,TRUE,right_name,female,black,TRUE,included,included,included,0,0,8,9629.451612903233,2956.0265203897193,530.918035993752,male,0,0
600,5730,lista,NA,survey-text,266,mike is listening to beth,<img src='gifs/ChineseGender3b.gif' style='height:400px;''></img>,listening to,is listening to,english,english,man,asian,NA,ChineseGender3b,gender_asian,beth,mike,asian,asian,female,male,TRUE,TRUE,TRUE,right_name,male,asian,TRUE,included,included,included,1,1,9,9629.451612903233,2956.0265203897193,530.918035993752,male,1,1
600,16404,lista,NA,survey-text,270,beth is promising jane,<img src='gifs/FemaleRace4b.gif' style='height:400px;''></img>,promising,is promising,english,english,man,asian,NA,FemaleRace4b,race_female,beth,jane,asian,black,female,female,TRUE,TRUE,TRUE,left_name,female,asian,TRUE,included,included,included,0,1,10,9629.451612903233,2956.0265203897193,530.918035993752,male,0,1
600,7463,lista,NA,survey-text,278,kate is promising jane,<img src='gifs/FemaleRace2a.gif' style='height:400px;''></img>,promising,is promising,english,english,man,asian,NA,FemaleRace2a,race_female,jane,kate,black,asian,female,female,TRUE,TRUE,TRUE,right_name,female,asian,TRUE,included,included,included,0,1,12,9629.451612903233,2956.0265203897193,530.918035993752,male,0,1
600,7963.000000000233,lista,NA,survey-text,282,mike is looking at luke,<img src='gifs/MaleRace3b.gif' style='height:400px;''></img>,looking at,is looking at,english,english,man,asian,NA,MaleRace3b,race_male,luke,mike,black,asian,male,male,TRUE,TRUE,TRUE,right_name,male,asian,TRUE,included,included,included,1,1,13,9629.451612903233,2956.0265203897193,530.918035993752,male,1,1
600,6964.999999999767,lista,NA,survey-text,286,fred is employing dave,<img src='gifs/MaleRace2b.gif' style='height:400px;''></img>,employing,is employing,english,english,man,asian,NA,MaleRace2b,race_male,dave,fred,black,asian,male,male,TRUE,TRUE,TRUE,right_name,male,asian,TRUE,included,included,included,1,1,14,9629.451612903233,2956.0265203897193,530.918035993752,male,1,1
600,7118,lista,NA,survey-text,290,mike is looking at kate,<img src='gifs/ChineseGender4b.gif' style='height:400px;''></img>,looking at,is looking at,english,english,man,asian,NA,ChineseGender4b,gender_asian,kate,mike,asian,asian,female,male,TRUE,TRUE,TRUE,right_name,male,asian,TRUE,included,included,included,1,1,15,9629.451612903233,2956.0265203897193,530.918035993752,male,1,1
600,11812,lista,NA,survey-text,294,jane is introducing dave,<img src='gifs/BlackGender4a.gif' style='height:400px;''></img>,introducing,is introducing,english,english,man,asian,NA,BlackGender4a,gender_black,jane,dave,black,black,female,male,TRUE,TRUE,TRUE,left_name,female,black,TRUE,included,included,included,0,0,16,9629.451612903233,2956.0265203897193,530.918035993752,male,0,0
600,10513,lista,NA,survey-text,298,dave is convincing jane,<img src='gifs/BlackGender4b.gif' style='height:400px;''></img>,convincing,is convincing,english,english,man,asian,NA,BlackGender4b,gender_black,dave,jane,black,black,male,female,TRUE,TRUE,TRUE,left_name,male,black,TRUE,included,included,included,1,0,17,9629.451612903233,2956.0265203897193,530.918035993752,male,1,1
600,6023,lista,NA,survey-text,302,luke is facing jane,<img src='gifs/BlackGender3a.gif' style='height:400px;''></img>,facing,is facing,english,english,man,asian,NA,BlackGender3a,gender_black,jane,luke,black,black,female,male,TRUE,TRUE,TRUE,right_name,male,black,TRUE,included,included,included,1,0,18,9629.451612903233,2956.0265203897193,530.918035993752,male,1,1
621,10912.5,listb,NA,survey-text,33,露丝正在介绍贝斯,<img src='gifs/FemaleRace3b.gif' style='height:400px;''></img>,介绍,正在介绍,chinese,chinese,woman,asian,NA,FemaleRace3b,race_female,露丝,贝斯,asian,black,female,female,TRUE,TRUE,TRUE,left_name,female,asian,TRUE,included,included,included,0,1,55,8403.553999999911,2214.076541844784,313.1177073609015,female,1,1
621,7821.700000001118,listb,NA,survey-text,37,麦克正在陪伴贝斯,<img src='gifs/BlackGender2b.gif' style='height:400px;''></img>,陪伴,正在陪伴,chinese,chinese,woman,asian,NA,BlackGender2b,gender_black,麦克,贝斯,black,black,male,female,TRUE,TRUE,TRUE,left_name,male,black,TRUE,included,included,included,1,0,56,8403.553999999911,2214.076541844784,313.1177073609015,female,0,0
621,8236.5,listb,NA,survey-text,41,麦克正在聆听凯特,<img src='gifs/BlackGender4b.gif' style='height:400px;''></img>,聆听,正在聆听,chinese,chinese,woman,asian,NA,BlackGender4b,gender_black,麦克,凯特,black,black,male,female,TRUE,TRUE,TRUE,left_name,male,black,TRUE,included,included,included,1,0,57,8403.553999999911,2214.076541844784,313.1177073609015,female,0,0
621,12519.300000000743,listb,NA,survey-text,45,贝斯正在跟随弗雷,<img src='gifs/BlackGender1a.gif' style='height:400px;''></img>,跟随,正在跟随,chinese,chinese,woman,asian,NA,BlackGender1a,gender_black,贝斯,弗雷,black,black,female,male,TRUE,TRUE,TRUE,left_name,female,black,TRUE,included,included,included,0,0,58,8403.553999999911,2214.076541844784,313.1177073609015,female,1,1
621,10364,listb,NA,survey-text,49,麦克正在面向卢克,<img src='gifs/MaleRace2b.gif' style='height:400px;''></img>,面向,正在面向,chinese,chinese,woman,asian,NA,MaleRace2b,race_male,麦克,卢克,black,asian,male,male,TRUE,TRUE,TRUE,left_name,male,black,TRUE,included,included,included,1,0,59,8403.553999999911,2214.076541844784,313.1177073609015,female,0,0
621,7615.5,listb,NA,survey-text,53,卢克正在表扬麦克,<img src='gifs/MaleRace2a.gif' style='height:400px;''></img>,表扬,正在表扬,chinese,chinese,woman,asian,NA,MaleRace2a,race_male,卢克,麦克,asian,black,male,male,TRUE,TRUE,TRUE,left_name,male,asian,TRUE,included,included,included,1,1,60,8403.553999999911,2214.076541844784,313.1177073609015,female,0,1
621,7519.0999999996275,listb,NA,survey-text,57,露丝正在陪伴卢克,<img src='gifs/ChineseGender2b.gif' style='height:400px;''></img>,陪伴,正在陪伴,chinese,chinese,woman,asian,NA,ChineseGender2b,gender_asian,露丝,卢克,asian,asian,female,male,TRUE,TRUE,TRUE,left_name,female,asian,TRUE,included,included,included,0,1,61,8403.553999999911,2214.076541844784,313.1177073609015,female,1,1
621,6728.5,listb,NA,survey-text,61,卢克正在面向露丝,<img src='gifs/ChineseGender2a.gif' style='height:400px;''></img>,面向,正在面向,chinese,chinese,woman,asian,NA,ChineseGender2a,gender_asian,卢克,露丝,asian,asian,male,female,TRUE,TRUE,TRUE,left_name,male,asian,TRUE,included,included,included,1,1,62,8403.553999999911,2214.076541844784,313.1177073609015,female,0,0
621,10392.5,listb,NA,survey-text,65,弗雷正在答应卢克,<img src='gifs/MaleRace1b.gif' style='height:400px;''></img>,答应,正在答应,chinese,chinese,woman,asian,NA,MaleRace1b,race_male,弗雷,卢克,black,asian,male,male,TRUE,TRUE,TRUE,left_name,male,black,TRUE,included,included,included,1,0,63,8403.553999999911,2214.076541844784,313.1177073609015,female,0,0
621,8390.400000000373,listb,NA,survey-text,73,弗雷正在陪伴戴夫,<img src='gifs/MaleRace3b.gif' style='height:400px;''></img>,陪伴,正在陪伴,chinese,chinese,woman,asian,NA,MaleRace3b,race_male,弗雷,戴夫,black,asian,male,male,TRUE,TRUE,TRUE,left_name,male,black,TRUE,included,included,included,1,0,65,8403.553999999911,2214.076541844784,313.1177073609015,female,0,0
621,8128.9000000003725,listb,NA,survey-text,77,凯特正在提到霍普,<img src='gifs/FemaleRace2a.gif' style='height:400px;''></img>,提到,正在提到,chinese,chinese,woman,asian,NA,FemaleRace2a,race_female,凯特,霍普,black,asian,female,female,TRUE,TRUE,TRUE,left_name,female,black,TRUE,included,included,included,0,0,66,8403.553999999911,2214.076541844784,313.1177073609015,female,1,0
621,9150.199999999257,listb,NA,survey-text,81,贝斯正在看着霍普,<img src='gifs/FemaleRace1a.gif' style='height:400px;''></img>,看着,正在看着,chinese,chinese,woman,asian,NA,FemaleRace1a,race_female,贝斯,霍普,black,asian,female,female,TRUE,TRUE,TRUE,left_name,female,black,TRUE,included,included,included,0,0,67,8403.553999999911,2214.076541844784,313.1177073609015,female,1,0
621,7138.699999999255,listb,NA,survey-text,85,弗雷正在提到贝斯,<img src='gifs/BlackGender1a.gif' style='height:400px;''></img>,提到,正在提到,chinese,chinese,woman,asian,NA,BlackGender1a,gender_black,贝斯,弗雷,black,black,female,male,TRUE,TRUE,TRUE,right_name,male,black,TRUE,included,included,included,1,0,68,8403.553999999911,2214.076541844784,313.1177073609015,female,0,0
621,6698.199999999255,listb,NA,survey-text,89,贝斯正在触摸麦克,<img src='gifs/BlackGender2a.gif' style='height:400px;''></img>,触摸,正在触摸,chinese,chinese,woman,asian,NA,BlackGender2a,gender_black,贝斯,麦克,black,black,female,male,TRUE,TRUE,TRUE,left_name,female,black,TRUE,included,included,included,0,0,69,8403.553999999911,2214.076541844784,313.1177073609015,female,1,1
621,7065,listb,NA,survey-text,93,弗雷正在答应贝斯,<img src='gifs/BlackGender1b.gif' style='height:400px;''></img>,答应,正在答应,chinese,chinese,woman,asian,NA,BlackGender1b,gender_black,弗雷,贝斯,black,black,male,female,TRUE,TRUE,TRUE,left_name,male,black,TRUE,included,included,included,1,0,70,8403.553999999911,2214.076541844784,313.1177073609015,female,0,0
621,7794,listb,NA,survey-text,97,戴夫正在接近霍普,<img src='gifs/ChineseGender4a.gif' style='height:400px;''></img>,接近,正在接近,chinese,chinese,woman,asian,NA,ChineseGender4a,gender_asian,戴夫,霍普,asian,asian,male,female,TRUE,TRUE,TRUE,left_name,male,asian,TRUE,included,included,included,1,1,71,8403.553999999911,2214.076541844784,313.1177073609015,female,0,0
621,8337.400000000373,listb,NA,survey-text,101,霍普正在聆听凯特,<img src='gifs/FemaleRace2b.gif' style='height:400px;''></img>,聆听,正在聆听,chinese,chinese,woman,asian,NA,FemaleRace2b,race_female,霍普,凯特,asian,black,female,female,TRUE,TRUE,TRUE,left_name,female,asian,TRUE,included,included,included,0,1,72,8403.553999999911,2214.076541844784,313.1177073609015,female,1,1
621,11870.200000001118,listb,NA,survey-text,123,贝斯正在说服露丝,<img src='gifs/FemaleRace3b.gif' style='height:400px;''></img>,说服,正在说服,chinese,chinese,woman,asian,NA,FemaleRace3b,race_female,露丝,贝斯,asian,black,female,female,TRUE,TRUE,TRUE,right_name,female,black,TRUE,included,included,included,0,0,73,8403.553999999911,2214.076541844784,313.1177073609015,female,1,0
621,6706.299999998882,listb,NA,survey-text,127,卢克正在提到霍普,<img src='gifs/ChineseGender1a.gif' style='height:400px;''></img>,提到,正在提到,chinese,chinese,woman,asian,NA,ChineseGender1a,gender_asian,卢克,霍普,asian,asian,male,female,TRUE,TRUE,TRUE,left_name,male,asian,TRUE,included,included,included,1,1,74,8403.553999999911,2214.076541844784,313.1177073609015,female,0,0
621,7980.9000000003725,listb,NA,survey-text,131,贝斯正在走向麦克,<img src='gifs/BlackGender2b.gif' style='height:400px;''></img>,走向,正在走向,chinese,chinese,woman,asian,NA,BlackGender2b,gender_black,麦克,贝斯,black,black,male,female,TRUE,TRUE,TRUE,right_name,female,black,TRUE,included,included,included,0,0,75,8403.553999999911,2214.076541844784,313.1177073609015,female,1,1
621,6661.0999999996275,listb,NA,survey-text,135,麦克正在走向卢克,<img src='gifs/MaleRace2a.gif' style='height:400px;''></img>,走向,正在走向,chinese,chinese,woman,asian,NA,MaleRace2a,race_male,卢克,麦克,asian,black,male,male,TRUE,TRUE,TRUE,right_name,male,black,TRUE,included,included,included,1,0,76,8403.553999999911,2214.076541844784,313.1177073609015,female,0,0
621,9207.10000000149,listb,NA,survey-text,139,霍普正在触摸戴夫,<img src='gifs/ChineseGender4b.gif' style='height:400px;''></img>,触摸,正在触摸,chinese,chinese,woman,asian,NA,ChineseGender4b,gender_asian,霍普,戴夫,asian,asian,female,male,TRUE,TRUE,TRUE,left_name,female,asian,TRUE,included,included,included,0,1,77,8403.553999999911,2214.076541844784,313.1177073609015,female,1,1
621,6915.5,listb,NA,survey-text,143,麦克正在跟随戴夫,<img src='gifs/MaleRace4b.gif' style='height:400px;''></img>,跟随,正在跟随,chinese,chinese,woman,asian,NA,MaleRace4b,race_male,麦克,戴夫,black,asian,male,male,TRUE,TRUE,TRUE,left_name,male,black,TRUE,included,included,included,1,0,78,8403.553999999911,2214.076541844784,313.1177073609015,female,0,0
621,7479.9000000003725,listb,NA,survey-text,151,戴夫正在加入露丝,<img src='gifs/ChineseGender3a.gif' style='height:400px;''></img>,加入,正在加入,chinese,chinese,woman,asian,NA,ChineseGender3a,gender_asian,戴夫,露丝,asian,asian,male,female,TRUE,TRUE,TRUE,left_name,male,asian,TRUE,included,included,included,1,1,80,8403.553999999911,2214.076541844784,313.1177073609015,female,0,0
621,6494.799999998882,listb,NA,survey-text,155,霍普正在聆听贝斯,<img src='gifs/FemaleRace1a.gif' style='height:400px;''></img>,聆听,正在聆听,chinese,chinese,woman,asian,NA,FemaleRace1a,race_female,贝斯,霍普,black,asian,female,female,TRUE,TRUE,TRUE,right_name,female,asian,TRUE,included,included,included,0,1,81,8403.553999999911,2214.076541844784,313.1177073609015,female,1,1
621,6374.0999999996275,listb,NA,survey-text,159,戴夫正在跟随麦克,<img src='gifs/MaleRace4b.gif' style='height:400px;''></img>,跟随,正在跟随,chinese,chinese,woman,asian,NA,MaleRace4b,race_male,麦克,戴夫,black,asian,male,male,TRUE,TRUE,TRUE,right_name,male,asian,TRUE,included,included,included,1,1,82,8403.553999999911,2214.076541844784,313.1177073609015,female,0,1
621,13819.699999999257,listb,NA,survey-text,163,霍普正在加入戴夫,<img src='gifs/ChineseGender4a.gif' style='height:400px;''></img>,加入,正在加入,chinese,chinese,woman,asian,NA,ChineseGender4a,gender_asian,戴夫,霍普,asian,asian,male,female,TRUE,TRUE,TRUE,right_name,female,asian,TRUE,included,included,included,0,1,83,8403.553999999911,2214.076541844784,313.1177073609015,female,1,1
621,6211.4000000003725,listb,NA,survey-text,167,露丝正在加入戴夫,<img src='gifs/ChineseGender3b.gif' style='height:400px;''></img>,加入,正在加入,chinese,chinese,woman,asian,NA,ChineseGender3b,gender_asian,露丝,戴夫,asian,asian,female,male,TRUE,TRUE,TRUE,left_name,female,asian,TRUE,included,included,included,0,1,84,8403.553999999911,2214.076541844784,313.1177073609015,female,1,1
621,11902.699999999257,listb,NA,survey-text,171,贝斯正在接近露丝,<img src='gifs/FemaleRace3a.gif' style='height:400px;''></img>,接近,正在接近,chinese,chinese,woman,asian,NA,FemaleRace3a,race_female,贝斯,露丝,black,asian,female,female,TRUE,TRUE,TRUE,left_name,female,black,TRUE,included,included,included,0,0,85,8403.553999999911,2214.076541844784,313.1177073609015,female,1,0
621,10034.5,listb,NA,survey-text,175,卢克正在联系弗雷,<img src='gifs/MaleRace1a.gif' style='height:400px;''></img>,联系,正在联系,chinese,chinese,woman,asian,NA,MaleRace1a,race_male,卢克,弗雷,asian,black,male,male,TRUE,TRUE,TRUE,left_name,male,asian,TRUE,included,included,included,1,1,86,8403.553999999911,2214.076541844784,313.1177073609015,female,0,1
621,6625.299999998882,listb,NA,survey-text,179,弗雷正在介绍卢克,<img src='gifs/MaleRace1a.gif' style='height:400px;''></img>,介绍,正在介绍,chinese,chinese,woman,asian,NA,MaleRace1a,race_male,卢克,弗雷,asian,black,male,male,TRUE,TRUE,TRUE,right_name,male,black,TRUE,included,included,included,1,0,87,8403.553999999911,2214.076541844784,313.1177073609015,female,0,0
621,7495.199999999255,listb,NA,survey-text,183,弗雷正在说服凯特,<img src='gifs/BlackGender3a.gif' style='height:400px;''></img>,说服,正在说服,chinese,chinese,woman,asian,NA,BlackGender3a,gender_black,凯特,弗雷,black,black,female,male,TRUE,TRUE,TRUE,right_name,male,black,TRUE,included,included,included,1,0,88,8403.553999999911,2214.076541844784,313.1177073609015,female,0,0
621,12041.900000000373,listb,NA,survey-text,187,凯特正在表扬麦克,<img src='gifs/BlackGender4b.gif' style='height:400px;''></img>,表扬,正在表扬,chinese,chinese,woman,asian,NA,BlackGender4b,gender_black,麦克,凯特,black,black,male,female,TRUE,TRUE,TRUE,right_name,female,black,TRUE,included,included,included,0,0,89,8403.553999999911,2214.076541844784,313.1177073609015,female,1,1
621,7031.9000000003725,listb,NA,survey-text,191,凯特正在介绍露丝,<img src='gifs/FemaleRace4a.gif' style='height:400px;''></img>,介绍,正在介绍,chinese,chinese,woman,asian,NA,FemaleRace4a,race_female,凯特,露丝,black,asian,female,female,TRUE,TRUE,TRUE,left_name,female,black,TRUE,included,included,included,0,0,90,8403.553999999911,2214.076541844784,313.1177073609015,female,1,0
621,8229.099999999627,listb,NA,survey-text,213,戴夫正在看着麦克,<img src='gifs/MaleRace4a.gif' style='height:400px;''></img>,看着,正在看着,chinese,chinese,woman,asian,NA,MaleRace4a,race_male,戴夫,麦克,asian,black,male,male,TRUE,TRUE,TRUE,left_name,male,asian,TRUE,included,included,included,1,1,1,8403.553999999911,2214.076541844784,313.1177073609015,female,0,1
621,7718.199999999255,listb,NA,survey-text,221,霍普正在聘用卢克,<img src='gifs/ChineseGender1a.gif' style='height:400px;''></img>,聘用,正在聘用,chinese,chinese,woman,asian,NA,ChineseGender1a,gender_asian,卢克,霍普,asian,asian,male,female,TRUE,TRUE,TRUE,right_name,female,asian,TRUE,included,included,included,0,1,3,8403.553999999911,2214.076541844784,313.1177073609015,female,1,1
621,7365.799999998882,listb,NA,survey-text,229,露丝正在表扬凯特,<img src='gifs/FemaleRace4a.gif' style='height:400px;''></img>,表扬,正在表扬,chinese,chinese,woman,asian,NA,FemaleRace4a,race_female,凯特,露丝,black,asian,female,female,TRUE,TRUE,TRUE,right_name,female,asian,TRUE,included,included,included,0,1,5,8403.553999999911,2214.076541844784,313.1177073609015,female,1,1
621,9142.900000000373,listb,NA,survey-text,233,麦克正在介绍贝斯,<img src='gifs/BlackGender2a.gif' style='height:400px;''></img>,介绍,正在介绍,chinese,chinese,woman,asian,NA,BlackGender2a,gender_black,贝斯,麦克,black,black,female,male,TRUE,TRUE,TRUE,right_name,male,black,TRUE,included,included,included,1,0,6,8403.553999999911,2214.076541844784,313.1177073609015,female,0,0
621,6630.0999999996275,listb,NA,survey-text,237,霍普正在面向凯特,<img src='gifs/FemaleRace2a.gif' style='height:400px;''></img>,面向,正在面向,chinese,chinese,woman,asian,NA,FemaleRace2a,race_female,凯特,霍普,black,asian,female,female,TRUE,TRUE,TRUE,right_name,female,asian,TRUE,included,included,included,0,1,7,8403.553999999911,2214.076541844784,313.1177073609015,female,1,1
621,7297.39999999851,listb,NA,survey-text,245,弗雷正在加入戴夫,<img src='gifs/MaleRace3a.gif' style='height:400px;''></img>,加入,正在加入,chinese,chinese,woman,asian,NA,MaleRace3a,race_male,戴夫,弗雷,asian,black,male,male,TRUE,TRUE,TRUE,right_name,male,black,TRUE,included,included,included,1,0,9,8403.553999999911,2214.076541844784,313.1177073609015,female,0,0
621,7232.9000000003725,listb,NA,survey-text,249,凯特正在说服弗雷,<img src='gifs/BlackGender3b.gif' style='height:400px;''></img>,说服,正在说服,chinese,chinese,woman,asian,NA,BlackGender3b,gender_black,弗雷,凯特,black,black,male,female,TRUE,TRUE,TRUE,right_name,female,black,TRUE,included,included,included,0,0,10,8403.553999999911,2214.076541844784,313.1177073609015,female,1,1
621,8913.400000000373,listb,NA,survey-text,253,贝斯正在聆听弗雷,<img src='gifs/BlackGender1b.gif' style='height:400px;''></img>,聆听,正在聆听,chinese,chinese,woman,asian,NA,BlackGender1b,gender_black,弗雷,贝斯,black,black,male,female,TRUE,TRUE,TRUE,right_name,female,black,TRUE,included,included,included,0,0,11,8403.553999999911,2214.076541844784,313.1177073609015,female,1,1
621,6860.4000000003725,listb,NA,survey-text,257,露丝正在触摸戴夫,<img src='gifs/ChineseGender3a.gif' style='height:400px;''></img>,触摸,正在触摸,chinese,chinese,woman,asian,NA,ChineseGender3a,gender_asian,戴夫,露丝,asian,asian,male,female,TRUE,TRUE,TRUE,right_name,female,asian,TRUE,included,included,included,0,1,12,8403.553999999911,2214.076541844784,313.1177073609015,female,1,1
621,6870.5,listb,NA,survey-text,261,卢克正在走向麦克,<img src='gifs/MaleRace2b.gif' style='height:400px;''></img>,走向,正在走向,chinese,chinese,woman,asian,NA,MaleRace2b,race_male,麦克,卢克,black,asian,male,male,TRUE,TRUE,TRUE,right_name,male,asian,TRUE,included,included,included,1,1,13,8403.553999999911,2214.076541844784,313.1177073609015,female,0,1
621,6948.800000000745,listb,NA,survey-text,265,弗雷正在走向凯特,<img src='gifs/BlackGender3a.gif' style='height:400px;''></img>,走向,正在走向,chinese,chinese,woman,asian,NA,BlackGender3a,gender_black,凯特,弗雷,black,black,female,male,TRUE,TRUE,TRUE,right_name,male,black,TRUE,included,included,included,1,0,14,8403.553999999911,2214.076541844784,313.1177073609015,female,0,0
621,7723.200000001118,listb,NA,survey-text,269,戴夫正在聘用露丝,<img src='gifs/ChineseGender3b.gif' style='height:400px;''></img>,聘用,正在聘用,chinese,chinese,woman,asian,NA,ChineseGender3b,gender_asian,露丝,戴夫,asian,asian,female,male,TRUE,TRUE,TRUE,right_name,male,asian,TRUE,included,included,included,1,1,15,8403.553999999911,2214.076541844784,313.1177073609015,female,0,0
621,9479.699999999257,listb,NA,survey-text,273,凯特正在联系弗雷,<img src='gifs/BlackGender3b.gif' style='height:400px;''></img>,联系,正在联系,chinese,chinese,woman,asian,NA,BlackGender3b,gender_black,弗雷,凯特,black,black,male,female,TRUE,TRUE,TRUE,right_name,female,black,TRUE,included,included,included,0,0,16,8403.553999999911,2214.076541844784,313.1177073609015,female,1,1
621,6327.299999998882,listb,NA,survey-text,277,露丝正在表扬卢克,<img src='gifs/ChineseGender2a.gif' style='height:400px;''></img>,表扬,正在表扬,chinese,chinese,woman,asian,NA,ChineseGender2a,gender_asian,卢克,露丝,asian,asian,male,female,TRUE,TRUE,TRUE,right_name,female,asian,TRUE,included,included,included,0,1,17,8403.553999999911,2214.076541844784,313.1177073609015,female,1,1
621,6672,listb,NA,survey-text,281,麦克正在看着凯特,<img src='gifs/BlackGender4a.gif' style='height:400px;''></img>,看着,正在看着,chinese,chinese,woman,asian,NA,BlackGender4a,gender_black,凯特,麦克,black,black,female,male,TRUE,TRUE,TRUE,right_name,male,black,TRUE,included,included,included,1,0,18,8403.553999999911,2214.076541844784,313.1177073609015,female,0,0
661,14728.7999997139,listb,NA,survey-text,84,mike is following dave,<img src='gifs/MaleRace4a.gif' style='height:400px;''></img>,following,is following,english,english,man,asian,NA,MaleRace4a,race_male,dave,mike,asian,black,male,male,TRUE,TRUE,TRUE,right_name,male,black,TRUE,included,included,included,1,0,39,11093.284090865747,6304.274218018578,950.4050980308554,male,1,0
661,9028.599999904633,listb,NA,survey-text,88,luke is praising jane,<img src='gifs/ChineseGender1a.gif' style='height:400px;''></img>,praising,is praising,english,english,man,asian,NA,ChineseGender1a,gender_asian,luke,jane,asian,asian,male,female,TRUE,TRUE,TRUE,left_name,male,asian,TRUE,included,included,included,1,1,40,11093.284090865747,6304.274218018578,950.4050980308554,male,1,1
661,10386.5,listb,NA,survey-text,92,fred is employing luke”},<img src='gifs/MaleRace1a.gif' style='height:400px;''></img>,employing,is employing,english,english,man,asian,NA,MaleRace1a,race_male,luke,fred,asian,black,male,male,TRUE,TRUE,TRUE,right_name,male,black,TRUE,included,included,included,1,0,41,11093.284090865747,6304.274218018578,950.4050980308554,male,1,0
661,11298.9000000954,listb,NA,survey-text,100,mike is walking towards beth,<img src='gifs/BlackGender2b.gif' style='height:400px;''></img>,walking towards,is walking towards,english,english,man,asian,NA,BlackGender2b,gender_black,mike,beth,black,black,male,female,TRUE,TRUE,TRUE,left_name,male,black,TRUE,included,included,included,1,0,43,11093.284090865747,6304.274218018578,950.4050980308554,male,1,1
661,8095.5,listb,NA,survey-text,108,mike is listening to kate,<img src='gifs/BlackGender4b.gif' style='height:400px;''></img>,listening to,is listening to,english,english,man,asian,NA,BlackGender4b,gender_black,mike,kate,black,black,male,female,TRUE,TRUE,TRUE,left_name,male,black,TRUE,included,included,included,1,0,45,11093.284090865747,6304.274218018578,950.4050980308554,male,1,1
661,8440.2000002861,listb,NA,survey-text,112,fred is listening to luke,<img src='gifs/MaleRace1a.gif' style='height:400px;''></img>,listening to,is listening to,english,english,man,asian,NA,MaleRace1a,race_male,luke,fred,asian,black,male,male,TRUE,TRUE,TRUE,right_name,male,black,TRUE,included,included,included,1,0,46,11093.284090865747,6304.274218018578,950.4050980308554,male,1,0
661,15981.7999997139,listb,NA,survey-text,124,mike is accompanying beth,<img src='gifs/BlackGender2a.gif' style='height:400px;''></img>,accompanying,is accompanying,english,english,man,asian,NA,BlackGender2a,gender_black,beth,mike,black,black,female,male,TRUE,TRUE,TRUE,right_name,male,black,TRUE,included,included,included,1,0,49,11093.284090865747,6304.274218018578,950.4050980308554,male,1,1
661,8815.5,listb,NA,survey-text,128,jane is joining kate,<img src='gifs/FemaleRace2b.gif' style='height:400px;''></img>,join,is joining,english,english,man,asian,NA,FemaleRace2b,race_female,jane,kate,asian,black,female,female,TRUE,TRUE,TRUE,left_name,female,asian,TRUE,included,included,included,0,1,50,11093.284090865747,6304.274218018578,950.4050980308554,male,0,1
661,11362.5999999046,listb,NA,survey-text,132,mike is following kate,<img src='gifs/BlackGender4a.gif' style='height:400px;''></img>,following,is following,english,english,man,asian,NA,BlackGender4a,gender_black,kate,mike,black,black,female,male,TRUE,TRUE,TRUE,right_name,male,black,TRUE,included,included,included,1,0,51,11093.284090865747,6304.274218018578,950.4050980308554,male,1,1
661,10655.1999998093,listb,NA,survey-text,136,mike is introducing luke,<img src='gifs/MaleRace2b.gif' style='height:400px;''></img>,introducing,is introducing,english,english,man,asian,NA,MaleRace2b,race_male,mike,luke,black,asian,male,male,TRUE,TRUE,TRUE,left_name,male,black,TRUE,included,included,included,1,0,52,11093.284090865747,6304.274218018578,950.4050980308554,male,1,0
661,8014,listb,NA,survey-text,140,dave is listening to fred,<img src='gifs/MaleRace3a.gif' style='height:400px;''></img>,listening to,is listening to,english,english,man,asian,NA,MaleRace3a,race_male,dave,fred,asian,black,male,male,TRUE,TRUE,TRUE,left_name,male,asian,TRUE,included,included,included,1,1,53,11093.284090865747,6304.274218018578,950.4050980308554,male,1,1
661,10444.9000000954,listb,NA,survey-text,144,beth is employing ruth,<img src='gifs/FemaleRace3a.gif' style='height:400px;''></img>,employing,is employing,english,english,man,asian,NA,FemaleRace3a,race_female,beth,ruth,black,asian,female,female,TRUE,TRUE,TRUE,left_name,female,black,TRUE,included,included,included,0,0,54,11093.284090865747,6304.274218018578,950.4050980308554,male,0,0
661,10608,listb,NA,survey-text,174,ruth is facing dave,<img src='gifs/ChineseGender3a.gif' style='height:400px;''></img>,facing,is facing,english,english,man,asian,NA,ChineseGender3a,gender_asian,dave,ruth,asian,asian,male,female,TRUE,TRUE,TRUE,right_name,female,asian,TRUE,included,included,included,0,1,57,11093.284090865747,6304.274218018578,950.4050980308554,male,0,0
661,11141.4000000954,listb,NA,survey-text,178,luke is touching ruth,<img src='gifs/ChineseGender2b.gif' style='height:400px;''></img>,touching,is touching,english,english,man,asian,NA,ChineseGender2b,gender_asian,ruth,luke,asian,asian,female,male,TRUE,TRUE,TRUE,right_name,male,asian,TRUE,included,included,included,1,1,58,11093.284090865747,6304.274218018578,950.4050980308554,male,1,1
661,10906.6999998093,listb,NA,survey-text,182,luke is accompanying ruth,<img src='gifs/ChineseGender2a.gif' style='height:400px;''></img>,accompanying,is accompanying,english,english,man,asian,NA,ChineseGender2a,gender_asian,luke,ruth,asian,asian,male,female,TRUE,TRUE,TRUE,left_name,male,asian,TRUE,included,included,included,1,1,59,11093.284090865747,6304.274218018578,950.4050980308554,male,1,1
661,10653.5999999046,listb,NA,survey-text,186,mike is looking at kate,<img src='gifs/BlackGender4b.gif' style='height:400px;''></img>,looking at,is looking at,english,english,man,asian,NA,BlackGender4b,gender_black,mike,kate,black,black,male,female,TRUE,TRUE,TRUE,left_name,male,black,TRUE,included,included,included,1,0,60,11093.284090865747,6304.274218018578,950.4050980308554,male,1,1
661,13634.6999998093,listb,NA,survey-text,194,beth is following fred,<img src='gifs/BlackGender1a.gif' style='height:400px;''></img>,following,is following,english,english,man,asian,NA,BlackGender1a,gender_black,beth,fred,black,black,female,male,TRUE,TRUE,TRUE,left_name,female,black,TRUE,included,included,included,0,0,62,11093.284090865747,6304.274218018578,950.4050980308554,male,0,0
661,10513.2999997139,listb,NA,survey-text,202,beth is listening to jane,<img src='gifs/FemaleRace1a.gif' style='height:400px;''></img>,listening to,is listening to,english,english,man,asian,NA,FemaleRace1a,race_female,beth,jane,black,asian,female,female,TRUE,TRUE,TRUE,left_name,female,black,TRUE,included,included,included,0,0,64,11093.284090865747,6304.274218018578,950.4050980308554,male,0,0
661,10684.5,listb,NA,survey-text,206,jane is approaching to dave,<img src='gifs/ChineseGender4b.gif' style='height:400px;''></img>,approaching,is approaching,english,english,man,asian,NA,ChineseGender4b,gender_asian,jane,dave,asian,asian,female,male,TRUE,TRUE,TRUE,left_name,female,asian,TRUE,included,included,included,0,1,65,11093.284090865747,6304.274218018578,950.4050980308554,male,0,0
661,9804,listb,NA,survey-text,210,luke is accompanying fred,<img src='gifs/MaleRace1b.gif' style='height:400px;''></img>,accompanying,is accompanying,english,english,man,asian,NA,MaleRace1b,race_male,fred,luke,black,asian,male,male,TRUE,TRUE,TRUE,right_name,male,asian,TRUE,included,included,included,1,1,66,11093.284090865747,6304.274218018578,950.4050980308554,male,1,1
661,5576.19999980927,listb,NA,survey-text,214,dave is facing jane,<img src='gifs/ChineseGender4b.gif' style='height:400px;''></img>,facing,is facing,english,english,man,asian,NA,ChineseGender4b,gender_asian,jane,dave,asian,asian,female,male,TRUE,TRUE,TRUE,right_name,male,asian,TRUE,included,included,included,1,1,67,11093.284090865747,6304.274218018578,950.4050980308554,male,1,1
661,8257.09999990463,listb,NA,survey-text,222,ruth is joining kate,<img src='gifs/FemaleRace4a.gif' style='height:400px;''></img>,join,is joining,english,english,man,asian,NA,FemaleRace4a,race_female,kate,ruth,black,asian,female,female,TRUE,TRUE,TRUE,right_name,female,asian,TRUE,included,included,included,0,1,69,11093.284090865747,6304.274218018578,950.4050980308554,male,0,1
661,16009.3000001907,listb,NA,survey-text,226,luke is introducing ruth,<img src='gifs/ChineseGender2b.gif' style='height:400px;''></img>,introducing,is introducing,english,english,man,asian,NA,ChineseGender2b,gender_asian,ruth,luke,asian,asian,female,male,TRUE,TRUE,TRUE,right_name,male,asian,TRUE,included,included,included,1,1,70,11093.284090865747,6304.274218018578,950.4050980308554,male,1,1
661,8237.40000009537,listb,NA,survey-text,230,kate is promising jane,<img src='gifs/FemaleRace2a.gif' style='height:400px;''></img>,promising,is promising,english,english,man,asian,NA,FemaleRace2a,race_female,kate,jane,black,asian,female,female,TRUE,TRUE,TRUE,left_name,female,black,TRUE,included,included,included,0,0,71,11093.284090865747,6304.274218018578,950.4050980308554,male,0,0
661,12182.7000002861,listb,NA,survey-text,234,fred is promising beth,<img src='gifs/BlackGender1b.gif' style='height:400px;''></img>,promising,is promising,english,english,man,asian,NA,BlackGender1b,gender_black,fred,beth,black,black,male,female,TRUE,TRUE,TRUE,left_name,male,black,TRUE,included,included,included,1,0,72,11093.284090865747,6304.274218018578,950.4050980308554,male,1,1
661,10160.1999998093,listb,NA,survey-text,256,jane is convincing beth,<img src='gifs/FemaleRace1b.gif' style='height:400px;''></img>,convincing,is convincing,english,english,man,asian,NA,FemaleRace1b,race_female,jane,beth,asian,black,female,female,TRUE,TRUE,TRUE,left_name,female,asian,TRUE,included,included,included,0,1,73,11093.284090865747,6304.274218018578,950.4050980308554,male,0,1
661,5916.90000009537,listb,NA,survey-text,260,mike is looking at beth,<img src='gifs/BlackGender2b.gif' style='height:400px;''></img>,looking at,is looking at,english,english,man,asian,NA,BlackGender2b,gender_black,mike,beth,black,black,male,female,TRUE,TRUE,TRUE,left_name,male,black,TRUE,included,included,included,1,0,74,11093.284090865747,6304.274218018578,950.4050980308554,male,1,1
661,8709.69999980927,listb,NA,survey-text,264,mike is joining beth,<img src='gifs/BlackGender2a.gif' style='height:400px;''></img>,join,is joining,english,english,man,asian,NA,BlackGender2a,gender_black,beth,mike,black,black,female,male,TRUE,TRUE,TRUE,right_name,male,black,TRUE,included,included,included,1,0,75,11093.284090865747,6304.274218018578,950.4050980308554,male,1,1
661,15670.7999997139,listb,NA,survey-text,268,luke is walking towards mike,<img src='gifs/MaleRace2a.gif' style='height:400px;''></img>,walking towards,is walking towards,english,english,man,asian,NA,MaleRace2a,race_male,luke,mike,asian,black,male,male,TRUE,TRUE,TRUE,left_name,male,asian,TRUE,included,included,included,1,1,76,11093.284090865747,6304.274218018578,950.4050980308554,male,1,1
661,6875.7999997139,listb,NA,survey-text,272,mike is touching luke,<img src='gifs/MaleRace2a.gif' style='height:400px;''></img>,touching,is touching,english,english,man,asian,NA,MaleRace2a,race_male,luke,mike,asian,black,male,male,TRUE,TRUE,TRUE,right_name,male,black,TRUE,included,included,included,1,0,77,11093.284090865747,6304.274218018578,950.4050980308554,male,1,0
661,6285.09999990463,listb,NA,survey-text,276,ruth is looking at beth,<img src='gifs/FemaleRace3b.gif' style='height:400px;''></img>,looking at,is looking at,english,english,man,asian,NA,FemaleRace3b,race_female,ruth,beth,asian,black,female,female,TRUE,TRUE,TRUE,left_name,female,asian,TRUE,included,included,included,0,1,78,11093.284090865747,6304.274218018578,950.4050980308554,male,0,1
661,18011.8000001907,listb,NA,survey-text,280,luke is praising jane,<img src='gifs/ChineseGender1b.gif' style='height:400px;''></img>,praising,is praising,english,english,man,asian,NA,ChineseGender1b,gender_asian,jane,luke,asian,asian,female,male,TRUE,TRUE,TRUE,right_name,male,asian,TRUE,included,included,included,1,1,79,11093.284090865747,6304.274218018578,950.4050980308554,male,1,1
661,11977.1999998093,listb,NA,survey-text,284,ruth is introducing dave,<img src='gifs/ChineseGender3b.gif' style='height:400px;''></img>,introducing,is introducing,english,english,man,asian,NA,ChineseGender3b,gender_asian,ruth,dave,asian,asian,female,male,TRUE,TRUE,TRUE,left_name,female,asian,TRUE,included,included,included,0,1,80,11093.284090865747,6304.274218018578,950.4050980308554,male,0,0
661,6575.69999980927,listb,NA,survey-text,288,dave is touching fred,<img src='gifs/MaleRace3b.gif' style='height:400px;''></img>,touching,is touching,english,english,man,asian,NA,MaleRace3b,race_male,fred,dave,black,asian,male,male,TRUE,TRUE,TRUE,right_name,male,asian,TRUE,included,included,included,1,1,81,11093.284090865747,6304.274218018578,950.4050980308554,male,1,1
661,10670.7000002861,listb,NA,survey-text,292,kate is contacting jane,<img src='gifs/FemaleRace2a.gif' style='height:400px;''></img>,contacting,is contacting,english,english,man,asian,NA,FemaleRace2a,race_female,kate,jane,black,asian,female,female,TRUE,TRUE,TRUE,left_name,female,black,TRUE,included,included,included,0,0,82,11093.284090865747,6304.274218018578,950.4050980308554,male,0,0
661,8980.89999961853,listb,NA,survey-text,296,fred is mentioning dave,<img src='gifs/MaleRace3a.gif' style='height:400px;''></img>,mention,is mentioning,english,english,man,asian,NA,MaleRace3a,race_male,dave,fred,asian,black,male,male,TRUE,TRUE,TRUE,right_name,male,black,TRUE,included,included,included,1,0,83,11093.284090865747,6304.274218018578,950.4050980308554,male,1,0
661,10096.6999998093,listb,NA,survey-text,300,ruth is approaching kate,<img src='gifs/FemaleRace4a.gif' style='height:400px;''></img>,approaching,is approaching,english,english,man,asian,NA,FemaleRace4a,race_female,kate,ruth,black,asian,female,female,TRUE,TRUE,TRUE,right_name,female,asian,TRUE,included,included,included,0,1,84,11093.284090865747,6304.274218018578,950.4050980308554,male,0,1
661,7748.80000019074,listb,NA,survey-text,304,kate is facing ruth,<img src='gifs/FemaleRace4b.gif' style='height:400px;''></img>,facing,is facing,english,english,man,asian,NA,FemaleRace4b,race_female,ruth,kate,asian,black,female,female,TRUE,TRUE,TRUE,right_name,female,black,TRUE,included,included,included,0,0,85,11093.284090865747,6304.274218018578,950.4050980308554,male,0,0
661,6420.69999980927,listb,NA,survey-text,308,mike is mentioning kate,<img src='gifs/BlackGender4a.gif' style='height:400px;''></img>,mention,is mentioning,english,english,man,asian,NA,BlackGender4a,gender_black,kate,mike,black,black,female,male,TRUE,TRUE,TRUE,right_name,male,black,TRUE,included,included,included,1,0,86,11093.284090865747,6304.274218018578,950.4050980308554,male,1,1
661,8815,listb,NA,survey-text,312,beth is contacting jane,<img src='gifs/FemaleRace1b.gif' style='height:400px;''></img>,contacting,is contacting,english,english,man,asian,NA,FemaleRace1b,race_female,jane,beth,asian,black,female,female,TRUE,TRUE,TRUE,right_name,female,black,TRUE,included,included,included,0,0,87,11093.284090865747,6304.274218018578,950.4050980308554,male,0,0
661,10475.4000000954,listb,NA,survey-text,316,kate is convincing jane,<img src='gifs/FemaleRace2b.gif' style='height:400px;''></img>,convincing,is convincing,english,english,man,asian,NA,FemaleRace2b,race_female,jane,kate,asian,black,female,female,TRUE,TRUE,TRUE,right_name,female,black,TRUE,included,included,included,0,0,88,11093.284090865747,6304.274218018578,950.4050980308554,male,0,0
661,7883.09999990463,listb,NA,survey-text,320,kate is praising fred,<img src='gifs/BlackGender3b.gif' style='height:400px;''></img>,praising,is praising,english,english,man,asian,NA,BlackGender3b,gender_black,fred,kate,black,black,male,female,TRUE,TRUE,TRUE,right_name,female,black,TRUE,included,included,included,0,0,89,11093.284090865747,6304.274218018578,950.4050980308554,male,0,0
661,13829.1000003815,listb,NA,survey-text,324,mike is walking towards dave,<img src='gifs/MaleRace4b.gif' style='height:400px;''></img>,walking towards,is walking towards,english,english,man,asian,NA,MaleRace4b,race_male,mike,dave,black,asian,male,male,TRUE,TRUE,TRUE,left_name,male,black,TRUE,included,included,included,1,0,90,11093.284090865747,6304.274218018578,950.4050980308554,male,1,0
3478,14184,lista,NA,survey-text,37,beth is introducing mike,<img src='gifs/ChineseGender3a.gif' style='height:400px;''></img>,introducing,is introducing,english,english,woman,asian,NA,ChineseGender3a,gender_asian,mike,beth,asian,asian,male,female,TRUE,TRUE,TRUE,right_name,female,asian,TRUE,included,included,included,0,1,2,11292.720000000005,6609.534859795889,934.7293839701099,female,1,1
3478,10115.000000000058,lista,NA,survey-text,49,beth is joining mike,<img src='gifs/ChineseGender3a.gif' style='height:400px;''></img>,join,is joining,english,english,woman,asian,NA,ChineseGender3a,gender_asian,mike,beth,asian,asian,male,female,TRUE,TRUE,TRUE,right_name,female,asian,TRUE,included,included,included,0,1,5,11292.720000000005,6609.534859795889,934.7293839701099,female,1,1
3478,11149,lista,NA,survey-text,53,kate is touching mike,<img src='gifs/ChineseGender4a.gif' style='height:400px;''></img>,touching,is touching,english,english,woman,asian,NA,ChineseGender4a,gender_asian,mike,kate,asian,asian,male,female,TRUE,TRUE,TRUE,right_name,female,asian,TRUE,included,included,included,0,1,6,11292.720000000005,6609.534859795889,934.7293839701099,female,1,1
3478,16922,lista,NA,survey-text,57,ruth is employing beth,<img src='gifs/FemaleRace3b.gif' style='height:400px;''></img>,employing,is employing,english,english,woman,asian,NA,FemaleRace3b,race_female,beth,ruth,asian,black,female,female,TRUE,TRUE,TRUE,right_name,female,black,TRUE,included,included,included,0,0,7,11292.720000000005,6609.534859795889,934.7293839701099,female,1,0
3478,28834,lista,NA,survey-text,61,ruth is promising beth,<img src='gifs/FemaleRace3a.gif' style='height:400px;''></img>,promising,is promising,english,english,woman,asian,NA,FemaleRace3a,race_female,ruth,beth,black,asian,female,female,TRUE,TRUE,TRUE,left_name,female,black,TRUE,included,included,included,0,0,8,11292.720000000005,6609.534859795889,934.7293839701099,female,1,0
3478,9299,lista,NA,survey-text,65,jane is introducing dave,<img src='gifs/BlackGender4b.gif' style='height:400px;''></img>,introducing,is introducing,english,english,woman,asian,NA,BlackGender4b,gender_black,dave,jane,black,black,male,female,TRUE,TRUE,TRUE,right_name,female,black,TRUE,included,included,included,0,0,9,11292.720000000005,6609.534859795889,934.7293839701099,female,1,1
3478,19291,lista,NA,survey-text,69,jane is listening to beth,<img src='gifs/FemaleRace4a.gif' style='height:400px;''></img>,listening to,is listening to,english,english,woman,asian,NA,FemaleRace4a,race_female,jane,beth,black,asian,female,female,TRUE,TRUE,TRUE,left_name,female,black,TRUE,included,included,included,0,0,10,11292.720000000005,6609.534859795889,934.7293839701099,female,1,0
3478,9565,lista,NA,survey-text,73,jane is mentioning beth,<img src='gifs/FemaleRace4b.gif' style='height:400px;''></img>,mention,is mentioning,english,english,woman,asian,NA,FemaleRace4b,race_female,beth,jane,asian,black,female,female,TRUE,TRUE,TRUE,right_name,female,black,TRUE,included,included,included,0,0,11,11292.720000000005,6609.534859795889,934.7293839701099,female,1,0
3478,25393,lista,NA,survey-text,77,mike is praising beth,<img src='gifs/ChineseGender3b.gif' style='height:400px;''></img>,praising,is praising,english,english,woman,asian,NA,ChineseGender3b,gender_asian,beth,mike,asian,asian,female,male,TRUE,TRUE,TRUE,right_name,male,asian,TRUE,included,included,included,1,1,12,11292.720000000005,6609.534859795889,934.7293839701099,female,0,0
3478,14762,lista,NA,survey-text,81,fred is approaching kate,<img src='gifs/ChineseGender1b.gif' style='height:400px;''></img>,approaching,is approaching,english,english,woman,asian,NA,ChineseGender1b,gender_asian,kate,fred,asian,asian,female,male,TRUE,TRUE,TRUE,right_name,male,asian,TRUE,included,included,included,1,1,13,11292.720000000005,6609.534859795889,934.7293839701099,female,0,0
3478,13520,lista,NA,survey-text,85,fred is mentioning dave,<img src='gifs/MaleRace2b.gif' style='height:400px;''></img>,mention,is mentioning,english,english,woman,asian,NA,MaleRace2b,race_male,dave,fred,black,asian,male,male,TRUE,TRUE,TRUE,right_name,male,asian,TRUE,included,included,included,1,1,14,11292.720000000005,6609.534859795889,934.7293839701099,female,0,1
3478,8084,lista,NA,survey-text,89,luke is joining mike,<img src='gifs/MaleRace3a.gif' style='height:400px;''></img>,join,is joining,english,english,woman,asian,NA,MaleRace3a,race_male,mike,luke,asian,black,male,male,TRUE,TRUE,TRUE,right_name,male,black,TRUE,included,included,included,1,0,15,11292.720000000005,6609.534859795889,934.7293839701099,female,0,0
3478,10108,lista,NA,survey-text,93,kate is praising jane,<img src='gifs/FemaleRace2a.gif' style='height:400px;''></img>,praising,is praising,english,english,woman,asian,NA,FemaleRace2a,race_female,jane,kate,black,asian,female,female,TRUE,TRUE,TRUE,right_name,female,asian,TRUE,included,included,included,0,1,16,11292.720000000005,6609.534859795889,934.7293839701099,female,1,1
3478,22151.000000000116,lista,NA,survey-text,97,ruth is mentioning dave,<img src='gifs/BlackGender2b.gif' style='height:400px;''></img>,mention,is mentioning,english,english,woman,asian,NA,BlackGender2b,gender_black,dave,ruth,black,black,male,female,TRUE,TRUE,TRUE,right_name,female,black,TRUE,included,included,included,0,0,17,11292.720000000005,6609.534859795889,934.7293839701099,female,1,1
3478,12242,lista,NA,survey-text,123,ruth is looking at dave,<img src='gifs/BlackGender2a.gif' style='height:400px;''></img>,looking at,is looking at,english,english,woman,asian,NA,BlackGender2a,gender_black,ruth,dave,black,black,female,male,TRUE,TRUE,TRUE,left_name,female,black,TRUE,included,included,included,0,0,19,11292.720000000005,6609.534859795889,934.7293839701099,female,1,1
3478,13997,lista,NA,survey-text,127,ruth is promising kate ,<img src='gifs/FemaleRace1b.gif' style='height:400px;''></img>,promising,is promising,english,english,woman,asian,NA,FemaleRace1b,race_female,kate,ruth,asian,black,female,female,TRUE,TRUE,TRUE,right_name,female,black,TRUE,included,included,included,0,0,20,11292.720000000005,6609.534859795889,934.7293839701099,female,1,0
3478,8358,lista,NA,survey-text,131,mike is looking at beth,<img src='gifs/ChineseGender3b.gif' style='height:400px;''></img>,looking at,is looking at,english,english,woman,asian,NA,ChineseGender3b,gender_asian,beth,mike,asian,asian,female,male,TRUE,TRUE,TRUE,right_name,male,asian,TRUE,included,included,included,1,1,21,11292.720000000005,6609.534859795889,934.7293839701099,female,0,0
3478,10957,lista,NA,survey-text,135,beth is following jane ,<img src='gifs/FemaleRace4a.gif' style='height:400px;''></img>,following,is following,english,english,woman,asian,NA,FemaleRace4a,race_female,jane,beth,black,asian,female,female,TRUE,TRUE,TRUE,right_name,female,asian,TRUE,included,included,included,0,1,22,11292.720000000005,6609.534859795889,934.7293839701099,female,1,1
3478,14305,lista,NA,survey-text,139,  mike is praising dave ,<img src='gifs/MaleRace4a.gif' style='height:400px;''></img>,praising,is praising,english,english,woman,asian,NA,MaleRace4a,race_male,mike,dave,asian,black,male,male,TRUE,TRUE,TRUE,left_name,male,asian,TRUE,included,included,included,1,1,23,11292.720000000005,6609.534859795889,934.7293839701099,female,0,1
3478,15589.999999999884,lista,NA,survey-text,143, ruth is listening to luke,<img src='gifs/BlackGender1a.gif' style='height:400px;''></img>,listening to,is listening to,english,english,woman,asian,NA,BlackGender1a,gender_black,ruth,luke,black,black,female,male,TRUE,TRUE,TRUE,left_name,female,black,TRUE,included,included,included,0,0,24,11292.720000000005,6609.534859795889,934.7293839701099,female,1,1
3478,7076,lista,NA,survey-text,147,luke is convincing mike,<img src='gifs/MaleRace3b.gif' style='height:400px;''></img>,convincing,is convincing,english,english,woman,asian,NA,MaleRace3b,race_male,luke,mike,black,asian,male,male,TRUE,TRUE,TRUE,left_name,male,black,TRUE,included,included,included,1,0,25,11292.720000000005,6609.534859795889,934.7293839701099,female,0,0
3478,10151,lista,NA,survey-text,151, ruth is contacting luke,<img src='gifs/BlackGender1b.gif' style='height:400px;''></img>,contacting,is contacting,english,english,woman,asian,NA,BlackGender1b,gender_black,luke,ruth,black,black,male,female,TRUE,TRUE,TRUE,right_name,female,black,TRUE,included,included,included,0,0,26,11292.720000000005,6609.534859795889,934.7293839701099,female,1,1
3478,7838.000000000116,lista,NA,survey-text,155,dave is facing ruth,<img src='gifs/BlackGender2a.gif' style='height:400px;''></img>,facing,is facing,english,english,woman,asian,NA,BlackGender2a,gender_black,ruth,dave,black,black,female,male,TRUE,TRUE,TRUE,right_name,male,black,TRUE,included,included,included,1,0,27,11292.720000000005,6609.534859795889,934.7293839701099,female,0,0
3478,7843.000000000116,lista,NA,survey-text,159, luke is following ruth,<img src='gifs/BlackGender1a.gif' style='height:400px;''></img>,following,is following,english,english,woman,asian,NA,BlackGender1a,gender_black,ruth,luke,black,black,female,male,TRUE,TRUE,TRUE,right_name,male,black,TRUE,included,included,included,1,0,28,11292.720000000005,6609.534859795889,934.7293839701099,female,0,0
3478,8471.999999999884,lista,NA,survey-text,163,mike is facing dave,<img src='gifs/MaleRace4b.gif' style='height:400px;''></img>,facing,is facing,english,english,woman,asian,NA,MaleRace4b,race_male,dave,mike,black,asian,male,male,TRUE,TRUE,TRUE,right_name,male,asian,TRUE,included,included,included,1,1,29,11292.720000000005,6609.534859795889,934.7293839701099,female,0,1
3478,7607.999999999767,lista,NA,survey-text,167,dave is accompanying mike,<img src='gifs/MaleRace4a.gif' style='height:400px;''></img>,accompanying,is accompanying,english,english,woman,asian,NA,MaleRace4a,race_male,mike,dave,asian,black,male,male,TRUE,TRUE,TRUE,right_name,male,black,TRUE,included,included,included,1,0,30,11292.720000000005,6609.534859795889,934.7293839701099,female,0,0
3478,8082,lista,NA,survey-text,171,fred is introducing dave,<img src='gifs/MaleRace2a.gif' style='height:400px;''></img>,introducing,is introducing,english,english,woman,asian,NA,MaleRace2a,race_male,fred,dave,asian,black,male,male,TRUE,TRUE,TRUE,left_name,male,asian,TRUE,included,included,included,1,1,31,11292.720000000005,6609.534859795889,934.7293839701099,female,0,1
3478,7893,lista,NA,survey-text,175,ruth is approaching luke,<img src='gifs/BlackGender1b.gif' style='height:400px;''></img>,approaching,is approaching,english,english,woman,asian,NA,BlackGender1b,gender_black,luke,ruth,black,black,male,female,TRUE,TRUE,TRUE,right_name,female,black,TRUE,included,included,included,0,0,32,11292.720000000005,6609.534859795889,934.7293839701099,female,1,1
3478,16429,lista,NA,survey-text,183, beth is employing ruth ,<img src='gifs/FemaleRace3a.gif' style='height:400px;''></img>,employing,is employing,english,english,woman,asian,NA,FemaleRace3a,race_female,ruth,beth,black,asian,female,female,TRUE,TRUE,TRUE,right_name,female,asian,TRUE,included,included,included,0,1,34,11292.720000000005,6609.534859795889,934.7293839701099,female,1,1
3478,8934,lista,NA,survey-text,187,ruth is looking at dave,<img src='gifs/BlackGender2b.gif' style='height:400px;''></img>,looking at,is looking at,english,english,woman,asian,NA,BlackGender2b,gender_black,dave,ruth,black,black,male,female,TRUE,TRUE,TRUE,right_name,female,black,TRUE,included,included,included,0,0,35,11292.720000000005,6609.534859795889,934.7293839701099,female,1,1
3478,10881.000000000233,lista,NA,survey-text,191,fred is accompanying beth ,<img src='gifs/ChineseGender2a.gif' style='height:400px;''></img>,accompanying,is accompanying,english,english,woman,asian,NA,ChineseGender2a,gender_asian,fred,beth,asian,asian,male,female,TRUE,TRUE,TRUE,left_name,male,asian,TRUE,included,included,included,1,1,36,11292.720000000005,6609.534859795889,934.7293839701099,female,0,0
3478,6587,lista,NA,survey-text,213,luke is approaching mike,<img src='gifs/MaleRace3a.gif' style='height:400px;''></img>,approaching,is approaching,english,english,woman,asian,NA,MaleRace3a,race_male,mike,luke,asian,black,male,male,TRUE,TRUE,TRUE,right_name,male,black,TRUE,included,included,included,1,0,37,11292.720000000005,6609.534859795889,934.7293839701099,female,0,0
3478,6235,lista,NA,survey-text,217,kate is following jane,<img src='gifs/FemaleRace2b.gif' style='height:400px;''></img>,following,is following,english,english,woman,asian,NA,FemaleRace2b,race_female,kate,jane,asian,black,female,female,TRUE,TRUE,TRUE,left_name,female,asian,TRUE,included,included,included,0,1,38,11292.720000000005,6609.534859795889,934.7293839701099,female,1,1
3478,6691,lista,NA,survey-text,221,kate is accompanying mike,<img src='gifs/ChineseGender4b.gif' style='height:400px;''></img>,accompanying,is accompanying,english,english,woman,asian,NA,ChineseGender4b,gender_asian,kate,mike,asian,asian,female,male,TRUE,TRUE,TRUE,left_name,female,asian,TRUE,included,included,included,0,1,39,11292.720000000005,6609.534859795889,934.7293839701099,female,1,1
3478,8433,lista,NA,survey-text,225, fred is walking towards luke,<img src='gifs/MaleRace1a.gif' style='height:400px;''></img>,walking towards,is walking towards,english,english,woman,asian,NA,MaleRace1a,race_male,fred,luke,asian,black,male,male,TRUE,TRUE,TRUE,left_name,male,asian,TRUE,included,included,included,1,1,40,11292.720000000005,6609.534859795889,934.7293839701099,female,0,1
3478,6304,lista,NA,survey-text,229,jane is mentioning dave,<img src='gifs/BlackGender4a.gif' style='height:400px;''></img>,mention,is mentioning,english,english,woman,asian,NA,BlackGender4a,gender_black,jane,dave,black,black,female,male,TRUE,TRUE,TRUE,left_name,female,black,TRUE,included,included,included,0,0,41,11292.720000000005,6609.534859795889,934.7293839701099,female,1,1
3478,5511,lista,NA,survey-text,233,jane is listening to luke,<img src='gifs/BlackGender3a.gif' style='height:400px;''></img>,listening to,is listening to,english,english,woman,asian,NA,BlackGender3a,gender_black,jane,luke,black,black,female,male,TRUE,TRUE,TRUE,left_name,female,black,TRUE,included,included,included,0,0,42,11292.720000000005,6609.534859795889,934.7293839701099,female,1,1
3478,5076,lista,NA,survey-text,237,mike is convincing luke,<img src='gifs/MaleRace3b.gif' style='height:400px;''></img>,convincing,is convincing,english,english,woman,asian,NA,MaleRace3b,race_male,luke,mike,black,asian,male,male,TRUE,TRUE,TRUE,right_name,male,asian,TRUE,included,included,included,1,1,43,11292.720000000005,6609.534859795889,934.7293839701099,female,0,1
3478,6222,lista,NA,survey-text,241,kate is walking towards jane,<img src='gifs/FemaleRace2a.gif' style='height:400px;''></img>,walking towards,is walking towards,english,english,woman,asian,NA,FemaleRace2a,race_female,jane,kate,black,asian,female,female,TRUE,TRUE,TRUE,right_name,female,asian,TRUE,included,included,included,0,1,44,11292.720000000005,6609.534859795889,934.7293839701099,female,1,1
3478,8989,lista,NA,survey-text,245,ruth is employing kate,<img src='gifs/FemaleRace1b.gif' style='height:400px;''></img>,employing,is employing,english,english,woman,asian,NA,FemaleRace1b,race_female,kate,ruth,asian,black,female,female,TRUE,TRUE,TRUE,right_name,female,black,TRUE,included,included,included,0,0,45,11292.720000000005,6609.534859795889,934.7293839701099,female,1,0
3478,6216.000000000233,lista,NA,survey-text,249,jane is praising dave,<img src='gifs/BlackGender4b.gif' style='height:400px;''></img>,praising,is praising,english,english,woman,asian,NA,BlackGender4b,gender_black,dave,jane,black,black,male,female,TRUE,TRUE,TRUE,right_name,female,black,TRUE,included,included,included,0,0,46,11292.720000000005,6609.534859795889,934.7293839701099,female,1,1
3478,5708,lista,NA,survey-text,253,ruth is accompanying kate,<img src='gifs/FemaleRace1a.gif' style='height:400px;''></img>,accompanying,is accompanying,english,english,woman,asian,NA,FemaleRace1a,race_female,ruth,kate,black,asian,female,female,TRUE,TRUE,TRUE,left_name,female,black,TRUE,included,included,included,0,0,47,11292.720000000005,6609.534859795889,934.7293839701099,female,1,0
3478,4909,lista,NA,survey-text,257,luke is contacting fred,<img src='gifs/MaleRace1b.gif' style='height:400px;''></img>,contacting,is contacting,english,english,woman,asian,NA,MaleRace1b,race_male,luke,fred,black,asian,male,male,TRUE,TRUE,TRUE,left_name,male,black,TRUE,included,included,included,1,0,48,11292.720000000005,6609.534859795889,934.7293839701099,female,0,0
3478,4747,lista,NA,survey-text,261,mike is contacting kate,<img src='gifs/ChineseGender4b.gif' style='height:400px;''></img>,contacting,is contacting,english,english,woman,asian,NA,ChineseGender4b,gender_asian,kate,mike,asian,asian,female,male,TRUE,TRUE,TRUE,right_name,male,asian,TRUE,included,included,included,1,1,49,11292.720000000005,6609.534859795889,934.7293839701099,female,0,0
3478,26423,lista,NA,survey-text,265,jane is convincing kate,<img src='gifs/FemaleRace2b.gif' style='height:400px;''></img>,convincing,is convincing,english,english,woman,asian,NA,FemaleRace2b,race_female,kate,jane,asian,black,female,female,TRUE,TRUE,TRUE,right_name,female,black,TRUE,included,included,included,0,0,50,11292.720000000005,6609.534859795889,934.7293839701099,female,1,0
3478,4700,lista,NA,survey-text,269,luke is introducing jane,<img src='gifs/BlackGender3b.gif' style='height:400px;''></img>,introducing,is introducing,english,english,woman,asian,NA,BlackGender3b,gender_black,luke,jane,black,black,male,female,TRUE,TRUE,TRUE,left_name,male,black,TRUE,included,included,included,1,0,51,11292.720000000005,6609.534859795889,934.7293839701099,female,0,0
3478,5353,lista,NA,survey-text,273,beth is facing fred,<img src='gifs/ChineseGender2a.gif' style='height:400px;''></img>,facing,is facing,english,english,woman,asian,NA,ChineseGender2a,gender_asian,fred,beth,asian,asian,male,female,TRUE,TRUE,TRUE,right_name,female,asian,TRUE,included,included,included,0,1,52,11292.720000000005,6609.534859795889,934.7293839701099,female,1,1
3478,4627,lista,NA,survey-text,277,kate is touching ruth,<img src='gifs/FemaleRace1a.gif' style='height:400px;''></img>,touching,is touching,english,english,woman,asian,NA,FemaleRace1a,race_female,ruth,kate,black,asian,female,female,TRUE,TRUE,TRUE,right_name,female,asian,TRUE,included,included,included,0,1,53,11292.720000000005,6609.534859795889,934.7293839701099,female,1,1
3478,19392.999999999767,lista,NA,survey-text,281,luke is promising fred,<img src='gifs/MaleRace1a.gif' style='height:400px;''></img>,promising,is promising,english,english,woman,asian,NA,MaleRace1a,race_male,fred,luke,asian,black,male,male,TRUE,TRUE,TRUE,right_name,male,black,TRUE,included,included,included,1,0,54,11292.720000000005,6609.534859795889,934.7293839701099,female,0,0
4066,10215.100000023842,listb,NA,survey-text,53,露丝正在表扬凯特,<img src='gifs/FemaleRace4a.gif' style='height:400px;''></img>,表扬,正在表扬,chinese,chinese,man,asian,NA,FemaleRace4a,race_female,凯特,露丝,black,asian,female,female,TRUE,TRUE,TRUE,right_name,female,asian,TRUE,included,included,included,0,1,73,7129.800000004769,2545.249554282857,359.9526439290891,male,0,1
4066,10687.800000071526,listb,NA,survey-text,57,戴夫正在表扬麦克,<img src='gifs/MaleRace4b.gif' style='height:400px;''></img>,表扬,正在表扬,chinese,chinese,man,asian,NA,MaleRace4b,race_male,麦克,戴夫,black,asian,male,male,TRUE,TRUE,TRUE,right_name,male,asian,TRUE,included,included,included,1,1,74,7129.800000004769,2545.249554282857,359.9526439290891,male,1,1
4066,8387.5,listb,NA,survey-text,61,卢克正在跟随露丝,<img src='gifs/ChineseGender2a.gif' style='height:400px;''></img>,跟随,正在跟随,chinese,chinese,man,asian,NA,ChineseGender2a,gender_asian,卢克,露丝,asian,asian,male,female,TRUE,TRUE,TRUE,left_name,male,asian,TRUE,included,included,included,1,1,75,7129.800000004769,2545.249554282857,359.9526439290891,male,1,1
4066,8024.5,listb,NA,survey-text,65,弗雷正在说服卢克,<img src='gifs/MaleRace1b.gif' style='height:400px;''></img>,说服,正在说服,chinese,chinese,man,asian,NA,MaleRace1b,race_male,弗雷,卢克,black,asian,male,male,TRUE,TRUE,TRUE,left_name,male,black,TRUE,included,included,included,1,0,76,7129.800000004769,2545.249554282857,359.9526439290891,male,1,0
4066,7065.899999976158,listb,NA,survey-text,69,凯特正在看着麦克,<img src='gifs/BlackGender4a.gif' style='height:400px;''></img>,看着,正在看着,chinese,chinese,man,asian,NA,BlackGender4a,gender_black,凯特,麦克,black,black,female,male,TRUE,TRUE,TRUE,left_name,female,black,TRUE,included,included,included,0,0,77,7129.800000004769,2545.249554282857,359.9526439290891,male,0,0
4066,8649.700000047684,listb,NA,survey-text,73,卢克正在提到麦克,<img src='gifs/MaleRace2a.gif' style='height:400px;''></img>,提到,正在提到,chinese,chinese,man,asian,NA,MaleRace2a,race_male,卢克,麦克,asian,black,male,male,TRUE,TRUE,TRUE,left_name,male,asian,TRUE,included,included,included,1,1,78,7129.800000004769,2545.249554282857,359.9526439290891,male,1,1
4066,8082.5,listb,NA,survey-text,77,露丝正在面向卢克,<img src='gifs/ChineseGender2a.gif' style='height:400px;''></img>,面向,正在面向,chinese,chinese,man,asian,NA,ChineseGender2a,gender_asian,卢克,露丝,asian,asian,male,female,TRUE,TRUE,TRUE,right_name,female,asian,TRUE,included,included,included,0,1,79,7129.800000004769,2545.249554282857,359.9526439290891,male,0,0
4066,11172.399999976158,listb,NA,survey-text,85,露丝正在介绍戴夫,<img src='gifs/ChineseGender3b.gif' style='height:400px;''></img>,介绍,正在介绍,chinese,chinese,man,asian,NA,ChineseGender3b,gender_asian,露丝,戴夫,asian,asian,female,male,TRUE,TRUE,TRUE,left_name,female,asian,TRUE,included,included,included,0,1,81,7129.800000004769,2545.249554282857,359.9526439290891,male,0,0
4066,6203.799999952316,listb,NA,survey-text,89,凯特正在联系弗雷,<img src='gifs/BlackGender3a.gif' style='height:400px;''></img>,联系,正在联系,chinese,chinese,man,asian,NA,BlackGender3a,gender_black,凯特,弗雷,black,black,female,male,TRUE,TRUE,TRUE,left_name,female,black,TRUE,included,included,included,0,0,82,7129.800000004769,2545.249554282857,359.9526439290891,male,0,0
4066,8843,listb,NA,survey-text,97,弗雷正在走向凯特,<img src='gifs/BlackGender3a.gif' style='height:400px;''></img>,走向,正在走向,chinese,chinese,man,asian,NA,BlackGender3a,gender_black,凯特,弗雷,black,black,female,male,TRUE,TRUE,TRUE,right_name,male,black,TRUE,included,included,included,1,0,84,7129.800000004769,2545.249554282857,359.9526439290891,male,1,1
4066,6828.899999976158,listb,NA,survey-text,101,弗雷正在聆听贝斯,<img src='gifs/BlackGender1b.gif' style='height:400px;''></img>,聆听,正在聆听,chinese,chinese,man,asian,NA,BlackGender1b,gender_black,弗雷,贝斯,black,black,male,female,TRUE,TRUE,TRUE,left_name,male,black,TRUE,included,included,included,1,0,85,7129.800000004769,2545.249554282857,359.9526439290891,male,1,1
4066,7986.600000023842,listb,NA,survey-text,105,霍普正在面向卢克,<img src='gifs/ChineseGender1b.gif' style='height:400px;''></img>,面向,正在面向,chinese,chinese,man,asian,NA,ChineseGender1b,gender_asian,霍普,卢克,asian,asian,female,male,TRUE,TRUE,TRUE,left_name,female,asian,TRUE,included,included,included,0,1,86,7129.800000004769,2545.249554282857,359.9526439290891,male,0,0
4066,11870.100000023842,listb,NA,survey-text,109,露丝正在聘用贝斯,<img src='gifs/FemaleRace3b.gif' style='height:400px;''></img>,聘用,正在聘用,chinese,chinese,man,asian,NA,FemaleRace3b,race_female,露丝,贝斯,asian,black,female,female,TRUE,TRUE,TRUE,left_name,female,asian,TRUE,included,included,included,0,1,87,7129.800000004769,2545.249554282857,359.9526439290891,male,0,1
4066,6174.5,listb,NA,survey-text,113,弗雷正在跟随凯特,<img src='gifs/BlackGender3b.gif' style='height:400px;''></img>,跟随,正在跟随,chinese,chinese,man,asian,NA,BlackGender3b,gender_black,弗雷,凯特,black,black,male,female,TRUE,TRUE,TRUE,left_name,male,black,TRUE,included,included,included,1,0,88,7129.800000004769,2545.249554282857,359.9526439290891,male,1,1
4066,10325.600000023842,listb,NA,survey-text,117,戴夫正在介绍麦克,<img src='gifs/MaleRace4b.gif' style='height:400px;''></img>,介绍,正在介绍,chinese,chinese,man,asian,NA,MaleRace4b,race_male,麦克,戴夫,black,asian,male,male,TRUE,TRUE,TRUE,right_name,male,asian,TRUE,included,included,included,1,1,89,7129.800000004769,2545.249554282857,359.9526439290891,male,1,1
4066,10602.300000071526,listb,NA,survey-text,121,戴夫正在加入弗雷,<img src='gifs/MaleRace3a.gif' style='height:400px;''></img>,加入,正在加入,chinese,chinese,man,asian,NA,MaleRace3a,race_male,戴夫,弗雷,asian,black,male,male,TRUE,TRUE,TRUE,left_name,male,asian,TRUE,included,included,included,1,1,90,7129.800000004769,2545.249554282857,359.9526439290891,male,1,1
4066,5294.600000023842,listb,NA,survey-text,143,贝斯正在答应露丝,<img src='gifs/FemaleRace3a.gif' style='height:400px;''></img>,答应,正在答应,chinese,chinese,man,asian,NA,FemaleRace3a,race_female,贝斯,露丝,black,asian,female,female,TRUE,TRUE,TRUE,left_name,female,black,TRUE,included,included,included,0,0,1,7129.800000004769,2545.249554282857,359.9526439290891,male,0,0
4066,7718.800000071526,listb,NA,survey-text,147,卢克正在介绍弗雷,<img src='gifs/MaleRace1a.gif' style='height:400px;''></img>,介绍,正在介绍,chinese,chinese,man,asian,NA,MaleRace1a,race_male,卢克,弗雷,asian,black,male,male,TRUE,TRUE,TRUE,left_name,male,asian,TRUE,included,included,included,1,1,2,7129.800000004769,2545.249554282857,359.9526439290891,male,1,1
4066,5442.299999952316,listb,NA,survey-text,151,卢克正在答应霍普,<img src='gifs/ChineseGender1b.gif' style='height:400px;''></img>,答应,正在答应,chinese,chinese,man,asian,NA,ChineseGender1b,gender_asian,霍普,卢克,asian,asian,female,male,TRUE,TRUE,TRUE,right_name,male,asian,TRUE,included,included,included,1,1,3,7129.800000004769,2545.249554282857,359.9526439290891,male,1,1
4066,11471.200000047684,listb,NA,survey-text,155,戴夫正在联系露丝,<img src='gifs/ChineseGender3b.gif' style='height:400px;''></img>,联系,正在联系,chinese,chinese,man,asian,NA,ChineseGender3b,gender_asian,露丝,戴夫,asian,asian,female,male,TRUE,TRUE,TRUE,right_name,male,asian,TRUE,included,included,included,1,1,4,7129.800000004769,2545.249554282857,359.9526439290891,male,1,1
4066,5212,listb,NA,survey-text,159,麦克正在提到贝斯,<img src='gifs/BlackGender2a.gif' style='height:400px;''></img>,提到,正在提到,chinese,chinese,man,asian,NA,BlackGender2a,gender_black,贝斯,麦克,black,black,female,male,TRUE,TRUE,TRUE,right_name,male,black,TRUE,included,included,included,1,0,5,7129.800000004769,2545.249554282857,359.9526439290891,male,1,1
4066,5448.299999952316,listb,NA,survey-text,163,霍普正在介绍贝斯,<img src='gifs/FemaleRace1b.gif' style='height:400px;''></img>,介绍,正在介绍,chinese,chinese,man,asian,NA,FemaleRace1b,race_female,霍普,贝斯,asian,black,female,female,TRUE,TRUE,TRUE,left_name,female,asian,TRUE,included,included,included,0,1,6,7129.800000004769,2545.249554282857,359.9526439290891,male,0,1
4066,4788.699999928474,listb,NA,survey-text,167,贝斯正在聘用弗雷,<img src='gifs/BlackGender1a.gif' style='height:400px;''></img>,聘用,正在聘用,chinese,chinese,man,asian,NA,BlackGender1a,gender_black,贝斯,弗雷,black,black,female,male,TRUE,TRUE,TRUE,left_name,female,black,TRUE,included,included,included,0,0,7,7129.800000004769,2545.249554282857,359.9526439290891,male,0,0
4066,4680.299999952316,listb,NA,survey-text,175,露丝正在联系卢克,<img src='gifs/ChineseGender2b.gif' style='height:400px;''></img>,联系,正在联系,chinese,chinese,man,asian,NA,ChineseGender2b,gender_asian,露丝,卢克,asian,asian,female,male,TRUE,TRUE,TRUE,left_name,female,asian,TRUE,included,included,included,0,1,9,7129.800000004769,2545.249554282857,359.9526439290891,male,0,0
4066,7427.100000023842,listb,NA,survey-text,179,露丝正在加入凯特,<img src='gifs/FemaleRace4b.gif' style='height:400px;''></img>,加入,正在加入,chinese,chinese,man,asian,NA,FemaleRace4b,race_female,露丝,凯特,asian,black,female,female,TRUE,TRUE,TRUE,left_name,female,asian,TRUE,included,included,included,0,1,10,7129.800000004769,2545.249554282857,359.9526439290891,male,0,1
4066,5691.399999976158,listb,NA,survey-text,187,凯特正在提到露丝,<img src='gifs/FemaleRace4b.gif' style='height:400px;''></img>,提到,正在提到,chinese,chinese,man,asian,NA,FemaleRace4b,race_female,露丝,凯特,asian,black,female,female,TRUE,TRUE,TRUE,right_name,female,black,TRUE,included,included,included,0,0,12,7129.800000004769,2545.249554282857,359.9526439290891,male,0,0
4066,7822.700000047684,listb,NA,survey-text,191,贝斯正在触摸弗雷,<img src='gifs/BlackGender1b.gif' style='height:400px;''></img>,触摸,正在触摸,chinese,chinese,man,asian,NA,BlackGender1b,gender_black,弗雷,贝斯,black,black,male,female,TRUE,TRUE,TRUE,right_name,female,black,TRUE,included,included,included,0,0,13,7129.800000004769,2545.249554282857,359.9526439290891,male,0,0
4066,4548.299999952316,listb,NA,survey-text,195,贝斯正在答应霍普,<img src='gifs/FemaleRace1b.gif' style='height:400px;''></img>,答应,正在答应,chinese,chinese,man,asian,NA,FemaleRace1b,race_female,霍普,贝斯,asian,black,female,female,TRUE,TRUE,TRUE,right_name,female,black,TRUE,included,included,included,0,0,14,7129.800000004769,2545.249554282857,359.9526439290891,male,0,0
4066,7532.5,listb,NA,survey-text,199,戴夫正在跟随霍普,<img src='gifs/ChineseGender4b.gif' style='height:400px;''></img>,跟随,正在跟随,chinese,chinese,man,asian,NA,ChineseGender4b,gender_asian,霍普,戴夫,asian,asian,female,male,TRUE,TRUE,TRUE,right_name,male,asian,TRUE,included,included,included,1,1,15,7129.800000004769,2545.249554282857,359.9526439290891,male,1,1
4066,7339.799999952316,listb,NA,survey-text,203,弗雷正在聘用戴夫,<img src='gifs/MaleRace3a.gif' style='height:400px;''></img>,聘用,正在聘用,chinese,chinese,man,asian,NA,MaleRace3a,race_male,戴夫,弗雷,asian,black,male,male,TRUE,TRUE,TRUE,right_name,male,black,TRUE,included,included,included,1,0,16,7129.800000004769,2545.249554282857,359.9526439290891,male,1,0
4066,5211,listb,NA,survey-text,207,弗雷正在走向卢克,<img src='gifs/MaleRace1a.gif' style='height:400px;''></img>,走向,正在走向,chinese,chinese,man,asian,NA,MaleRace1a,race_male,卢克,弗雷,asian,black,male,male,TRUE,TRUE,TRUE,right_name,male,black,TRUE,included,included,included,1,0,17,7129.800000004769,2545.249554282857,359.9526439290891,male,1,0
4066,5381.100000023842,listb,NA,survey-text,211,麦克正在聆听卢克,<img src='gifs/MaleRace2a.gif' style='height:400px;''></img>,聆听,正在聆听,chinese,chinese,man,asian,NA,MaleRace2a,race_male,卢克,麦克,asian,black,male,male,TRUE,TRUE,TRUE,right_name,male,black,TRUE,included,included,included,1,0,18,7129.800000004769,2545.249554282857,359.9526439290891,male,1,0
4066,4534.399999976158,listb,NA,survey-text,233,露丝正在走向贝斯,<img src='gifs/FemaleRace3a.gif' style='height:400px;''></img>,走向,正在走向,chinese,chinese,man,asian,NA,FemaleRace3a,race_female,贝斯,露丝,black,asian,female,female,TRUE,TRUE,TRUE,right_name,female,asian,TRUE,included,included,included,0,1,19,7129.800000004769,2545.249554282857,359.9526439290891,male,0,1
4066,5267.800000071526,listb,NA,survey-text,237,麦克正在触摸凯特,<img src='gifs/BlackGender4b.gif' style='height:400px;''></img>,触摸,正在触摸,chinese,chinese,man,asian,NA,BlackGender4b,gender_black,麦克,凯特,black,black,male,female,TRUE,TRUE,TRUE,left_name,male,black,TRUE,included,included,included,1,0,20,7129.800000004769,2545.249554282857,359.9526439290891,male,1,1
4066,5203.600000023842,listb,NA,survey-text,241,戴夫正在跟随弗雷,<img src='gifs/MaleRace3b.gif' style='height:400px;''></img>,跟随,正在跟随,chinese,chinese,man,asian,NA,MaleRace3b,race_male,弗雷,戴夫,black,asian,male,male,TRUE,TRUE,TRUE,right_name,male,asian,TRUE,included,included,included,1,1,21,7129.800000004769,2545.249554282857,359.9526439290891,male,1,1
4066,8331.400000095367,listb,NA,survey-text,245,凯特正在接近霍普,<img src='gifs/FemaleRace2b.gif' style='height:400px;''></img>,接近,正在接近,chinese,chinese,man,asian,NA,FemaleRace2b,race_female,霍普,凯特,asian,black,female,female,TRUE,TRUE,TRUE,right_name,female,black,TRUE,included,included,included,0,0,22,7129.800000004769,2545.249554282857,359.9526439290891,male,0,0
4066,7229.300000071526,listb,NA,survey-text,249,麦克正在表扬卢克,<img src='gifs/MaleRace2b.gif' style='height:400px;''></img>,表扬,正在表扬,chinese,chinese,man,asian,NA,MaleRace2b,race_male,麦克,卢克,black,asian,male,male,TRUE,TRUE,TRUE,left_name,male,black,TRUE,included,included,included,1,0,23,7129.800000004769,2545.249554282857,359.9526439290891,male,1,0
4066,4678.5,listb,NA,survey-text,253,麦克正在表扬凯特,<img src='gifs/BlackGender4a.gif' style='height:400px;''></img>,表扬,正在表扬,chinese,chinese,man,asian,NA,BlackGender4a,gender_black,凯特,麦克,black,black,female,male,TRUE,TRUE,TRUE,right_name,male,black,TRUE,included,included,included,1,0,24,7129.800000004769,2545.249554282857,359.9526439290891,male,1,1
4066,8817,listb,NA,survey-text,257,麦克正在接近贝斯,<img src='gifs/BlackGender2b.gif' style='height:400px;''></img>,接近,正在接近,chinese,chinese,man,asian,NA,BlackGender2b,gender_black,麦克,贝斯,black,black,male,female,TRUE,TRUE,TRUE,left_name,male,black,TRUE,included,included,included,1,0,25,7129.800000004769,2545.249554282857,359.9526439290891,male,1,1
4066,4853.5,listb,NA,survey-text,261,戴夫正在陪伴弗雷,<img src='gifs/MaleRace3b.gif' style='height:400px;''></img>,陪伴,正在陪伴,chinese,chinese,man,asian,NA,MaleRace3b,race_male,弗雷,戴夫,black,asian,male,male,TRUE,TRUE,TRUE,right_name,male,asian,TRUE,included,included,included,1,1,26,7129.800000004769,2545.249554282857,359.9526439290891,male,1,1
4066,7132.5,listb,NA,survey-text,265,凯特正在触摸霍普,<img src='gifs/FemaleRace2b.gif' style='height:400px;''></img>,触摸,正在触摸,chinese,chinese,man,asian,NA,FemaleRace2b,race_female,霍普,凯特,asian,black,female,female,TRUE,TRUE,TRUE,right_name,female,black,TRUE,included,included,included,0,0,27,7129.800000004769,2545.249554282857,359.9526439290891,male,0,0
4066,5294.600000023842,listb,NA,survey-text,273,凯特正在加入霍普,<img src='gifs/FemaleRace2a.gif' style='height:400px;''></img>,加入,正在加入,chinese,chinese,man,asian,NA,FemaleRace2a,race_female,凯特,霍普,black,asian,female,female,TRUE,TRUE,TRUE,left_name,female,black,TRUE,included,included,included,0,0,29,7129.800000004769,2545.249554282857,359.9526439290891,male,0,0
4066,4979,listb,NA,survey-text,277,凯特正在看着麦克,<img src='gifs/BlackGender4b.gif' style='height:400px;''></img>,看着,正在看着,chinese,chinese,man,asian,NA,BlackGender4b,gender_black,麦克,凯特,black,black,male,female,TRUE,TRUE,TRUE,right_name,female,black,TRUE,included,included,included,0,0,30,7129.800000004769,2545.249554282857,359.9526439290891,male,0,0
4066,6357,listb,NA,survey-text,281,霍普正在说服卢克,<img src='gifs/ChineseGender1a.gif' style='height:400px;''></img>,说服,正在说服,chinese,chinese,man,asian,NA,ChineseGender1a,gender_asian,卢克,霍普,asian,asian,male,female,TRUE,TRUE,TRUE,right_name,female,asian,TRUE,included,included,included,0,1,31,7129.800000004769,2545.249554282857,359.9526439290891,male,0,0
4066,4924.200000047684,listb,NA,survey-text,285,贝斯正在提到霍普,<img src='gifs/FemaleRace1a.gif' style='height:400px;''></img>,提到,正在提到,chinese,chinese,man,asian,NA,FemaleRace1a,race_female,贝斯,霍普,black,asian,female,female,TRUE,TRUE,TRUE,left_name,female,black,TRUE,included,included,included,0,0,32,7129.800000004769,2545.249554282857,359.9526439290891,male,0,0
4066,4330.899999976158,listb,NA,survey-text,289,卢克正在说服露丝,<img src='gifs/ChineseGender2b.gif' style='height:400px;''></img>,说服,正在说服,chinese,chinese,man,asian,NA,ChineseGender2b,gender_asian,露丝,卢克,asian,asian,female,male,TRUE,TRUE,TRUE,right_name,male,asian,TRUE,included,included,included,1,1,33,7129.800000004769,2545.249554282857,359.9526439290891,male,1,1
4066,5074.599999904633,listb,NA,survey-text,293,贝斯正在聆听麦克,<img src='gifs/BlackGender2b.gif' style='height:400px;''></img>,聆听,正在聆听,chinese,chinese,man,asian,NA,BlackGender2b,gender_black,麦克,贝斯,black,black,male,female,TRUE,TRUE,TRUE,right_name,female,black,TRUE,included,included,included,0,0,34,7129.800000004769,2545.249554282857,359.9526439290891,male,0,0
4066,5260.799999952316,listb,NA,survey-text,297,戴夫正在接近露丝,<img src='gifs/ChineseGender3a.gif' style='height:400px;''></img>,接近,正在接近,chinese,chinese,man,asian,NA,ChineseGender3a,gender_asian,戴夫,露丝,asian,asian,male,female,TRUE,TRUE,TRUE,left_name,male,asian,TRUE,included,included,included,1,1,35,7129.800000004769,2545.249554282857,359.9526439290891,male,1,1
4066,4949.299999952316,listb,NA,survey-text,301,凯特正在触摸弗雷,<img src='gifs/BlackGender3b.gif' style='height:400px;''></img>,触摸,正在触摸,chinese,chinese,man,asian,NA,BlackGender3b,gender_black,弗雷,凯特,black,black,male,female,TRUE,TRUE,TRUE,right_name,female,black,TRUE,included,included,included,0,0,36,7129.800000004769,2545.249554282857,359.9526439290891,male,0,0
4299,29167.39999997616,listb,NA,survey-text,61,霍普正在看着贝斯,<img src='gifs/FemaleRace1b.gif' style='height:400px;''></img>,看着,正在看着,chinese,chinese,woman,asian,NA,FemaleRace1b,race_female,霍普,贝斯,asian,black,female,female,TRUE,TRUE,TRUE,left_name,female,asian,TRUE,included,included,included,0,1,62,15002.780952385492,15164.286843357902,2339.9002597162003,female,1,1
4299,15338,listb,NA,survey-text,77,霍普正在表扬凯特,<img src='gifs/FemaleRace2b.gif' style='height:400px;''></img>,表扬,正在表扬,chinese,chinese,woman,asian,NA,FemaleRace2b,race_female,霍普,凯特,asian,black,female,female,TRUE,TRUE,TRUE,left_name,female,asian,TRUE,included,included,included,0,1,66,15002.780952385492,15164.286843357902,2339.9002597162003,female,1,1
4299,20283.700000047684,listb,NA,survey-text,81,露丝正在触摸凯特,<img src='gifs/FemaleRace4a.gif' style='height:400px;''></img>,触摸,正在触摸,chinese,chinese,woman,asian,NA,FemaleRace4a,race_female,凯特,露丝,black,asian,female,female,TRUE,TRUE,TRUE,right_name,female,asian,TRUE,included,included,included,0,1,67,15002.780952385492,15164.286843357902,2339.9002597162003,female,1,1
4299,13958.600000023842,listb,NA,survey-text,85,凯特正在看着霍普,<img src='gifs/FemaleRace2b.gif' style='height:400px;''></img>,看着,正在看着,chinese,chinese,woman,asian,NA,FemaleRace2b,race_female,霍普,凯特,asian,black,female,female,TRUE,TRUE,TRUE,right_name,female,black,TRUE,included,included,included,0,0,68,15002.780952385492,15164.286843357902,2339.9002597162003,female,1,0
4299,39223.39999997616,listb,NA,survey-text,89,霍普正在陪伴贝斯,<img src='gifs/FemaleRace1a.gif' style='height:400px;''></img>,陪伴,正在陪伴,chinese,chinese,woman,asian,NA,FemaleRace1a,race_female,贝斯,霍普,black,asian,female,female,TRUE,TRUE,TRUE,right_name,female,asian,TRUE,included,included,included,0,1,69,15002.780952385492,15164.286843357902,2339.9002597162003,female,1,1
4299,10108.399999976158,listb,NA,survey-text,101,露丝正在接近卢克,<img src='gifs/ChineseGender2b.gif' style='height:400px;''></img>,接近,正在接近,chinese,chinese,woman,asian,NA,ChineseGender2b,gender_asian,露丝,卢克,asian,asian,female,male,TRUE,TRUE,TRUE,left_name,female,asian,TRUE,included,included,included,0,1,72,15002.780952385492,15164.286843357902,2339.9002597162003,female,1,1
