"rt","stimulus","button_pressed","trial_type","trial_index","time_elapsed","internal_node_id","subject","list","ppt_gender","url","key_press","sentence_type","verb","test_part","responses","question_order","left_part","right_part"
"158279","Welcome to the experiment. Press Continue to begin.","0","html-button-response","0","178443","0.0-0.0","15044","1B","woman","","","","","","","","",""
"9920","","","external-html","1","189463","0.0-1.0","15044","1B","woman","consent.html","","","","","","","",""
"481057","<p>Welcome.</p><p>In this experiment we will ask you to imagine some situations.</p><p>Each trial starts with a description of an event.</p><p>Then you will see alternative descriptions of that event, and you will rate on a scale how best they match the original description.</p><p>You will give your answer by clicking a button on a rating scale.</p><p>To do this task, you will have to use your imagination to visualise these events.</p><br><p>Ready?</p>","0","html-button-response","2","1252076","0.0-2.0","15044","1B","woman","","","","","","","","",""
"2427","<p>Before the experiment starts, you will watch an example trial. Press 'Continue'.</p>","0","html-button-response","3","1255531","0.0-3.0","15044","1B","woman","","","","","","","","",""
"null","The police officer is arresting the robber","","html-keyboard-response","4","1258537","0.0-4.0","15044","1B","woman","","null","","","","","","",""
"10004","<img src='img/Example-trial.jpg' style='height:550px;''></img>","0","html-button-response","5","1268546","0.0-5.0","15044","1B","woman","","","","","","","","",""
"3113","<p>Ready to start the experiment?</p><br><p><strong>Remember to give an answer by clicking a button on the rating scale.</strong></p><p>Press 'Continue' to begin.</p>","0","html-button-response","6","1272663","0.0-6.0","15044","1B","woman","","","","","","","","",""
"null","Kate is chasing Beth","","html-keyboard-response","7","1275671","0.0-7.0-0.0","15044","1B","woman","","null","W1 is chasing W3","chase","sentence","","","",""
"7529.999999999884","","","survey-likert-extra-labels","8","1283223","0.0-7.0-1.0-0.0","15044","1B","woman","","","W1 is chasing W3","chase","rating_causation","{""Q0"":5}","[0]","W1 is running away from W3","W3 is running away from W1"
"8535","","","survey-likert-extra-labels","9","1291761","0.0-7.0-2.0","15044","1B","woman","","","W1 is chasing W3","chase","rating_volition","{""Q0"":1}","[0]","W1 is behind W3","W3 is behind W1"
"null","Luke is reminding Jane","","html-keyboard-response","10","1293766","0.0-8.0-0.0","15044","1B","woman","","null","M2 is reminding W4","remind","sentence","","","",""
"15640.000000000116","","","survey-likert-extra-labels","11","1309411","0.0-8.0-1.0-0.0","15044","1B","woman","","","M2 is reminding W4","remind","rating_causation","{""Q0"":5}","[0]","M2 is remembering","W4 is remembering"
"6559.999999999884","","","survey-likert-extra-labels","12","1315976","0.0-8.0-2.0","15044","1B","woman","","","M2 is reminding W4","remind","rating_volition","{""Q0"":1}","[0]","M2 is telling W4 again","W4 is telling M2 again"
"null","Luke is posing for Mike","","html-keyboard-response","13","1317981","0.0-9.0-0.0","15044","1B","woman","","null","M2 is posing for M4","pose","sentence","","","",""
"4512","","","survey-likert-extra-labels","14","1322500","0.0-9.0-1.0-0.0","15044","1B","woman","","","M2 is posing for M4","pose","rating_causation","{""Q0"":5}","[0]","M2 is photographing M4","M4 is photographing M2"
"5738","","","survey-likert-extra-labels","15","1328244","0.0-9.0-2.0","15044","1B","woman","","","M2 is posing for M4","pose","rating_volition","{""Q0"":1}","[0]","M2 is modelling for M4","M4 is modelling for M2"
"null","Kate is marrying Dave","","html-keyboard-response","16","1330250","0.0-10.0-0.0","15044","1B","woman","","null","W1 is marrying M3","marry3","sentence","","","",""
"10618","","","survey-likert-extra-labels","17","1340874","0.0-10.0-2.0","15044","1B","woman","","","W1 is marrying M3","marry3","rating_volition","{""Q0"":3}","[0]","M3 wanted to marry W1","W1 wanted to marry M3"
"22656","","","survey-likert-extra-labels","18","1363537","0.0-10.0-3.0-0.0","15044","1B","woman","","","W1 is marrying M3","marry3","rating_causation","{""Q0"":2}","[0]","M3 asked to marry W1","W1 asked to marry M3"
"null","Jane is arguing with Luke","","html-keyboard-response","19","1365545","0.0-11.0-0.0","15044","1B","woman","","null","W4 is arguing with M2","argue4","sentence","","","",""
"8413","","","survey-likert-extra-labels","20","1373968","0.0-11.0-1.0-0.0","15044","1B","woman","","","W4 is arguing with M2","argue4","rating_causation","{""Q0"":3}","[0]","M2 started an argument with W4","W4 started an argument with M2"
"6222","","","survey-likert-extra-labels","21","1380196","0.0-11.0-2.0","15044","1B","woman","","","W4 is arguing with M2","argue4","rating_volition","{""Q0"":3}","[0]","M2 wanted to argue with W4","W4 wanted to argue with M2"
"null","Ruth is touching Jane","","html-keyboard-response","22","1382201","0.0-12.0-0.0","15044","1B","woman","","null","W2 is touching W4","touch1","sentence","","","",""
"16441","","","survey-likert-extra-labels","23","1398649","0.0-12.0-2.0","15044","1B","woman","","","W2 is touching W4","touch1","rating_volition","{""Q0"":2}","[0]","W2 wanted to touch W4","W4 wanted to touch W2"
"13149","","","survey-likert-extra-labels","24","1411802","0.0-12.0-3.0-0.0","15044","1B","woman","","","W2 is touching W4","touch1","rating_causation","{""Q0"":3}","[0]","W2 asked to touch W4","W4 asked to touch W2"
"null","Luke is talking to Jane","","html-keyboard-response","25","1413808","0.0-13.0-0.0","15044","1B","woman","","null","M2 is talking to W4","talk4","sentence","","","",""
"6466","","","survey-likert-extra-labels","26","1420280","0.0-13.0-1.0-0.0","15044","1B","woman","","","M2 is talking to W4","talk4","rating_causation","{""Q0"":2}","[0]","M2 started a conversation with W4","W4 started a conversation with M2"
"10656.000000000116","","","survey-likert-extra-labels","27","1430941","0.0-13.0-2.0","15044","1B","woman","","","M2 is talking to W4","talk4","rating_volition","{""Q0"":1}","[0]","M2 wanted to talk to W4","W4 wanted to talk to M2"
"null","Kate is talking to Beth","","html-keyboard-response","28","1432945","0.0-14.0-0.0","15044","1B","woman","","null","W1 is talking to W3","talk1","sentence","","","",""
"12340","","","survey-likert-extra-labels","29","1445290","0.0-14.0-2.0","15044","1B","woman","","","W1 is talking to W3","talk1","rating_volition","{""Q0"":2}","[0]","W1 wanted to talk to W3","W3 wanted to talk to W1"
"8022","","","survey-likert-extra-labels","30","1453318","0.0-14.0-3.0-0.0","15044","1B","woman","","","W1 is talking to W3","talk1","rating_causation","{""Q0"":3}","[0]","W1 started a conversation with W3","W3 started a conversation with W1"
"null","Fred is driving Dave","","html-keyboard-response","31","1455322","0.0-15.0-0.0","15044","1B","woman","","null","M1 is driving M3","drive","sentence","","","",""
"14528","","","survey-likert-extra-labels","32","1469856","0.0-15.0-1.0-0.0","15044","1B","woman","","","M1 is driving M3","drive","rating_causation","{""Q0"":5}","[0]","M3 is taking M1 somewhere","M1 is taking M3 somewhere"
"6336","","","survey-likert-extra-labels","33","1476198","0.0-15.0-2.0","15044","1B","woman","","","M1 is driving M3","drive","rating_volition","{""Q0"":1}","[0]","M3 is M1's passenger","M1 is M3's passenger"
"null","Luke is dancing with Jane","","html-keyboard-response","34","1478203","0.0-16.0-0.0","15044","1B","woman","","null","M2 is dancing with W4","dance4","sentence","","","",""
"5356","","","survey-likert-extra-labels","35","1483565","0.0-16.0-2.0","15044","1B","woman","","","M2 is dancing with W4","dance4","rating_volition","{""Q0"":2}","[0]","M2 wanted to dance with W4","W4 wanted to dance with M2"
"3748","","","survey-likert-extra-labels","36","1487317","0.0-16.0-3.0-0.0","15044","1B","woman","","","M2 is dancing with W4","dance4","rating_causation","{""Q0"":3}","[0]","M2 asked W4 to dance","W4 asked M2 to dance"
"null","Kate is fighting with Dave","","html-keyboard-response","37","1489322","0.0-17.0-0.0","15044","1B","woman","","null","W1 is fighting with M3","fight4","sentence","","","",""
"2634","","","survey-likert-extra-labels","38","1491969","0.0-17.0-2.0","15044","1B","woman","","","W1 is fighting with M3","fight4","rating_volition","{""Q0"":3}","[0]","M3 wanted to fight W1","W1 wanted to fight M3"
"10394","","","survey-likert-extra-labels","39","1502368","0.0-17.0-3.0-0.0","15044","1B","woman","","","W1 is fighting with M3","fight4","rating_causation","{""Q0"":3}","[0]","M3 started the fight with W1","W1 started the fight with M3"
"null","Ruth is flirting with Jane","","html-keyboard-response","40","1504374","0.0-18.0-0.0","15044","1B","woman","","null","W2 is flirting with W4","flirt1","sentence","","","",""
"8196","","","survey-likert-extra-labels","41","1512575","0.0-18.0-2.0","15044","1B","woman","","","W2 is flirting with W4","flirt1","rating_volition","{""Q0"":1}","[0]","W2 wanted to flirt with W4","W4 wanted to flirt with W2"
"6871","","","survey-likert-extra-labels","42","1519453","0.0-18.0-3.0-0.0","15044","1B","woman","","","W2 is flirting with W4","flirt1","rating_causation","{""Q0"":2}","[0]","W2 started flirting with W4 first","W4 started flirting with W2 first"
"null","Ruth is talking to Mike","","html-keyboard-response","43","1521457","0.0-19.0-0.0","15044","1B","woman","","null","W2 is talking to M4","talk3","sentence","","","",""
"3240","","","survey-likert-extra-labels","44","1524701","0.0-19.0-1.0-0.0","15044","1B","woman","","","W2 is talking to M4","talk3","rating_causation","{""Q0"":3}","[0]","W2 started a conversation with M4","M4 started a conversation with W2"
"4310","","","survey-likert-extra-labels","45","1529016","0.0-19.0-2.0","15044","1B","woman","","","W2 is talking to M4","talk3","rating_volition","{""Q0"":3}","[0]","W2 wanted to talk to M4","M4 wanted to talk to W2"
"null","Fred is fighting with Beth","","html-keyboard-response","46","1531020","0.0-20.0-0.0","15044","1B","woman","","null","M1 is fighting with W3","fight3","sentence","","","",""
"4782.999999999884","","","survey-likert-extra-labels","47","1535810","0.0-20.0-1.0-0.0","15044","1B","woman","","","M1 is fighting with W3","fight3","rating_causation","{""Q0"":3}","[0]","W3 started the fight with M1","M1 started the fight with W3"
"2769","","","survey-likert-extra-labels","48","1538584","0.0-20.0-2.0","15044","1B","woman","","","M1 is fighting with W3","fight3","rating_volition","{""Q0"":3}","[0]","W3 wanted to fight M1","M1 wanted to fight W3"
"null","Beth is touching Fred","","html-keyboard-response","49","1540589","0.0-21.0-0.0","15044","1B","woman","","null","W3 is touching M1","touch3","sentence","","","",""
"4258.000000000116","","","survey-likert-extra-labels","50","1544854","0.0-21.0-2.0","15044","1B","woman","","","W3 is touching M1","touch3","rating_volition","{""Q0"":2}","[0]","W3 wanted to touch M1","M1 wanted to touch W3"
"5993","","","survey-likert-extra-labels","51","1550852","0.0-21.0-3.0-0.0","15044","1B","woman","","","W3 is touching M1","touch3","rating_causation","{""Q0"":2}","[0]","W3 asked to touch M1","M1 asked to touch W3"
"null","Ruth is teaching Mike","","html-keyboard-response","52","1552857","0.0-22.0-0.0","15044","1B","woman","","null","W2 is teaching M4","teach","sentence","","","",""
"15218.000000000116","","","survey-likert-extra-labels","53","1568089","0.0-22.0-2.0","15044","1B","woman","","","W2 is teaching M4","teach","rating_volition","{""Q0"":1}","[0]","W2 is educating M4","M4 is educating W2"
"3559","","","survey-likert-extra-labels","54","1571653","0.0-22.0-3.0-0.0","15044","1B","woman","","","W2 is teaching M4","teach","rating_causation","{""Q0"":4}","[0]","W2 is learning from M4","M4 is learning from W2"
"null","Luke is flirting with Mike","","html-keyboard-response","55","1573664","0.0-23.0-0.0","15044","1B","woman","","null","M2 is flirting with M4","flirt2","sentence","","","",""
"4687","","","survey-likert-extra-labels","56","1578357","0.0-23.0-2.0","15044","1B","woman","","","M2 is flirting with M4","flirt2","rating_volition","{""Q0"":1}","[0]","M2 wanted to flirt with M4","M4 wanted to flirt with M2"
"3755.9999999998836","","","survey-likert-extra-labels","57","1582119","0.0-23.0-3.0-0.0","15044","1B","woman","","","M2 is flirting with M4","flirt2","rating_causation","{""Q0"":2}","[0]","M2 started flirting with M4 first","M4 started flirting with M2 first"
"null","Ruth is playing with Jane","","html-keyboard-response","58","1584122","0.0-24.0-0.0","15044","1B","woman","","null","W2 is playing with W4","play1","sentence","","","",""
"4027.9999999998836","","","survey-likert-extra-labels","59","1588155","0.0-24.0-1.0-0.0","15044","1B","woman","","","W2 is playing with W4","play1","rating_causation","{""Q0"":3}","[0]","W2 asked to play with W4","W4 asked to play with W2"
"3529","","","survey-likert-extra-labels","60","1591689","0.0-24.0-2.0","15044","1B","woman","","","W2 is playing with W4","play1","rating_volition","{""Q0"":1}","[0]","W2 wanted to play with W4","W4 wanted to play with W2"
"null","Mike is fighting with Luke","","html-keyboard-response","61","1593695","0.0-25.0-0.0","15044","1B","woman","","null","M4 is fighting with M2","fight2","sentence","","","",""
"2533","","","survey-likert-extra-labels","62","1596241","0.0-25.0-1.0-0.0","15044","1B","woman","","","M4 is fighting with M2","fight2","rating_causation","{""Q0"":3}","[0]","M2 started the fight with M4","M4 started the fight with M2"
"2741","","","survey-likert-extra-labels","63","1598988","0.0-25.0-2.0","15044","1B","woman","","","M4 is fighting with M2","fight2","rating_volition","{""Q0"":3}","[0]","M2 wanted to fight M4","M4 wanted to fight M2"
"null","Beth is feeding Fred","","html-keyboard-response","64","1600993","0.0-26.0-0.0","15044","1B","woman","","null","W3 is feeding M1","feed","sentence","","","",""
"8040","","","survey-likert-extra-labels","65","1609038","0.0-26.0-1.0-0.0","15044","1B","woman","","","W3 is feeding M1","feed","rating_causation","{""Q0"":5}","[0]","W3 is eating M1's food","M1 is eating W3's food"
"6281.000000000116","","","survey-likert-extra-labels","66","1615324","0.0-26.0-2.0","15044","1B","woman","","","W3 is feeding M1","feed","rating_volition","{""Q0"":1}","[0]","W3 is giving M1 food","M1 is giving W3 food"
"null","Ruth is shouting at Mike","","html-keyboard-response","67","1617327","0.0-27.0-0.0","15044","1B","woman","","null","W2 is shouting at M4","shout4","sentence","","","",""
"4910","","","survey-likert-extra-labels","68","1622244","0.0-27.0-2.0","15044","1B","woman","","","W2 is shouting at M4","shout4","rating_volition","{""Q0"":3}","[0]","W2 wanted to shout at M4","M4 wanted to shout at W2"
"8379.999999999884","","","survey-likert-extra-labels","69","1630629","0.0-27.0-3.0-0.0","15044","1B","woman","","","W2 is shouting at M4","shout4","rating_causation","{""Q0"":3}","[0]","W2 shouted at M4 first","M4 shouted at W2 first"
"null","Beth is flirting with Fred","","html-keyboard-response","70","1632635","0.0-28.0-0.0","15044","1B","woman","","null","W3 is flirting with M1","flirt3","sentence","","","",""
"3231.9999999998836","","","survey-likert-extra-labels","71","1635873","0.0-28.0-2.0","15044","1B","woman","","","W3 is flirting with M1","flirt3","rating_volition","{""Q0"":1}","[0]","W3 wanted to flirt with M1","M1 wanted to flirt with W3"
"11496.000000000116","","","survey-likert-extra-labels","72","1647375","0.0-28.0-3.0-0.0","15044","1B","woman","","","W3 is flirting with M1","flirt3","rating_causation","{""Q0"":3}","[0]","W3 started flirting with M1 first","M1 started flirting with W3 first"
"null","Mike is arguing with Ruth","","html-keyboard-response","73","1649379","0.0-29.0-0.0","15044","1B","woman","","null","M4 is arguing with W2","argue3","sentence","","","",""
"4424","","","survey-likert-extra-labels","74","1653809","0.0-29.0-1.0-0.0","15044","1B","woman","","","M4 is arguing with W2","argue3","rating_causation","{""Q0"":3}","[0]","W2 started an argument with M4","M4 started an argument with W2"
"3148","","","survey-likert-extra-labels","75","1656962","0.0-29.0-2.0","15044","1B","woman","","","M4 is arguing with W2","argue3","rating_volition","{""Q0"":3}","[0]","W2 wanted to argue with M4","M4 wanted to argue with W2"
"null","Dave is flirting with Kate","","html-keyboard-response","76","1658967","0.0-30.0-0.0","15044","1B","woman","","null","M3 is flirting with W1","flirt4","sentence","","","",""
"3008","","","survey-likert-extra-labels","77","1661982","0.0-30.0-2.0","15044","1B","woman","","","M3 is flirting with W1","flirt4","rating_volition","{""Q0"":1}","[0]","M3 wanted to flirt with W1","W1 wanted to flirt with M3"
"2424","","","survey-likert-extra-labels","78","1664412","0.0-30.0-3.0-0.0","15044","1B","woman","","","M3 is flirting with W1","flirt4","rating_causation","{""Q0"":3}","[0]","M3 started flirting with W1 first","W1 started flirting with M3 first"
"null","Dave is touching Kate","","html-keyboard-response","79","1666417","0.0-31.0-0.0","15044","1B","woman","","null","M3 is touching W1","touch4","sentence","","","",""
"1831","","","survey-likert-extra-labels","80","1668254","0.0-31.0-2.0","15044","1B","woman","","","M3 is touching W1","touch4","rating_volition","{""Q0"":2}","[0]","M3 wanted to touch W1","W1 wanted to touch M3"
"5633","","","survey-likert-extra-labels","81","1673892","0.0-31.0-3.0-0.0","15044","1B","woman","","","M3 is touching W1","touch4","rating_causation","{""Q0"":3}","[0]","M3 asked to touch W1","W1 asked to touch M3"
"null","Luke is playing with Mike","","html-keyboard-response","82","1675897","0.0-32.0-0.0","15044","1B","woman","","null","M2 is playing with M4","play2","sentence","","","",""
"6529","","","survey-likert-extra-labels","83","1682433","0.0-32.0-2.0","15044","1B","woman","","","M2 is playing with M4","play2","rating_volition","{""Q0"":1}","[0]","M2 wanted to play with M4","M4 wanted to play with M2"
"4374.000000000233","","","survey-likert-extra-labels","84","1686812","0.0-32.0-3.0-0.0","15044","1B","woman","","","M2 is playing with M4","play2","rating_causation","{""Q0"":3}","[0]","M2 asked to play with M4","M4 asked to play with M2"
"null","Dave is hiring Kate","","html-keyboard-response","85","1688817","0.0-33.0-0.0","15044","1B","woman","","null","M3 is hiring W1","hire","sentence","","","",""
"3920","","","survey-likert-extra-labels","86","1692743","0.0-33.0-2.0","15044","1B","woman","","","M3 is hiring W1","hire","rating_volition","{""Q0"":1}","[0]","M3 is employing W1","W1 is employing M3"
"4444","","","survey-likert-extra-labels","87","1697192","0.0-33.0-3.0-0.0","15044","1B","woman","","","M3 is hiring W1","hire","rating_causation","{""Q0"":5}","[0]","M3 will work for W1","W1 will work for M3"
"null","Beth is playing with Fred","","html-keyboard-response","88","1699197","0.0-34.0-0.0","15044","1B","woman","","null","W3 is playing with M1","play4","sentence","","","",""
"5212","","","survey-likert-extra-labels","89","1704415","0.0-34.0-2.0","15044","1B","woman","","","W3 is playing with M1","play4","rating_volition","{""Q0"":1}","[0]","W3 wanted to play with M1","M1 wanted to play with W3"
"3761","","","survey-likert-extra-labels","90","1708182","0.0-34.0-3.0-0.0","15044","1B","woman","","","W3 is playing with M1","play4","rating_causation","{""Q0"":3}","[0]","W3 asked to play with M1","M1 asked to play with W3"
"null","Mike is kissing Ruth","","html-keyboard-response","91","1710186","0.0-35.0-0.0","15044","1B","woman","","null","M4 is kissing W2","kiss4","sentence","","","",""
"6618","","","survey-likert-extra-labels","92","1716811","0.0-35.0-1.0-0.0","15044","1B","woman","","","M4 is kissing W2","kiss4","rating_causation","{""Q0"":4}","[0]","W2 asked to kiss M4","M4 asked to kiss W2"
"5011","","","survey-likert-extra-labels","93","1721827","0.0-35.0-2.0","15044","1B","woman","","","M4 is kissing W2","kiss4","rating_volition","{""Q0"":5}","[0]","W2 wanted to kiss M4","M4 wanted to kiss W2"
"null","Dave is arguing with Fred","","html-keyboard-response","94","1723832","0.0-36.0-0.0","15044","1B","woman","","null","M3 is arguing with M1","argue2","sentence","","","",""
"4338","","","survey-likert-extra-labels","95","1728176","0.0-36.0-2.0","15044","1B","woman","","","M3 is arguing with M1","argue2","rating_volition","{""Q0"":3}","[0]","M1 wanted to argue with M3","M3 wanted to argue with M1"
"1823","","","survey-likert-extra-labels","96","1730004","0.0-36.0-3.0-0.0","15044","1B","woman","","","M3 is arguing with M1","argue2","rating_causation","{""Q0"":3}","[0]","M1 started an argument with M3","M3 started an argument with M1"
"null","Beth is arguing with Kate","","html-keyboard-response","97","1732010","0.0-37.0-0.0","15044","1B","woman","","null","W3 is arguing with W1","argue1","sentence","","","",""
"1531","","","survey-likert-extra-labels","98","1733548","0.0-37.0-2.0","15044","1B","woman","","","W3 is arguing with W1","argue1","rating_volition","{""Q0"":3}","[0]","W1 wanted to argue with W3","W3 wanted to argue with W1"
"4459","","","survey-likert-extra-labels","99","1738011","0.0-37.0-3.0-0.0","15044","1B","woman","","","W3 is arguing with W1","argue1","rating_causation","{""Q0"":3}","[0]","W1 started an argument with W3","W3 started an argument with W1"
"null","Dave is playing with Kate","","html-keyboard-response","100","1740017","0.0-38.0-0.0","15044","1B","woman","","null","M3 is playing with W1","play3","sentence","","","",""
"9056","","","survey-likert-extra-labels","101","1749080","0.0-38.0-1.0-0.0","15044","1B","woman","","","M3 is playing with W1","play3","rating_causation","{""Q0"":1}","[0]","M3 asked to play with W1","W1 asked to play with M3"
"4297","","","survey-likert-extra-labels","102","1753382","0.0-38.0-2.0","15044","1B","woman","","","M3 is playing with W1","play3","rating_volition","{""Q0"":1}","[0]","M3 wanted to play with W1","W1 wanted to play with M3"
"null","Ruth is carrying Jane","","html-keyboard-response","103","1755388","0.0-39.0-0.0","15044","1B","woman","","null","W2 is carrying W4","carry","sentence","","","",""
"11658","","","survey-likert-extra-labels","104","1767053","0.0-39.0-2.0","15044","1B","woman","","","W2 is carrying W4","carry","rating_volition","{""Q0"":1}","[0]","W2 is transporting W4","W4 is transporting W2"
"9252","","","survey-likert-extra-labels","105","1776311","0.0-39.0-3.0-0.0","15044","1B","woman","","","W2 is carrying W4","carry","rating_causation","{""Q0"":5}","[0]","W2 is being moved by W4","W4 is being moved by W2"
"null","Mike is marrying Luke","","html-keyboard-response","106","1778316","0.0-40.0-0.0","15044","1B","woman","","null","M4 is marrying M2","marry2","sentence","","","",""
"305502.99999999977","","","survey-likert-extra-labels","107","3688044","0.0-40.0-2.0","15044","1B","woman","","","M4 is marrying M2","marry2","rating_volition","{""Q0"":3}","[0]","M2 wanted to marry M4","M4 wanted to marry M2"
"7970","","","survey-likert-extra-labels","108","3696023","0.0-40.0-3.0-0.0","15044","1B","woman","","","M4 is marrying M2","marry2","rating_causation","{""Q0"":3}","[0]","M2 asked to marry M4","M4 asked to marry M2"
"null","Jane is kissing Luke","","html-keyboard-response","109","3698031","0.0-41.0-0.0","15044","1B","woman","","null","W4 is kissing M2","kiss3","sentence","","","",""
"7858.000000000233","","","survey-likert-extra-labels","110","3705894","0.0-41.0-1.0-0.0","15044","1B","woman","","","W4 is kissing M2","kiss3","rating_causation","{""Q0"":4}","[0]","M2 asked to kiss W4","W4 asked to kiss M2"
"4412","","","survey-likert-extra-labels","111","3710311","0.0-41.0-2.0","15044","1B","woman","","","W4 is kissing M2","kiss3","rating_volition","{""Q0"":5}","[0]","M2 wanted to kiss W4","W4 wanted to kiss M2"
"null","Kate is dancing with Beth","","html-keyboard-response","112","3712316","0.0-42.0-0.0","15044","1B","woman","","null","W1 is dancing with W3","dance1","sentence","","","",""
"4908","","","survey-likert-extra-labels","113","3717242","0.0-42.0-2.0","15044","1B","woman","","","W1 is dancing with W3","dance1","rating_volition","{""Q0"":3}","[0]","W1 wanted to dance with W3","W3 wanted to dance with W1"
"3709","","","survey-likert-extra-labels","114","3720957","0.0-42.0-3.0-0.0","15044","1B","woman","","","W1 is dancing with W3","dance1","rating_causation","{""Q0"":3}","[0]","W1 asked W3 to dance","W3 asked W1 to dance"
"null","Fred is talking to Dave","","html-keyboard-response","115","3722962","0.0-43.0-0.0","15044","1B","woman","","null","M1 is talking to M3","talk2","sentence","","","",""
"12506","","","survey-likert-extra-labels","116","3735474","0.0-43.0-2.0","15044","1B","woman","","","M1 is talking to M3","talk2","rating_volition","{""Q0"":2}","[0]","M1 wanted to talk to M3","M3 wanted to talk to M1"
"7244","","","survey-likert-extra-labels","117","3742725","0.0-43.0-3.0-0.0","15044","1B","woman","","","M1 is talking to M3","talk2","rating_causation","{""Q0"":3}","[0]","M1 started a conversation with M3","M3 started a conversation with M1"
"null","Ruth is dancing with Mike","","html-keyboard-response","118","3744730","0.0-44.0-0.0","15044","1B","woman","","null","W2 is dancing with M4","dance3","sentence","","","",""
"6598","","","survey-likert-extra-labels","119","3751335","0.0-44.0-2.0","15044","1B","woman","","","W2 is dancing with M4","dance3","rating_volition","{""Q0"":3}","[0]","W2 wanted to dance with M4","M4 wanted to dance with W2"
"5050","","","survey-likert-extra-labels","120","3756391","0.0-44.0-3.0-0.0","15044","1B","woman","","","W2 is dancing with M4","dance3","rating_causation","{""Q0"":3}","[0]","W2 asked M4 to dance","M4 asked W2 to dance"
"null","Luke is shouting at Jane","","html-keyboard-response","121","3758395","0.0-45.0-0.0","15044","1B","woman","","null","M2 is shouting at W4","shout3","sentence","","","",""
"10773.000000000233","","","survey-likert-extra-labels","122","3769175","0.0-45.0-1.0-0.0","15044","1B","woman","","","M2 is shouting at W4","shout3","rating_causation","{""Q0"":3}","[0]","M2 shouted at W4 first","W4 shouted at M2 first"
"8076","","","survey-likert-extra-labels","123","3777259","0.0-45.0-2.0","15044","1B","woman","","","M2 is shouting at W4","shout3","rating_volition","{""Q0"":2}","[0]","M2 wanted to shout at W4","W4 wanted to shout at M2"
"null","Luke is touching Mike","","html-keyboard-response","124","3779264","0.0-46.0-0.0","15044","1B","woman","","null","M2 is touching M4","touch2","sentence","","","",""
"5672","","","survey-likert-extra-labels","125","3784945","0.0-46.0-1.0-0.0","15044","1B","woman","","","M2 is touching M4","touch2","rating_causation","{""Q0"":2}","[0]","M2 asked to touch M4","M4 asked to touch M2"
"4596","","","survey-likert-extra-labels","126","3789546","0.0-46.0-2.0","15044","1B","woman","","","M2 is touching M4","touch2","rating_volition","{""Q0"":1}","[0]","M2 wanted to touch M4","M4 wanted to touch M2"
"null","Beth is kissing Kate","","html-keyboard-response","127","3791550","0.0-47.0-0.0","15044","1B","woman","","null","W3 is kissing W1","kiss1","sentence","","","",""
"9268","","","survey-likert-extra-labels","128","3800829","0.0-47.0-2.0","15044","1B","woman","","","W3 is kissing W1","kiss1","rating_volition","{""Q0"":4}","[0]","W1 wanted to kiss W3","W3 wanted to kiss W1"
"3858.000000000233","","","survey-likert-extra-labels","129","3804692","0.0-47.0-3.0-0.0","15044","1B","woman","","","W3 is kissing W1","kiss1","rating_causation","{""Q0"":4}","[0]","W1 asked to kiss W3","W3 asked to kiss W1"
"null","Fred is marrying Beth","","html-keyboard-response","130","3806697","0.0-48.0-0.0","15044","1B","woman","","null","M1 is marrying W3","marry4","sentence","","","",""
"6159","","","survey-likert-extra-labels","131","3812863","0.0-48.0-2.0","15044","1B","woman","","","M1 is marrying W3","marry4","rating_volition","{""Q0"":3}","[0]","W3 wanted to marry M1","M1 wanted to marry W3"
"3930","","","survey-likert-extra-labels","132","3816797","0.0-48.0-3.0-0.0","15044","1B","woman","","","M1 is marrying W3","marry4","rating_causation","{""Q0"":4}","[0]","W3 asked to marry M1","M1 asked to marry W3"
"null","Jane is fighting with Ruth","","html-keyboard-response","133","3818802","0.0-49.0-0.0","15044","1B","woman","","null","W4 is fighting with W2","fight1","sentence","","","",""
"4038","","","survey-likert-extra-labels","134","3822849","0.0-49.0-1.0-0.0","15044","1B","woman","","","W4 is fighting with W2","fight1","rating_causation","{""Q0"":3}","[0]","W2 started the fight with W4","W4 started the fight with W2"
"2309.000000000233","","","survey-likert-extra-labels","135","3825164","0.0-49.0-2.0","15044","1B","woman","","","W4 is fighting with W2","fight1","rating_volition","{""Q0"":3}","[0]","W2 wanted to fight W4","W4 wanted to fight W2"
"null","Kate is shouting at Beth","","html-keyboard-response","136","3827169","0.0-50.0-0.0","15044","1B","woman","","null","W1 is shouting at W3","shout1","sentence","","","",""
"7355.000000000233","","","survey-likert-extra-labels","137","3834530","0.0-50.0-1.0-0.0","15044","1B","woman","","","W1 is shouting at W3","shout1","rating_causation","{""Q0"":2}","[0]","W1 shouted at W3 first","W3 shouted at W1 first"
"6219","","","survey-likert-extra-labels","138","3840754","0.0-50.0-2.0","15044","1B","woman","","","W1 is shouting at W3","shout1","rating_volition","{""Q0"":2}","[0]","W1 wanted to shout at W3","W3 wanted to shout at W1"
"null","Dave is kissing Fred","","html-keyboard-response","139","3842761","0.0-51.0-0.0","15044","1B","woman","","null","M3 is kissing M1","kiss2","sentence","","","",""
"12016","","","survey-likert-extra-labels","140","3854783","0.0-51.0-2.0","15044","1B","woman","","","M3 is kissing M1","kiss2","rating_volition","{""Q0"":4}","[0]","M1 wanted to kiss M3","M3 wanted to kiss M1"
"5424","","","survey-likert-extra-labels","141","3860213","0.0-51.0-3.0-0.0","15044","1B","woman","","","M3 is kissing M1","kiss2","rating_causation","{""Q0"":4}","[0]","M1 asked to kiss M3","M3 asked to kiss M1"
"null","Fred is shouting at Dave","","html-keyboard-response","142","3862217","0.0-52.0-0.0","15044","1B","woman","","null","M1 is shouting at M3","shout2","sentence","","","",""
"2308","","","survey-likert-extra-labels","143","3864530","0.0-52.0-2.0","15044","1B","woman","","","M1 is shouting at M3","shout2","rating_volition","{""Q0"":3}","[0]","M1 wanted to shout at M3","M3 wanted to shout at M1"
"2629.000000000233","","","survey-likert-extra-labels","144","3867164","0.0-52.0-3.0-0.0","15044","1B","woman","","","M1 is shouting at M3","shout2","rating_causation","{""Q0"":3}","[0]","M1 shouted at M3 first","M3 shouted at M1 first"
"null","Fred is dancing with Dave","","html-keyboard-response","145","3869170","0.0-53.0-0.0","15044","1B","woman","","null","M1 is dancing with M3","dance2","sentence","","","",""
"5773","","","survey-likert-extra-labels","146","3874950","0.0-53.0-2.0","15044","1B","woman","","","M1 is dancing with M3","dance2","rating_volition","{""Q0"":2}","[0]","M1 wanted to dance with M3","M3 wanted to dance with M1"
"10168","","","survey-likert-extra-labels","147","3885124","0.0-53.0-3.0-0.0","15044","1B","woman","","","M1 is dancing with M3","dance2","rating_causation","{""Q0"":2}","[0]","M1 asked M3 to dance","M3 asked M1 to dance"
"null","Jane is marrying Ruth","","html-keyboard-response","148","3887129","0.0-54.0-0.0","15044","1B","woman","","null","W4 is marrying W2","marry1","sentence","","","",""
"5419","","","survey-likert-extra-labels","149","3892565","0.0-54.0-2.0","15044","1B","woman","","","W4 is marrying W2","marry1","rating_volition","{""Q0"":3}","[0]","W2 wanted to marry W4","W4 wanted to marry W2"
"7213","","","survey-likert-extra-labels","150","3899784","0.0-54.0-3.0-0.0","15044","1B","woman","","","W4 is marrying W2","marry1","rating_causation","{""Q0"":3}","[0]","W2 asked to marry W4","W4 asked to marry W2"
"2756","<p>Thank you for completing that task.</p><p>The final part of this session is a short questionnaire.</p><p>Press Continue.</p>","0","html-button-response","151","3902547","0.0-55.0","15044","1B","woman","","","","","","","","",""
"26761","","","survey-text","152","3930350","0.0-56.0","15044","1B","woman","","","","","demographics","{""Q0"":""32"",""Q1"":""English"",""Q2"":""English"",""Q3"":""UK"",""Q4"":""British"",""Q5"":""Mixed"",""Q6"":""Female ""}","","",""
"7336","<p>Have you lived in the UK for the last 5 years or more?</p>","0","html-button-response","153","3937694","0.0-57.0","15044","1B","woman","","","","","fiveyears","","","",""
"77156","","","survey-text","154","4015872","0.0-58.0","15044","1B","woman","","","","","worker_id","{""Q0"":""5ebb1c1efa1e090e0708502f""}","","",""
"6778","","","external-html","155","4022776","0.0-59.0","15044","1B","woman","debrief.html","","","","","","","",""
