"rt","stimulus","button_pressed","trial_type","trial_index","time_elapsed","internal_node_id","subject","list","ppt_gender","url","key_press","sentence_type","verb","test_part","responses","question_order","left_part","right_part"
"2681.5300000000093","Welcome to the experiment. Press Continue to begin.","0","html-button-response","0","2684","0.0-0.0","16004","1A","woman","","","","","","","","",""
"66295.81000000001","","","external-html","1","70008","0.0-1.0","16004","1A","woman","consent.html","","","","","","","",""
"12959.210000000006","<p>Welcome.</p><p>In this experiment we will ask you to imagine some situations.</p><p>Each trial starts with a description of an event.</p><p>Then you will see alternative descriptions of that event, and you will rate on a scale how best they match the original description.</p><p>You will give your answer by clicking a button on a rating scale.</p><p>To do this task, you will have to use your imagination to visualise these events.</p><br><p>Ready?</p>","0","html-button-response","2","82968","0.0-2.0","16004","1A","woman","","","","","","","","",""
"3239.695000000007","<p>Before the experiment starts, you will watch an example trial. Press 'Continue'.</p>","0","html-button-response","3","87212","0.0-3.0","16004","1A","woman","","","","","","","","",""
"null","The police officer is arresting the robber","","html-keyboard-response","4","90216","0.0-4.0","16004","1A","woman","","null","","","","","","",""
"13433.089999999982","<img src='img/Example-trial.jpg' style='height:550px;''></img>","0","html-button-response","5","103651","0.0-5.0","16004","1A","woman","","","","","","","","",""
"3045.079999999987","<p>Ready to start the experiment?</p><br><p><strong>Remember to give an answer by clicking a button on the rating scale.</strong></p><p>Press 'Continue' to begin.</p>","0","html-button-response","6","107699","0.0-6.0","16004","1A","woman","","","","","","","","",""
"null","Ruth is dancing with Kate","","html-keyboard-response","7","110715","0.0-7.0-0.0","16004","1A","woman","","null","W1 is dancing with W3","dance1","sentence","","","",""
"9171.700000000012","","","survey-likert-extra-labels","8","119891","0.0-7.0-2.0","16004","1A","woman","","","W1 is dancing with W3","dance1","rating_volition","{""Q0"":3}","[0]","W1 wanted to dance with W3","W3 wanted to dance with W1"
"5287.230000000025","","","survey-likert-extra-labels","9","125180","0.0-7.0-3.0-0.0","16004","1A","woman","","","W1 is dancing with W3","dance1","rating_causation","{""Q0"":3}","[0]","W1 asked W3 to dance","W3 asked W1 to dance"
"null","Mike is posing for Dave","","html-keyboard-response","10","127185","0.0-8.0-0.0","16004","1A","woman","","null","M2 is posing for M4","pose","sentence","","","",""
"11012.485000000015","","","survey-likert-extra-labels","11","138199","0.0-8.0-1.0-0.0","16004","1A","woman","","","M2 is posing for M4","pose","rating_causation","{""Q0"":1}","[0]","M2 is photographing M4","M4 is photographing M2"
"6986.934999999998","","","survey-likert-extra-labels","12","145187","0.0-8.0-2.0","16004","1A","woman","","","M2 is posing for M4","pose","rating_volition","{""Q0"":0}","[0]","M2 is modelling for M4","M4 is modelling for M2"
"null","Beth is arguing with Mike","","html-keyboard-response","13","147190","0.0-9.0-0.0","16004","1A","woman","","null","W4 is arguing with M2","argue4","sentence","","","",""
"4321.445000000036","","","survey-likert-extra-labels","14","151512","0.0-9.0-1.0-0.0","16004","1A","woman","","","W4 is arguing with M2","argue4","rating_causation","{""Q0"":3}","[0]","M2 started an argument with W4","W4 started an argument with M2"
"4546.990000000049","","","survey-likert-extra-labels","15","156061","0.0-9.0-2.0","16004","1A","woman","","","W4 is arguing with M2","argue4","rating_volition","{""Q0"":3}","[0]","M2 wanted to argue with W4","W4 wanted to argue with M2"
"null","Dave is marrying Mike","","html-keyboard-response","16","158066","0.0-10.0-0.0","16004","1A","woman","","null","M4 is marrying M2","marry2","sentence","","","",""
"8765.86500000002","","","survey-likert-extra-labels","17","166834","0.0-10.0-1.0-0.0","16004","1A","woman","","","M4 is marrying M2","marry2","rating_causation","{""Q0"":4}","[0]","M2 asked to marry M4","M4 asked to marry M2"
"10681.305000000022","","","survey-likert-extra-labels","18","177518","0.0-10.0-2.0","16004","1A","woman","","","M4 is marrying M2","marry2","rating_volition","{""Q0"":3}","[0]","M2 wanted to marry M4","M4 wanted to marry M2"
"null","Jane is touching Beth","","html-keyboard-response","19","179527","0.0-11.0-0.0","16004","1A","woman","","null","W2 is touching W4","touch1","sentence","","","",""
"7338.774999999994","","","survey-likert-extra-labels","20","186866","0.0-11.0-2.0","16004","1A","woman","","","W2 is touching W4","touch1","rating_volition","{""Q0"":3}","[0]","W2 wanted to touch W4","W4 wanted to touch W2"
"3978.8400000000256","","","survey-likert-extra-labels","21","190846","0.0-11.0-3.0-0.0","16004","1A","woman","","","W2 is touching W4","touch1","rating_causation","{""Q0"":3}","[0]","W2 asked to touch W4","W4 asked to touch W2"
"null","Beth is kissing Mike","","html-keyboard-response","22","192848","0.0-12.0-0.0","16004","1A","woman","","null","W4 is kissing M2","kiss3","sentence","","","",""
"9013.100000000006","","","survey-likert-extra-labels","23","201863","0.0-12.0-2.0","16004","1A","woman","","","W4 is kissing M2","kiss3","rating_volition","{""Q0"":4}","[0]","M2 wanted to kiss W4","W4 wanted to kiss M2"
"3861.9649999999965","","","survey-likert-extra-labels","24","205726","0.0-12.0-3.0-0.0","16004","1A","woman","","","W4 is kissing M2","kiss3","rating_causation","{""Q0"":3}","[0]","M2 asked to kiss W4","W4 asked to kiss M2"
"null","Kate is feeding Luke","","html-keyboard-response","25","207728","0.0-13.0-0.0","16004","1A","woman","","null","W3 is feeding M1","feed","sentence","","","",""
"14649.454999999987","","","survey-likert-extra-labels","26","222380","0.0-13.0-1.0-0.0","16004","1A","woman","","","W3 is feeding M1","feed","rating_causation","{""Q0"":5}","[0]","W3 is eating M1's food","M1 is eating W3's food"
"5027.775000000023","","","survey-likert-extra-labels","27","227410","0.0-13.0-2.0","16004","1A","woman","","","W3 is feeding M1","feed","rating_volition","{""Q0"":0}","[0]","W3 is giving M1 food","M1 is giving W3 food"
"null","Luke is marrying Kate","","html-keyboard-response","28","229418","0.0-14.0-0.0","16004","1A","woman","","null","M1 is marrying W3","marry4","sentence","","","",""
"9485.570000000007","","","survey-likert-extra-labels","29","238906","0.0-14.0-1.0-0.0","16004","1A","woman","","","M1 is marrying W3","marry4","rating_causation","{""Q0"":3}","[0]","W3 asked to marry M1","M1 asked to marry W3"
"3767.164999999979","","","survey-likert-extra-labels","30","242675","0.0-14.0-2.0","16004","1A","woman","","","M1 is marrying W3","marry4","rating_volition","{""Q0"":3}","[0]","W3 wanted to marry M1","M1 wanted to marry W3"
"null","Beth is fighting with Jane","","html-keyboard-response","31","244678","0.0-15.0-0.0","16004","1A","woman","","null","W4 is fighting with W2","fight1","sentence","","","",""
"4100.764999999985","","","survey-likert-extra-labels","32","248779","0.0-15.0-2.0","16004","1A","woman","","","W4 is fighting with W2","fight1","rating_volition","{""Q0"":3}","[0]","W2 wanted to fight W4","W4 wanted to fight W2"
"5110.054999999993","","","survey-likert-extra-labels","33","253892","0.0-15.0-3.0-0.0","16004","1A","woman","","","W4 is fighting with W2","fight1","rating_causation","{""Q0"":3}","[0]","W2 started the fight with W4","W4 started the fight with W2"
"null","Ruth is chasing Kate","","html-keyboard-response","34","255894","0.0-16.0-0.0","16004","1A","woman","","null","W1 is chasing W3","chase","sentence","","","",""
"11584.824999999983","","","survey-likert-extra-labels","35","267479","0.0-16.0-2.0","16004","1A","woman","","","W1 is chasing W3","chase","rating_volition","{""Q0"":0}","[0]","W1 is behind W3","W3 is behind W1"
"7206.814999999944","","","survey-likert-extra-labels","36","274687","0.0-16.0-3.0-0.0","16004","1A","woman","","","W1 is chasing W3","chase","rating_causation","{""Q0"":6}","[0]","W1 is running away from W3","W3 is running away from W1"
"null","Fred is kissing Luke","","html-keyboard-response","37","276689","0.0-17.0-0.0","16004","1A","woman","","null","M3 is kissing M1","kiss2","sentence","","","",""
"3158.070000000007","","","survey-likert-extra-labels","38","279850","0.0-17.0-1.0-0.0","16004","1A","woman","","","M3 is kissing M1","kiss2","rating_causation","{""Q0"":3}","[0]","M1 asked to kiss M3","M3 asked to kiss M1"
"3077.054999999993","","","survey-likert-extra-labels","39","282928","0.0-17.0-2.0","16004","1A","woman","","","M3 is kissing M1","kiss2","rating_volition","{""Q0"":3}","[0]","M1 wanted to kiss M3","M3 wanted to kiss M1"
"null","Jane is shouting at Dave","","html-keyboard-response","40","284933","0.0-18.0-0.0","16004","1A","woman","","null","W2 is shouting at M4","shout4","sentence","","","",""
"5109.719999999972","","","survey-likert-extra-labels","41","290045","0.0-18.0-2.0","16004","1A","woman","","","W2 is shouting at M4","shout4","rating_volition","{""Q0"":3}","[0]","W2 wanted to shout at M4","M4 wanted to shout at W2"
"6412.67499999993","","","survey-likert-extra-labels","42","296459","0.0-18.0-3.0-0.0","16004","1A","woman","","","W2 is shouting at M4","shout4","rating_causation","{""Q0"":2}","[0]","W2 shouted at M4 first","M4 shouted at W2 first"
"null","Jane is flirting with Beth","","html-keyboard-response","43","298469","0.0-19.0-0.0","16004","1A","woman","","null","W2 is flirting with W4","flirt1","sentence","","","",""
"8426.960000000021","","","survey-likert-extra-labels","44","306898","0.0-19.0-1.0-0.0","16004","1A","woman","","","W2 is flirting with W4","flirt1","rating_causation","{""Q0"":2}","[0]","W2 started flirting with W4 first","W4 started flirting with W2 first"
"5317.520000000019","","","survey-likert-extra-labels","45","312217","0.0-19.0-2.0","16004","1A","woman","","","W2 is flirting with W4","flirt1","rating_volition","{""Q0"":1}","[0]","W2 wanted to flirt with W4","W4 wanted to flirt with W2"
"null","Mike is talking to Beth","","html-keyboard-response","46","314221","0.0-20.0-0.0","16004","1A","woman","","null","M2 is talking to W4","talk4","sentence","","","",""
"4938.409999999974","","","survey-likert-extra-labels","47","319161","0.0-20.0-2.0","16004","1A","woman","","","M2 is talking to W4","talk4","rating_volition","{""Q0"":3}","[0]","M2 wanted to talk to W4","W4 wanted to talk to M2"
"6436.185000000056","","","survey-likert-extra-labels","48","325600","0.0-20.0-3.0-0.0","16004","1A","woman","","","M2 is talking to W4","talk4","rating_causation","{""Q0"":2}","[0]","M2 started a conversation with W4","W4 started a conversation with M2"
"null","Ruth is fighting with Fred","","html-keyboard-response","49","327605","0.0-21.0-0.0","16004","1A","woman","","null","W1 is fighting with M3","fight4","sentence","","","",""
"10292.399999999965","","","survey-likert-extra-labels","50","337899","0.0-21.0-1.0-0.0","16004","1A","woman","","","W1 is fighting with M3","fight4","rating_causation","{""Q0"":3}","[0]","M3 started the fight with W1","W1 started the fight with M3"
"10913.000000000058","","","survey-likert-extra-labels","51","348813","0.0-21.0-2.0","16004","1A","woman","","","W1 is fighting with M3","fight4","rating_volition","{""Q0"":3}","[0]","M3 wanted to fight W1","W1 wanted to fight M3"
"null","Kate is touching Luke","","html-keyboard-response","52","350821","0.0-22.0-0.0","16004","1A","woman","","null","W3 is touching M1","touch3","sentence","","","",""
"5790.2200000000885","","","survey-likert-extra-labels","53","356614","0.0-22.0-2.0","16004","1A","woman","","","W3 is touching M1","touch3","rating_volition","{""Q0"":3}","[0]","W3 wanted to touch M1","M1 wanted to touch W3"
"3585.5599999999977","","","survey-likert-extra-labels","54","360202","0.0-22.0-3.0-0.0","16004","1A","woman","","","W3 is touching M1","touch3","rating_causation","{""Q0"":3}","[0]","W3 asked to touch M1","M1 asked to touch W3"
"null","Luke is fighting with Kate","","html-keyboard-response","55","362210","0.0-23.0-0.0","16004","1A","woman","","null","M1 is fighting with W3","fight3","sentence","","","",""
"7719.950000000012","","","survey-likert-extra-labels","56","369932","0.0-23.0-2.0","16004","1A","woman","","","M1 is fighting with W3","fight3","rating_volition","{""Q0"":3}","[0]","W3 wanted to fight M1","M1 wanted to fight W3"
"5703.7399999999325","","","survey-likert-extra-labels","57","375638","0.0-23.0-3.0-0.0","16004","1A","woman","","","M1 is fighting with W3","fight3","rating_causation","{""Q0"":4}","[0]","W3 started the fight with M1","M1 started the fight with W3"
"null","Mike is dancing with Beth","","html-keyboard-response","58","377640","0.0-24.0-0.0","16004","1A","woman","","null","M2 is dancing with W4","dance4","sentence","","","",""
"5629.054999999993","","","survey-likert-extra-labels","59","383272","0.0-24.0-2.0","16004","1A","woman","","","M2 is dancing with W4","dance4","rating_volition","{""Q0"":2}","[0]","M2 wanted to dance with W4","W4 wanted to dance with M2"
"4109.7949999999255","","","survey-likert-extra-labels","60","387384","0.0-24.0-3.0-0.0","16004","1A","woman","","","M2 is dancing with W4","dance4","rating_causation","{""Q0"":3}","[0]","M2 asked W4 to dance","W4 asked M2 to dance"
"null","Fred is flirting with Ruth","","html-keyboard-response","61","389389","0.0-25.0-0.0","16004","1A","woman","","null","M3 is flirting with W1","flirt4","sentence","","","",""
"4986.794999999984","","","survey-likert-extra-labels","62","394377","0.0-25.0-1.0-0.0","16004","1A","woman","","","M3 is flirting with W1","flirt4","rating_causation","{""Q0"":3}","[0]","M3 started flirting with W1 first","W1 started flirting with M3 first"
"7472.944999999949","","","survey-likert-extra-labels","63","401852","0.0-25.0-2.0","16004","1A","woman","","","M3 is flirting with W1","flirt4","rating_volition","{""Q0"":1}","[0]","M3 wanted to flirt with W1","W1 wanted to flirt with M3"
"null","Fred is arguing with Luke","","html-keyboard-response","64","403854","0.0-26.0-0.0","16004","1A","woman","","null","M3 is arguing with M1","argue2","sentence","","","",""
"4353.079999999958","","","survey-likert-extra-labels","65","408209","0.0-26.0-1.0-0.0","16004","1A","woman","","","M3 is arguing with M1","argue2","rating_causation","{""Q0"":3}","[0]","M1 started an argument with M3","M3 started an argument with M1"
"3000.865000000049","","","survey-likert-extra-labels","66","411211","0.0-26.0-2.0","16004","1A","woman","","","M3 is arguing with M1","argue2","rating_volition","{""Q0"":3}","[0]","M1 wanted to argue with M3","M3 wanted to argue with M1"
"null","Luke is shouting at Fred","","html-keyboard-response","67","413222","0.0-27.0-0.0","16004","1A","woman","","null","M1 is shouting at M3","shout2","sentence","","","",""
"6503.380000000005","","","survey-likert-extra-labels","68","419728","0.0-27.0-1.0-0.0","16004","1A","woman","","","M1 is shouting at M3","shout2","rating_causation","{""Q0"":3}","[0]","M1 shouted at M3 first","M3 shouted at M1 first"
"4040.9899999999325","","","survey-likert-extra-labels","69","423771","0.0-27.0-2.0","16004","1A","woman","","","M1 is shouting at M3","shout2","rating_volition","{""Q0"":3}","[0]","M1 wanted to shout at M3","M3 wanted to shout at M1"
"null","Mike is reminding Beth","","html-keyboard-response","70","425772","0.0-28.0-0.0","16004","1A","woman","","null","M2 is reminding W4","remind","sentence","","","",""
"7765.020000000077","","","survey-likert-extra-labels","71","433539","0.0-28.0-1.0-0.0","16004","1A","woman","","","M2 is reminding W4","remind","rating_causation","{""Q0"":0}","[0]","M2 is remembering","W4 is remembering"
"5146.315000000119","","","survey-likert-extra-labels","72","438687","0.0-28.0-2.0","16004","1A","woman","","","M2 is reminding W4","remind","rating_volition","{""Q0"":0}","[0]","M2 is telling W4 again","W4 is telling M2 again"
"null","Ruth is marrying Fred","","html-keyboard-response","73","440689","0.0-29.0-0.0","16004","1A","woman","","null","W1 is marrying M3","marry3","sentence","","","",""
"4751.309999999998","","","survey-likert-extra-labels","74","445441","0.0-29.0-1.0-0.0","16004","1A","woman","","","W1 is marrying M3","marry3","rating_causation","{""Q0"":3}","[0]","M3 asked to marry W1","W1 asked to marry M3"
"5042.129999999946","","","survey-likert-extra-labels","75","450485","0.0-29.0-2.0","16004","1A","woman","","","W1 is marrying M3","marry3","rating_volition","{""Q0"":4}","[0]","M3 wanted to marry W1","W1 wanted to marry M3"
"null","Kate is kissing Ruth","","html-keyboard-response","76","452491","0.0-30.0-0.0","16004","1A","woman","","null","W3 is kissing W1","kiss1","sentence","","","",""
"3888.7099999999627","","","survey-likert-extra-labels","77","456382","0.0-30.0-1.0-0.0","16004","1A","woman","","","W3 is kissing W1","kiss1","rating_causation","{""Q0"":3}","[0]","W1 asked to kiss W3","W3 asked to kiss W1"
"4373.755000000063","","","survey-likert-extra-labels","78","460758","0.0-30.0-2.0","16004","1A","woman","","","W3 is kissing W1","kiss1","rating_volition","{""Q0"":3}","[0]","W1 wanted to kiss W3","W3 wanted to kiss W1"
"null","Jane is teaching Dave","","html-keyboard-response","79","462760","0.0-31.0-0.0","16004","1A","woman","","null","W2 is teaching M4","teach","sentence","","","",""
"9049.965000000026","","","survey-likert-extra-labels","80","471810","0.0-31.0-1.0-0.0","16004","1A","woman","","","W2 is teaching M4","teach","rating_causation","{""Q0"":6}","[0]","W2 is learning from M4","M4 is learning from W2"
"6042.694999999949","","","survey-likert-extra-labels","81","477854","0.0-31.0-2.0","16004","1A","woman","","","W2 is teaching M4","teach","rating_volition","{""Q0"":0}","[0]","W2 is educating M4","M4 is educating W2"
"null","Jane is talking to Dave","","html-keyboard-response","82","479862","0.0-32.0-0.0","16004","1A","woman","","null","W2 is talking to M4","talk3","sentence","","","",""
"3841.914999999979","","","survey-likert-extra-labels","83","483706","0.0-32.0-2.0","16004","1A","woman","","","W2 is talking to M4","talk3","rating_volition","{""Q0"":3}","[0]","W2 wanted to talk to M4","M4 wanted to talk to W2"
"4607.885000000009","","","survey-likert-extra-labels","84","488315","0.0-32.0-3.0-0.0","16004","1A","woman","","","W2 is talking to M4","talk3","rating_causation","{""Q0"":3}","[0]","W2 started a conversation with M4","M4 started a conversation with W2"
"null","Mike is playing with Dave","","html-keyboard-response","85","490317","0.0-33.0-0.0","16004","1A","woman","","null","M2 is playing with M4","play2","sentence","","","",""
"5277.214999999967","","","survey-likert-extra-labels","86","495595","0.0-33.0-2.0","16004","1A","woman","","","M2 is playing with M4","play2","rating_volition","{""Q0"":2}","[0]","M2 wanted to play with M4","M4 wanted to play with M2"
"6719.294999999984","","","survey-likert-extra-labels","87","502316","0.0-33.0-3.0-0.0","16004","1A","woman","","","M2 is playing with M4","play2","rating_causation","{""Q0"":2}","[0]","M2 asked to play with M4","M4 asked to play with M2"
"null","Luke is dancing with Fred","","html-keyboard-response","88","504324","0.0-34.0-0.0","16004","1A","woman","","null","M1 is dancing with M3","dance2","sentence","","","",""
"5438.2750000000815","","","survey-likert-extra-labels","89","509763","0.0-34.0-2.0","16004","1A","woman","","","M1 is dancing with M3","dance2","rating_volition","{""Q0"":3}","[0]","M1 wanted to dance with M3","M3 wanted to dance with M1"
"5805.780000000028","","","survey-likert-extra-labels","90","515572","0.0-34.0-3.0-0.0","16004","1A","woman","","","M1 is dancing with M3","dance2","rating_causation","{""Q0"":3}","[0]","M1 asked M3 to dance","M3 asked M1 to dance"
"null","Jane is dancing with Dave","","html-keyboard-response","91","517574","0.0-35.0-0.0","16004","1A","woman","","null","W2 is dancing with M4","dance3","sentence","","","",""
"6720.649999999965","","","survey-likert-extra-labels","92","524296","0.0-35.0-2.0","16004","1A","woman","","","W2 is dancing with M4","dance3","rating_volition","{""Q0"":2}","[0]","W2 wanted to dance with M4","M4 wanted to dance with W2"
"4390.689999999944","","","survey-likert-extra-labels","93","528688","0.0-35.0-3.0-0.0","16004","1A","woman","","","W2 is dancing with M4","dance3","rating_causation","{""Q0"":3}","[0]","W2 asked M4 to dance","M4 asked W2 to dance"
"null","Dave is fighting with Mike","","html-keyboard-response","94","530690","0.0-36.0-0.0","16004","1A","woman","","null","M4 is fighting with M2","fight2","sentence","","","",""
"6725.505000000005","","","survey-likert-extra-labels","95","537417","0.0-36.0-2.0","16004","1A","woman","","","M4 is fighting with M2","fight2","rating_volition","{""Q0"":3}","[0]","M2 wanted to fight M4","M4 wanted to fight M2"
"3299.829999999958","","","survey-likert-extra-labels","96","540720","0.0-36.0-3.0-0.0","16004","1A","woman","","","M4 is fighting with M2","fight2","rating_causation","{""Q0"":3}","[0]","M2 started the fight with M4","M4 started the fight with M2"
"null","Kate is playing with Luke","","html-keyboard-response","97","542722","0.0-37.0-0.0","16004","1A","woman","","null","W3 is playing with M1","play4","sentence","","","",""
"6241.024999999907","","","survey-likert-extra-labels","98","548964","0.0-37.0-1.0-0.0","16004","1A","woman","","","W3 is playing with M1","play4","rating_causation","{""Q0"":2}","[0]","W3 asked to play with M1","M1 asked to play with W3"
"7670.014999999898","","","survey-likert-extra-labels","99","556636","0.0-37.0-2.0","16004","1A","woman","","","W3 is playing with M1","play4","rating_volition","{""Q0"":2}","[0]","W3 wanted to play with M1","M1 wanted to play with W3"
"null","Ruth is talking to Kate","","html-keyboard-response","100","558647","0.0-38.0-0.0","16004","1A","woman","","null","W1 is talking to W3","talk1","sentence","","","",""
"3609.7550000000047","","","survey-likert-extra-labels","101","562259","0.0-38.0-1.0-0.0","16004","1A","woman","","","W1 is talking to W3","talk1","rating_causation","{""Q0"":3}","[0]","W1 started a conversation with W3","W3 started a conversation with W1"
"3056.640000000014","","","survey-likert-extra-labels","102","565316","0.0-38.0-2.0","16004","1A","woman","","","W1 is talking to W3","talk1","rating_volition","{""Q0"":3}","[0]","W1 wanted to talk to W3","W3 wanted to talk to W1"
"null","Dave is kissing Jane","","html-keyboard-response","103","567331","0.0-39.0-0.0","16004","1A","woman","","null","M4 is kissing W2","kiss4","sentence","","","",""
"3292.895000000135","","","survey-likert-extra-labels","104","570626","0.0-39.0-1.0-0.0","16004","1A","woman","","","M4 is kissing W2","kiss4","rating_causation","{""Q0"":3}","[0]","W2 asked to kiss M4","M4 asked to kiss W2"
"4593.554999999935","","","survey-likert-extra-labels","105","575224","0.0-39.0-2.0","16004","1A","woman","","","M4 is kissing W2","kiss4","rating_volition","{""Q0"":3}","[0]","W2 wanted to kiss M4","M4 wanted to kiss W2"
"null","Luke is driving Fred","","html-keyboard-response","106","577229","0.0-40.0-0.0","16004","1A","woman","","null","M1 is driving M3","drive","sentence","","","",""
"6279.244999999995","","","survey-likert-extra-labels","107","583511","0.0-40.0-1.0-0.0","16004","1A","woman","","","M1 is driving M3","drive","rating_causation","{""Q0"":6}","[0]","M3 is taking M1 somewhere","M1 is taking M3 somewhere"
"6167.545000000042","","","survey-likert-extra-labels","108","589679","0.0-40.0-2.0","16004","1A","woman","","","M1 is driving M3","drive","rating_volition","{""Q0"":0}","[0]","M3 is M1's passenger","M1 is M3's passenger"
"null","Kate is flirting with Luke","","html-keyboard-response","109","591690","0.0-41.0-0.0","16004","1A","woman","","null","W3 is flirting with M1","flirt3","sentence","","","",""
"10528.224999999977","","","survey-likert-extra-labels","110","602220","0.0-41.0-2.0","16004","1A","woman","","","W3 is flirting with M1","flirt3","rating_volition","{""Q0"":1}","[0]","W3 wanted to flirt with M1","M1 wanted to flirt with W3"
"4885.105000000098","","","survey-likert-extra-labels","111","607107","0.0-41.0-3.0-0.0","16004","1A","woman","","","W3 is flirting with M1","flirt3","rating_causation","{""Q0"":3}","[0]","W3 started flirting with M1 first","M1 started flirting with W3 first"
"null","Fred is touching Ruth","","html-keyboard-response","112","609118","0.0-42.0-0.0","16004","1A","woman","","null","M3 is touching W1","touch4","sentence","","","",""
"5136.295000000042","","","survey-likert-extra-labels","113","614256","0.0-42.0-2.0","16004","1A","woman","","","M3 is touching W1","touch4","rating_volition","{""Q0"":3}","[0]","M3 wanted to touch W1","W1 wanted to touch M3"
"2952.965000000084","","","survey-likert-extra-labels","114","617211","0.0-42.0-3.0-0.0","16004","1A","woman","","","M3 is touching W1","touch4","rating_causation","{""Q0"":3}","[0]","M3 asked to touch W1","W1 asked to touch M3"
"null","Mike is flirting with Dave","","html-keyboard-response","115","619212","0.0-43.0-0.0","16004","1A","woman","","null","M2 is flirting with M4","flirt2","sentence","","","",""
"5585.320000000065","","","survey-likert-extra-labels","116","624798","0.0-43.0-1.0-0.0","16004","1A","woman","","","M2 is flirting with M4","flirt2","rating_causation","{""Q0"":3}","[0]","M2 started flirting with M4 first","M4 started flirting with M2 first"
"4000.7750000000233","","","survey-likert-extra-labels","117","628800","0.0-43.0-2.0","16004","1A","woman","","","M2 is flirting with M4","flirt2","rating_volition","{""Q0"":3}","[0]","M2 wanted to flirt with M4","M4 wanted to flirt with M2"
"null","Ruth is shouting at Kate","","html-keyboard-response","118","630801","0.0-44.0-0.0","16004","1A","woman","","null","W1 is shouting at W3","shout1","sentence","","","",""
"5675.650000000023","","","survey-likert-extra-labels","119","636478","0.0-44.0-1.0-0.0","16004","1A","woman","","","W1 is shouting at W3","shout1","rating_causation","{""Q0"":3}","[0]","W1 shouted at W3 first","W3 shouted at W1 first"
"3478.0650000000605","","","survey-likert-extra-labels","120","639958","0.0-44.0-2.0","16004","1A","woman","","","W1 is shouting at W3","shout1","rating_volition","{""Q0"":3}","[0]","W1 wanted to shout at W3","W3 wanted to shout at W1"
"null","Mike is shouting at Beth","","html-keyboard-response","121","641966","0.0-45.0-0.0","16004","1A","woman","","null","M2 is shouting at W4","shout3","sentence","","","",""
"3217.359999999986","","","survey-likert-extra-labels","122","645186","0.0-45.0-1.0-0.0","16004","1A","woman","","","M2 is shouting at W4","shout3","rating_causation","{""Q0"":3}","[0]","M2 shouted at W4 first","W4 shouted at M2 first"
"2708.29999999993","","","survey-likert-extra-labels","123","647896","0.0-45.0-2.0","16004","1A","woman","","","M2 is shouting at W4","shout3","rating_volition","{""Q0"":3}","[0]","M2 wanted to shout at W4","W4 wanted to shout at M2"
"null","Jane is carrying Beth","","html-keyboard-response","124","649902","0.0-46.0-0.0","16004","1A","woman","","null","W2 is carrying W4","carry","sentence","","","",""
"7095.425000000047","","","survey-likert-extra-labels","125","657000","0.0-46.0-2.0","16004","1A","woman","","","W2 is carrying W4","carry","rating_volition","{""Q0"":0}","[0]","W2 is transporting W4","W4 is transporting W2"
"6777.760000000009","","","survey-likert-extra-labels","126","663780","0.0-46.0-3.0-0.0","16004","1A","woman","","","W2 is carrying W4","carry","rating_causation","{""Q0"":6}","[0]","W2 is being moved by W4","W4 is being moved by W2"
"null","Jane is playing with Beth","","html-keyboard-response","127","665787","0.0-47.0-0.0","16004","1A","woman","","null","W2 is playing with W4","play1","sentence","","","",""
"3360.7700000000186","","","survey-likert-extra-labels","128","669150","0.0-47.0-1.0-0.0","16004","1A","woman","","","W2 is playing with W4","play1","rating_causation","{""Q0"":2}","[0]","W2 asked to play with W4","W4 asked to play with W2"
"4432.034999999916","","","survey-likert-extra-labels","129","673584","0.0-47.0-2.0","16004","1A","woman","","","W2 is playing with W4","play1","rating_volition","{""Q0"":2}","[0]","W2 wanted to play with W4","W4 wanted to play with W2"
"null","Mike is touching Dave","","html-keyboard-response","130","675587","0.0-48.0-0.0","16004","1A","woman","","null","M2 is touching M4","touch2","sentence","","","",""
"2311.6999999999534","","","survey-likert-extra-labels","131","677900","0.0-48.0-1.0-0.0","16004","1A","woman","","","M2 is touching M4","touch2","rating_causation","{""Q0"":3}","[0]","M2 asked to touch M4","M4 asked to touch M2"
"3450.8850000000093","","","survey-likert-extra-labels","132","681352","0.0-48.0-2.0","16004","1A","woman","","","M2 is touching M4","touch2","rating_volition","{""Q0"":3}","[0]","M2 wanted to touch M4","M4 wanted to touch M2"
"null","Beth is marrying Jane","","html-keyboard-response","133","683365","0.0-49.0-0.0","16004","1A","woman","","null","W4 is marrying W2","marry1","sentence","","","",""
"4081.505000000121","","","survey-likert-extra-labels","134","687449","0.0-49.0-2.0","16004","1A","woman","","","W4 is marrying W2","marry1","rating_volition","{""Q0"":3}","[0]","W2 wanted to marry W4","W4 wanted to marry W2"
"3069.480000000098","","","survey-likert-extra-labels","135","690520","0.0-49.0-3.0-0.0","16004","1A","woman","","","W4 is marrying W2","marry1","rating_causation","{""Q0"":3}","[0]","W2 asked to marry W4","W4 asked to marry W2"
"null","Kate is arguing with Ruth","","html-keyboard-response","136","692536","0.0-50.0-0.0","16004","1A","woman","","null","W3 is arguing with W1","argue1","sentence","","","",""
"7973.530000000028","","","survey-likert-extra-labels","137","700512","0.0-50.0-1.0-0.0","16004","1A","woman","","","W3 is arguing with W1","argue1","rating_causation","{""Q0"":3}","[0]","W1 started an argument with W3","W3 started an argument with W1"
"3707.670000000042","","","survey-likert-extra-labels","138","704221","0.0-50.0-2.0","16004","1A","woman","","","W3 is arguing with W1","argue1","rating_volition","{""Q0"":3}","[0]","W1 wanted to argue with W3","W3 wanted to argue with W1"
"null","Fred is playing with Ruth","","html-keyboard-response","139","706223","0.0-51.0-0.0","16004","1A","woman","","null","M3 is playing with W1","play3","sentence","","","",""
"5065.224999999977","","","survey-likert-extra-labels","140","711289","0.0-51.0-1.0-0.0","16004","1A","woman","","","M3 is playing with W1","play3","rating_causation","{""Q0"":2}","[0]","M3 asked to play with W1","W1 asked to play with M3"
"6511.680000000051","","","survey-likert-extra-labels","141","717802","0.0-51.0-2.0","16004","1A","woman","","","M3 is playing with W1","play3","rating_volition","{""Q0"":2}","[0]","M3 wanted to play with W1","W1 wanted to play with M3"
"null","Luke is talking to Fred","","html-keyboard-response","142","719810","0.0-52.0-0.0","16004","1A","woman","","null","M1 is talking to M3","talk2","sentence","","","",""
"7288.214999999851","","","survey-likert-extra-labels","143","727100","0.0-52.0-1.0-0.0","16004","1A","woman","","","M1 is talking to M3","talk2","rating_causation","{""Q0"":3}","[0]","M1 started a conversation with M3","M3 started a conversation with M1"
"4505.025000000023","","","survey-likert-extra-labels","144","731607","0.0-52.0-2.0","16004","1A","woman","","","M1 is talking to M3","talk2","rating_volition","{""Q0"":3}","[0]","M1 wanted to talk to M3","M3 wanted to talk to M1"
"null","Fred is hiring Ruth","","html-keyboard-response","145","733609","0.0-53.0-0.0","16004","1A","woman","","null","M3 is hiring W1","hire","sentence","","","",""
"9266.679999999935","","","survey-likert-extra-labels","146","742877","0.0-53.0-1.0-0.0","16004","1A","woman","","","M3 is hiring W1","hire","rating_causation","{""Q0"":6}","[0]","M3 will work for W1","W1 will work for M3"
"5319.175000000047","","","survey-likert-extra-labels","147","748197","0.0-53.0-2.0","16004","1A","woman","","","M3 is hiring W1","hire","rating_volition","{""Q0"":0}","[0]","M3 is employing W1","W1 is employing M3"
"null","Dave is arguing with Jane","","html-keyboard-response","148","750215","0.0-54.0-0.0","16004","1A","woman","","null","M4 is arguing with W2","argue3","sentence","","","",""
"2542.3450000000885","","","survey-likert-extra-labels","149","752758","0.0-54.0-1.0-0.0","16004","1A","woman","","","M4 is arguing with W2","argue3","rating_causation","{""Q0"":3}","[0]","W2 started an argument with M4","M4 started an argument with W2"
"2980.2050000000745","","","survey-likert-extra-labels","150","755740","0.0-54.0-2.0","16004","1A","woman","","","M4 is arguing with W2","argue3","rating_volition","{""Q0"":3}","[0]","W2 wanted to argue with M4","M4 wanted to argue with W2"
"2548.030000000028","<p>Thank you for completing that task.</p><p>The final part of this session is a short questionnaire.</p><p>Press Continue.</p>","0","html-button-response","151","758290","0.0-55.0","16004","1A","woman","","","","","","","","",""
"25789.18000000005","","","survey-text","152","785097","0.0-56.0","16004","1A","woman","","","","","demographics","{""Q0"":""30"",""Q1"":""English"",""Q2"":""English"",""Q3"":""Scotland"",""Q4"":""Scottish"",""Q5"":""White"",""Q6"":""Female""}","","",""
"2463.7750000000233","<p>Have you lived in the UK for the last 5 years or more?</p>","0","html-button-response","153","787562","0.0-57.0","16004","1A","woman","","","","","fiveyears","","","",""
"8292.810000000056","","","survey-text","154","796866","0.0-58.0","16004","1A","woman","","","","","worker_id","{""Q0"":""5e7cdc96b86374344a74b596""}","","",""
"27851.390000000014","","","external-html","155","824749","0.0-59.0","16004","1A","woman","debrief.html","","","","","","","",""
