"rt","stimulus","button_pressed","trial_type","trial_index","time_elapsed","internal_node_id","subject","list","ppt_gender","url","key_press","sentence_type","verb","test_part","responses","question_order","left_part","right_part"
"1148.3549999975367","Welcome to the experiment. Press Continue to begin.","0","html-button-response","0","1157","0.0-0.0","43795","4A","woman","","","","","","","","",""
"9760.910000004515","","","external-html","1","11973","0.0-1.0","43795","4A","woman","consent.html","","","","","","","",""
"3937.870000001567","<p>Welcome.</p><p>In this experiment we will ask you to imagine some situations.</p><p>Each trial starts with a description of an event.</p><p>Then you will see alternative descriptions of that event, and you will rate on a scale how best they match the original description.</p><p>You will give your answer by clicking a button on a rating scale.</p><p>To do this task, you will have to use your imagination to visualise these events.</p><br><p>Ready?</p>","0","html-button-response","2","15915","0.0-2.0","43795","4A","woman","","","","","","","","",""
"1566.1249999975553","<p>Before the experiment starts, you will watch an example trial. Press 'Continue'.</p>","0","html-button-response","3","18487","0.0-3.0","43795","4A","woman","","","","","","","","",""
"null","The police officer is arresting the robber","","html-keyboard-response","4","21494","0.0-4.0","43795","4A","woman","","null","","","","","","",""
"5573.05500000075","<img src='img/Example-trial.jpg' style='height:550px;''></img>","0","html-button-response","5","27071","0.0-5.0","43795","4A","woman","","","","","","","","",""
"1498.7350000010338","<p>Ready to start the experiment?</p><br><p><strong>Remember to give an answer by clicking a button on the rating scale.</strong></p><p>Press 'Continue' to begin.</p>","0","html-button-response","6","29575","0.0-6.0","43795","4A","woman","","","","","","","","",""
"null","Mike is fighting with Dave","","html-keyboard-response","7","32584","0.0-7.0-0.0","43795","4A","woman","","null","M2 is fighting with M4","fight2","sentence","","","",""
"3927.6649999956135","","","survey-likert-extra-labels","8","36518","0.0-7.0-1.0-0.0","43795","4A","woman","","","M2 is fighting with M4","fight2","rating_causation","{""Q0"":4}","[0]","M4 started the fight with M2","M2 started the fight with M4"
"7277.53500000108","","","survey-likert-extra-labels","9","43800","0.0-7.0-2.0","43795","4A","woman","","","M2 is fighting with M4","fight2","rating_volition","{""Q0"":3}","[0]","M4 wanted to fight M2","M2 wanted to fight M4"
"null","Fred is dancing with Luke","","html-keyboard-response","10","45806","0.0-8.0-0.0","43795","4A","woman","","null","M3 is dancing with M1","dance2","sentence","","","",""
"5623.914999996487","","","survey-likert-extra-labels","11","51433","0.0-8.0-1.0-0.0","43795","4A","woman","","","M3 is dancing with M1","dance2","rating_causation","{""Q0"":2}","[0]","M3 asked M1 to dance","M1 asked M3 to dance"
"5200.024999998277","","","survey-likert-extra-labels","12","56638","0.0-8.0-2.0","43795","4A","woman","","","M3 is dancing with M1","dance2","rating_volition","{""Q0"":1}","[0]","M3 wanted to dance with M1","M1 wanted to dance with M3"
"null","Jane is teaching Dave","","html-keyboard-response","13","58643","0.0-9.0-0.0","43795","4A","woman","","null","W2 is teaching M4","teach","sentence","","","",""
"3040.1550000024145","","","survey-likert-extra-labels","14","61687","0.0-9.0-1.0-0.0","43795","4A","woman","","","W2 is teaching M4","teach","rating_causation","{""Q0"":6}","[0]","W2 is learning from M4","M4 is learning from W2"
"3116.7699999932665","","","survey-likert-extra-labels","15","64808","0.0-9.0-2.0","43795","4A","woman","","","W2 is teaching M4","teach","rating_volition","{""Q0"":0}","[0]","W2 is educating M4","M4 is educating W2"
"null","Mike is posing for Dave","","html-keyboard-response","16","66813","0.0-10.0-0.0","43795","4A","woman","","null","M2 is posing for M4","pose","sentence","","","",""
"5459.835000001476","","","survey-likert-extra-labels","17","72277","0.0-10.0-1.0-0.0","43795","4A","woman","","","M2 is posing for M4","pose","rating_causation","{""Q0"":6}","[0]","M2 is photographing M4","M4 is photographing M2"
"2947.9799999971874","","","survey-likert-extra-labels","18","75232","0.0-10.0-2.0","43795","4A","woman","","","M2 is posing for M4","pose","rating_volition","{""Q0"":1}","[0]","M2 is modelling for M4","M4 is modelling for M2"
"null","Jane is carrying Beth","","html-keyboard-response","19","77235","0.0-11.0-0.0","43795","4A","woman","","null","W2 is carrying W4","carry","sentence","","","",""
"4201.135000002978","","","survey-likert-extra-labels","20","81439","0.0-11.0-2.0","43795","4A","woman","","","W2 is carrying W4","carry","rating_volition","{""Q0"":1}","[0]","W2 is transporting W4","W4 is transporting W2"
"6004.634999997506","","","survey-likert-extra-labels","21","87451","0.0-11.0-3.0-0.0","43795","4A","woman","","","W2 is carrying W4","carry","rating_causation","{""Q0"":6}","[0]","W2 is being moved by W4","W4 is being moved by W2"
"null","Ruth is shouting at Kate","","html-keyboard-response","22","89456","0.0-12.0-0.0","43795","4A","woman","","null","W1 is shouting at W3","shout1","sentence","","","",""
"2910.77999999834","","","survey-likert-extra-labels","23","92371","0.0-12.0-1.0-0.0","43795","4A","woman","","","W1 is shouting at W3","shout1","rating_causation","{""Q0"":5}","[0]","W3 shouted at W1 first","W1 shouted at W3 first"
"4386.769999997341","","","survey-likert-extra-labels","24","96766","0.0-12.0-2.0","43795","4A","woman","","","W1 is shouting at W3","shout1","rating_volition","{""Q0"":5}","[0]","W3 wanted to shout at W1","W1 wanted to shout at W3"
"null","Kate is fighting with Luke","","html-keyboard-response","25","98771","0.0-13.0-0.0","43795","4A","woman","","null","W3 is fighting with M1","fight3","sentence","","","",""
"3042.074999997567","","","survey-likert-extra-labels","26","101817","0.0-13.0-2.0","43795","4A","woman","","","W3 is fighting with M1","fight3","rating_volition","{""Q0"":4}","[0]","M1 wanted to fight W3","W3 wanted to fight M1"
"3225.575000004028","","","survey-likert-extra-labels","27","105047","0.0-13.0-3.0-0.0","43795","4A","woman","","","W3 is fighting with M1","fight3","rating_causation","{""Q0"":5}","[0]","M1 started the fight with W3","W3 started the fight with M1"
"null","Ruth is touching Fred","","html-keyboard-response","28","107052","0.0-14.0-0.0","43795","4A","woman","","null","W1 is touching M3","touch4","sentence","","","",""
"3044.56499999651","","","survey-likert-extra-labels","29","110099","0.0-14.0-2.0","43795","4A","woman","","","W1 is touching M3","touch4","rating_volition","{""Q0"":0}","[0]","W1 wanted to touch M3","M3 wanted to touch W1"
"4873.625000000175","","","survey-likert-extra-labels","30","114978","0.0-14.0-3.0-0.0","43795","4A","woman","","","W1 is touching M3","touch4","rating_causation","{""Q0"":2}","[0]","W1 asked to touch M3","M3 asked to touch W1"
"null","Beth is kissing Mike","","html-keyboard-response","31","116983","0.0-15.0-0.0","43795","4A","woman","","null","W4 is kissing M2","kiss3","sentence","","","",""
"2201.1249999995925","","","survey-likert-extra-labels","32","119188","0.0-15.0-2.0","43795","4A","woman","","","W4 is kissing M2","kiss3","rating_volition","{""Q0"":1}","[0]","W4 wanted to kiss M2","M2 wanted to kiss W4"
"3465.5750000019907","","","survey-likert-extra-labels","33","122659","0.0-15.0-3.0-0.0","43795","4A","woman","","","W4 is kissing M2","kiss3","rating_causation","{""Q0"":2}","[0]","W4 asked to kiss M2","M2 asked to kiss W4"
"null","Beth is marrying Jane","","html-keyboard-response","34","124664","0.0-16.0-0.0","43795","4A","woman","","null","W4 is marrying W2","marry1","sentence","","","",""
"3519.8200000013458","","","survey-likert-extra-labels","35","128189","0.0-16.0-1.0-0.0","43795","4A","woman","","","W4 is marrying W2","marry1","rating_causation","{""Q0"":3}","[0]","W4 asked to marry W2","W2 asked to marry W4"
"2050.0500000052853","","","survey-likert-extra-labels","36","130245","0.0-16.0-2.0","43795","4A","woman","","","W4 is marrying W2","marry1","rating_volition","{""Q0"":2}","[0]","W4 wanted to marry W2","W2 wanted to marry W4"
"null","Fred is hiring Ruth","","html-keyboard-response","37","132247","0.0-17.0-0.0","43795","4A","woman","","null","M3 is hiring W1","hire","sentence","","","",""
"2301.3150000042515","","","survey-likert-extra-labels","38","134552","0.0-17.0-2.0","43795","4A","woman","","","M3 is hiring W1","hire","rating_volition","{""Q0"":0}","[0]","M3 is employing W1","W1 is employing M3"
"2999.745000000985","","","survey-likert-extra-labels","39","137557","0.0-17.0-3.0-0.0","43795","4A","woman","","","M3 is hiring W1","hire","rating_causation","{""Q0"":6}","[0]","M3 will work for W1","W1 will work for M3"
"null","Beth is talking to Mike","","html-keyboard-response","40","139560","0.0-18.0-0.0","43795","4A","woman","","null","W4 is talking to M2","talk4","sentence","","","",""
"3570.944999999483","","","survey-likert-extra-labels","41","143135","0.0-18.0-1.0-0.0","43795","4A","woman","","","W4 is talking to M2","talk4","rating_causation","{""Q0"":3}","[0]","W4 started a conversation with M2","M2 started a conversation with W4"
"2742.9449999981443","","","survey-likert-extra-labels","42","145885","0.0-18.0-2.0","43795","4A","woman","","","W4 is talking to M2","talk4","rating_volition","{""Q0"":2}","[0]","W4 wanted to talk to M2","M2 wanted to talk to W4"
"null","Dave is talking to Jane","","html-keyboard-response","43","147891","0.0-19.0-0.0","43795","4A","woman","","null","M4 is talking to W2","talk3","sentence","","","",""
"3504.894999998214","","","survey-likert-extra-labels","44","151400","0.0-19.0-1.0-0.0","43795","4A","woman","","","M4 is talking to W2","talk3","rating_causation","{""Q0"":2}","[0]","M4 started a conversation with W2","W2 started a conversation with M4"
"2771.8299999978626","","","survey-likert-extra-labels","45","154176","0.0-19.0-2.0","43795","4A","woman","","","M4 is talking to W2","talk3","rating_volition","{""Q0"":1}","[0]","M4 wanted to talk to W2","W2 wanted to talk to M4"
"null","Jane is playing with Beth","","html-keyboard-response","46","156181","0.0-20.0-0.0","43795","4A","woman","","null","W2 is playing with W4","play1","sentence","","","",""
"2919.3900000027497","","","survey-likert-extra-labels","47","159104","0.0-20.0-1.0-0.0","43795","4A","woman","","","W2 is playing with W4","play1","rating_causation","{""Q0"":4}","[0]","W4 asked to play with W2","W2 asked to play with W4"
"2629.9549999966985","","","survey-likert-extra-labels","48","161737","0.0-20.0-2.0","43795","4A","woman","","","W2 is playing with W4","play1","rating_volition","{""Q0"":4}","[0]","W4 wanted to play with W2","W2 wanted to play with W4"
"null","Beth is flirting with Jane","","html-keyboard-response","49","163741","0.0-21.0-0.0","43795","4A","woman","","null","W4 is flirting with W2","flirt1","sentence","","","",""
"3129.639999999199","","","survey-likert-extra-labels","50","166874","0.0-21.0-1.0-0.0","43795","4A","woman","","","W4 is flirting with W2","flirt1","rating_causation","{""Q0"":1}","[0]","W4 started flirting with W2 first","W2 started flirting with W4 first"
"2381.549999998242","","","survey-likert-extra-labels","51","169262","0.0-21.0-2.0","43795","4A","woman","","","W4 is flirting with W2","flirt1","rating_volition","{""Q0"":1}","[0]","W4 wanted to flirt with W2","W2 wanted to flirt with W4"
"null","Luke is touching Kate","","html-keyboard-response","52","171267","0.0-22.0-0.0","43795","4A","woman","","null","M1 is touching W3","touch3","sentence","","","",""
"2832.9000000012456","","","survey-likert-extra-labels","53","174104","0.0-22.0-1.0-0.0","43795","4A","woman","","","M1 is touching W3","touch3","rating_causation","{""Q0"":3}","[0]","M1 asked to touch W3","W3 asked to touch M1"
"3988.295000002836","","","survey-likert-extra-labels","54","178099","0.0-22.0-2.0","43795","4A","woman","","","M1 is touching W3","touch3","rating_volition","{""Q0"":1}","[0]","M1 wanted to touch W3","W3 wanted to touch M1"
"null","Mike is reminding Beth","","html-keyboard-response","55","180104","0.0-23.0-0.0","43795","4A","woman","","null","M2 is reminding W4","remind","sentence","","","",""
"3580.09999999922","","","survey-likert-extra-labels","56","183687","0.0-23.0-1.0-0.0","43795","4A","woman","","","M2 is reminding W4","remind","rating_causation","{""Q0"":1}","[0]","M2 is remembering","W4 is remembering"
"3575.7699999958277","","","survey-likert-extra-labels","57","187268","0.0-23.0-2.0","43795","4A","woman","","","M2 is reminding W4","remind","rating_volition","{""Q0"":0}","[0]","M2 is telling W4 again","W4 is telling M2 again"
"null","Mike is arguing with Beth","","html-keyboard-response","58","189273","0.0-24.0-0.0","43795","4A","woman","","null","M2 is arguing with W4","argue4","sentence","","","",""
"3554.9000000028173","","","survey-likert-extra-labels","59","192832","0.0-24.0-1.0-0.0","43795","4A","woman","","","M2 is arguing with W4","argue4","rating_causation","{""Q0"":4}","[0]","W4 started an argument with M2","M2 started an argument with W4"
"2847.8199999954086","","","survey-likert-extra-labels","60","195686","0.0-24.0-2.0","43795","4A","woman","","","M2 is arguing with W4","argue4","rating_volition","{""Q0"":4}","[0]","W4 wanted to argue with M2","M2 wanted to argue with W4"
"null","Dave is touching Mike","","html-keyboard-response","61","197689","0.0-25.0-0.0","43795","4A","woman","","null","M4 is touching M2","touch2","sentence","","","",""
"6402.9500000033295","","","survey-likert-extra-labels","62","204096","0.0-25.0-2.0","43795","4A","woman","","","M4 is touching M2","touch2","rating_volition","{""Q0"":1}","[0]","M4 wanted to touch M2","M2 wanted to touch M4"
"3526.6499999997905","","","survey-likert-extra-labels","63","207631","0.0-25.0-3.0-0.0","43795","4A","woman","","","M4 is touching M2","touch2","rating_causation","{""Q0"":2}","[0]","M4 asked to touch M2","M2 asked to touch M4"
"null","Luke is arguing with Fred","","html-keyboard-response","64","209636","0.0-26.0-0.0","43795","4A","woman","","null","M1 is arguing with M3","argue2","sentence","","","",""
"6248.039999998582","","","survey-likert-extra-labels","65","215887","0.0-26.0-1.0-0.0","43795","4A","woman","","","M1 is arguing with M3","argue2","rating_causation","{""Q0"":4}","[0]","M3 started an argument with M1","M1 started an argument with M3"
"4378.425000002608","","","survey-likert-extra-labels","66","220271","0.0-26.0-2.0","43795","4A","woman","","","M1 is arguing with M3","argue2","rating_volition","{""Q0"":4}","[0]","M3 wanted to argue with M1","M1 wanted to argue with M3"
"null","Beth is dancing with Mike","","html-keyboard-response","67","222273","0.0-27.0-0.0","43795","4A","woman","","null","W4 is dancing with M2","dance4","sentence","","","",""
"1955.710000002","","","survey-likert-extra-labels","68","224232","0.0-27.0-1.0-0.0","43795","4A","woman","","","W4 is dancing with M2","dance4","rating_causation","{""Q0"":2}","[0]","W4 asked M2 to dance","M2 asked W4 to dance"
"2249.8449999984587","","","survey-likert-extra-labels","69","226490","0.0-27.0-2.0","43795","4A","woman","","","W4 is dancing with M2","dance4","rating_volition","{""Q0"":1}","[0]","W4 wanted to dance with M2","M2 wanted to dance with W4"
"null","Fred is kissing Luke","","html-keyboard-response","70","228493","0.0-28.0-0.0","43795","4A","woman","","null","M3 is kissing M1","kiss2","sentence","","","",""
"3412.109999997483","","","survey-likert-extra-labels","71","231906","0.0-28.0-1.0-0.0","43795","4A","woman","","","M3 is kissing M1","kiss2","rating_causation","{""Q0"":2}","[0]","M3 asked to kiss M1","M1 asked to kiss M3"
"2193.8999999983935","","","survey-likert-extra-labels","72","234102","0.0-28.0-2.0","43795","4A","woman","","","M3 is kissing M1","kiss2","rating_volition","{""Q0"":0}","[0]","M3 wanted to kiss M1","M1 wanted to kiss M3"
"null","Kate is playing with Luke","","html-keyboard-response","73","236105","0.0-29.0-0.0","43795","4A","woman","","null","W3 is playing with M1","play4","sentence","","","",""
"2948.374999999942","","","survey-likert-extra-labels","74","239055","0.0-29.0-1.0-0.0","43795","4A","woman","","","W3 is playing with M1","play4","rating_causation","{""Q0"":4}","[0]","M1 asked to play with W3","W3 asked to play with M1"
"3390.354999995907","","","survey-likert-extra-labels","75","242448","0.0-29.0-2.0","43795","4A","woman","","","W3 is playing with M1","play4","rating_volition","{""Q0"":4}","[0]","M1 wanted to play with W3","W3 wanted to play with M1"
"null","Beth is touching Jane","","html-keyboard-response","76","244452","0.0-30.0-0.0","43795","4A","woman","","null","W4 is touching W2","touch1","sentence","","","",""
"3438.3600000001024","","","survey-likert-extra-labels","77","247892","0.0-30.0-1.0-0.0","43795","4A","woman","","","W4 is touching W2","touch1","rating_causation","{""Q0"":2}","[0]","W4 asked to touch W2","W2 asked to touch W4"
"2331.754999999248","","","survey-likert-extra-labels","78","250226","0.0-30.0-2.0","43795","4A","woman","","","W4 is touching W2","touch1","rating_volition","{""Q0"":1}","[0]","W4 wanted to touch W2","W2 wanted to touch W4"
"null","Luke is flirting with Kate","","html-keyboard-response","79","252230","0.0-31.0-0.0","43795","4A","woman","","null","M1 is flirting with W3","flirt3","sentence","","","",""
"3377.8999999994994","","","survey-likert-extra-labels","80","255611","0.0-31.0-2.0","43795","4A","woman","","","M1 is flirting with W3","flirt3","rating_volition","{""Q0"":0}","[0]","M1 wanted to flirt with W3","W3 wanted to flirt with M1"
"4388.72000000265","","","survey-likert-extra-labels","81","260002","0.0-31.0-3.0-0.0","43795","4A","woman","","","M1 is flirting with W3","flirt3","rating_causation","{""Q0"":2}","[0]","M1 started flirting with W3 first","W3 started flirting with M1 first"
"null","Kate is talking to Ruth","","html-keyboard-response","82","262006","0.0-32.0-0.0","43795","4A","woman","","null","W3 is talking to W1","talk1","sentence","","","",""
"5292.24499999691","","","survey-likert-extra-labels","83","267302","0.0-32.0-1.0-0.0","43795","4A","woman","","","W3 is talking to W1","talk1","rating_causation","{""Q0"":3}","[0]","W3 started a conversation with W1","W1 started a conversation with W3"
"7736.414999999397","","","survey-likert-extra-labels","84","275041","0.0-32.0-2.0","43795","4A","woman","","","W3 is talking to W1","talk1","rating_volition","{""Q0"":2}","[0]","W3 wanted to talk to W1","W1 wanted to talk to W3"
"null","Kate is dancing with Ruth","","html-keyboard-response","85","277045","0.0-33.0-0.0","43795","4A","woman","","null","W3 is dancing with W1","dance1","sentence","","","",""
"3421.009999998205","","","survey-likert-extra-labels","86","280469","0.0-33.0-1.0-0.0","43795","4A","woman","","","W3 is dancing with W1","dance1","rating_causation","{""Q0"":2}","[0]","W3 asked W1 to dance","W1 asked W3 to dance"
"2338.434999997844","","","survey-likert-extra-labels","87","282810","0.0-33.0-2.0","43795","4A","woman","","","W3 is dancing with W1","dance1","rating_volition","{""Q0"":1}","[0]","W3 wanted to dance with W1","W1 wanted to dance with W3"
"null","Dave is flirting with Mike","","html-keyboard-response","88","284812","0.0-34.0-0.0","43795","4A","woman","","null","M4 is flirting with M2","flirt2","sentence","","","",""
"4381.280000001425","","","survey-likert-extra-labels","89","289196","0.0-34.0-2.0","43795","4A","woman","","","M4 is flirting with M2","flirt2","rating_volition","{""Q0"":1}","[0]","M4 wanted to flirt with M2","M2 wanted to flirt with M4"
"1662.7300000036485","","","survey-likert-extra-labels","90","290864","0.0-34.0-3.0-0.0","43795","4A","woman","","","M4 is flirting with M2","flirt2","rating_causation","{""Q0"":1}","[0]","M4 started flirting with M2 first","M2 started flirting with M4 first"
"null","Fred is playing with Ruth","","html-keyboard-response","91","292866","0.0-35.0-0.0","43795","4A","woman","","null","M3 is playing with W1","play3","sentence","","","",""
"4431.420000000799","","","survey-likert-extra-labels","92","297300","0.0-35.0-1.0-0.0","43795","4A","woman","","","M3 is playing with W1","play3","rating_causation","{""Q0"":4}","[0]","W1 asked to play with M3","M3 asked to play with W1"
"3256.1399999976857","","","survey-likert-extra-labels","93","300559","0.0-35.0-2.0","43795","4A","woman","","","M3 is playing with W1","play3","rating_volition","{""Q0"":5}","[0]","W1 wanted to play with M3","M3 wanted to play with W1"
"null","Ruth is arguing with Kate","","html-keyboard-response","94","302563","0.0-36.0-0.0","43795","4A","woman","","null","W1 is arguing with W3","argue1","sentence","","","",""
"2679.049999998824","","","survey-likert-extra-labels","95","305244","0.0-36.0-1.0-0.0","43795","4A","woman","","","W1 is arguing with W3","argue1","rating_causation","{""Q0"":4}","[0]","W3 started an argument with W1","W1 started an argument with W3"
"2969.1299999976764","","","survey-likert-extra-labels","96","308216","0.0-36.0-2.0","43795","4A","woman","","","W1 is arguing with W3","argue1","rating_volition","{""Q0"":5}","[0]","W3 wanted to argue with W1","W1 wanted to argue with W3"
"null","Dave is kissing Jane","","html-keyboard-response","97","310220","0.0-37.0-0.0","43795","4A","woman","","null","M4 is kissing W2","kiss4","sentence","","","",""
"3143.7499999956344","","","survey-likert-extra-labels","98","313367","0.0-37.0-2.0","43795","4A","woman","","","M4 is kissing W2","kiss4","rating_volition","{""Q0"":0}","[0]","M4 wanted to kiss W2","W2 wanted to kiss M4"
"3107.4100000041653","","","survey-likert-extra-labels","99","316476","0.0-37.0-3.0-0.0","43795","4A","woman","","","M4 is kissing W2","kiss4","rating_causation","{""Q0"":2}","[0]","M4 asked to kiss W2","W2 asked to kiss M4"
"null","Luke is shouting at Fred","","html-keyboard-response","100","318479","0.0-38.0-0.0","43795","4A","woman","","null","M1 is shouting at M3","shout2","sentence","","","",""
"3337.0799999975134","","","survey-likert-extra-labels","101","321819","0.0-38.0-1.0-0.0","43795","4A","woman","","","M1 is shouting at M3","shout2","rating_causation","{""Q0"":4}","[0]","M3 shouted at M1 first","M1 shouted at M3 first"
"2784.3900000007125","","","survey-likert-extra-labels","102","324607","0.0-38.0-2.0","43795","4A","woman","","","M1 is shouting at M3","shout2","rating_volition","{""Q0"":5}","[0]","M3 wanted to shout at M1","M1 wanted to shout at M3"
"null","Luke is driving Fred","","html-keyboard-response","103","326610","0.0-39.0-0.0","43795","4A","woman","","null","M1 is driving M3","drive","sentence","","","",""
"2940.8150000017486","","","survey-likert-extra-labels","104","329552","0.0-39.0-2.0","43795","4A","woman","","","M1 is driving M3","drive","rating_volition","{""Q0"":0}","[0]","M3 is M1's passenger","M1 is M3's passenger"
"3030.6650000056834","","","survey-likert-extra-labels","105","332586","0.0-39.0-3.0-0.0","43795","4A","woman","","","M1 is driving M3","drive","rating_causation","{""Q0"":6}","[0]","M3 is taking M1 somewhere","M1 is taking M3 somewhere"
"null","Ruth is flirting with Fred","","html-keyboard-response","106","334590","0.0-40.0-0.0","43795","4A","woman","","null","W1 is flirting with M3","flirt4","sentence","","","",""
"2392.8650000016205","","","survey-likert-extra-labels","107","336985","0.0-40.0-2.0","43795","4A","woman","","","W1 is flirting with M3","flirt4","rating_volition","{""Q0"":1}","[0]","W1 wanted to flirt with M3","M3 wanted to flirt with W1"
"3474.820000003092","","","survey-likert-extra-labels","108","340464","0.0-40.0-3.0-0.0","43795","4A","woman","","","W1 is flirting with M3","flirt4","rating_causation","{""Q0"":1}","[0]","W1 started flirting with M3 first","M3 started flirting with W1 first"
"null","Kate is kissing Ruth","","html-keyboard-response","109","342470","0.0-41.0-0.0","43795","4A","woman","","null","W3 is kissing W1","kiss1","sentence","","","",""
"3954.054999994696","","","survey-likert-extra-labels","110","346427","0.0-41.0-2.0","43795","4A","woman","","","W3 is kissing W1","kiss1","rating_volition","{""Q0"":1}","[0]","W3 wanted to kiss W1","W1 wanted to kiss W3"
"3111.7599999997765","","","survey-likert-extra-labels","111","349542","0.0-41.0-3.0-0.0","43795","4A","woman","","","W3 is kissing W1","kiss1","rating_causation","{""Q0"":2}","[0]","W3 asked to kiss W1","W1 asked to kiss W3"
"null","Mike is shouting at Beth","","html-keyboard-response","112","351545","0.0-42.0-0.0","43795","4A","woman","","null","M2 is shouting at W4","shout3","sentence","","","",""
"3139.3150000003516","","","survey-likert-extra-labels","113","354688","0.0-42.0-1.0-0.0","43795","4A","woman","","","M2 is shouting at W4","shout3","rating_causation","{""Q0"":5}","[0]","W4 shouted at M2 first","M2 shouted at W4 first"
"2705.8350000006612","","","survey-likert-extra-labels","114","357397","0.0-42.0-2.0","43795","4A","woman","","","M2 is shouting at W4","shout3","rating_volition","{""Q0"":5}","[0]","W4 wanted to shout at M2","M2 wanted to shout at W4"
"null","Dave is marrying Mike","","html-keyboard-response","115","359401","0.0-43.0-0.0","43795","4A","woman","","null","M4 is marrying M2","marry2","sentence","","","",""
"1970.209999999497","","","survey-likert-extra-labels","116","361377","0.0-43.0-1.0-0.0","43795","4A","woman","","","M4 is marrying M2","marry2","rating_causation","{""Q0"":3}","[0]","M4 asked to marry M2","M2 asked to marry M4"
"2851.2550000014016","","","survey-likert-extra-labels","117","364230","0.0-43.0-2.0","43795","4A","woman","","","M4 is marrying M2","marry2","rating_volition","{""Q0"":1}","[0]","M4 wanted to marry M2","M2 wanted to marry M4"
"null","Mike is playing with Dave","","html-keyboard-response","118","366233","0.0-44.0-0.0","43795","4A","woman","","null","M2 is playing with M4","play2","sentence","","","",""
"5706.500000000233","","","survey-likert-extra-labels","119","371943","0.0-44.0-2.0","43795","4A","woman","","","M2 is playing with M4","play2","rating_volition","{""Q0"":5}","[0]","M4 wanted to play with M2","M2 wanted to play with M4"
"2416.3550000012037","","","survey-likert-extra-labels","120","374365","0.0-44.0-3.0-0.0","43795","4A","woman","","","M2 is playing with M4","play2","rating_causation","{""Q0"":4}","[0]","M4 asked to play with M2","M2 asked to play with M4"
"null","Jane is fighting with Beth","","html-keyboard-response","121","376368","0.0-45.0-0.0","43795","4A","woman","","null","W2 is fighting with W4","fight1","sentence","","","",""
"2641.490000001795","","","survey-likert-extra-labels","122","379012","0.0-45.0-2.0","43795","4A","woman","","","W2 is fighting with W4","fight1","rating_volition","{""Q0"":4}","[0]","W4 wanted to fight W2","W2 wanted to fight W4"
"3623.379999997269","","","survey-likert-extra-labels","123","382638","0.0-45.0-3.0-0.0","43795","4A","woman","","","W2 is fighting with W4","fight1","rating_causation","{""Q0"":4}","[0]","W4 started the fight with W2","W2 started the fight with W4"
"null","Ruth is marrying Fred","","html-keyboard-response","124","384642","0.0-46.0-0.0","43795","4A","woman","","null","W1 is marrying M3","marry3","sentence","","","",""
"4023.764999998093","","","survey-likert-extra-labels","125","388668","0.0-46.0-2.0","43795","4A","woman","","","W1 is marrying M3","marry3","rating_volition","{""Q0"":1}","[0]","W1 wanted to marry M3","M3 wanted to marry W1"
"3046.860000002198","","","survey-likert-extra-labels","126","391717","0.0-46.0-3.0-0.0","43795","4A","woman","","","W1 is marrying M3","marry3","rating_causation","{""Q0"":3}","[0]","W1 asked to marry M3","M3 asked to marry W1"
"null","Ruth is chasing Kate","","html-keyboard-response","127","393719","0.0-47.0-0.0","43795","4A","woman","","null","W1 is chasing W3","chase","sentence","","","",""
"5988.534999996773","","","survey-likert-extra-labels","128","399710","0.0-47.0-2.0","43795","4A","woman","","","W1 is chasing W3","chase","rating_volition","{""Q0"":0}","[0]","W1 is behind W3","W3 is behind W1"
"5440.784999998868","","","survey-likert-extra-labels","129","405153","0.0-47.0-3.0-0.0","43795","4A","woman","","","W1 is chasing W3","chase","rating_causation","{""Q0"":5}","[0]","W1 is running away from W3","W3 is running away from W1"
"null","Fred is fighting with Ruth","","html-keyboard-response","130","407156","0.0-48.0-0.0","43795","4A","woman","","null","M3 is fighting with W1","fight4","sentence","","","",""
"2113.854999995965","","","survey-likert-extra-labels","131","409271","0.0-48.0-1.0-0.0","43795","4A","woman","","","M3 is fighting with W1","fight4","rating_causation","{""Q0"":4}","[0]","W1 started the fight with M3","M3 started the fight with W1"
"4087.2399999934714","","","survey-likert-extra-labels","132","413361","0.0-48.0-2.0","43795","4A","woman","","","M3 is fighting with W1","fight4","rating_volition","{""Q0"":5}","[0]","W1 wanted to fight M3","M3 wanted to fight W1"
"null","Jane is arguing with Dave","","html-keyboard-response","133","415363","0.0-49.0-0.0","43795","4A","woman","","null","W2 is arguing with M4","argue3","sentence","","","",""
"2696.6150000007474","","","survey-likert-extra-labels","134","418061","0.0-49.0-2.0","43795","4A","woman","","","W2 is arguing with M4","argue3","rating_volition","{""Q0"":4}","[0]","M4 wanted to argue with W2","W2 wanted to argue with M4"
"2928.3999999970547","","","survey-likert-extra-labels","135","420992","0.0-49.0-3.0-0.0","43795","4A","woman","","","W2 is arguing with M4","argue3","rating_causation","{""Q0"":4}","[0]","M4 started an argument with W2","W2 started an argument with M4"
"null","Jane is shouting at Dave","","html-keyboard-response","136","422995","0.0-50.0-0.0","43795","4A","woman","","null","W2 is shouting at M4","shout4","sentence","","","",""
"2969.7849999938626","","","survey-likert-extra-labels","137","425967","0.0-50.0-2.0","43795","4A","woman","","","W2 is shouting at M4","shout4","rating_volition","{""Q0"":5}","[0]","M4 wanted to shout at W2","W2 wanted to shout at M4"
"2744.0050000004703","","","survey-likert-extra-labels","138","428713","0.0-50.0-3.0-0.0","43795","4A","woman","","","W2 is shouting at M4","shout4","rating_causation","{""Q0"":4}","[0]","M4 shouted at W2 first","W2 shouted at M4 first"
"null","Kate is feeding Luke","","html-keyboard-response","139","430715","0.0-51.0-0.0","43795","4A","woman","","null","W3 is feeding M1","feed","sentence","","","",""
"3231.325000000652","","","survey-likert-extra-labels","140","433949","0.0-51.0-2.0","43795","4A","woman","","","W3 is feeding M1","feed","rating_volition","{""Q0"":0}","[0]","W3 is giving M1 food","M1 is giving W3 food"
"3826.2549999999464","","","survey-likert-extra-labels","141","437778","0.0-51.0-3.0-0.0","43795","4A","woman","","","W3 is feeding M1","feed","rating_causation","{""Q0"":4}","[0]","W3 is eating M1's food","M1 is eating W3's food"
"null","Luke is marrying Kate","","html-keyboard-response","142","439781","0.0-52.0-0.0","43795","4A","woman","","null","M1 is marrying W3","marry4","sentence","","","",""
"3556.479999999283","","","survey-likert-extra-labels","143","443339","0.0-52.0-1.0-0.0","43795","4A","woman","","","M1 is marrying W3","marry4","rating_causation","{""Q0"":3}","[0]","M1 asked to marry W3","W3 asked to marry M1"
"1969.1949999978533","","","survey-likert-extra-labels","144","445313","0.0-52.0-2.0","43795","4A","woman","","","M1 is marrying W3","marry4","rating_volition","{""Q0"":1}","[0]","M1 wanted to marry W3","W3 wanted to marry M1"
"null","Fred is talking to Luke","","html-keyboard-response","145","447314","0.0-53.0-0.0","43795","4A","woman","","null","M3 is talking to M1","talk2","sentence","","","",""
"3382.5100000030943","","","survey-likert-extra-labels","146","450699","0.0-53.0-1.0-0.0","43795","4A","woman","","","M3 is talking to M1","talk2","rating_causation","{""Q0"":2}","[0]","M3 started a conversation with M1","M1 started a conversation with M3"
"2855.0949999989825","","","survey-likert-extra-labels","147","453558","0.0-53.0-2.0","43795","4A","woman","","","M3 is talking to M1","talk2","rating_volition","{""Q0"":1}","[0]","M3 wanted to talk to M1","M1 wanted to talk to M3"
"null","Dave is dancing with Jane","","html-keyboard-response","148","455560","0.0-54.0-0.0","43795","4A","woman","","null","M4 is dancing with W2","dance3","sentence","","","",""
"4033.784999999625","","","survey-likert-extra-labels","149","459597","0.0-54.0-1.0-0.0","43795","4A","woman","","","M4 is dancing with W2","dance3","rating_causation","{""Q0"":4}","[0]","M4 asked W2 to dance","W2 asked M4 to dance"
"4563.344999995024","","","survey-likert-extra-labels","150","464162","0.0-54.0-2.0","43795","4A","woman","","","M4 is dancing with W2","dance3","rating_volition","{""Q0"":1}","[0]","M4 wanted to dance with W2","W2 wanted to dance with M4"
"937.7300000051036","<p>Thank you for completing that task.</p><p>The final part of this session is a short questionnaire.</p><p>Press Continue.</p>","0","html-button-response","151","465102","0.0-55.0","43795","4A","woman","","","","","","","","",""
"24631.350000003295","","","survey-text","152","490745","0.0-56.0","43795","4A","woman","","","","","demographics","{""Q0"":""24"",""Q1"":""English"",""Q2"":""English"",""Q3"":""United Kingdom"",""Q4"":""British"",""Q5"":""White"",""Q6"":""Woman""}","","",""
"1314.699999995355","<p>Have you lived in the UK for the last 5 years or more?</p>","0","html-button-response","153","492064","0.0-57.0","43795","4A","woman","","","","","fiveyears","","","",""
"5573.960000001534","","","survey-text","154","498646","0.0-58.0","43795","4A","woman","","","","","worker_id","{""Q0"":""5d544c49318f5300168b8f04""}","","",""
"3966.8600000004517","","","external-html","155","502758","0.0-59.0","43795","4A","woman","debrief.html","","","","","","","",""
