"rt","stimulus","button_pressed","trial_type","trial_index","time_elapsed","internal_node_id","subject","list","ppt_gender","url","key_press","sentence_type","verb","test_part","responses","question_order","left_part","right_part"
"1578.8199999997232","Welcome to the experiment. Press Continue to begin.","0","html-button-response","0","1587","0.0-0.0","51742","2A","man","","","","","","","","",""
"16998.39499999962","","","external-html","1","19646","0.0-1.0","51742","2A","man","consent.html","","","","","","","",""
"16612.21999999998","<p>Welcome.</p><p>In this experiment we will ask you to imagine some situations.</p><p>Each trial starts with a description of an event.</p><p>Then you will see alternative descriptions of that event, and you will rate on a scale how best they match the original description.</p><p>You will give your answer by clicking a button on a rating scale.</p><p>To do this task, you will have to use your imagination to visualise these events.</p><br><p>Ready?</p>","0","html-button-response","2","36262","0.0-2.0","51742","2A","man","","","","","","","","",""
"4671.790000000328","<p>Before the experiment starts, you will watch an example trial. Press 'Continue'.</p>","0","html-button-response","3","41937","0.0-3.0","51742","2A","man","","","","","","","","",""
"null","The police officer is arresting the robber","","html-keyboard-response","4","44942","0.0-4.0","51742","2A","man","","null","","","","","","",""
"14552.535000000717","<img src='img/Example-trial.jpg' style='height:550px;''></img>","0","html-button-response","5","59499","0.0-5.0","51742","2A","man","","","","","","","","",""
"28404.845000000023","<p>Ready to start the experiment?</p><br><p><strong>Remember to give an answer by clicking a button on the rating scale.</strong></p><p>Press 'Continue' to begin.</p>","0","html-button-response","6","88908","0.0-6.0","51742","2A","man","","","","","","","","",""
"null","Jane is dancing with Dave","","html-keyboard-response","7","91916","0.0-7.0-0.0","51742","2A","man","","null","W2 is dancing with M4","dance3","sentence","","","",""
"7172.61999999937","","","survey-likert-extra-labels","8","99095","0.0-7.0-2.0","51742","2A","man","","","W2 is dancing with M4","dance3","rating_volition","{""Q0"":6}","[0]","M4 wanted to dance with W2","W2 wanted to dance with M4"
"7470.435000000187","","","survey-likert-extra-labels","9","106571","0.0-7.0-3.0-0.0","51742","2A","man","","","W2 is dancing with M4","dance3","rating_causation","{""Q0"":6}","[0]","M4 asked W2 to dance","W2 asked M4 to dance"
"null","Beth is arguing with Mike","","html-keyboard-response","10","108577","0.0-8.0-0.0","51742","2A","man","","null","W4 is arguing with M2","argue4","sentence","","","",""
"4170.740000000485","","","survey-likert-extra-labels","11","112751","0.0-8.0-1.0-0.0","51742","2A","man","","","W4 is arguing with M2","argue4","rating_causation","{""Q0"":3}","[0]","W4 started an argument with M2","M2 started an argument with W4"
"3827.8250000003027","","","survey-likert-extra-labels","12","116584","0.0-8.0-2.0","51742","2A","man","","","W4 is arguing with M2","argue4","rating_volition","{""Q0"":3}","[0]","W4 wanted to argue with M2","M2 wanted to argue with W4"
"null","Luke is talking to Fred","","html-keyboard-response","13","118589","0.0-9.0-0.0","51742","2A","man","","null","M1 is talking to M3","talk2","sentence","","","",""
"5953.304999999993","","","survey-likert-extra-labels","14","124546","0.0-9.0-2.0","51742","2A","man","","","M1 is talking to M3","talk2","rating_volition","{""Q0"":5}","[0]","M3 wanted to talk to M1","M1 wanted to talk to M3"
"12141.69500000024","","","survey-likert-extra-labels","15","136693","0.0-9.0-3.0-0.0","51742","2A","man","","","M1 is talking to M3","talk2","rating_causation","{""Q0"":3}","[0]","M3 started a conversation with M1","M1 started a conversation with M3"
"null","Fred is hiring Ruth","","html-keyboard-response","16","138698","0.0-10.0-0.0","51742","2A","man","","null","M3 is hiring W1","hire","sentence","","","",""
"21719.130000000412","","","survey-likert-extra-labels","17","160420","0.0-10.0-1.0-0.0","51742","2A","man","","","M3 is hiring W1","hire","rating_causation","{""Q0"":6}","[0]","M3 will work for W1","W1 will work for M3"
"5175.750000000349","","","survey-likert-extra-labels","18","165601","0.0-10.0-2.0","51742","2A","man","","","M3 is hiring W1","hire","rating_volition","{""Q0"":0}","[0]","M3 is employing W1","W1 is employing M3"
"null","Jane is teaching Dave","","html-keyboard-response","19","167605","0.0-11.0-0.0","51742","2A","man","","null","W2 is teaching M4","teach","sentence","","","",""
"4433.715000000113","","","survey-likert-extra-labels","20","172042","0.0-11.0-2.0","51742","2A","man","","","W2 is teaching M4","teach","rating_volition","{""Q0"":0}","[0]","W2 is educating M4","M4 is educating W2"
"5733.7399999996705","","","survey-likert-extra-labels","21","177781","0.0-11.0-3.0-0.0","51742","2A","man","","","W2 is teaching M4","teach","rating_causation","{""Q0"":6}","[0]","W2 is learning from M4","M4 is learning from W2"
"null","Fred is shouting at Luke","","html-keyboard-response","22","179785","0.0-12.0-0.0","51742","2A","man","","null","M3 is shouting at M1","shout2","sentence","","","",""
"6085.004999999888","","","survey-likert-extra-labels","23","185874","0.0-12.0-1.0-0.0","51742","2A","man","","","M3 is shouting at M1","shout2","rating_causation","{""Q0"":3}","[0]","M3 shouted at M1 first","M1 shouted at M3 first"
"4689.620000000112","","","survey-likert-extra-labels","24","190569","0.0-12.0-2.0","51742","2A","man","","","M3 is shouting at M1","shout2","rating_volition","{""Q0"":3}","[0]","M3 wanted to shout at M1","M1 wanted to shout at M3"
"null","Ruth is playing with Fred","","html-keyboard-response","25","192573","0.0-13.0-0.0","51742","2A","man","","null","W1 is playing with M3","play3","sentence","","","",""
"6720.694999999949","","","survey-likert-extra-labels","26","199297","0.0-13.0-1.0-0.0","51742","2A","man","","","W1 is playing with M3","play3","rating_causation","{""Q0"":3}","[0]","W1 asked to play with M3","M3 asked to play with W1"
"4677.235000000132","","","survey-likert-extra-labels","27","203979","0.0-13.0-2.0","51742","2A","man","","","W1 is playing with M3","play3","rating_volition","{""Q0"":3}","[0]","W1 wanted to play with M3","M3 wanted to play with W1"
"null","Mike is talking to Beth","","html-keyboard-response","28","205984","0.0-14.0-0.0","51742","2A","man","","null","M2 is talking to W4","talk4","sentence","","","",""
"10995.109999999811","","","survey-likert-extra-labels","29","216982","0.0-14.0-1.0-0.0","51742","2A","man","","","M2 is talking to W4","talk4","rating_causation","{""Q0"":3}","[0]","W4 started a conversation with M2","M2 started a conversation with W4"
"5318.965000000375","","","survey-likert-extra-labels","30","222306","0.0-14.0-2.0","51742","2A","man","","","M2 is talking to W4","talk4","rating_volition","{""Q0"":3}","[0]","W4 wanted to talk to M2","M2 wanted to talk to W4"
"null","Dave is arguing with Jane","","html-keyboard-response","31","224310","0.0-15.0-0.0","51742","2A","man","","null","M4 is arguing with W2","argue3","sentence","","","",""
"3545.689999999915","","","survey-likert-extra-labels","32","227859","0.0-15.0-2.0","51742","2A","man","","","M4 is arguing with W2","argue3","rating_volition","{""Q0"":3}","[0]","M4 wanted to argue with W2","W2 wanted to argue with M4"
"4360.115000000427","","","survey-likert-extra-labels","33","232224","0.0-15.0-3.0-0.0","51742","2A","man","","","M4 is arguing with W2","argue3","rating_causation","{""Q0"":3}","[0]","M4 started an argument with W2","W2 started an argument with M4"
"null","Ruth is fighting with Fred","","html-keyboard-response","34","234229","0.0-16.0-0.0","51742","2A","man","","null","W1 is fighting with M3","fight4","sentence","","","",""
"11354.425000000454","","","survey-likert-extra-labels","35","245586","0.0-16.0-1.0-0.0","51742","2A","man","","","W1 is fighting with M3","fight4","rating_causation","{""Q0"":3}","[0]","W1 started the fight with M3","M3 started the fight with W1"
"3198.6799999994982","","","survey-likert-extra-labels","36","248790","0.0-16.0-2.0","51742","2A","man","","","W1 is fighting with M3","fight4","rating_volition","{""Q0"":3}","[0]","W1 wanted to fight M3","M3 wanted to fight W1"
"null","Mike is marrying Dave","","html-keyboard-response","37","250794","0.0-17.0-0.0","51742","2A","man","","null","M2 is marrying M4","marry2","sentence","","","",""
"7661.430000000109","","","survey-likert-extra-labels","38","258459","0.0-17.0-1.0-0.0","51742","2A","man","","","M2 is marrying M4","marry2","rating_causation","{""Q0"":3}","[0]","M4 asked to marry M2","M2 asked to marry M4"
"8219.140000000189","","","survey-likert-extra-labels","39","266683","0.0-17.0-2.0","51742","2A","man","","","M2 is marrying M4","marry2","rating_volition","{""Q0"":3}","[0]","M4 wanted to marry M2","M2 wanted to marry M4"
"null","Luke is kissing Fred","","html-keyboard-response","40","268689","0.0-18.0-0.0","51742","2A","man","","null","M1 is kissing M3","kiss2","sentence","","","",""
"4565.255000000412","","","survey-likert-extra-labels","41","273257","0.0-18.0-2.0","51742","2A","man","","","M1 is kissing M3","kiss2","rating_volition","{""Q0"":3}","[0]","M3 wanted to kiss M1","M1 wanted to kiss M3"
"2707.6600000000326","","","survey-likert-extra-labels","42","275971","0.0-18.0-3.0-0.0","51742","2A","man","","","M1 is kissing M3","kiss2","rating_causation","{""Q0"":3}","[0]","M3 asked to kiss M1","M1 asked to kiss M3"
"null","Mike is reminding Beth","","html-keyboard-response","43","277975","0.0-19.0-0.0","51742","2A","man","","null","M2 is reminding W4","remind","sentence","","","",""
"40374.21999999968","","","survey-likert-extra-labels","44","318353","0.0-19.0-1.0-0.0","51742","2A","man","","","M2 is reminding W4","remind","rating_causation","{""Q0"":6}","[0]","M2 is remembering","W4 is remembering"
"24022.839999999676","","","survey-likert-extra-labels","45","342380","0.0-19.0-2.0","51742","2A","man","","","M2 is reminding W4","remind","rating_volition","{""Q0"":0}","[0]","M2 is telling W4 again","W4 is telling M2 again"
"null","Mike is posing for Dave","","html-keyboard-response","46","344386","0.0-20.0-0.0","51742","2A","man","","null","M2 is posing for M4","pose","sentence","","","",""
"18781.530000000203","","","survey-likert-extra-labels","47","363169","0.0-20.0-1.0-0.0","51742","2A","man","","","M2 is posing for M4","pose","rating_causation","{""Q0"":0}","[0]","M2 is photographing M4","M4 is photographing M2"
"4083.6650000000955","","","survey-likert-extra-labels","48","367258","0.0-20.0-2.0","51742","2A","man","","","M2 is posing for M4","pose","rating_volition","{""Q0"":0}","[0]","M2 is modelling for M4","M4 is modelling for M2"
"null","Kate is touching Luke","","html-keyboard-response","49","369262","0.0-21.0-0.0","51742","2A","man","","null","W3 is touching M1","touch3","sentence","","","",""
"15576.24000000034","","","survey-likert-extra-labels","50","384842","0.0-21.0-1.0-0.0","51742","2A","man","","","W3 is touching M1","touch3","rating_causation","{""Q0"":3}","[0]","M1 asked to touch W3","W3 asked to touch M1"
"6872.254999999364","","","survey-likert-extra-labels","51","391720","0.0-21.0-2.0","51742","2A","man","","","W3 is touching M1","touch3","rating_volition","{""Q0"":6}","[0]","M1 wanted to touch W3","W3 wanted to touch M1"
"null","Luke is playing with Kate","","html-keyboard-response","52","394515","0.0-22.0-0.0","51742","2A","man","","null","M1 is playing with W3","play4","sentence","","","",""
"6766.564999999886","","","survey-likert-extra-labels","53","401285","0.0-22.0-2.0","51742","2A","man","","","M1 is playing with W3","play4","rating_volition","{""Q0"":3}","[0]","M1 wanted to play with W3","W3 wanted to play with M1"
"66521.07500000054","","","survey-likert-extra-labels","54","467812","0.0-22.0-3.0-0.0","51742","2A","man","","","M1 is playing with W3","play4","rating_causation","{""Q0"":3}","[0]","M1 asked to play with W3","W3 asked to play with M1"
"null","Kate is feeding Luke","","html-keyboard-response","55","469818","0.0-23.0-0.0","51742","2A","man","","null","W3 is feeding M1","feed","sentence","","","",""
"10113.890000000538","","","survey-likert-extra-labels","56","479935","0.0-23.0-1.0-0.0","51742","2A","man","","","W3 is feeding M1","feed","rating_causation","{""Q0"":4}","[0]","W3 is eating M1's food","M1 is eating W3's food"
"10010.91999999975","","","survey-likert-extra-labels","57","489952","0.0-23.0-2.0","51742","2A","man","","","W3 is feeding M1","feed","rating_volition","{""Q0"":0}","[0]","W3 is giving M1 food","M1 is giving W3 food"
"null","Mike is flirting with Dave","","html-keyboard-response","58","491957","0.0-24.0-0.0","51742","2A","man","","null","M2 is flirting with M4","flirt2","sentence","","","",""
"5885.669999999693","","","survey-likert-extra-labels","59","497846","0.0-24.0-2.0","51742","2A","man","","","M2 is flirting with M4","flirt2","rating_volition","{""Q0"":6}","[0]","M4 wanted to flirt with M2","M2 wanted to flirt with M4"
"4091.7449999997043","","","survey-likert-extra-labels","60","501943","0.0-24.0-3.0-0.0","51742","2A","man","","","M2 is flirting with M4","flirt2","rating_causation","{""Q0"":3}","[0]","M4 started flirting with M2 first","M2 started flirting with M4 first"
"null","Beth is playing with Jane","","html-keyboard-response","61","503948","0.0-25.0-0.0","51742","2A","man","","null","W4 is playing with W2","play1","sentence","","","",""
"8125.860000000102","","","survey-likert-extra-labels","62","512077","0.0-25.0-1.0-0.0","51742","2A","man","","","W4 is playing with W2","play1","rating_causation","{""Q0"":3}","[0]","W4 asked to play with W2","W2 asked to play with W4"
"6107.774999999499","","","survey-likert-extra-labels","63","518190","0.0-25.0-2.0","51742","2A","man","","","W4 is playing with W2","play1","rating_volition","{""Q0"":3}","[0]","W4 wanted to play with W2","W2 wanted to play with W4"
"null","Kate is shouting at Ruth","","html-keyboard-response","64","520194","0.0-26.0-0.0","51742","2A","man","","null","W3 is shouting at W1","shout1","sentence","","","",""
"3505.7549999991897","","","survey-likert-extra-labels","65","523703","0.0-26.0-2.0","51742","2A","man","","","W3 is shouting at W1","shout1","rating_volition","{""Q0"":3}","[0]","W3 wanted to shout at W1","W1 wanted to shout at W3"
"3918.9349999997066","","","survey-likert-extra-labels","66","527626","0.0-26.0-3.0-0.0","51742","2A","man","","","W3 is shouting at W1","shout1","rating_causation","{""Q0"":3}","[0]","W3 shouted at W1 first","W1 shouted at W3 first"
"null","Mike is dancing with Beth","","html-keyboard-response","67","529630","0.0-27.0-0.0","51742","2A","man","","null","M2 is dancing with W4","dance4","sentence","","","",""
"4471.619999999297","","","survey-likert-extra-labels","68","534104","0.0-27.0-1.0-0.0","51742","2A","man","","","M2 is dancing with W4","dance4","rating_causation","{""Q0"":3}","[0]","W4 asked M2 to dance","M2 asked W4 to dance"
"3142.8149999992456","","","survey-likert-extra-labels","69","537252","0.0-27.0-2.0","51742","2A","man","","","M2 is dancing with W4","dance4","rating_volition","{""Q0"":3}","[0]","W4 wanted to dance with M2","M2 wanted to dance with W4"
"null","Jane is touching Beth","","html-keyboard-response","70","539256","0.0-28.0-0.0","51742","2A","man","","null","W2 is touching W4","touch1","sentence","","","",""
"7159.835000000428","","","survey-likert-extra-labels","71","546419","0.0-28.0-2.0","51742","2A","man","","","W2 is touching W4","touch1","rating_volition","{""Q0"":6}","[0]","W4 wanted to touch W2","W2 wanted to touch W4"
"5866.105000000098","","","survey-likert-extra-labels","72","552291","0.0-28.0-3.0-0.0","51742","2A","man","","","W2 is touching W4","touch1","rating_causation","{""Q0"":3}","[0]","W4 asked to touch W2","W2 asked to touch W4"
"null","Mike is kissing Beth","","html-keyboard-response","73","554296","0.0-29.0-0.0","51742","2A","man","","null","M2 is kissing W4","kiss3","sentence","","","",""
"3336.7950000001583","","","survey-likert-extra-labels","74","557636","0.0-29.0-1.0-0.0","51742","2A","man","","","M2 is kissing W4","kiss3","rating_causation","{""Q0"":3}","[0]","W4 asked to kiss M2","M2 asked to kiss W4"
"7613.365000000107","","","survey-likert-extra-labels","75","565255","0.0-29.0-2.0","51742","2A","man","","","M2 is kissing W4","kiss3","rating_volition","{""Q0"":6}","[0]","W4 wanted to kiss M2","M2 wanted to kiss W4"
"null","Jane is marrying Beth","","html-keyboard-response","76","567260","0.0-30.0-0.0","51742","2A","man","","null","W2 is marrying W4","marry1","sentence","","","",""
"6832.685000000289","","","survey-likert-extra-labels","77","574095","0.0-30.0-1.0-0.0","51742","2A","man","","","W2 is marrying W4","marry1","rating_causation","{""Q0"":3}","[0]","W4 asked to marry W2","W2 asked to marry W4"
"4174.164999999455","","","survey-likert-extra-labels","78","578274","0.0-30.0-2.0","51742","2A","man","","","W2 is marrying W4","marry1","rating_volition","{""Q0"":6}","[0]","W4 wanted to marry W2","W2 wanted to marry W4"
"null","Luke is dancing with Fred","","html-keyboard-response","79","580279","0.0-31.0-0.0","51742","2A","man","","null","M1 is dancing with M3","dance2","sentence","","","",""
"4310.2900000003865","","","survey-likert-extra-labels","80","584591","0.0-31.0-2.0","51742","2A","man","","","M1 is dancing with M3","dance2","rating_volition","{""Q0"":6}","[0]","M3 wanted to dance with M1","M1 wanted to dance with M3"
"4888.025000000256","","","survey-likert-extra-labels","81","589483","0.0-31.0-3.0-0.0","51742","2A","man","","","M1 is dancing with M3","dance2","rating_causation","{""Q0"":3}","[0]","M3 asked M1 to dance","M1 asked M3 to dance"
"null","Luke is driving Fred","","html-keyboard-response","82","591487","0.0-32.0-0.0","51742","2A","man","","null","M1 is driving M3","drive","sentence","","","",""
"5194.534999999567","","","survey-likert-extra-labels","83","596685","0.0-32.0-1.0-0.0","51742","2A","man","","","M1 is driving M3","drive","rating_causation","{""Q0"":6}","[0]","M3 is taking M1 somewhere","M1 is taking M3 somewhere"
"5686.719999999623","","","survey-likert-extra-labels","84","602377","0.0-32.0-2.0","51742","2A","man","","","M1 is driving M3","drive","rating_volition","{""Q0"":0}","[0]","M3 is M1's passenger","M1 is M3's passenger"
"null","Ruth is chasing Kate","","html-keyboard-response","85","604381","0.0-33.0-0.0","51742","2A","man","","null","W1 is chasing W3","chase","sentence","","","",""
"3743.625","","","survey-likert-extra-labels","86","608128","0.0-33.0-2.0","51742","2A","man","","","W1 is chasing W3","chase","rating_volition","{""Q0"":0}","[0]","W1 is behind W3","W3 is behind W1"
"7700.829999999842","","","survey-likert-extra-labels","87","615835","0.0-33.0-3.0-0.0","51742","2A","man","","","W1 is chasing W3","chase","rating_causation","{""Q0"":6}","[0]","W1 is running away from W3","W3 is running away from W1"
"null","Kate is arguing with Ruth","","html-keyboard-response","88","617840","0.0-34.0-0.0","51742","2A","man","","null","W3 is arguing with W1","argue1","sentence","","","",""
"3240.4299999998184","","","survey-likert-extra-labels","89","621084","0.0-34.0-2.0","51742","2A","man","","","W3 is arguing with W1","argue1","rating_volition","{""Q0"":3}","[0]","W3 wanted to argue with W1","W1 wanted to argue with W3"
"3365.2700000002515","","","survey-likert-extra-labels","90","624453","0.0-34.0-3.0-0.0","51742","2A","man","","","W3 is arguing with W1","argue1","rating_causation","{""Q0"":3}","[0]","W3 started an argument with W1","W1 started an argument with W3"
"null","Jane is talking to Dave","","html-keyboard-response","91","626458","0.0-35.0-0.0","51742","2A","man","","null","W2 is talking to M4","talk3","sentence","","","",""
"4572.530000000377","","","survey-likert-extra-labels","92","631034","0.0-35.0-2.0","51742","2A","man","","","W2 is talking to M4","talk3","rating_volition","{""Q0"":3}","[0]","M4 wanted to talk to W2","W2 wanted to talk to M4"
"6169.105000000796","","","survey-likert-extra-labels","93","637209","0.0-35.0-3.0-0.0","51742","2A","man","","","W2 is talking to M4","talk3","rating_causation","{""Q0"":3}","[0]","M4 started a conversation with W2","W2 started a conversation with M4"
"null","Fred is flirting with Ruth","","html-keyboard-response","94","639214","0.0-36.0-0.0","51742","2A","man","","null","M3 is flirting with W1","flirt4","sentence","","","",""
"4323.460000000545","","","survey-likert-extra-labels","95","643541","0.0-36.0-2.0","51742","2A","man","","","M3 is flirting with W1","flirt4","rating_volition","{""Q0"":6}","[0]","W1 wanted to flirt with M3","M3 wanted to flirt with W1"
"4854.539999999339","","","survey-likert-extra-labels","96","648401","0.0-36.0-3.0-0.0","51742","2A","man","","","M3 is flirting with W1","flirt4","rating_causation","{""Q0"":3}","[0]","W1 started flirting with M3 first","M3 started flirting with W1 first"
"null","Fred is marrying Ruth","","html-keyboard-response","97","650406","0.0-37.0-0.0","51742","2A","man","","null","M3 is marrying W1","marry3","sentence","","","",""
"17511.530000000726","","","survey-likert-extra-labels","98","667926","0.0-37.0-2.0","51742","2A","man","","","M3 is marrying W1","marry3","rating_volition","{""Q0"":6}","[0]","W1 wanted to marry M3","M3 wanted to marry W1"
"10067.854999999283","","","survey-likert-extra-labels","99","678000","0.0-37.0-3.0-0.0","51742","2A","man","","","M3 is marrying W1","marry3","rating_causation","{""Q0"":3}","[0]","W1 asked to marry M3","M3 asked to marry W1"
"null","Dave is fighting with Mike","","html-keyboard-response","100","680006","0.0-38.0-0.0","51742","2A","man","","null","M4 is fighting with M2","fight2","sentence","","","",""
"2625.8749999996508","","","survey-likert-extra-labels","101","682634","0.0-38.0-2.0","51742","2A","man","","","M4 is fighting with M2","fight2","rating_volition","{""Q0"":3}","[0]","M4 wanted to fight M2","M2 wanted to fight M4"
"4262.829999999725","","","survey-likert-extra-labels","102","686904","0.0-38.0-3.0-0.0","51742","2A","man","","","M4 is fighting with M2","fight2","rating_causation","{""Q0"":3}","[0]","M4 started the fight with M2","M2 started the fight with M4"
"null","Dave is playing with Mike","","html-keyboard-response","103","688909","0.0-39.0-0.0","51742","2A","man","","null","M4 is playing with M2","play2","sentence","","","",""
"5620.7750000003725","","","survey-likert-extra-labels","104","694533","0.0-39.0-1.0-0.0","51742","2A","man","","","M4 is playing with M2","play2","rating_causation","{""Q0"":3}","[0]","M4 asked to play with M2","M2 asked to play with M4"
"25381.09499999974","","","survey-likert-extra-labels","105","719918","0.0-39.0-2.0","51742","2A","man","","","M4 is playing with M2","play2","rating_volition","{""Q0"":1}","[0]","M4 wanted to play with M2","M2 wanted to play with M4"
"null","Luke is fighting with Kate","","html-keyboard-response","106","721923","0.0-40.0-0.0","51742","2A","man","","null","M1 is fighting with W3","fight3","sentence","","","",""
"3833.749999999767","","","survey-likert-extra-labels","107","725760","0.0-40.0-2.0","51742","2A","man","","","M1 is fighting with W3","fight3","rating_volition","{""Q0"":3}","[0]","M1 wanted to fight W3","W3 wanted to fight M1"
"2915.1199999997625","","","survey-likert-extra-labels","108","728679","0.0-40.0-3.0-0.0","51742","2A","man","","","M1 is fighting with W3","fight3","rating_causation","{""Q0"":3}","[0]","M1 started the fight with W3","W3 started the fight with M1"
"null","Kate is marrying Luke","","html-keyboard-response","109","730682","0.0-41.0-0.0","51742","2A","man","","null","W3 is marrying M1","marry4","sentence","","","",""
"4184.369999999879","","","survey-likert-extra-labels","110","734869","0.0-41.0-2.0","51742","2A","man","","","W3 is marrying M1","marry4","rating_volition","{""Q0"":6}","[0]","M1 wanted to marry W3","W3 wanted to marry M1"
"3349.1800000001676","","","survey-likert-extra-labels","111","738224","0.0-41.0-3.0-0.0","51742","2A","man","","","W3 is marrying M1","marry4","rating_causation","{""Q0"":3}","[0]","M1 asked to marry W3","W3 asked to marry M1"
"null","Beth is shouting at Mike","","html-keyboard-response","112","740228","0.0-42.0-0.0","51742","2A","man","","null","W4 is shouting at M2","shout3","sentence","","","",""
"3117.034999999334","","","survey-likert-extra-labels","113","743348","0.0-42.0-1.0-0.0","51742","2A","man","","","W4 is shouting at M2","shout3","rating_causation","{""Q0"":3}","[0]","W4 shouted at M2 first","M2 shouted at W4 first"
"3855.29499999946","","","survey-likert-extra-labels","114","747207","0.0-42.0-2.0","51742","2A","man","","","W4 is shouting at M2","shout3","rating_volition","{""Q0"":3}","[0]","W4 wanted to shout at M2","M2 wanted to shout at W4"
"null","Ruth is dancing with Kate","","html-keyboard-response","115","749212","0.0-43.0-0.0","51742","2A","man","","null","W1 is dancing with W3","dance1","sentence","","","",""
"8489.630000000005","","","survey-likert-extra-labels","116","757704","0.0-43.0-1.0-0.0","51742","2A","man","","","W1 is dancing with W3","dance1","rating_causation","{""Q0"":3}","[0]","W3 asked W1 to dance","W1 asked W3 to dance"
"6471.800000000279","","","survey-likert-extra-labels","117","764181","0.0-43.0-2.0","51742","2A","man","","","W1 is dancing with W3","dance1","rating_volition","{""Q0"":6}","[0]","W3 wanted to dance with W1","W1 wanted to dance with W3"
"null","Jane is carrying Beth","","html-keyboard-response","118","766186","0.0-44.0-0.0","51742","2A","man","","null","W2 is carrying W4","carry","sentence","","","",""
"3709.8450000003213","","","survey-likert-extra-labels","119","769898","0.0-44.0-2.0","51742","2A","man","","","W2 is carrying W4","carry","rating_volition","{""Q0"":0}","[0]","W2 is transporting W4","W4 is transporting W2"
"3585.795000000857","","","survey-likert-extra-labels","120","773489","0.0-44.0-3.0-0.0","51742","2A","man","","","W2 is carrying W4","carry","rating_causation","{""Q0"":6}","[0]","W2 is being moved by W4","W4 is being moved by W2"
"null","Dave is shouting at Jane","","html-keyboard-response","121","775492","0.0-45.0-0.0","51742","2A","man","","null","M4 is shouting at W2","shout4","sentence","","","",""
"3738.559999999823","","","survey-likert-extra-labels","122","779234","0.0-45.0-1.0-0.0","51742","2A","man","","","M4 is shouting at W2","shout4","rating_causation","{""Q0"":3}","[0]","M4 shouted at W2 first","W2 shouted at M4 first"
"3627.3649999994086","","","survey-likert-extra-labels","123","782866","0.0-45.0-2.0","51742","2A","man","","","M4 is shouting at W2","shout4","rating_volition","{""Q0"":3}","[0]","M4 wanted to shout at W2","W2 wanted to shout at M4"
"null","Beth is fighting with Jane","","html-keyboard-response","124","784870","0.0-46.0-0.0","51742","2A","man","","null","W4 is fighting with W2","fight1","sentence","","","",""
"3917.069999999483","","","survey-likert-extra-labels","125","788790","0.0-46.0-2.0","51742","2A","man","","","W4 is fighting with W2","fight1","rating_volition","{""Q0"":3}","[0]","W4 wanted to fight W2","W2 wanted to fight W4"
"3771.800000000396","","","survey-likert-extra-labels","126","792567","0.0-46.0-3.0-0.0","51742","2A","man","","","W4 is fighting with W2","fight1","rating_causation","{""Q0"":3}","[0]","W4 started the fight with W2","W2 started the fight with W4"
"null","Jane is flirting with Beth","","html-keyboard-response","127","794571","0.0-47.0-0.0","51742","2A","man","","null","W2 is flirting with W4","flirt1","sentence","","","",""
"3122.249999999418","","","survey-likert-extra-labels","128","797696","0.0-47.0-1.0-0.0","51742","2A","man","","","W2 is flirting with W4","flirt1","rating_causation","{""Q0"":3}","[0]","W4 started flirting with W2 first","W2 started flirting with W4 first"
"4629.660000000498","","","survey-likert-extra-labels","129","802330","0.0-47.0-2.0","51742","2A","man","","","W2 is flirting with W4","flirt1","rating_volition","{""Q0"":6}","[0]","W4 wanted to flirt with W2","W2 wanted to flirt with W4"
"null","Kate is flirting with Luke","","html-keyboard-response","130","804334","0.0-48.0-0.0","51742","2A","man","","null","W3 is flirting with M1","flirt3","sentence","","","",""
"3175.7399999996414","","","survey-likert-extra-labels","131","807512","0.0-48.0-2.0","51742","2A","man","","","W3 is flirting with M1","flirt3","rating_volition","{""Q0"":3}","[0]","M1 wanted to flirt with W3","W3 wanted to flirt with M1"
"3550.520000000717","","","survey-likert-extra-labels","132","811065","0.0-48.0-3.0-0.0","51742","2A","man","","","W3 is flirting with M1","flirt3","rating_causation","{""Q0"":3}","[0]","M1 started flirting with W3 first","W3 started flirting with M1 first"
"null","Ruth is kissing Kate","","html-keyboard-response","133","813068","0.0-49.0-0.0","51742","2A","man","","null","W1 is kissing W3","kiss1","sentence","","","",""
"2611.6300000002375","","","survey-likert-extra-labels","134","815683","0.0-49.0-1.0-0.0","51742","2A","man","","","W1 is kissing W3","kiss1","rating_causation","{""Q0"":3}","[0]","W3 asked to kiss W1","W1 asked to kiss W3"
"3641.8000000002794","","","survey-likert-extra-labels","135","819329","0.0-49.0-2.0","51742","2A","man","","","W1 is kissing W3","kiss1","rating_volition","{""Q0"":6}","[0]","W3 wanted to kiss W1","W1 wanted to kiss W3"
"null","Fred is arguing with Luke","","html-keyboard-response","136","821333","0.0-50.0-0.0","51742","2A","man","","null","M3 is arguing with M1","argue2","sentence","","","",""
"3724.660000000731","","","survey-likert-extra-labels","137","825060","0.0-50.0-1.0-0.0","51742","2A","man","","","M3 is arguing with M1","argue2","rating_causation","{""Q0"":3}","[0]","M3 started an argument with M1","M1 started an argument with M3"
"2652.439999999944","","","survey-likert-extra-labels","138","827718","0.0-50.0-2.0","51742","2A","man","","","M3 is arguing with M1","argue2","rating_volition","{""Q0"":3}","[0]","M3 wanted to argue with M1","M1 wanted to argue with M3"
"null","Jane is kissing Dave","","html-keyboard-response","139","829721","0.0-51.0-0.0","51742","2A","man","","null","W2 is kissing M4","kiss4","sentence","","","",""
"3559.245000000461","","","survey-likert-extra-labels","140","833283","0.0-51.0-1.0-0.0","51742","2A","man","","","W2 is kissing M4","kiss4","rating_causation","{""Q0"":3}","[0]","M4 asked to kiss W2","W2 asked to kiss M4"
"3805.9649999995017","","","survey-likert-extra-labels","141","837096","0.0-51.0-2.0","51742","2A","man","","","W2 is kissing M4","kiss4","rating_volition","{""Q0"":6}","[0]","M4 wanted to kiss W2","W2 wanted to kiss M4"
"null","Mike is touching Dave","","html-keyboard-response","142","839101","0.0-52.0-0.0","51742","2A","man","","null","M2 is touching M4","touch2","sentence","","","",""
"7422.214999999618","","","survey-likert-extra-labels","143","846526","0.0-52.0-2.0","51742","2A","man","","","M2 is touching M4","touch2","rating_volition","{""Q0"":3}","[0]","M4 wanted to touch M2","M2 wanted to touch M4"
"3081.4450000006473","","","survey-likert-extra-labels","144","849614","0.0-52.0-3.0-0.0","51742","2A","man","","","M2 is touching M4","touch2","rating_causation","{""Q0"":3}","[0]","M4 asked to touch M2","M2 asked to touch M4"
"null","Fred is touching Ruth","","html-keyboard-response","145","851618","0.0-53.0-0.0","51742","2A","man","","null","M3 is touching W1","touch4","sentence","","","",""
"3191.144999999786","","","survey-likert-extra-labels","146","854812","0.0-53.0-2.0","51742","2A","man","","","M3 is touching W1","touch4","rating_volition","{""Q0"":3}","[0]","W1 wanted to touch M3","M3 wanted to touch W1"
"4855.929999999702","","","survey-likert-extra-labels","147","859673","0.0-53.0-3.0-0.0","51742","2A","man","","","M3 is touching W1","touch4","rating_causation","{""Q0"":3}","[0]","W1 asked to touch M3","M3 asked to touch W1"
"null","Ruth is talking to Kate","","html-keyboard-response","148","861677","0.0-54.0-0.0","51742","2A","man","","null","W1 is talking to W3","talk1","sentence","","","",""
"4172.980000000331","","","survey-likert-extra-labels","149","865853","0.0-54.0-1.0-0.0","51742","2A","man","","","W1 is talking to W3","talk1","rating_causation","{""Q0"":3}","[0]","W3 started a conversation with W1","W1 started a conversation with W3"
"4938.615000000107","","","survey-likert-extra-labels","150","870797","0.0-54.0-2.0","51742","2A","man","","","W1 is talking to W3","talk1","rating_volition","{""Q0"":4}","[0]","W3 wanted to talk to W1","W1 wanted to talk to W3"
"1901.909999999567","<p>Thank you for completing that task.</p><p>The final part of this session is a short questionnaire.</p><p>Press Continue.</p>","0","html-button-response","151","872702","0.0-55.0","51742","2A","man","","","","","","","","",""
"37125.04500000074","","","survey-text","152","910839","0.0-56.0","51742","2A","man","","","","","demographics","{""Q0"":""34"",""Q1"":""English"",""Q2"":""English"",""Q3"":""England"",""Q4"":""English"",""Q5"":""White"",""Q6"":""Male""}","","",""
"3481.0299999999115","<p>Have you lived in the UK for the last 5 years or more?</p>","0","html-button-response","153","914325","0.0-57.0","51742","2A","man","","","","","fiveyears","","","",""
"3280.8950000008335","","","survey-text","154","918612","0.0-58.0","51742","2A","man","","","","","worker_id","{""Q0"":""5f523b2c6df3fe08f6902024""}","","",""
"8681.695000000182","","","external-html","155","927397","0.0-59.0","51742","2A","man","debrief.html","","","","","","","",""
