"rt","stimulus","button_pressed","trial_type","trial_index","time_elapsed","internal_node_id","subject","list","ppt_gender","url","key_press","sentence_type","verb","test_part","responses","question_order","left_part","right_part"
"1623.6599999829195","Welcome to the experiment. Press Continue to begin.","0","html-button-response","0","1626","0.0-0.0","55380","4A","man","","","","","","","","",""
"4118.614999984857","","","external-html","1","6825","0.0-1.0","55380","4A","man","consent.html","","","","","","","",""
"3781.5799999516457","<p>Welcome.</p><p>In this experiment we will ask you to imagine some situations.</p><p>Each trial starts with a description of an event.</p><p>Then you will see alternative descriptions of that event, and you will rate on a scale how best they match the original description.</p><p>You will give your answer by clicking a button on a rating scale.</p><p>To do this task, you will have to use your imagination to visualise these events.</p><br><p>Ready?</p>","0","html-button-response","2","10608","0.0-2.0","55380","4A","man","","","","","","","","",""
"3590.6400000094436","<p>Before the experiment starts, you will watch an example trial. Press 'Continue'.</p>","0","html-button-response","3","15200","0.0-3.0","55380","4A","man","","","","","","","","",""
"null","The police officer is arresting the robber","","html-keyboard-response","4","18203","0.0-4.0","55380","4A","man","","null","","","","","","",""
"25212.364999984857","<img src='img/Example-trial.jpg' style='height:550px;''></img>","0","html-button-response","5","43416","0.0-5.0","55380","4A","man","","","","","","","","",""
"10502.2900000331","<p>Ready to start the experiment?</p><br><p><strong>Remember to give an answer by clicking a button on the rating scale.</strong></p><p>Press 'Continue' to begin.</p>","0","html-button-response","6","54920","0.0-6.0","55380","4A","man","","","","","","","","",""
"null","Mike is arguing with Beth","","html-keyboard-response","7","57926","0.0-7.0-0.0","55380","4A","man","","null","M2 is arguing with W4","argue4","sentence","","","",""
"5473.170000012033","","","survey-likert-extra-labels","8","63402","0.0-7.0-1.0-0.0","55380","4A","man","","","M2 is arguing with W4","argue4","rating_causation","{""Q0"":3}","[0]","W4 started an argument with M2","M2 started an argument with W4"
"5148.144999984652","","","survey-likert-extra-labels","9","68552","0.0-7.0-2.0","55380","4A","man","","","M2 is arguing with W4","argue4","rating_volition","{""Q0"":3}","[0]","W4 wanted to argue with M2","M2 wanted to argue with W4"
"null","Fred is hiring Ruth","","html-keyboard-response","10","70554","0.0-8.0-0.0","55380","4A","man","","null","M3 is hiring W1","hire","sentence","","","",""
"4236.930000013672","","","survey-likert-extra-labels","11","74792","0.0-8.0-2.0","55380","4A","man","","","M3 is hiring W1","hire","rating_volition","{""Q0"":0}","[0]","M3 is employing W1","W1 is employing M3"
"3894.284999987576","","","survey-likert-extra-labels","12","78688","0.0-8.0-3.0-0.0","55380","4A","man","","","M3 is hiring W1","hire","rating_causation","{""Q0"":6}","[0]","M3 will work for W1","W1 will work for M3"
"null","Dave is talking to Jane","","html-keyboard-response","13","80691","0.0-9.0-0.0","55380","4A","man","","null","M4 is talking to W2","talk3","sentence","","","",""
"6004.405000014231","","","survey-likert-extra-labels","14","86697","0.0-9.0-2.0","55380","4A","man","","","M4 is talking to W2","talk3","rating_volition","{""Q0"":2}","[0]","M4 wanted to talk to W2","W2 wanted to talk to M4"
"3693.8300000038","","","survey-likert-extra-labels","15","90393","0.0-9.0-3.0-0.0","55380","4A","man","","","M4 is talking to W2","talk3","rating_causation","{""Q0"":3}","[0]","M4 started a conversation with W2","W2 started a conversation with M4"
"null","Mike is shouting at Beth","","html-keyboard-response","16","92396","0.0-10.0-0.0","55380","4A","man","","null","M2 is shouting at W4","shout3","sentence","","","",""
"5930.63500005519","","","survey-likert-extra-labels","17","98328","0.0-10.0-1.0-0.0","55380","4A","man","","","M2 is shouting at W4","shout3","rating_causation","{""Q0"":3}","[0]","W4 shouted at M2 first","M2 shouted at W4 first"
"6189.6900000283495","","","survey-likert-extra-labels","18","104520","0.0-10.0-2.0","55380","4A","man","","","M2 is shouting at W4","shout3","rating_volition","{""Q0"":4}","[0]","W4 wanted to shout at M2","M2 wanted to shout at W4"
"null","Kate is feeding Luke","","html-keyboard-response","19","106521","0.0-11.0-0.0","55380","4A","man","","null","W3 is feeding M1","feed","sentence","","","",""
"3293.0449999985285","","","survey-likert-extra-labels","20","109816","0.0-11.0-2.0","55380","4A","man","","","W3 is feeding M1","feed","rating_volition","{""Q0"":0}","[0]","W3 is giving M1 food","M1 is giving W3 food"
"5031.055000028573","","","survey-likert-extra-labels","21","114848","0.0-11.0-3.0-0.0","55380","4A","man","","","W3 is feeding M1","feed","rating_causation","{""Q0"":5}","[0]","W3 is eating M1's food","M1 is eating W3's food"
"null","Jane is fighting with Beth","","html-keyboard-response","22","116851","0.0-12.0-0.0","55380","4A","man","","null","W2 is fighting with W4","fight1","sentence","","","",""
"4067.650000040885","","","survey-likert-extra-labels","23","120919","0.0-12.0-2.0","55380","4A","man","","","W2 is fighting with W4","fight1","rating_volition","{""Q0"":4}","[0]","W4 wanted to fight W2","W2 wanted to fight W4"
"3190.679999999702","","","survey-likert-extra-labels","24","124112","0.0-12.0-3.0-0.0","55380","4A","man","","","W2 is fighting with W4","fight1","rating_causation","{""Q0"":3}","[0]","W4 started the fight with W2","W2 started the fight with W4"
"null","Ruth is marrying Fred","","html-keyboard-response","25","126114","0.0-13.0-0.0","55380","4A","man","","null","W1 is marrying M3","marry3","sentence","","","",""
"2763.9750000089407","","","survey-likert-extra-labels","26","128879","0.0-13.0-1.0-0.0","55380","4A","man","","","W1 is marrying M3","marry3","rating_causation","{""Q0"":3}","[0]","W1 asked to marry M3","M3 asked to marry W1"
"3407.0599999977276","","","survey-likert-extra-labels","27","132288","0.0-13.0-2.0","55380","4A","man","","","W1 is marrying M3","marry3","rating_volition","{""Q0"":2}","[0]","W1 wanted to marry M3","M3 wanted to marry W1"
"null","Luke is shouting at Fred","","html-keyboard-response","28","134291","0.0-14.0-0.0","55380","4A","man","","null","M1 is shouting at M3","shout2","sentence","","","",""
"3131.7150000249967","","","survey-likert-extra-labels","29","137423","0.0-14.0-1.0-0.0","55380","4A","man","","","M1 is shouting at M3","shout2","rating_causation","{""Q0"":3}","[0]","M3 shouted at M1 first","M1 shouted at M3 first"
"3487.200000032317","","","survey-likert-extra-labels","30","140912","0.0-14.0-2.0","55380","4A","man","","","M1 is shouting at M3","shout2","rating_volition","{""Q0"":4}","[0]","M3 wanted to shout at M1","M1 wanted to shout at M3"
"null","Dave is kissing Jane","","html-keyboard-response","31","142915","0.0-15.0-0.0","55380","4A","man","","null","M4 is kissing W2","kiss4","sentence","","","",""
"3667.2850000322796","","","survey-likert-extra-labels","32","146584","0.0-15.0-1.0-0.0","55380","4A","man","","","M4 is kissing W2","kiss4","rating_causation","{""Q0"":3}","[0]","M4 asked to kiss W2","W2 asked to kiss M4"
"4125.884999986738","","","survey-likert-extra-labels","33","150712","0.0-15.0-2.0","55380","4A","man","","","M4 is kissing W2","kiss4","rating_volition","{""Q0"":2}","[0]","M4 wanted to kiss W2","W2 wanted to kiss M4"
"null","Jane is playing with Beth","","html-keyboard-response","34","152714","0.0-16.0-0.0","55380","4A","man","","null","W2 is playing with W4","play1","sentence","","","",""
"3868.3949999976903","","","survey-likert-extra-labels","35","156583","0.0-16.0-2.0","55380","4A","man","","","W2 is playing with W4","play1","rating_volition","{""Q0"":4}","[0]","W4 wanted to play with W2","W2 wanted to play with W4"
"1958.6899999994785","","","survey-likert-extra-labels","36","158544","0.0-16.0-3.0-0.0","55380","4A","man","","","W2 is playing with W4","play1","rating_causation","{""Q0"":3}","[0]","W4 asked to play with W2","W2 asked to play with W4"
"null","Ruth is arguing with Kate","","html-keyboard-response","37","160547","0.0-17.0-0.0","55380","4A","man","","null","W1 is arguing with W3","argue1","sentence","","","",""
"2203.3700000029057","","","survey-likert-extra-labels","38","162752","0.0-17.0-1.0-0.0","55380","4A","man","","","W1 is arguing with W3","argue1","rating_causation","{""Q0"":3}","[0]","W3 started an argument with W1","W1 started an argument with W3"
"2661.7149999947287","","","survey-likert-extra-labels","39","165415","0.0-17.0-2.0","55380","4A","man","","","W1 is arguing with W3","argue1","rating_volition","{""Q0"":4}","[0]","W3 wanted to argue with W1","W1 wanted to argue with W3"
"null","Fred is kissing Luke","","html-keyboard-response","40","167418","0.0-18.0-0.0","55380","4A","man","","null","M3 is kissing M1","kiss2","sentence","","","",""
"4396.515000029467","","","survey-likert-extra-labels","41","171816","0.0-18.0-1.0-0.0","55380","4A","man","","","M3 is kissing M1","kiss2","rating_causation","{""Q0"":3}","[0]","M3 asked to kiss M1","M1 asked to kiss M3"
"3813.3750000270084","","","survey-likert-extra-labels","42","175631","0.0-18.0-2.0","55380","4A","man","","","M3 is kissing M1","kiss2","rating_volition","{""Q0"":2}","[0]","M3 wanted to kiss M1","M1 wanted to kiss M3"
"null","Jane is arguing with Dave","","html-keyboard-response","43","177633","0.0-19.0-0.0","55380","4A","man","","null","W2 is arguing with M4","argue3","sentence","","","",""
"5581.330000015441","","","survey-likert-extra-labels","44","183216","0.0-19.0-2.0","55380","4A","man","","","W2 is arguing with M4","argue3","rating_volition","{""Q0"":4}","[0]","M4 wanted to argue with W2","W2 wanted to argue with M4"
"2597.7249999996275","","","survey-likert-extra-labels","45","185816","0.0-19.0-3.0-0.0","55380","4A","man","","","W2 is arguing with M4","argue3","rating_causation","{""Q0"":3}","[0]","M4 started an argument with W2","W2 started an argument with M4"
"null","Jane is shouting at Dave","","html-keyboard-response","46","187819","0.0-20.0-0.0","55380","4A","man","","null","W2 is shouting at M4","shout4","sentence","","","",""
"3251.5399999683723","","","survey-likert-extra-labels","47","191071","0.0-20.0-2.0","55380","4A","man","","","W2 is shouting at M4","shout4","rating_volition","{""Q0"":4}","[0]","M4 wanted to shout at W2","W2 wanted to shout at M4"
"2022.995000006631","","","survey-likert-extra-labels","48","193096","0.0-20.0-3.0-0.0","55380","4A","man","","","W2 is shouting at M4","shout4","rating_causation","{""Q0"":3}","[0]","M4 shouted at W2 first","W2 shouted at M4 first"
"null","Jane is carrying Beth","","html-keyboard-response","49","195099","0.0-21.0-0.0","55380","4A","man","","null","W2 is carrying W4","carry","sentence","","","",""
"5963.455000019167","","","survey-likert-extra-labels","50","201063","0.0-21.0-1.0-0.0","55380","4A","man","","","W2 is carrying W4","carry","rating_causation","{""Q0"":5}","[0]","W2 is being moved by W4","W4 is being moved by W2"
"3198.3499999623746","","","survey-likert-extra-labels","51","204264","0.0-21.0-2.0","55380","4A","man","","","W2 is carrying W4","carry","rating_volition","{""Q0"":2}","[0]","W2 is transporting W4","W4 is transporting W2"
"null","Mike is reminding Beth","","html-keyboard-response","52","206266","0.0-22.0-0.0","55380","4A","man","","null","M2 is reminding W4","remind","sentence","","","",""
"4260.115000011865","","","survey-likert-extra-labels","53","210528","0.0-22.0-1.0-0.0","55380","4A","man","","","M2 is reminding W4","remind","rating_causation","{""Q0"":4}","[0]","M2 is remembering","W4 is remembering"
"4445.300000021234","","","survey-likert-extra-labels","54","214976","0.0-22.0-2.0","55380","4A","man","","","M2 is reminding W4","remind","rating_volition","{""Q0"":2}","[0]","M2 is telling W4 again","W4 is telling M2 again"
"null","Beth is marrying Jane","","html-keyboard-response","55","216978","0.0-23.0-0.0","55380","4A","man","","null","W4 is marrying W2","marry1","sentence","","","",""
"4372.805000049993","","","survey-likert-extra-labels","56","221352","0.0-23.0-2.0","55380","4A","man","","","W4 is marrying W2","marry1","rating_volition","{""Q0"":2}","[0]","W4 wanted to marry W2","W2 wanted to marry W4"
"1820.9100000094622","","","survey-likert-extra-labels","57","223175","0.0-23.0-3.0-0.0","55380","4A","man","","","W4 is marrying W2","marry1","rating_causation","{""Q0"":3}","[0]","W4 asked to marry W2","W2 asked to marry W4"
"null","Beth is talking to Mike","","html-keyboard-response","58","225176","0.0-24.0-0.0","55380","4A","man","","null","W4 is talking to M2","talk4","sentence","","","",""
"2476.9799999776296","","","survey-likert-extra-labels","59","227655","0.0-24.0-2.0","55380","4A","man","","","W4 is talking to M2","talk4","rating_volition","{""Q0"":2}","[0]","W4 wanted to talk to M2","M2 wanted to talk to W4"
"1838.1950000184588","","","survey-likert-extra-labels","60","229496","0.0-24.0-3.0-0.0","55380","4A","man","","","W4 is talking to M2","talk4","rating_causation","{""Q0"":3}","[0]","W4 started a conversation with M2","M2 started a conversation with W4"
"null","Kate is kissing Ruth","","html-keyboard-response","61","231497","0.0-25.0-0.0","55380","4A","man","","null","W3 is kissing W1","kiss1","sentence","","","",""
"2373.6400000052527","","","survey-likert-extra-labels","62","233872","0.0-25.0-2.0","55380","4A","man","","","W3 is kissing W1","kiss1","rating_volition","{""Q0"":2}","[0]","W3 wanted to kiss W1","W1 wanted to kiss W3"
"1932.7700000139885","","","survey-likert-extra-labels","63","235808","0.0-25.0-3.0-0.0","55380","4A","man","","","W3 is kissing W1","kiss1","rating_causation","{""Q0"":3}","[0]","W3 asked to kiss W1","W1 asked to kiss W3"
"null","Ruth is shouting at Kate","","html-keyboard-response","64","237809","0.0-26.0-0.0","55380","4A","man","","null","W1 is shouting at W3","shout1","sentence","","","",""
"4133.224999997765","","","survey-likert-extra-labels","65","241944","0.0-26.0-2.0","55380","4A","man","","","W1 is shouting at W3","shout1","rating_volition","{""Q0"":4}","[0]","W3 wanted to shout at W1","W1 wanted to shout at W3"
"5765.08499996271","","","survey-likert-extra-labels","66","247712","0.0-26.0-3.0-0.0","55380","4A","man","","","W1 is shouting at W3","shout1","rating_causation","{""Q0"":3}","[0]","W3 shouted at W1 first","W1 shouted at W3 first"
"null","Beth is touching Jane","","html-keyboard-response","67","249714","0.0-27.0-0.0","55380","4A","man","","null","W4 is touching W2","touch1","sentence","","","",""
"4340.589999977965","","","survey-likert-extra-labels","68","254056","0.0-27.0-2.0","55380","4A","man","","","W4 is touching W2","touch1","rating_volition","{""Q0"":2}","[0]","W4 wanted to touch W2","W2 wanted to touch W4"
"8453.980000049341","","","survey-likert-extra-labels","69","262512","0.0-27.0-3.0-0.0","55380","4A","man","","","W4 is touching W2","touch1","rating_causation","{""Q0"":3}","[0]","W4 asked to touch W2","W2 asked to touch W4"
"null","Beth is kissing Mike","","html-keyboard-response","70","264516","0.0-28.0-0.0","55380","4A","man","","null","W4 is kissing M2","kiss3","sentence","","","",""
"1658.8299999712035","","","survey-likert-extra-labels","71","266176","0.0-28.0-2.0","55380","4A","man","","","W4 is kissing M2","kiss3","rating_volition","{""Q0"":2}","[0]","W4 wanted to kiss M2","M2 wanted to kiss W4"
"1629.9800000269897","","","survey-likert-extra-labels","72","267808","0.0-28.0-3.0-0.0","55380","4A","man","","","W4 is kissing M2","kiss3","rating_causation","{""Q0"":3}","[0]","W4 asked to kiss M2","M2 asked to kiss W4"
"null","Kate is talking to Ruth","","html-keyboard-response","73","269810","0.0-29.0-0.0","55380","4A","man","","null","W3 is talking to W1","talk1","sentence","","","",""
"1924.7750000213273","","","survey-likert-extra-labels","74","271736","0.0-29.0-1.0-0.0","55380","4A","man","","","W3 is talking to W1","talk1","rating_causation","{""Q0"":3}","[0]","W3 started a conversation with W1","W1 started a conversation with W3"
"2797.420000017155","","","survey-likert-extra-labels","75","274536","0.0-29.0-2.0","55380","4A","man","","","W3 is talking to W1","talk1","rating_volition","{""Q0"":2}","[0]","W3 wanted to talk to W1","W1 wanted to talk to W3"
"null","Luke is arguing with Fred","","html-keyboard-response","76","276538","0.0-30.0-0.0","55380","4A","man","","null","M1 is arguing with M3","argue2","sentence","","","",""
"5084.389999974519","","","survey-likert-extra-labels","77","281624","0.0-30.0-2.0","55380","4A","man","","","M1 is arguing with M3","argue2","rating_volition","{""Q0"":4}","[0]","M3 wanted to argue with M1","M1 wanted to argue with M3"
"1835.8399999560788","","","survey-likert-extra-labels","78","283463","0.0-30.0-3.0-0.0","55380","4A","man","","","M1 is arguing with M3","argue2","rating_causation","{""Q0"":3}","[0]","M3 started an argument with M1","M1 started an argument with M3"
"null","Fred is fighting with Ruth","","html-keyboard-response","79","285466","0.0-31.0-0.0","55380","4A","man","","null","M3 is fighting with W1","fight4","sentence","","","",""
"4163.170000014361","","","survey-likert-extra-labels","80","289631","0.0-31.0-1.0-0.0","55380","4A","man","","","M3 is fighting with W1","fight4","rating_causation","{""Q0"":3}","[0]","W1 started the fight with M3","M3 started the fight with W1"
"2989.334999991115","","","survey-likert-extra-labels","81","292623","0.0-31.0-2.0","55380","4A","man","","","M3 is fighting with W1","fight4","rating_volition","{""Q0"":4}","[0]","W1 wanted to fight M3","M3 wanted to fight W1"
"null","Beth is flirting with Jane","","html-keyboard-response","82","294625","0.0-32.0-0.0","55380","4A","man","","null","W4 is flirting with W2","flirt1","sentence","","","",""
"5772.690000012517","","","survey-likert-extra-labels","83","300399","0.0-32.0-2.0","55380","4A","man","","","W4 is flirting with W2","flirt1","rating_volition","{""Q0"":1}","[0]","W4 wanted to flirt with W2","W2 wanted to flirt with W4"
"2094.29000003729","","","survey-likert-extra-labels","84","302495","0.0-32.0-3.0-0.0","55380","4A","man","","","W4 is flirting with W2","flirt1","rating_causation","{""Q0"":3}","[0]","W4 started flirting with W2 first","W2 started flirting with W4 first"
"null","Luke is flirting with Kate","","html-keyboard-response","85","304496","0.0-33.0-0.0","55380","4A","man","","null","M1 is flirting with W3","flirt3","sentence","","","",""
"5677.680000022519","","","survey-likert-extra-labels","86","310175","0.0-33.0-1.0-0.0","55380","4A","man","","","M1 is flirting with W3","flirt3","rating_causation","{""Q0"":3}","[0]","M1 started flirting with W3 first","W3 started flirting with M1 first"
"2245.6550000351854","","","survey-likert-extra-labels","87","312423","0.0-33.0-2.0","55380","4A","man","","","M1 is flirting with W3","flirt3","rating_volition","{""Q0"":1}","[0]","M1 wanted to flirt with W3","W3 wanted to flirt with M1"
"null","Beth is dancing with Mike","","html-keyboard-response","88","314424","0.0-34.0-0.0","55380","4A","man","","null","W4 is dancing with M2","dance4","sentence","","","",""
"2598.230000003241","","","survey-likert-extra-labels","89","317024","0.0-34.0-1.0-0.0","55380","4A","man","","","W4 is dancing with M2","dance4","rating_causation","{""Q0"":3}","[0]","W4 asked M2 to dance","M2 asked W4 to dance"
"5413.855000049807","","","survey-likert-extra-labels","90","322440","0.0-34.0-2.0","55380","4A","man","","","W4 is dancing with M2","dance4","rating_volition","{""Q0"":1}","[0]","W4 wanted to dance with M2","M2 wanted to dance with W4"
"null","Dave is flirting with Mike","","html-keyboard-response","91","324443","0.0-35.0-0.0","55380","4A","man","","null","M4 is flirting with M2","flirt2","sentence","","","",""
"2066.3499999791384","","","survey-likert-extra-labels","92","326511","0.0-35.0-2.0","55380","4A","man","","","M4 is flirting with M2","flirt2","rating_volition","{""Q0"":1}","[0]","M4 wanted to flirt with M2","M2 wanted to flirt with M4"
"1814.3649999983609","","","survey-likert-extra-labels","93","328327","0.0-35.0-3.0-0.0","55380","4A","man","","","M4 is flirting with M2","flirt2","rating_causation","{""Q0"":3}","[0]","M4 started flirting with M2 first","M2 started flirting with M4 first"
"null","Dave is dancing with Jane","","html-keyboard-response","94","330329","0.0-36.0-0.0","55380","4A","man","","null","M4 is dancing with W2","dance3","sentence","","","",""
"5413.11499994481","","","survey-likert-extra-labels","95","335744","0.0-36.0-2.0","55380","4A","man","","","M4 is dancing with W2","dance3","rating_volition","{""Q0"":1}","[0]","M4 wanted to dance with W2","W2 wanted to dance with M4"
"1509.8749999888241","","","survey-likert-extra-labels","96","337256","0.0-36.0-3.0-0.0","55380","4A","man","","","M4 is dancing with W2","dance3","rating_causation","{""Q0"":3}","[0]","M4 asked W2 to dance","W2 asked M4 to dance"
"null","Ruth is flirting with Fred","","html-keyboard-response","97","339258","0.0-37.0-0.0","55380","4A","man","","null","W1 is flirting with M3","flirt4","sentence","","","",""
"3012.6000000163913","","","survey-likert-extra-labels","98","342271","0.0-37.0-1.0-0.0","55380","4A","man","","","W1 is flirting with M3","flirt4","rating_causation","{""Q0"":3}","[0]","W1 started flirting with M3 first","M3 started flirting with W1 first"
"3413.5499999974854","","","survey-likert-extra-labels","99","345687","0.0-37.0-2.0","55380","4A","man","","","W1 is flirting with M3","flirt4","rating_volition","{""Q0"":1}","[0]","W1 wanted to flirt with M3","M3 wanted to flirt with W1"
"null","Jane is teaching Dave","","html-keyboard-response","100","347688","0.0-38.0-0.0","55380","4A","man","","null","W2 is teaching M4","teach","sentence","","","",""
"5341.809999954421","","","survey-likert-extra-labels","101","353031","0.0-38.0-1.0-0.0","55380","4A","man","","","W2 is teaching M4","teach","rating_causation","{""Q0"":4}","[0]","W2 is learning from M4","M4 is learning from W2"
"2654.7450000070967","","","survey-likert-extra-labels","102","355688","0.0-38.0-2.0","55380","4A","man","","","W2 is teaching M4","teach","rating_volition","{""Q0"":2}","[0]","W2 is educating M4","M4 is educating W2"
"null","Kate is playing with Luke","","html-keyboard-response","103","357691","0.0-39.0-0.0","55380","4A","man","","null","W3 is playing with M1","play4","sentence","","","",""
"3498.9300000015646","","","survey-likert-extra-labels","104","361191","0.0-39.0-1.0-0.0","55380","4A","man","","","W3 is playing with M1","play4","rating_causation","{""Q0"":3}","[0]","M1 asked to play with W3","W3 asked to play with M1"
"4390.389999956824","","","survey-likert-extra-labels","105","365583","0.0-39.0-2.0","55380","4A","man","","","W3 is playing with M1","play4","rating_volition","{""Q0"":4}","[0]","M1 wanted to play with W3","W3 wanted to play with M1"
"null","Mike is posing for Dave","","html-keyboard-response","106","367586","0.0-40.0-0.0","55380","4A","man","","null","M2 is posing for M4","pose","sentence","","","",""
"5724.105000030249","","","survey-likert-extra-labels","107","373311","0.0-40.0-1.0-0.0","55380","4A","man","","","M2 is posing for M4","pose","rating_causation","{""Q0"":4}","[0]","M2 is photographing M4","M4 is photographing M2"
"5326.240000023972","","","survey-likert-extra-labels","108","378639","0.0-40.0-2.0","55380","4A","man","","","M2 is posing for M4","pose","rating_volition","{""Q0"":1}","[0]","M2 is modelling for M4","M4 is modelling for M2"
"null","Kate is fighting with Luke","","html-keyboard-response","109","380640","0.0-41.0-0.0","55380","4A","man","","null","W3 is fighting with M1","fight3","sentence","","","",""
"1829.4149999856018","","","survey-likert-extra-labels","110","382471","0.0-41.0-1.0-0.0","55380","4A","man","","","W3 is fighting with M1","fight3","rating_causation","{""Q0"":3}","[0]","M1 started the fight with W3","W3 started the fight with M1"
"4119.059999997262","","","survey-likert-extra-labels","111","386591","0.0-41.0-2.0","55380","4A","man","","","W3 is fighting with M1","fight3","rating_volition","{""Q0"":4}","[0]","M1 wanted to fight W3","W3 wanted to fight M1"
"null","Mike is playing with Dave","","html-keyboard-response","112","388594","0.0-42.0-0.0","55380","4A","man","","null","M2 is playing with M4","play2","sentence","","","",""
"3931.570000015199","","","survey-likert-extra-labels","113","392527","0.0-42.0-2.0","55380","4A","man","","","M2 is playing with M4","play2","rating_volition","{""Q0"":4}","[0]","M4 wanted to play with M2","M2 wanted to play with M4"
"1910.295000008773","","","survey-likert-extra-labels","114","394439","0.0-42.0-3.0-0.0","55380","4A","man","","","M2 is playing with M4","play2","rating_causation","{""Q0"":3}","[0]","M4 asked to play with M2","M2 asked to play with M4"
"null","Fred is dancing with Luke","","html-keyboard-response","115","396441","0.0-43.0-0.0","55380","4A","man","","null","M3 is dancing with M1","dance2","sentence","","","",""
"3276.5650000073947","","","survey-likert-extra-labels","116","399719","0.0-43.0-2.0","55380","4A","man","","","M3 is dancing with M1","dance2","rating_volition","{""Q0"":1}","[0]","M3 wanted to dance with M1","M1 wanted to dance with M3"
"1598.5550000332296","","","survey-likert-extra-labels","117","401319","0.0-43.0-3.0-0.0","55380","4A","man","","","M3 is dancing with M1","dance2","rating_causation","{""Q0"":3}","[0]","M3 asked M1 to dance","M1 asked M3 to dance"
"null","Ruth is touching Fred","","html-keyboard-response","118","403321","0.0-44.0-0.0","55380","4A","man","","null","W1 is touching M3","touch4","sentence","","","",""
"4476.869999954943","","","survey-likert-extra-labels","119","407799","0.0-44.0-2.0","55380","4A","man","","","W1 is touching M3","touch4","rating_volition","{""Q0"":1}","[0]","W1 wanted to touch M3","M3 wanted to touch W1"
"1950.394999992568","","","survey-likert-extra-labels","120","409751","0.0-44.0-3.0-0.0","55380","4A","man","","","W1 is touching M3","touch4","rating_causation","{""Q0"":3}","[0]","W1 asked to touch M3","M3 asked to touch W1"
"null","Mike is fighting with Dave","","html-keyboard-response","121","411753","0.0-45.0-0.0","55380","4A","man","","null","M2 is fighting with M4","fight2","sentence","","","",""
"3092.835000017658","","","survey-likert-extra-labels","122","414847","0.0-45.0-1.0-0.0","55380","4A","man","","","M2 is fighting with M4","fight2","rating_causation","{""Q0"":3}","[0]","M4 started the fight with M2","M2 started the fight with M4"
"2356.829999946058","","","survey-likert-extra-labels","123","417207","0.0-45.0-2.0","55380","4A","man","","","M2 is fighting with M4","fight2","rating_volition","{""Q0"":4}","[0]","M4 wanted to fight M2","M2 wanted to fight M4"
"null","Luke is touching Kate","","html-keyboard-response","124","419209","0.0-46.0-0.0","55380","4A","man","","null","M1 is touching W3","touch3","sentence","","","",""
"6076.470000029076","","","survey-likert-extra-labels","125","425288","0.0-46.0-2.0","55380","4A","man","","","M1 is touching W3","touch3","rating_volition","{""Q0"":1}","[0]","M1 wanted to touch W3","W3 wanted to touch M1"
"1077.114999992773","","","survey-likert-extra-labels","126","426367","0.0-46.0-3.0-0.0","55380","4A","man","","","M1 is touching W3","touch3","rating_causation","{""Q0"":3}","[0]","M1 asked to touch W3","W3 asked to touch M1"
"null","Fred is playing with Ruth","","html-keyboard-response","127","428371","0.0-47.0-0.0","55380","4A","man","","null","M3 is playing with W1","play3","sentence","","","",""
"2795.6600000034086","","","survey-likert-extra-labels","128","431168","0.0-47.0-1.0-0.0","55380","4A","man","","","M3 is playing with W1","play3","rating_causation","{""Q0"":3}","[0]","W1 asked to play with M3","M3 asked to play with W1"
"5069.149999995716","","","survey-likert-extra-labels","129","436239","0.0-47.0-2.0","55380","4A","man","","","M3 is playing with W1","play3","rating_volition","{""Q0"":5}","[0]","W1 wanted to play with M3","M3 wanted to play with W1"
"null","Fred is talking to Luke","","html-keyboard-response","130","438243","0.0-48.0-0.0","55380","4A","man","","null","M3 is talking to M1","talk2","sentence","","","",""
"3347.8650000179186","","","survey-likert-extra-labels","131","441592","0.0-48.0-2.0","55380","4A","man","","","M3 is talking to M1","talk2","rating_volition","{""Q0"":2}","[0]","M3 wanted to talk to M1","M1 wanted to talk to M3"
"13292.879999964498","","","survey-likert-extra-labels","132","454887","0.0-48.0-3.0-0.0","55380","4A","man","","","M3 is talking to M1","talk2","rating_causation","{""Q0"":3}","[0]","M3 started a conversation with M1","M1 started a conversation with M3"
"null","Dave is marrying Mike","","html-keyboard-response","133","456890","0.0-49.0-0.0","55380","4A","man","","null","M4 is marrying M2","marry2","sentence","","","",""
"9235.69999996107","","","survey-likert-extra-labels","134","466127","0.0-49.0-1.0-0.0","55380","4A","man","","","M4 is marrying M2","marry2","rating_causation","{""Q0"":3}","[0]","M4 asked to marry M2","M2 asked to marry M4"
"4486.730000004172","","","survey-likert-extra-labels","135","470616","0.0-49.0-2.0","55380","4A","man","","","M4 is marrying M2","marry2","rating_volition","{""Q0"":1}","[0]","M4 wanted to marry M2","M2 wanted to marry M4"
"null","Dave is touching Mike","","html-keyboard-response","136","472619","0.0-50.0-0.0","55380","4A","man","","null","M4 is touching M2","touch2","sentence","","","",""
"2572.0149999833666","","","survey-likert-extra-labels","137","475192","0.0-50.0-1.0-0.0","55380","4A","man","","","M4 is touching M2","touch2","rating_causation","{""Q0"":3}","[0]","M4 asked to touch M2","M2 asked to touch M4"
"2460.3700000443496","","","survey-likert-extra-labels","138","477656","0.0-50.0-2.0","55380","4A","man","","","M4 is touching M2","touch2","rating_volition","{""Q0"":1}","[0]","M4 wanted to touch M2","M2 wanted to touch M4"
"null","Luke is marrying Kate","","html-keyboard-response","139","479659","0.0-51.0-0.0","55380","4A","man","","null","M1 is marrying W3","marry4","sentence","","","",""
"2483.4200000041164","","","survey-likert-extra-labels","140","482143","0.0-51.0-1.0-0.0","55380","4A","man","","","M1 is marrying W3","marry4","rating_causation","{""Q0"":3}","[0]","M1 asked to marry W3","W3 asked to marry M1"
"3886.9000000413507","","","survey-likert-extra-labels","141","486032","0.0-51.0-2.0","55380","4A","man","","","M1 is marrying W3","marry4","rating_volition","{""Q0"":1}","[0]","M1 wanted to marry W3","W3 wanted to marry M1"
"null","Luke is driving Fred","","html-keyboard-response","142","488035","0.0-52.0-0.0","55380","4A","man","","null","M1 is driving M3","drive","sentence","","","",""
"6691.630000015721","","","survey-likert-extra-labels","143","494728","0.0-52.0-2.0","55380","4A","man","","","M1 is driving M3","drive","rating_volition","{""Q0"":0}","[0]","M3 is M1's passenger","M1 is M3's passenger"
"6565.520000003744","","","survey-likert-extra-labels","144","501295","0.0-52.0-3.0-0.0","55380","4A","man","","","M1 is driving M3","drive","rating_causation","{""Q0"":6}","[0]","M3 is taking M1 somewhere","M1 is taking M3 somewhere"
"null","Kate is dancing with Ruth","","html-keyboard-response","145","503297","0.0-53.0-0.0","55380","4A","man","","null","W3 is dancing with W1","dance1","sentence","","","",""
"4252.225000003818","","","survey-likert-extra-labels","146","507551","0.0-53.0-2.0","55380","4A","man","","","W3 is dancing with W1","dance1","rating_volition","{""Q0"":1}","[0]","W3 wanted to dance with W1","W1 wanted to dance with W3"
"1894.4550000014715","","","survey-likert-extra-labels","147","509448","0.0-53.0-3.0-0.0","55380","4A","man","","","W3 is dancing with W1","dance1","rating_causation","{""Q0"":3}","[0]","W3 asked W1 to dance","W1 asked W3 to dance"
"null","Ruth is chasing Kate","","html-keyboard-response","148","511449","0.0-54.0-0.0","55380","4A","man","","null","W1 is chasing W3","chase","sentence","","","",""
"5261.125000019092","","","survey-likert-extra-labels","149","516711","0.0-54.0-1.0-0.0","55380","4A","man","","","W1 is chasing W3","chase","rating_causation","{""Q0"":6}","[0]","W1 is running away from W3","W3 is running away from W1"
"3534.5850000157952","","","survey-likert-extra-labels","150","520248","0.0-54.0-2.0","55380","4A","man","","","W1 is chasing W3","chase","rating_volition","{""Q0"":0}","[0]","W1 is behind W3","W3 is behind W1"
"3357.5650000129826","<p>Thank you for completing that task.</p><p>The final part of this session is a short questionnaire.</p><p>Press Continue.</p>","0","html-button-response","151","523607","0.0-55.0","55380","4A","man","","","","","","","","",""
"28102.76999999769","","","survey-text","152","552720","0.0-56.0","55380","4A","man","","","","","demographics","{""Q0"":""39"",""Q1"":""English"",""Q2"":""English"",""Q3"":""Scotland"",""Q4"":""British"",""Q5"":""White"",""Q6"":""Male""}","","",""
"2052.605000033509","<p>Have you lived in the UK for the last 5 years or more?</p>","0","html-button-response","153","554774","0.0-57.0","55380","4A","man","","","","","fiveyears","","","",""
"3226.8499999772757","","","survey-text","154","559006","0.0-58.0","55380","4A","man","","","","","worker_id","{""Q0"":""590203d0fb96b90001dddae0""}","","",""
"9269.455000001471","","","external-html","155","568391","0.0-59.0","55380","4A","man","debrief.html","","","","","","","",""
