"rt","stimulus","button_pressed","trial_type","trial_index","time_elapsed","internal_node_id","subject","list","ppt_gender","url","key_press","sentence_type","verb","test_part","responses","question_order","left_part","right_part"
"8316.699999966659","Welcome to the experiment. Press Continue to begin.","0","html-button-response","0","8324","0.0-0.0","55890","1B","man","","","","","","","","",""
"15972.19999996014","","","external-html","1","25347","0.0-1.0","55890","1B","man","consent.html","","","","","","","",""
"30338.700000022072","<p>Welcome.</p><p>In this experiment we will ask you to imagine some situations.</p><p>Each trial starts with a description of an event.</p><p>Then you will see alternative descriptions of that event, and you will rate on a scale how best they match the original description.</p><p>You will give your answer by clicking a button on a rating scale.</p><p>To do this task, you will have to use your imagination to visualise these events.</p><br><p>Ready?</p>","0","html-button-response","2","55687","0.0-2.0","55890","1B","man","","","","","","","","",""
"5684.999999997672","<p>Before the experiment starts, you will watch an example trial. Press 'Continue'.</p>","0","html-button-response","3","62375","0.0-3.0","55890","1B","man","","","","","","","","",""
"null","The police officer is arresting the robber","","html-keyboard-response","4","65379","0.0-4.0","55890","1B","man","","null","","","","","","",""
"38301.0999999824","<img src='img/Example-trial.jpg' style='height:550px;''></img>","0","html-button-response","5","103682","0.0-5.0","55890","1B","man","","","","","","","","",""
"6482.799999997951","<p>Ready to start the experiment?</p><br><p><strong>Remember to give an answer by clicking a button on the rating scale.</strong></p><p>Press 'Continue' to begin.</p>","0","html-button-response","6","111167","0.0-6.0","55890","1B","man","","","","","","","","",""
"null","Kate is fighting with Dave","","html-keyboard-response","7","114172","0.0-7.0-0.0","55890","1B","man","","null","W1 is fighting with M3","fight4","sentence","","","",""
"10635.899999993853","","","survey-likert-extra-labels","8","124810","0.0-7.0-2.0","55890","1B","man","","","W1 is fighting with M3","fight4","rating_volition","{""Q0"":5}","[0]","M3 wanted to fight W1","W1 wanted to fight M3"
"9469.40000000177","","","survey-likert-extra-labels","9","134282","0.0-7.0-3.0-0.0","55890","1B","man","","","W1 is fighting with M3","fight4","rating_causation","{""Q0"":6}","[0]","M3 started the fight with W1","W1 started the fight with M3"
"null","Dave is flirting with Kate","","html-keyboard-response","10","136285","0.0-8.0-0.0","55890","1B","man","","null","M3 is flirting with W1","flirt4","sentence","","","",""
"6956.500000029337","","","survey-likert-extra-labels","11","143243","0.0-8.0-2.0","55890","1B","man","","","M3 is flirting with W1","flirt4","rating_volition","{""Q0"":1}","[0]","M3 wanted to flirt with W1","W1 wanted to flirt with M3"
"6422.600000048988","","","survey-likert-extra-labels","12","149667","0.0-8.0-3.0-0.0","55890","1B","man","","","M3 is flirting with W1","flirt4","rating_causation","{""Q0"":0}","[0]","M3 started flirting with W1 first","W1 started flirting with M3 first"
"null","Fred is dancing with Dave","","html-keyboard-response","13","151671","0.0-9.0-0.0","55890","1B","man","","null","M1 is dancing with M3","dance2","sentence","","","",""
"10367.800000007264","","","survey-likert-extra-labels","14","162039","0.0-9.0-1.0-0.0","55890","1B","man","","","M1 is dancing with M3","dance2","rating_causation","{""Q0"":1}","[0]","M1 asked M3 to dance","M3 asked M1 to dance"
"7190.999999991618","","","survey-likert-extra-labels","15","169232","0.0-9.0-2.0","55890","1B","man","","","M1 is dancing with M3","dance2","rating_volition","{""Q0"":0}","[0]","M1 wanted to dance with M3","M3 wanted to dance with M1"
"null","Jane is kissing Luke","","html-keyboard-response","16","171234","0.0-10.0-0.0","55890","1B","man","","null","W4 is kissing M2","kiss3","sentence","","","",""
"10132.299999997485","","","survey-likert-extra-labels","17","181368","0.0-10.0-2.0","55890","1B","man","","","W4 is kissing M2","kiss3","rating_volition","{""Q0"":4}","[0]","M2 wanted to kiss W4","W4 wanted to kiss M2"
"5591.899999999441","","","survey-likert-extra-labels","18","186962","0.0-10.0-3.0-0.0","55890","1B","man","","","W4 is kissing M2","kiss3","rating_causation","{""Q0"":6}","[0]","M2 asked to kiss W4","W4 asked to kiss M2"
"null","Ruth is flirting with Jane","","html-keyboard-response","19","188964","0.0-11.0-0.0","55890","1B","man","","null","W2 is flirting with W4","flirt1","sentence","","","",""
"8678.699999989476","","","survey-likert-extra-labels","20","197645","0.0-11.0-1.0-0.0","55890","1B","man","","","W2 is flirting with W4","flirt1","rating_causation","{""Q0"":0}","[0]","W2 started flirting with W4 first","W4 started flirting with W2 first"
"5139.499999990221","","","survey-likert-extra-labels","21","202787","0.0-11.0-2.0","55890","1B","man","","","W2 is flirting with W4","flirt1","rating_volition","{""Q0"":0}","[0]","W2 wanted to flirt with W4","W4 wanted to flirt with W2"
"null","Fred is driving Dave","","html-keyboard-response","22","204789","0.0-12.0-0.0","55890","1B","man","","null","M1 is driving M3","drive","sentence","","","",""
"12216.10000001965","","","survey-likert-extra-labels","23","217006","0.0-12.0-1.0-0.0","55890","1B","man","","","M1 is driving M3","drive","rating_causation","{""Q0"":6}","[0]","M3 is taking M1 somewhere","M1 is taking M3 somewhere"
"9472.500000032596","","","survey-likert-extra-labels","24","226481","0.0-12.0-2.0","55890","1B","man","","","M1 is driving M3","drive","rating_volition","{""Q0"":0}","[0]","M3 is M1's passenger","M1 is M3's passenger"
"null","Ruth is playing with Jane","","html-keyboard-response","25","228483","0.0-13.0-0.0","55890","1B","man","","null","W2 is playing with W4","play1","sentence","","","",""
"11132.199999992736","","","survey-likert-extra-labels","26","239617","0.0-13.0-2.0","55890","1B","man","","","W2 is playing with W4","play1","rating_volition","{""Q0"":4}","[0]","W2 wanted to play with W4","W4 wanted to play with W2"
"7890.099999960512","","","survey-likert-extra-labels","27","247509","0.0-13.0-3.0-0.0","55890","1B","man","","","W2 is playing with W4","play1","rating_causation","{""Q0"":0}","[0]","W2 asked to play with W4","W4 asked to play with W2"
"null","Luke is dancing with Jane","","html-keyboard-response","28","249512","0.0-14.0-0.0","55890","1B","man","","null","M2 is dancing with W4","dance4","sentence","","","",""
"10021.100000012666","","","survey-likert-extra-labels","29","259535","0.0-14.0-1.0-0.0","55890","1B","man","","","M2 is dancing with W4","dance4","rating_causation","{""Q0"":0}","[0]","M2 asked W4 to dance","W4 asked M2 to dance"
"4945.300000021234","","","survey-likert-extra-labels","30","264482","0.0-14.0-2.0","55890","1B","man","","","M2 is dancing with W4","dance4","rating_volition","{""Q0"":0}","[0]","M2 wanted to dance with W4","W4 wanted to dance with M2"
"null","Jane is marrying Ruth","","html-keyboard-response","31","266484","0.0-15.0-0.0","55890","1B","man","","null","W4 is marrying W2","marry1","sentence","","","",""
"12060.100000002421","","","survey-likert-extra-labels","32","278547","0.0-15.0-2.0","55890","1B","man","","","W4 is marrying W2","marry1","rating_volition","{""Q0"":6}","[0]","W2 wanted to marry W4","W4 wanted to marry W2"
"9275.900000007823","","","survey-likert-extra-labels","33","287824","0.0-15.0-3.0-0.0","55890","1B","man","","","W4 is marrying W2","marry1","rating_causation","{""Q0"":6}","[0]","W2 asked to marry W4","W4 asked to marry W2"
"null","Luke is flirting with Mike","","html-keyboard-response","34","289827","0.0-16.0-0.0","55890","1B","man","","null","M2 is flirting with M4","flirt2","sentence","","","",""
"5480.600000009872","","","survey-likert-extra-labels","35","295309","0.0-16.0-2.0","55890","1B","man","","","M2 is flirting with M4","flirt2","rating_volition","{""Q0"":0}","[0]","M2 wanted to flirt with M4","M4 wanted to flirt with M2"
"12613.799999991897","","","survey-likert-extra-labels","36","307925","0.0-16.0-3.0-0.0","55890","1B","man","","","M2 is flirting with M4","flirt2","rating_causation","{""Q0"":3}","[0]","M2 started flirting with M4 first","M4 started flirting with M2 first"
"null","Dave is arguing with Fred","","html-keyboard-response","37","309927","0.0-17.0-0.0","55890","1B","man","","null","M3 is arguing with M1","argue2","sentence","","","",""
"11602.399999974295","","","survey-likert-extra-labels","38","321530","0.0-17.0-1.0-0.0","55890","1B","man","","","M3 is arguing with M1","argue2","rating_causation","{""Q0"":5}","[0]","M1 started an argument with M3","M3 started an argument with M1"
"10253.500000049826","","","survey-likert-extra-labels","39","331787","0.0-17.0-2.0","55890","1B","man","","","M3 is arguing with M1","argue2","rating_volition","{""Q0"":5}","[0]","M1 wanted to argue with M3","M3 wanted to argue with M1"
"null","Luke is shouting at Jane","","html-keyboard-response","40","333789","0.0-18.0-0.0","55890","1B","man","","null","M2 is shouting at W4","shout3","sentence","","","",""
"7643.099999986589","","","survey-likert-extra-labels","41","341434","0.0-18.0-1.0-0.0","55890","1B","man","","","M2 is shouting at W4","shout3","rating_causation","{""Q0"":0}","[0]","M2 shouted at W4 first","W4 shouted at M2 first"
"7789.500000013504","","","survey-likert-extra-labels","42","349225","0.0-18.0-2.0","55890","1B","man","","","M2 is shouting at W4","shout3","rating_volition","{""Q0"":3}","[0]","M2 wanted to shout at W4","W4 wanted to shout at M2"
"null","Mike is kissing Ruth","","html-keyboard-response","43","351228","0.0-19.0-0.0","55890","1B","man","","null","M4 is kissing W2","kiss4","sentence","","","",""
"5141.200000012759","","","survey-likert-extra-labels","44","356370","0.0-19.0-1.0-0.0","55890","1B","man","","","M4 is kissing W2","kiss4","rating_causation","{""Q0"":6}","[0]","W2 asked to kiss M4","M4 asked to kiss W2"
"5201.899999985471","","","survey-likert-extra-labels","45","361575","0.0-19.0-2.0","55890","1B","man","","","M4 is kissing W2","kiss4","rating_volition","{""Q0"":6}","[0]","W2 wanted to kiss M4","M4 wanted to kiss W2"
"null","Beth is arguing with Kate","","html-keyboard-response","46","363576","0.0-20.0-0.0","55890","1B","man","","null","W3 is arguing with W1","argue1","sentence","","","",""
"6934.799999988172","","","survey-likert-extra-labels","47","370512","0.0-20.0-1.0-0.0","55890","1B","man","","","W3 is arguing with W1","argue1","rating_causation","{""Q0"":5}","[0]","W1 started an argument with W3","W3 started an argument with W1"
"4157.500000030268","","","survey-likert-extra-labels","48","374672","0.0-20.0-2.0","55890","1B","man","","","W3 is arguing with W1","argue1","rating_volition","{""Q0"":5}","[0]","W1 wanted to argue with W3","W3 wanted to argue with W1"
"null","Jane is arguing with Luke","","html-keyboard-response","49","376674","0.0-21.0-0.0","55890","1B","man","","null","W4 is arguing with M2","argue4","sentence","","","",""
"5076.60000002943","","","survey-likert-extra-labels","50","381752","0.0-21.0-2.0","55890","1B","man","","","W4 is arguing with M2","argue4","rating_volition","{""Q0"":4}","[0]","M2 wanted to argue with W4","W4 wanted to argue with M2"
"5994.500000029802","","","survey-likert-extra-labels","51","387749","0.0-21.0-3.0-0.0","55890","1B","man","","","W4 is arguing with M2","argue4","rating_causation","{""Q0"":5}","[0]","M2 started an argument with W4","W4 started an argument with M2"
"null","Kate is talking to Beth","","html-keyboard-response","52","389750","0.0-22.0-0.0","55890","1B","man","","null","W1 is talking to W3","talk1","sentence","","","",""
"4954.3999999878","","","survey-likert-extra-labels","53","394707","0.0-22.0-1.0-0.0","55890","1B","man","","","W1 is talking to W3","talk1","rating_causation","{""Q0"":0}","[0]","W1 started a conversation with W3","W3 started a conversation with W1"
"4991.500000003725","","","survey-likert-extra-labels","54","399700","0.0-22.0-2.0","55890","1B","man","","","W1 is talking to W3","talk1","rating_volition","{""Q0"":0}","[0]","W1 wanted to talk to W3","W3 wanted to talk to W1"
"null","Ruth is talking to Mike","","html-keyboard-response","55","401703","0.0-23.0-0.0","55890","1B","man","","null","W2 is talking to M4","talk3","sentence","","","",""
"19760.500000033062","","","survey-likert-extra-labels","56","421465","0.0-23.0-2.0","55890","1B","man","","","W2 is talking to M4","talk3","rating_volition","{""Q0"":0}","[0]","W2 wanted to talk to M4","M4 wanted to talk to W2"
"4487.100000027567","","","survey-likert-extra-labels","57","425955","0.0-23.0-3.0-0.0","55890","1B","man","","","W2 is talking to M4","talk3","rating_causation","{""Q0"":0}","[0]","W2 started a conversation with M4","M4 started a conversation with W2"
"null","Ruth is dancing with Mike","","html-keyboard-response","58","427957","0.0-24.0-0.0","55890","1B","man","","null","W2 is dancing with M4","dance3","sentence","","","",""
"5129.000000015367","","","survey-likert-extra-labels","59","433088","0.0-24.0-2.0","55890","1B","man","","","W2 is dancing with M4","dance3","rating_volition","{""Q0"":0}","[0]","W2 wanted to dance with M4","M4 wanted to dance with W2"
"5141.8999999878","","","survey-likert-extra-labels","60","438232","0.0-24.0-3.0-0.0","55890","1B","man","","","W2 is dancing with M4","dance3","rating_causation","{""Q0"":1}","[0]","W2 asked M4 to dance","M4 asked W2 to dance"
"null","Luke is playing with Mike","","html-keyboard-response","61","440235","0.0-25.0-0.0","55890","1B","man","","null","M2 is playing with M4","play2","sentence","","","",""
"9315.000000002328","","","survey-likert-extra-labels","62","449551","0.0-25.0-1.0-0.0","55890","1B","man","","","M2 is playing with M4","play2","rating_causation","{""Q0"":0}","[0]","M2 asked to play with M4","M4 asked to play with M2"
"7881.799999973737","","","survey-likert-extra-labels","63","457435","0.0-25.0-2.0","55890","1B","man","","","M2 is playing with M4","play2","rating_volition","{""Q0"":0}","[0]","M2 wanted to play with M4","M4 wanted to play with M2"
"null","Mike is fighting with Luke","","html-keyboard-response","64","459438","0.0-26.0-0.0","55890","1B","man","","null","M4 is fighting with M2","fight2","sentence","","","",""
"4874.699999985751","","","survey-likert-extra-labels","65","464314","0.0-26.0-2.0","55890","1B","man","","","M4 is fighting with M2","fight2","rating_volition","{""Q0"":5}","[0]","M2 wanted to fight M4","M4 wanted to fight M2"
"11670.70000001695","","","survey-likert-extra-labels","66","475987","0.0-26.0-3.0-0.0","55890","1B","man","","","M4 is fighting with M2","fight2","rating_causation","{""Q0"":5}","[0]","M2 started the fight with M4","M4 started the fight with M2"
"null","Fred is marrying Beth","","html-keyboard-response","67","477989","0.0-27.0-0.0","55890","1B","man","","null","M1 is marrying W3","marry4","sentence","","","",""
"5789.199999999255","","","survey-likert-extra-labels","68","483781","0.0-27.0-2.0","55890","1B","man","","","M1 is marrying W3","marry4","rating_volition","{""Q0"":6}","[0]","W3 wanted to marry M1","M1 wanted to marry W3"
"5951.199999952223","","","survey-likert-extra-labels","69","489735","0.0-27.0-3.0-0.0","55890","1B","man","","","M1 is marrying W3","marry4","rating_causation","{""Q0"":6}","[0]","W3 asked to marry M1","M1 asked to marry W3"
"null","Fred is talking to Dave","","html-keyboard-response","70","491737","0.0-28.0-0.0","55890","1B","man","","null","M1 is talking to M3","talk2","sentence","","","",""
"6794.499999959953","","","survey-likert-extra-labels","71","498533","0.0-28.0-2.0","55890","1B","man","","","M1 is talking to M3","talk2","rating_volition","{""Q0"":0}","[0]","M1 wanted to talk to M3","M3 wanted to talk to M1"
"6335.599999991246","","","survey-likert-extra-labels","72","504871","0.0-28.0-3.0-0.0","55890","1B","man","","","M1 is talking to M3","talk2","rating_causation","{""Q0"":0}","[0]","M1 started a conversation with M3","M3 started a conversation with M1"
"null","Dave is hiring Kate","","html-keyboard-response","73","506873","0.0-29.0-0.0","55890","1B","man","","null","M3 is hiring W1","hire","sentence","","","",""
"6550.799999968149","","","survey-likert-extra-labels","74","513425","0.0-29.0-2.0","55890","1B","man","","","M3 is hiring W1","hire","rating_volition","{""Q0"":0}","[0]","M3 is employing W1","W1 is employing M3"
"4878.800000005867","","","survey-likert-extra-labels","75","518307","0.0-29.0-3.0-0.0","55890","1B","man","","","M3 is hiring W1","hire","rating_causation","{""Q0"":0}","[0]","M3 will work for W1","W1 will work for M3"
"null","Dave is touching Kate","","html-keyboard-response","76","520309","0.0-30.0-0.0","55890","1B","man","","null","M3 is touching W1","touch4","sentence","","","",""
"4122.600000002421","","","survey-likert-extra-labels","77","524433","0.0-30.0-2.0","55890","1B","man","","","M3 is touching W1","touch4","rating_volition","{""Q0"":0}","[0]","M3 wanted to touch W1","W1 wanted to touch M3"
"5277.600000030361","","","survey-likert-extra-labels","78","529712","0.0-30.0-3.0-0.0","55890","1B","man","","","M3 is touching W1","touch4","rating_causation","{""Q0"":0}","[0]","M3 asked to touch W1","W1 asked to touch M3"
"null","Kate is shouting at Beth","","html-keyboard-response","79","531715","0.0-31.0-0.0","55890","1B","man","","null","W1 is shouting at W3","shout1","sentence","","","",""
"6785.999999963678","","","survey-likert-extra-labels","80","538503","0.0-31.0-1.0-0.0","55890","1B","man","","","W1 is shouting at W3","shout1","rating_causation","{""Q0"":0}","[0]","W1 shouted at W3 first","W3 shouted at W1 first"
"9685.299999953713","","","survey-likert-extra-labels","81","548190","0.0-31.0-2.0","55890","1B","man","","","W1 is shouting at W3","shout1","rating_volition","{""Q0"":0}","[0]","W1 wanted to shout at W3","W3 wanted to shout at W1"
"null","Luke is posing for Mike","","html-keyboard-response","82","550192","0.0-32.0-0.0","55890","1B","man","","null","M2 is posing for M4","pose","sentence","","","",""
"11438.400000042748","","","survey-likert-extra-labels","83","561632","0.0-32.0-1.0-0.0","55890","1B","man","","","M2 is posing for M4","pose","rating_causation","{""Q0"":6}","[0]","M2 is photographing M4","M4 is photographing M2"
"6244.300000020303","","","survey-likert-extra-labels","84","567877","0.0-32.0-2.0","55890","1B","man","","","M2 is posing for M4","pose","rating_volition","{""Q0"":0}","[0]","M2 is modelling for M4","M4 is modelling for M2"
"null","Ruth is touching Jane","","html-keyboard-response","85","569880","0.0-33.0-0.0","55890","1B","man","","null","W2 is touching W4","touch1","sentence","","","",""
"6426.7000000108965","","","survey-likert-extra-labels","86","576308","0.0-33.0-1.0-0.0","55890","1B","man","","","W2 is touching W4","touch1","rating_causation","{""Q0"":0}","[0]","W2 asked to touch W4","W4 asked to touch W2"
"6136.100000003353","","","survey-likert-extra-labels","87","582447","0.0-33.0-2.0","55890","1B","man","","","W2 is touching W4","touch1","rating_volition","{""Q0"":0}","[0]","W2 wanted to touch W4","W4 wanted to touch W2"
"null","Beth is flirting with Fred","","html-keyboard-response","88","584449","0.0-34.0-0.0","55890","1B","man","","null","W3 is flirting with M1","flirt3","sentence","","","",""
"4802.099999971688","","","survey-likert-extra-labels","89","589253","0.0-34.0-2.0","55890","1B","man","","","W3 is flirting with M1","flirt3","rating_volition","{""Q0"":0}","[0]","W3 wanted to flirt with M1","M1 wanted to flirt with W3"
"4022.6000000257045","","","survey-likert-extra-labels","90","593277","0.0-34.0-3.0-0.0","55890","1B","man","","","W3 is flirting with M1","flirt3","rating_causation","{""Q0"":0}","[0]","W3 started flirting with M1 first","M1 started flirting with W3 first"
"null","Kate is chasing Beth","","html-keyboard-response","91","595280","0.0-35.0-0.0","55890","1B","man","","null","W1 is chasing W3","chase","sentence","","","",""
"10710.599999991246","","","survey-likert-extra-labels","92","605992","0.0-35.0-2.0","55890","1B","man","","","W1 is chasing W3","chase","rating_volition","{""Q0"":0}","[0]","W1 is behind W3","W3 is behind W1"
"6135.999999998603","","","survey-likert-extra-labels","93","612130","0.0-35.0-3.0-0.0","55890","1B","man","","","W1 is chasing W3","chase","rating_causation","{""Q0"":6}","[0]","W1 is running away from W3","W3 is running away from W1"
"null","Dave is kissing Fred","","html-keyboard-response","94","614132","0.0-36.0-0.0","55890","1B","man","","null","M3 is kissing M1","kiss2","sentence","","","",""
"5580.499999981839","","","survey-likert-extra-labels","95","619714","0.0-36.0-2.0","55890","1B","man","","","M3 is kissing M1","kiss2","rating_volition","{""Q0"":6}","[0]","M1 wanted to kiss M3","M3 wanted to kiss M1"
"6988.100000016857","","","survey-likert-extra-labels","96","626704","0.0-36.0-3.0-0.0","55890","1B","man","","","M3 is kissing M1","kiss2","rating_causation","{""Q0"":6}","[0]","M1 asked to kiss M3","M3 asked to kiss M1"
"null","Fred is fighting with Beth","","html-keyboard-response","97","628707","0.0-37.0-0.0","55890","1B","man","","null","M1 is fighting with W3","fight3","sentence","","","",""
"5546.200000040699","","","survey-likert-extra-labels","98","634254","0.0-37.0-1.0-0.0","55890","1B","man","","","M1 is fighting with W3","fight3","rating_causation","{""Q0"":6}","[0]","W3 started the fight with M1","M1 started the fight with W3"
"4878.900000010617","","","survey-likert-extra-labels","99","639135","0.0-37.0-2.0","55890","1B","man","","","M1 is fighting with W3","fight3","rating_volition","{""Q0"":4}","[0]","W3 wanted to fight M1","M1 wanted to fight W3"
"null","Kate is dancing with Beth","","html-keyboard-response","100","641138","0.0-38.0-0.0","55890","1B","man","","null","W1 is dancing with W3","dance1","sentence","","","",""
"4056.799999962095","","","survey-likert-extra-labels","101","645196","0.0-38.0-1.0-0.0","55890","1B","man","","","W1 is dancing with W3","dance1","rating_causation","{""Q0"":0}","[0]","W1 asked W3 to dance","W3 asked W1 to dance"
"3574.399999983143","","","survey-likert-extra-labels","102","648771","0.0-38.0-2.0","55890","1B","man","","","W1 is dancing with W3","dance1","rating_volition","{""Q0"":0}","[0]","W1 wanted to dance with W3","W3 wanted to dance with W1"
"null","Mike is arguing with Ruth","","html-keyboard-response","103","650774","0.0-39.0-0.0","55890","1B","man","","null","M4 is arguing with W2","argue3","sentence","","","",""
"6862.699999997858","","","survey-likert-extra-labels","104","657639","0.0-39.0-2.0","55890","1B","man","","","M4 is arguing with W2","argue3","rating_volition","{""Q0"":5}","[0]","W2 wanted to argue with M4","M4 wanted to argue with W2"
"5628.299999982119","","","survey-likert-extra-labels","105","663270","0.0-39.0-3.0-0.0","55890","1B","man","","","M4 is arguing with W2","argue3","rating_causation","{""Q0"":4}","[0]","W2 started an argument with M4","M4 started an argument with W2"
"null","Beth is feeding Fred","","html-keyboard-response","106","665272","0.0-40.0-0.0","55890","1B","man","","null","W3 is feeding M1","feed","sentence","","","",""
"8809.50000003213","","","survey-likert-extra-labels","107","674083","0.0-40.0-2.0","55890","1B","man","","","W3 is feeding M1","feed","rating_volition","{""Q0"":0}","[0]","W3 is giving M1 food","M1 is giving W3 food"
"6239.899999985937","","","survey-likert-extra-labels","108","680325","0.0-40.0-3.0-0.0","55890","1B","man","","","W3 is feeding M1","feed","rating_causation","{""Q0"":6}","[0]","W3 is eating M1's food","M1 is eating W3's food"
"null","Beth is touching Fred","","html-keyboard-response","109","682326","0.0-41.0-0.0","55890","1B","man","","null","W3 is touching M1","touch3","sentence","","","",""
"7270.599999988917","","","survey-likert-extra-labels","110","689599","0.0-41.0-1.0-0.0","55890","1B","man","","","W3 is touching M1","touch3","rating_causation","{""Q0"":0}","[0]","W3 asked to touch M1","M1 asked to touch W3"
"6319.900000002235","","","survey-likert-extra-labels","111","695920","0.0-41.0-2.0","55890","1B","man","","","W3 is touching M1","touch3","rating_volition","{""Q0"":0}","[0]","W3 wanted to touch M1","M1 wanted to touch W3"
"null","Mike is marrying Luke","","html-keyboard-response","112","697923","0.0-42.0-0.0","55890","1B","man","","null","M4 is marrying M2","marry2","sentence","","","",""
"6174.099999945611","","","survey-likert-extra-labels","113","704099","0.0-42.0-2.0","55890","1B","man","","","M4 is marrying M2","marry2","rating_volition","{""Q0"":5}","[0]","M2 wanted to marry M4","M4 wanted to marry M2"
"8342.399999964982","","","survey-likert-extra-labels","114","712443","0.0-42.0-3.0-0.0","55890","1B","man","","","M4 is marrying M2","marry2","rating_causation","{""Q0"":0}","[0]","M2 asked to marry M4","M4 asked to marry M2"
"null","Beth is kissing Kate","","html-keyboard-response","115","714446","0.0-43.0-0.0","55890","1B","man","","null","W3 is kissing W1","kiss1","sentence","","","",""
"8709.199999982957","","","survey-likert-extra-labels","116","723156","0.0-43.0-1.0-0.0","55890","1B","man","","","W3 is kissing W1","kiss1","rating_causation","{""Q0"":5}","[0]","W1 asked to kiss W3","W3 asked to kiss W1"
"5903.699999966193","","","survey-likert-extra-labels","117","729062","0.0-43.0-2.0","55890","1B","man","","","W3 is kissing W1","kiss1","rating_volition","{""Q0"":6}","[0]","W1 wanted to kiss W3","W3 wanted to kiss W1"
"null","Fred is shouting at Dave","","html-keyboard-response","118","731065","0.0-44.0-0.0","55890","1B","man","","null","M1 is shouting at M3","shout2","sentence","","","",""
"7814.599999983329","","","survey-likert-extra-labels","119","738880","0.0-44.0-1.0-0.0","55890","1B","man","","","M1 is shouting at M3","shout2","rating_causation","{""Q0"":6}","[0]","M1 shouted at M3 first","M3 shouted at M1 first"
"7076.100000005681","","","survey-likert-extra-labels","120","745959","0.0-44.0-2.0","55890","1B","man","","","M1 is shouting at M3","shout2","rating_volition","{""Q0"":1}","[0]","M1 wanted to shout at M3","M3 wanted to shout at M1"
"null","Beth is playing with Fred","","html-keyboard-response","121","747961","0.0-45.0-0.0","55890","1B","man","","null","W3 is playing with M1","play4","sentence","","","",""
"5598.600000026636","","","survey-likert-extra-labels","122","753561","0.0-45.0-2.0","55890","1B","man","","","W3 is playing with M1","play4","rating_volition","{""Q0"":0}","[0]","W3 wanted to play with M1","M1 wanted to play with W3"
"3893.1999999913387","","","survey-likert-extra-labels","123","757457","0.0-45.0-3.0-0.0","55890","1B","man","","","W3 is playing with M1","play4","rating_causation","{""Q0"":0}","[0]","W3 asked to play with M1","M1 asked to play with W3"
"null","Ruth is carrying Jane","","html-keyboard-response","124","759460","0.0-46.0-0.0","55890","1B","man","","null","W2 is carrying W4","carry","sentence","","","",""
"9270.099999965169","","","survey-likert-extra-labels","125","768731","0.0-46.0-1.0-0.0","55890","1B","man","","","W2 is carrying W4","carry","rating_causation","{""Q0"":6}","[0]","W2 is being moved by W4","W4 is being moved by W2"
"6733.99999999674","","","survey-likert-extra-labels","126","775468","0.0-46.0-2.0","55890","1B","man","","","W2 is carrying W4","carry","rating_volition","{""Q0"":0}","[0]","W2 is transporting W4","W4 is transporting W2"
"null","Ruth is shouting at Mike","","html-keyboard-response","127","777470","0.0-47.0-0.0","55890","1B","man","","null","W2 is shouting at M4","shout4","sentence","","","",""
"4977.200000023004","","","survey-likert-extra-labels","128","782449","0.0-47.0-2.0","55890","1B","man","","","W2 is shouting at M4","shout4","rating_volition","{""Q0"":0}","[0]","W2 wanted to shout at M4","M4 wanted to shout at W2"
"4109.700000029989","","","survey-likert-extra-labels","129","786561","0.0-47.0-3.0-0.0","55890","1B","man","","","W2 is shouting at M4","shout4","rating_causation","{""Q0"":0}","[0]","W2 shouted at M4 first","M4 shouted at W2 first"
"null","Luke is touching Mike","","html-keyboard-response","130","788563","0.0-48.0-0.0","55890","1B","man","","null","M2 is touching M4","touch2","sentence","","","",""
"3904.7000000136904","","","survey-likert-extra-labels","131","792469","0.0-48.0-2.0","55890","1B","man","","","M2 is touching M4","touch2","rating_volition","{""Q0"":0}","[0]","M2 wanted to touch M4","M4 wanted to touch M2"
"4421.60000000149","","","survey-likert-extra-labels","132","796893","0.0-48.0-3.0-0.0","55890","1B","man","","","M2 is touching M4","touch2","rating_causation","{""Q0"":0}","[0]","M2 asked to touch M4","M4 asked to touch M2"
"null","Luke is reminding Jane","","html-keyboard-response","133","798896","0.0-49.0-0.0","55890","1B","man","","null","M2 is reminding W4","remind","sentence","","","",""
"13757.600000011735","","","survey-likert-extra-labels","134","812655","0.0-49.0-1.0-0.0","55890","1B","man","","","M2 is reminding W4","remind","rating_causation","{""Q0"":0}","[0]","M2 is remembering","W4 is remembering"
"8389.499999990221","","","survey-likert-extra-labels","135","821046","0.0-49.0-2.0","55890","1B","man","","","M2 is reminding W4","remind","rating_volition","{""Q0"":0}","[0]","M2 is telling W4 again","W4 is telling M2 again"
"null","Dave is playing with Kate","","html-keyboard-response","136","823048","0.0-50.0-0.0","55890","1B","man","","null","M3 is playing with W1","play3","sentence","","","",""
"4393.999999971129","","","survey-likert-extra-labels","137","827443","0.0-50.0-2.0","55890","1B","man","","","M3 is playing with W1","play3","rating_volition","{""Q0"":0}","[0]","M3 wanted to play with W1","W1 wanted to play with M3"
"3012.400000006892","","","survey-likert-extra-labels","138","830458","0.0-50.0-3.0-0.0","55890","1B","man","","","M3 is playing with W1","play3","rating_causation","{""Q0"":0}","[0]","M3 asked to play with W1","W1 asked to play with M3"
"null","Kate is marrying Dave","","html-keyboard-response","139","832461","0.0-51.0-0.0","55890","1B","man","","null","W1 is marrying M3","marry3","sentence","","","",""
"10094.700000016019","","","survey-likert-extra-labels","140","842557","0.0-51.0-2.0","55890","1B","man","","","W1 is marrying M3","marry3","rating_volition","{""Q0"":6}","[0]","M3 wanted to marry W1","W1 wanted to marry M3"
"12051.899999962188","","","survey-likert-extra-labels","141","854610","0.0-51.0-3.0-0.0","55890","1B","man","","","W1 is marrying M3","marry3","rating_causation","{""Q0"":0}","[0]","M3 asked to marry W1","W1 asked to marry M3"
"null","Jane is fighting with Ruth","","html-keyboard-response","142","856613","0.0-52.0-0.0","55890","1B","man","","null","W4 is fighting with W2","fight1","sentence","","","",""
"13078.50000000326","","","survey-likert-extra-labels","143","869693","0.0-52.0-1.0-0.0","55890","1B","man","","","W4 is fighting with W2","fight1","rating_causation","{""Q0"":3}","[0]","W2 started the fight with W4","W4 started the fight with W2"
"5454.29999998305","","","survey-likert-extra-labels","144","875149","0.0-52.0-2.0","55890","1B","man","","","W4 is fighting with W2","fight1","rating_volition","{""Q0"":6}","[0]","W2 wanted to fight W4","W4 wanted to fight W2"
"null","Ruth is teaching Mike","","html-keyboard-response","145","877152","0.0-53.0-0.0","55890","1B","man","","null","W2 is teaching M4","teach","sentence","","","",""
"4617.300000041723","","","survey-likert-extra-labels","146","881771","0.0-53.0-2.0","55890","1B","man","","","W2 is teaching M4","teach","rating_volition","{""Q0"":0}","[0]","W2 is educating M4","M4 is educating W2"
"4429.999999993015","","","survey-likert-extra-labels","147","886202","0.0-53.0-3.0-0.0","55890","1B","man","","","W2 is teaching M4","teach","rating_causation","{""Q0"":6}","[0]","W2 is learning from M4","M4 is learning from W2"
"null","Luke is talking to Jane","","html-keyboard-response","148","888205","0.0-54.0-0.0","55890","1B","man","","null","M2 is talking to W4","talk4","sentence","","","",""
"5642.099999997299","","","survey-likert-extra-labels","149","893848","0.0-54.0-1.0-0.0","55890","1B","man","","","M2 is talking to W4","talk4","rating_causation","{""Q0"":0}","[0]","M2 started a conversation with W4","W4 started a conversation with M2"
"4149.399999994785","","","survey-likert-extra-labels","150","898000","0.0-54.0-2.0","55890","1B","man","","","M2 is talking to W4","talk4","rating_volition","{""Q0"":0}","[0]","M2 wanted to talk to W4","W4 wanted to talk to M2"
"3292.399999976624","<p>Thank you for completing that task.</p><p>The final part of this session is a short questionnaire.</p><p>Press Continue.</p>","0","html-button-response","151","901295","0.0-55.0","55890","1B","man","","","","","","","","",""
"38651.10000001732","","","survey-text","152","940952","0.0-56.0","55890","1B","man","","","","","demographics","{""Q0"":""28"",""Q1"":""English"",""Q2"":""English"",""Q3"":""England"",""Q4"":""British"",""Q5"":""white"",""Q6"":""male""}","","",""
"4093.899999978021","<p>Have you lived in the UK for the last 5 years or more?</p>","0","html-button-response","153","945047","0.0-57.0","55890","1B","man","","","","","fiveyears","","","",""
"5178.599999984726","","","survey-text","154","951229","0.0-58.0","55890","1B","man","","","","","worker_id","{""Q0"":""5cdac28b1d2402001a3c681f""}","","",""
"64927.800000004936","","","external-html","155","1016999","0.0-59.0","55890","1B","man","debrief.html","","","","","","","",""
