"rt","stimulus","button_pressed","trial_type","trial_index","time_elapsed","internal_node_id","subject","list","ppt_gender","url","key_press","sentence_type","verb","test_part","responses","question_order","left_part","right_part"
"1661.6500000091037","Welcome to the experiment. Press Continue to begin.","0","html-button-response","0","1665","0.0-0.0","618","1A","man","","","","","","","","",""
"50810.1650000026","","","external-html","1","53505","0.0-1.0","618","1A","man","consent.html","","","","","","","",""
"3234.2700000008335","<p>Welcome.</p><p>In this experiment we will ask you to imagine some situations.</p><p>Each trial starts with a description of an event.</p><p>Then you will see alternative descriptions of that event, and you will rate on a scale how best they match the original description.</p><p>You will give your answer by clicking a button on a rating scale.</p><p>To do this task, you will have to use your imagination to visualise these events.</p><br><p>Ready?</p>","0","html-button-response","2","56742","0.0-2.0","618","1A","man","","","","","","","","",""
"3688.609999997425","<p>Before the experiment starts, you will watch an example trial. Press 'Continue'.</p>","0","html-button-response","3","61433","0.0-3.0","618","1A","man","","","","","","","","",""
"null","The police officer is arresting the robber","","html-keyboard-response","4","64437","0.0-4.0","618","1A","man","","null","","","","","","",""
"31144.244999988587","<img src='img/Example-trial.jpg' style='height:550px;''></img>","0","html-button-response","5","95583","0.0-5.0","618","1A","man","","","","","","","","",""
"4620.955000005779","<p>Ready to start the experiment?</p><br><p><strong>Remember to give an answer by clicking a button on the rating scale.</strong></p><p>Press 'Continue' to begin.</p>","0","html-button-response","6","101207","0.0-6.0","618","1A","man","","","","","","","","",""
"null","Ruth is marrying Fred","","html-keyboard-response","7","104212","0.0-7.0-0.0","618","1A","man","","null","W1 is marrying M3","marry3","sentence","","","",""
"26112.65500000445","","","survey-likert-extra-labels","8","130328","0.0-7.0-2.0","618","1A","man","","","W1 is marrying M3","marry3","rating_volition","{""Q0"":6}","[0]","M3 wanted to marry W1","W1 wanted to marry M3"
"28041.245000000345","","","survey-likert-extra-labels","9","158372","0.0-7.0-3.0-0.0","618","1A","man","","","W1 is marrying M3","marry3","rating_causation","{""Q0"":1}","[0]","M3 asked to marry W1","W1 asked to marry M3"
"null","Ruth is talking to Kate","","html-keyboard-response","10","160374","0.0-8.0-0.0","618","1A","man","","null","W1 is talking to W3","talk1","sentence","","","",""
"5671.184999999241","","","survey-likert-extra-labels","11","166047","0.0-8.0-2.0","618","1A","man","","","W1 is talking to W3","talk1","rating_volition","{""Q0"":4}","[0]","W1 wanted to talk to W3","W3 wanted to talk to W1"
"5462.589999995544","","","survey-likert-extra-labels","12","171513","0.0-8.0-3.0-0.0","618","1A","man","","","W1 is talking to W3","talk1","rating_causation","{""Q0"":1}","[0]","W1 started a conversation with W3","W3 started a conversation with W1"
"null","Jane is flirting with Beth","","html-keyboard-response","13","173517","0.0-9.0-0.0","618","1A","man","","null","W2 is flirting with W4","flirt1","sentence","","","",""
"8935.90499999118","","","survey-likert-extra-labels","14","182455","0.0-9.0-1.0-0.0","618","1A","man","","","W2 is flirting with W4","flirt1","rating_causation","{""Q0"":1}","[0]","W2 started flirting with W4 first","W4 started flirting with W2 first"
"15188.3450000023","","","survey-likert-extra-labels","15","197646","0.0-9.0-2.0","618","1A","man","","","W2 is flirting with W4","flirt1","rating_volition","{""Q0"":1}","[0]","W2 wanted to flirt with W4","W4 wanted to flirt with W2"
"null","Beth is kissing Mike","","html-keyboard-response","16","199649","0.0-10.0-0.0","618","1A","man","","null","W4 is kissing M2","kiss3","sentence","","","",""
"17659.500000008848","","","survey-likert-extra-labels","17","217310","0.0-10.0-2.0","618","1A","man","","","W4 is kissing M2","kiss3","rating_volition","{""Q0"":5}","[0]","M2 wanted to kiss W4","W4 wanted to kiss M2"
"14930.390000008629","","","survey-likert-extra-labels","18","232243","0.0-10.0-3.0-0.0","618","1A","man","","","W4 is kissing M2","kiss3","rating_causation","{""Q0"":5}","[0]","M2 asked to kiss W4","W4 asked to kiss M2"
"null","Jane is touching Beth","","html-keyboard-response","19","234246","0.0-11.0-0.0","618","1A","man","","null","W2 is touching W4","touch1","sentence","","","",""
"16370.079999993322","","","survey-likert-extra-labels","20","250618","0.0-11.0-2.0","618","1A","man","","","W2 is touching W4","touch1","rating_volition","{""Q0"":0}","[0]","W2 wanted to touch W4","W4 wanted to touch W2"
"8567.829999999958","","","survey-likert-extra-labels","21","259189","0.0-11.0-3.0-0.0","618","1A","man","","","W2 is touching W4","touch1","rating_causation","{""Q0"":0}","[0]","W2 asked to touch W4","W4 asked to touch W2"
"null","Fred is arguing with Luke","","html-keyboard-response","22","261191","0.0-12.0-0.0","618","1A","man","","null","M3 is arguing with M1","argue2","sentence","","","",""
"8046.26499999722","","","survey-likert-extra-labels","23","269239","0.0-12.0-1.0-0.0","618","1A","man","","","M3 is arguing with M1","argue2","rating_causation","{""Q0"":5}","[0]","M1 started an argument with M3","M3 started an argument with M1"
"9819.159999999101","","","survey-likert-extra-labels","24","279061","0.0-12.0-2.0","618","1A","man","","","M3 is arguing with M1","argue2","rating_volition","{""Q0"":3}","[0]","M1 wanted to argue with M3","M3 wanted to argue with M1"
"null","Kate is playing with Luke","","html-keyboard-response","25","281063","0.0-13.0-0.0","618","1A","man","","null","W3 is playing with M1","play4","sentence","","","",""
"8614.014999999199","","","survey-likert-extra-labels","26","289679","0.0-13.0-2.0","618","1A","man","","","W3 is playing with M1","play4","rating_volition","{""Q0"":2}","[0]","W3 wanted to play with M1","M1 wanted to play with W3"
"12301.089999993565","","","survey-likert-extra-labels","27","301982","0.0-13.0-3.0-0.0","618","1A","man","","","W3 is playing with M1","play4","rating_causation","{""Q0"":1}","[0]","W3 asked to play with M1","M1 asked to play with W3"
"null","Beth is marrying Jane","","html-keyboard-response","28","303984","0.0-14.0-0.0","618","1A","man","","null","W4 is marrying W2","marry1","sentence","","","",""
"24645.275000002584","","","survey-likert-extra-labels","29","328631","0.0-14.0-2.0","618","1A","man","","","W4 is marrying W2","marry1","rating_volition","{""Q0"":3}","[0]","W2 wanted to marry W4","W4 wanted to marry W2"
"26018.52000001236","","","survey-likert-extra-labels","30","354653","0.0-14.0-3.0-0.0","618","1A","man","","","W4 is marrying W2","marry1","rating_causation","{""Q0"":6}","[0]","W2 asked to marry W4","W4 asked to marry W2"
"null","Fred is flirting with Ruth","","html-keyboard-response","31","356657","0.0-15.0-0.0","618","1A","man","","null","M3 is flirting with W1","flirt4","sentence","","","",""
"4798.275000008289","","","survey-likert-extra-labels","32","361457","0.0-15.0-1.0-0.0","618","1A","man","","","M3 is flirting with W1","flirt4","rating_causation","{""Q0"":2}","[0]","M3 started flirting with W1 first","W1 started flirting with M3 first"
"4083.6099999869475","","","survey-likert-extra-labels","33","365543","0.0-15.0-2.0","618","1A","man","","","M3 is flirting with W1","flirt4","rating_volition","{""Q0"":2}","[0]","M3 wanted to flirt with W1","W1 wanted to flirt with M3"
"null","Dave is marrying Mike","","html-keyboard-response","34","367546","0.0-16.0-0.0","618","1A","man","","null","M4 is marrying M2","marry2","sentence","","","",""
"6444.3650000030175","","","survey-likert-extra-labels","35","373992","0.0-16.0-2.0","618","1A","man","","","M4 is marrying M2","marry2","rating_volition","{""Q0"":4}","[0]","M2 wanted to marry M4","M4 wanted to marry M2"
"3801.7199999885634","","","survey-likert-extra-labels","36","377796","0.0-16.0-3.0-0.0","618","1A","man","","","M4 is marrying M2","marry2","rating_causation","{""Q0"":4}","[0]","M2 asked to marry M4","M4 asked to marry M2"
"null","Jane is dancing with Dave","","html-keyboard-response","37","379799","0.0-17.0-0.0","618","1A","man","","null","W2 is dancing with M4","dance3","sentence","","","",""
"7568.970000007539","","","survey-likert-extra-labels","38","387369","0.0-17.0-2.0","618","1A","man","","","W2 is dancing with M4","dance3","rating_volition","{""Q0"":3}","[0]","W2 wanted to dance with M4","M4 wanted to dance with W2"
"6530.36499999871","","","survey-likert-extra-labels","39","393903","0.0-17.0-3.0-0.0","618","1A","man","","","W2 is dancing with M4","dance3","rating_causation","{""Q0"":3}","[0]","W2 asked M4 to dance","M4 asked W2 to dance"
"null","Ruth is fighting with Fred","","html-keyboard-response","40","395905","0.0-18.0-0.0","618","1A","man","","null","W1 is fighting with M3","fight4","sentence","","","",""
"2655.4250000044703","","","survey-likert-extra-labels","41","398562","0.0-18.0-1.0-0.0","618","1A","man","","","W1 is fighting with M3","fight4","rating_causation","{""Q0"":3}","[0]","M3 started the fight with W1","W1 started the fight with M3"
"3671.4800000045216","","","survey-likert-extra-labels","42","402236","0.0-18.0-2.0","618","1A","man","","","W1 is fighting with M3","fight4","rating_volition","{""Q0"":3}","[0]","M3 wanted to fight W1","W1 wanted to fight M3"
"null","Jane is shouting at Dave","","html-keyboard-response","43","404239","0.0-19.0-0.0","618","1A","man","","null","W2 is shouting at M4","shout4","sentence","","","",""
"3114.7600000113016","","","survey-likert-extra-labels","44","407355","0.0-19.0-2.0","618","1A","man","","","W2 is shouting at M4","shout4","rating_volition","{""Q0"":3}","[0]","W2 wanted to shout at M4","M4 wanted to shout at W2"
"683170.1650000032","","","survey-likert-extra-labels","45","1090526","0.0-19.0-3.0-0.0","618","1A","man","","","W2 is shouting at M4","shout4","rating_causation","{""Q0"":3}","[0]","W2 shouted at M4 first","M4 shouted at W2 first"
"null","Fred is hiring Ruth","","html-keyboard-response","46","1092529","0.0-20.0-0.0","618","1A","man","","null","M3 is hiring W1","hire","sentence","","","",""
"6478.605000011157","","","survey-likert-extra-labels","47","1099009","0.0-20.0-1.0-0.0","618","1A","man","","","M3 is hiring W1","hire","rating_causation","{""Q0"":6}","[0]","M3 will work for W1","W1 will work for M3"
"7385.380000006873","","","survey-likert-extra-labels","48","1106398","0.0-20.0-2.0","618","1A","man","","","M3 is hiring W1","hire","rating_volition","{""Q0"":3}","[0]","M3 is employing W1","W1 is employing M3"
"null","Luke is marrying Kate","","html-keyboard-response","49","1108401","0.0-21.0-0.0","618","1A","man","","null","M1 is marrying W3","marry4","sentence","","","",""
"3168.974999993341","","","survey-likert-extra-labels","50","1111571","0.0-21.0-2.0","618","1A","man","","","M1 is marrying W3","marry4","rating_volition","{""Q0"":3}","[0]","W3 wanted to marry M1","M1 wanted to marry W3"
"3925.9549999989104","","","survey-likert-extra-labels","51","1115500","0.0-21.0-3.0-0.0","618","1A","man","","","M1 is marrying W3","marry4","rating_causation","{""Q0"":3}","[0]","W3 asked to marry M1","M1 asked to marry W3"
"null","Mike is shouting at Beth","","html-keyboard-response","52","1117502","0.0-22.0-0.0","618","1A","man","","null","M2 is shouting at W4","shout3","sentence","","","",""
"7508.059999992838","","","survey-likert-extra-labels","53","1125014","0.0-22.0-2.0","618","1A","man","","","M2 is shouting at W4","shout3","rating_volition","{""Q0"":3}","[0]","M2 wanted to shout at W4","W4 wanted to shout at M2"
"2704.855000003474","","","survey-likert-extra-labels","54","1127721","0.0-22.0-3.0-0.0","618","1A","man","","","M2 is shouting at W4","shout3","rating_causation","{""Q0"":3}","[0]","M2 shouted at W4 first","W4 shouted at M2 first"
"null","Mike is playing with Dave","","html-keyboard-response","55","1129724","0.0-23.0-0.0","618","1A","man","","null","M2 is playing with M4","play2","sentence","","","",""
"2046.7849999985192","","","survey-likert-extra-labels","56","1131772","0.0-23.0-2.0","618","1A","man","","","M2 is playing with M4","play2","rating_volition","{""Q0"":3}","[0]","M2 wanted to play with M4","M4 wanted to play with M2"
"2503.589999993099","","","survey-likert-extra-labels","57","1134278","0.0-23.0-3.0-0.0","618","1A","man","","","M2 is playing with M4","play2","rating_causation","{""Q0"":3}","[0]","M2 asked to play with M4","M4 asked to play with M2"
"null","Dave is arguing with Jane","","html-keyboard-response","58","1136279","0.0-24.0-0.0","618","1A","man","","null","M4 is arguing with W2","argue3","sentence","","","",""
"3713.034999993397","","","survey-likert-extra-labels","59","1139994","0.0-24.0-2.0","618","1A","man","","","M4 is arguing with W2","argue3","rating_volition","{""Q0"":3}","[0]","W2 wanted to argue with M4","M4 wanted to argue with W2"
"3244.469999990426","","","survey-likert-extra-labels","60","1143242","0.0-24.0-3.0-0.0","618","1A","man","","","M4 is arguing with W2","argue3","rating_causation","{""Q0"":3}","[0]","W2 started an argument with M4","M4 started an argument with W2"
"null","Luke is fighting with Kate","","html-keyboard-response","61","1145244","0.0-25.0-0.0","618","1A","man","","null","M1 is fighting with W3","fight3","sentence","","","",""
"3022.3600000026636","","","survey-likert-extra-labels","62","1148268","0.0-25.0-2.0","618","1A","man","","","M1 is fighting with W3","fight3","rating_volition","{""Q0"":3}","[0]","W3 wanted to fight M1","M1 wanted to fight W3"
"1767.6099999954458","","","survey-likert-extra-labels","63","1150038","0.0-25.0-3.0-0.0","618","1A","man","","","M1 is fighting with W3","fight3","rating_causation","{""Q0"":3}","[0]","W3 started the fight with M1","M1 started the fight with W3"
"null","Luke is driving Fred","","html-keyboard-response","64","1152041","0.0-26.0-0.0","618","1A","man","","null","M1 is driving M3","drive","sentence","","","",""
"3963.415000005625","","","survey-likert-extra-labels","65","1156005","0.0-26.0-1.0-0.0","618","1A","man","","","M1 is driving M3","drive","rating_causation","{""Q0"":6}","[0]","M3 is taking M1 somewhere","M1 is taking M3 somewhere"
"6750.560000000289","","","survey-likert-extra-labels","66","1162758","0.0-26.0-2.0","618","1A","man","","","M1 is driving M3","drive","rating_volition","{""Q0"":0}","[0]","M3 is M1's passenger","M1 is M3's passenger"
"null","Mike is dancing with Beth","","html-keyboard-response","67","1164760","0.0-27.0-0.0","618","1A","man","","null","M2 is dancing with W4","dance4","sentence","","","",""
"4343.445000005886","","","survey-likert-extra-labels","68","1169105","0.0-27.0-2.0","618","1A","man","","","M2 is dancing with W4","dance4","rating_volition","{""Q0"":3}","[0]","M2 wanted to dance with W4","W4 wanted to dance with M2"
"2110.4499999927357","","","survey-likert-extra-labels","69","1171218","0.0-27.0-3.0-0.0","618","1A","man","","","M2 is dancing with W4","dance4","rating_causation","{""Q0"":3}","[0]","M2 asked W4 to dance","W4 asked M2 to dance"
"null","Luke is shouting at Fred","","html-keyboard-response","70","1173221","0.0-28.0-0.0","618","1A","man","","null","M1 is shouting at M3","shout2","sentence","","","",""
"2653.279999998631","","","survey-likert-extra-labels","71","1175876","0.0-28.0-1.0-0.0","618","1A","man","","","M1 is shouting at M3","shout2","rating_causation","{""Q0"":3}","[0]","M1 shouted at M3 first","M3 shouted at M1 first"
"2969.9049999907147","","","survey-likert-extra-labels","72","1178848","0.0-28.0-2.0","618","1A","man","","","M1 is shouting at M3","shout2","rating_volition","{""Q0"":3}","[0]","M1 wanted to shout at M3","M3 wanted to shout at M1"
"null","Mike is posing for Dave","","html-keyboard-response","73","1180851","0.0-29.0-0.0","618","1A","man","","null","M2 is posing for M4","pose","sentence","","","",""
"44202.245000007795","","","survey-likert-extra-labels","74","1225055","0.0-29.0-1.0-0.0","618","1A","man","","","M2 is posing for M4","pose","rating_causation","{""Q0"":6}","[0]","M2 is photographing M4","M4 is photographing M2"
"5081.8100000033155","","","survey-likert-extra-labels","75","1230139","0.0-29.0-2.0","618","1A","man","","","M2 is posing for M4","pose","rating_volition","{""Q0"":0}","[0]","M2 is modelling for M4","M4 is modelling for M2"
"null","Mike is reminding Beth","","html-keyboard-response","76","1232142","0.0-30.0-0.0","618","1A","man","","null","M2 is reminding W4","remind","sentence","","","",""
"3591.014999998035","","","survey-likert-extra-labels","77","1235734","0.0-30.0-1.0-0.0","618","1A","man","","","M2 is reminding W4","remind","rating_causation","{""Q0"":6}","[0]","M2 is remembering","W4 is remembering"
"5280.500000007916","","","survey-likert-extra-labels","78","1241017","0.0-30.0-2.0","618","1A","man","","","M2 is reminding W4","remind","rating_volition","{""Q0"":0}","[0]","M2 is telling W4 again","W4 is telling M2 again"
"null","Mike is flirting with Dave","","html-keyboard-response","79","1243019","0.0-31.0-0.0","618","1A","man","","null","M2 is flirting with M4","flirt2","sentence","","","",""
"2469.319999989355","","","survey-likert-extra-labels","80","1245490","0.0-31.0-1.0-0.0","618","1A","man","","","M2 is flirting with M4","flirt2","rating_causation","{""Q0"":3}","[0]","M2 started flirting with M4 first","M4 started flirting with M2 first"
"1545.5650000076275","","","survey-likert-extra-labels","81","1247038","0.0-31.0-2.0","618","1A","man","","","M2 is flirting with M4","flirt2","rating_volition","{""Q0"":3}","[0]","M2 wanted to flirt with M4","M4 wanted to flirt with M2"
"null","Luke is talking to Fred","","html-keyboard-response","82","1249040","0.0-32.0-0.0","618","1A","man","","null","M1 is talking to M3","talk2","sentence","","","",""
"2656.8550000083633","","","survey-likert-extra-labels","83","1251698","0.0-32.0-1.0-0.0","618","1A","man","","","M1 is talking to M3","talk2","rating_causation","{""Q0"":3}","[0]","M1 started a conversation with M3","M3 started a conversation with M1"
"1683.1349999993108","","","survey-likert-extra-labels","84","1253384","0.0-32.0-2.0","618","1A","man","","","M1 is talking to M3","talk2","rating_volition","{""Q0"":3}","[0]","M1 wanted to talk to M3","M3 wanted to talk to M1"
"null","Kate is flirting with Luke","","html-keyboard-response","85","1255387","0.0-33.0-0.0","618","1A","man","","null","W3 is flirting with M1","flirt3","sentence","","","",""
"1882.670000006212","","","survey-likert-extra-labels","86","1257271","0.0-33.0-1.0-0.0","618","1A","man","","","W3 is flirting with M1","flirt3","rating_causation","{""Q0"":3}","[0]","W3 started flirting with M1 first","M1 started flirting with W3 first"
"1600.070000000298","","","survey-likert-extra-labels","87","1258873","0.0-33.0-2.0","618","1A","man","","","W3 is flirting with M1","flirt3","rating_volition","{""Q0"":3}","[0]","W3 wanted to flirt with M1","M1 wanted to flirt with W3"
"null","Fred is kissing Luke","","html-keyboard-response","88","1260876","0.0-34.0-0.0","618","1A","man","","null","M3 is kissing M1","kiss2","sentence","","","",""
"1181.5449999994598","","","survey-likert-extra-labels","89","1262059","0.0-34.0-1.0-0.0","618","1A","man","","","M3 is kissing M1","kiss2","rating_causation","{""Q0"":3}","[0]","M1 asked to kiss M3","M3 asked to kiss M1"
"2364.989999987418","","","survey-likert-extra-labels","90","1264426","0.0-34.0-2.0","618","1A","man","","","M3 is kissing M1","kiss2","rating_volition","{""Q0"":3}","[0]","M1 wanted to kiss M3","M3 wanted to kiss M1"
"null","Kate is arguing with Ruth","","html-keyboard-response","91","1266428","0.0-35.0-0.0","618","1A","man","","null","W3 is arguing with W1","argue1","sentence","","","",""
"1638.350000008475","","","survey-likert-extra-labels","92","1268068","0.0-35.0-1.0-0.0","618","1A","man","","","W3 is arguing with W1","argue1","rating_causation","{""Q0"":3}","[0]","W1 started an argument with W3","W3 started an argument with W1"
"2326.170000000391","","","survey-likert-extra-labels","93","1270396","0.0-35.0-2.0","618","1A","man","","","W3 is arguing with W1","argue1","rating_volition","{""Q0"":3}","[0]","W1 wanted to argue with W3","W3 wanted to argue with W1"
"null","Kate is feeding Luke","","html-keyboard-response","94","1272399","0.0-36.0-0.0","618","1A","man","","null","W3 is feeding M1","feed","sentence","","","",""
"6428.31000000285","","","survey-likert-extra-labels","95","1278828","0.0-36.0-1.0-0.0","618","1A","man","","","W3 is feeding M1","feed","rating_causation","{""Q0"":6}","[0]","W3 is eating M1's food","M1 is eating W3's food"
"3427.665000010282","","","survey-likert-extra-labels","96","1282258","0.0-36.0-2.0","618","1A","man","","","W3 is feeding M1","feed","rating_volition","{""Q0"":0}","[0]","W3 is giving M1 food","M1 is giving W3 food"
"null","Jane is carrying Beth","","html-keyboard-response","97","1284261","0.0-37.0-0.0","618","1A","man","","null","W2 is carrying W4","carry","sentence","","","",""
"4424.599999998463","","","survey-likert-extra-labels","98","1288689","0.0-37.0-2.0","618","1A","man","","","W2 is carrying W4","carry","rating_volition","{""Q0"":0}","[0]","W2 is transporting W4","W4 is transporting W2"
"6683.900000003632","","","survey-likert-extra-labels","99","1295375","0.0-37.0-3.0-0.0","618","1A","man","","","W2 is carrying W4","carry","rating_causation","{""Q0"":6}","[0]","W2 is being moved by W4","W4 is being moved by W2"
"null","Fred is touching Ruth","","html-keyboard-response","100","1297379","0.0-38.0-0.0","618","1A","man","","null","M3 is touching W1","touch4","sentence","","","",""
"2673.5399999888614","","","survey-likert-extra-labels","101","1300054","0.0-38.0-1.0-0.0","618","1A","man","","","M3 is touching W1","touch4","rating_causation","{""Q0"":3}","[0]","M3 asked to touch W1","W1 asked to touch M3"
"1879.230000006035","","","survey-likert-extra-labels","102","1301935","0.0-38.0-2.0","618","1A","man","","","M3 is touching W1","touch4","rating_volition","{""Q0"":3}","[0]","M3 wanted to touch W1","W1 wanted to touch M3"
"null","Ruth is chasing Kate","","html-keyboard-response","103","1303937","0.0-39.0-0.0","618","1A","man","","null","W1 is chasing W3","chase","sentence","","","",""
"6896.464999997988","","","survey-likert-extra-labels","104","1310835","0.0-39.0-1.0-0.0","618","1A","man","","","W1 is chasing W3","chase","rating_causation","{""Q0"":6}","[0]","W1 is running away from W3","W3 is running away from W1"
"4654.85500000068","","","survey-likert-extra-labels","105","1315493","0.0-39.0-2.0","618","1A","man","","","W1 is chasing W3","chase","rating_volition","{""Q0"":0}","[0]","W1 is behind W3","W3 is behind W1"
"null","Ruth is shouting at Kate","","html-keyboard-response","106","1317495","0.0-40.0-0.0","618","1A","man","","null","W1 is shouting at W3","shout1","sentence","","","",""
"4316.500000000931","","","survey-likert-extra-labels","107","1321813","0.0-40.0-2.0","618","1A","man","","","W1 is shouting at W3","shout1","rating_volition","{""Q0"":3}","[0]","W1 wanted to shout at W3","W3 wanted to shout at W1"
"3874.7000000001863","","","survey-likert-extra-labels","108","1325690","0.0-40.0-3.0-0.0","618","1A","man","","","W1 is shouting at W3","shout1","rating_causation","{""Q0"":3}","[0]","W1 shouted at W3 first","W3 shouted at W1 first"
"null","Beth is arguing with Mike","","html-keyboard-response","109","1327693","0.0-41.0-0.0","618","1A","man","","null","W4 is arguing with M2","argue4","sentence","","","",""
"7315.755000003148","","","survey-likert-extra-labels","110","1335010","0.0-41.0-2.0","618","1A","man","","","W4 is arguing with M2","argue4","rating_volition","{""Q0"":3}","[0]","M2 wanted to argue with W4","W4 wanted to argue with M2"
"2265.1449999974575","","","survey-likert-extra-labels","111","1337278","0.0-41.0-3.0-0.0","618","1A","man","","","W4 is arguing with M2","argue4","rating_causation","{""Q0"":3}","[0]","M2 started an argument with W4","W4 started an argument with M2"
"null","Jane is playing with Beth","","html-keyboard-response","112","1339280","0.0-42.0-0.0","618","1A","man","","null","W2 is playing with W4","play1","sentence","","","",""
"1915.2150000010151","","","survey-likert-extra-labels","113","1341197","0.0-42.0-2.0","618","1A","man","","","W2 is playing with W4","play1","rating_volition","{""Q0"":0}","[0]","W2 wanted to play with W4","W4 wanted to play with W2"
"2229.0649999922607","","","survey-likert-extra-labels","114","1343428","0.0-42.0-3.0-0.0","618","1A","man","","","W2 is playing with W4","play1","rating_causation","{""Q0"":5}","[0]","W2 asked to play with W4","W4 asked to play with W2"
"null","Dave is fighting with Mike","","html-keyboard-response","115","1345432","0.0-43.0-0.0","618","1A","man","","null","M4 is fighting with M2","fight2","sentence","","","",""
"5852.439999987837","","","survey-likert-extra-labels","116","1351286","0.0-43.0-1.0-0.0","618","1A","man","","","M4 is fighting with M2","fight2","rating_causation","{""Q0"":3}","[0]","M2 started the fight with M4","M4 started the fight with M2"
"1146.8750000058208","","","survey-likert-extra-labels","117","1352435","0.0-43.0-2.0","618","1A","man","","","M4 is fighting with M2","fight2","rating_volition","{""Q0"":3}","[0]","M2 wanted to fight M4","M4 wanted to fight M2"
"null","Dave is kissing Jane","","html-keyboard-response","118","1354437","0.0-44.0-0.0","618","1A","man","","null","M4 is kissing W2","kiss4","sentence","","","",""
"1584.210000000894","","","survey-likert-extra-labels","119","1356023","0.0-44.0-1.0-0.0","618","1A","man","","","M4 is kissing W2","kiss4","rating_causation","{""Q0"":3}","[0]","W2 asked to kiss M4","M4 asked to kiss W2"
"3228.269999992335","","","survey-likert-extra-labels","120","1359253","0.0-44.0-2.0","618","1A","man","","","M4 is kissing W2","kiss4","rating_volition","{""Q0"":3}","[0]","W2 wanted to kiss M4","M4 wanted to kiss W2"
"null","Beth is fighting with Jane","","html-keyboard-response","121","1361256","0.0-45.0-0.0","618","1A","man","","null","W4 is fighting with W2","fight1","sentence","","","",""
"1665.3199999998324","","","survey-likert-extra-labels","122","1362923","0.0-45.0-2.0","618","1A","man","","","W4 is fighting with W2","fight1","rating_volition","{""Q0"":3}","[0]","W2 wanted to fight W4","W4 wanted to fight W2"
"1284.1349999946542","","","survey-likert-extra-labels","123","1364209","0.0-45.0-3.0-0.0","618","1A","man","","","W4 is fighting with W2","fight1","rating_causation","{""Q0"":3}","[0]","W2 started the fight with W4","W4 started the fight with W2"
"null","Ruth is dancing with Kate","","html-keyboard-response","124","1366211","0.0-46.0-0.0","618","1A","man","","null","W1 is dancing with W3","dance1","sentence","","","",""
"1374.6750000137836","","","survey-likert-extra-labels","125","1367587","0.0-46.0-2.0","618","1A","man","","","W1 is dancing with W3","dance1","rating_volition","{""Q0"":3}","[0]","W1 wanted to dance with W3","W3 wanted to dance with W1"
"1215.0350000010803","","","survey-likert-extra-labels","126","1368804","0.0-46.0-3.0-0.0","618","1A","man","","","W1 is dancing with W3","dance1","rating_causation","{""Q0"":3}","[0]","W1 asked W3 to dance","W3 asked W1 to dance"
"null","Jane is talking to Dave","","html-keyboard-response","127","1370806","0.0-47.0-0.0","618","1A","man","","null","W2 is talking to M4","talk3","sentence","","","",""
"1352.5700000028592","","","survey-likert-extra-labels","128","1372160","0.0-47.0-2.0","618","1A","man","","","W2 is talking to M4","talk3","rating_volition","{""Q0"":3}","[0]","W2 wanted to talk to M4","M4 wanted to talk to W2"
"1503.6850000033155","","","survey-likert-extra-labels","129","1373666","0.0-47.0-3.0-0.0","618","1A","man","","","W2 is talking to M4","talk3","rating_causation","{""Q0"":3}","[0]","W2 started a conversation with M4","M4 started a conversation with W2"
"null","Fred is playing with Ruth","","html-keyboard-response","130","1375668","0.0-48.0-0.0","618","1A","man","","null","M3 is playing with W1","play3","sentence","","","",""
"3344.0600000033155","","","survey-likert-extra-labels","131","1379014","0.0-48.0-1.0-0.0","618","1A","man","","","M3 is playing with W1","play3","rating_causation","{""Q0"":3}","[0]","M3 asked to play with W1","W1 asked to play with M3"
"1477.790000004461","","","survey-likert-extra-labels","132","1380494","0.0-48.0-2.0","618","1A","man","","","M3 is playing with W1","play3","rating_volition","{""Q0"":3}","[0]","M3 wanted to play with W1","W1 wanted to play with M3"
"null","Kate is touching Luke","","html-keyboard-response","133","1382497","0.0-49.0-0.0","618","1A","man","","null","W3 is touching M1","touch3","sentence","","","",""
"4447.314999997616","","","survey-likert-extra-labels","134","1386946","0.0-49.0-2.0","618","1A","man","","","W3 is touching M1","touch3","rating_volition","{""Q0"":3}","[0]","W3 wanted to touch M1","M1 wanted to touch W3"
"2903.52999999607","","","survey-likert-extra-labels","135","1389852","0.0-49.0-3.0-0.0","618","1A","man","","","W3 is touching M1","touch3","rating_causation","{""Q0"":3}","[0]","W3 asked to touch M1","M1 asked to touch W3"
"null","Luke is dancing with Fred","","html-keyboard-response","136","1391855","0.0-50.0-0.0","618","1A","man","","null","M1 is dancing with M3","dance2","sentence","","","",""
"3917.050000003539","","","survey-likert-extra-labels","137","1395773","0.0-50.0-2.0","618","1A","man","","","M1 is dancing with M3","dance2","rating_volition","{""Q0"":3}","[0]","M1 wanted to dance with M3","M3 wanted to dance with M1"
"2376.329999999143","","","survey-likert-extra-labels","138","1398152","0.0-50.0-3.0-0.0","618","1A","man","","","M1 is dancing with M3","dance2","rating_causation","{""Q0"":3}","[0]","M1 asked M3 to dance","M3 asked M1 to dance"
"null","Mike is touching Dave","","html-keyboard-response","139","1400156","0.0-51.0-0.0","618","1A","man","","null","M2 is touching M4","touch2","sentence","","","",""
"15390.135000008624","","","survey-likert-extra-labels","140","1415547","0.0-51.0-2.0","618","1A","man","","","M2 is touching M4","touch2","rating_volition","{""Q0"":3}","[0]","M2 wanted to touch M4","M4 wanted to touch M2"
"3475.490000011632","","","survey-likert-extra-labels","141","1419025","0.0-51.0-3.0-0.0","618","1A","man","","","M2 is touching M4","touch2","rating_causation","{""Q0"":3}","[0]","M2 asked to touch M4","M4 asked to touch M2"
"null","Kate is kissing Ruth","","html-keyboard-response","142","1421027","0.0-52.0-0.0","618","1A","man","","null","W3 is kissing W1","kiss1","sentence","","","",""
"4782.469999990892","","","survey-likert-extra-labels","143","1425812","0.0-52.0-2.0","618","1A","man","","","W3 is kissing W1","kiss1","rating_volition","{""Q0"":3}","[0]","W1 wanted to kiss W3","W3 wanted to kiss W1"
"988.9999999869615","","","survey-likert-extra-labels","144","1426803","0.0-52.0-3.0-0.0","618","1A","man","","","W3 is kissing W1","kiss1","rating_causation","{""Q0"":3}","[0]","W1 asked to kiss W3","W3 asked to kiss W1"
"null","Jane is teaching Dave","","html-keyboard-response","145","1428806","0.0-53.0-0.0","618","1A","man","","null","W2 is teaching M4","teach","sentence","","","",""
"1927.645000003511","","","survey-likert-extra-labels","146","1430735","0.0-53.0-2.0","618","1A","man","","","W2 is teaching M4","teach","rating_volition","{""Q0"":3}","[0]","W2 is educating M4","M4 is educating W2"
"5766.705000001937","","","survey-likert-extra-labels","147","1436504","0.0-53.0-3.0-0.0","618","1A","man","","","W2 is teaching M4","teach","rating_causation","{""Q0"":6}","[0]","W2 is learning from M4","M4 is learning from W2"
"null","Mike is talking to Beth","","html-keyboard-response","148","1438508","0.0-54.0-0.0","618","1A","man","","null","M2 is talking to W4","talk4","sentence","","","",""
"6136.829999988433","","","survey-likert-extra-labels","149","1444647","0.0-54.0-2.0","618","1A","man","","","M2 is talking to W4","talk4","rating_volition","{""Q0"":3}","[0]","M2 wanted to talk to W4","W4 wanted to talk to M2"
"2370.914999992354","","","survey-likert-extra-labels","150","1447020","0.0-54.0-3.0-0.0","618","1A","man","","","M2 is talking to W4","talk4","rating_causation","{""Q0"":3}","[0]","M2 started a conversation with W4","W4 started a conversation with M2"
"2268.6949999916833","<p>Thank you for completing that task.</p><p>The final part of this session is a short questionnaire.</p><p>Press Continue.</p>","0","html-button-response","151","1449291","0.0-55.0","618","1A","man","","","","","","","","",""
"41039.0750000081","","","survey-text","152","1491336","0.0-56.0","618","1A","man","","","","","demographics","{""Q0"":""36"",""Q1"":""English"",""Q2"":""English"",""Q3"":""England"",""Q4"":""British"",""Q5"":""African"",""Q6"":""Male""}","","",""
"2893.420000007609","<p>Have you lived in the UK for the last 5 years or more?</p>","0","html-button-response","153","1494231","0.0-57.0","618","1A","man","","","","","fiveyears","","","",""
"3408.274999994319","","","survey-text","154","1498643","0.0-58.0","618","1A","man","","","","","worker_id","{""Q0"":""5f5159109089363907f74a66""}","","",""
"5284.244999988005","","","external-html","155","1504041","0.0-59.0","618","1A","man","debrief.html","","","","","","","",""
