"rt","stimulus","button_pressed","trial_type","trial_index","time_elapsed","internal_node_id","subject","list","ppt_gender","url","key_press","sentence_type","verb","test_part","responses","question_order","left_part","right_part"
"1324.6349999681115","Welcome to the experiment. Press Continue to begin.","0","html-button-response","0","1328","0.0-0.0","63586","3B","man","","","","","","","","",""
"6715.994999976829","","","external-html","1","9095","0.0-1.0","63586","3B","man","consent.html","","","","","","","",""
"7309.484999976121","<p>Welcome.</p><p>In this experiment we will ask you to imagine some situations.</p><p>Each trial starts with a description of an event.</p><p>Then you will see alternative descriptions of that event, and you will rate on a scale how best they match the original description.</p><p>You will give your answer by clicking a button on a rating scale.</p><p>To do this task, you will have to use your imagination to visualise these events.</p><br><p>Ready?</p>","0","html-button-response","2","16407","0.0-2.0","63586","3B","man","","","","","","","","",""
"11881.560000008903","<p>Before the experiment starts, you will watch an example trial. Press 'Continue'.</p>","0","html-button-response","3","29303","0.0-3.0","63586","3B","man","","","","","","","","",""
"null","The police officer is arresting the robber","","html-keyboard-response","4","32306","0.0-4.0","63586","3B","man","","null","","","","","","",""
"7522.604999947362","<img src='img/Example-trial.jpg' style='height:550px;''></img>","0","html-button-response","5","39833","0.0-5.0","63586","3B","man","","","","","","","","",""
"10012.209999957122","<p>Ready to start the experiment?</p><br><p><strong>Remember to give an answer by clicking a button on the rating scale.</strong></p><p>Press 'Continue' to begin.</p>","0","html-button-response","6","50855","0.0-6.0","63586","3B","man","","","","","","","","",""
"null","Dave is shouting at Fred","","html-keyboard-response","7","53863","0.0-7.0-0.0","63586","3B","man","","null","M3 is shouting at M1","shout2","sentence","","","",""
"9614.25500002224","","","survey-likert-extra-labels","8","63480","0.0-7.0-1.0-0.0","63586","3B","man","","","M3 is shouting at M1","shout2","rating_causation","{""Q0"":5}","[0]","M1 shouted at M3 first","M3 shouted at M1 first"
"5827.554999967106","","","survey-likert-extra-labels","9","69312","0.0-7.0-2.0","63586","3B","man","","","M3 is shouting at M1","shout2","rating_volition","{""Q0"":4}","[0]","M1 wanted to shout at M3","M3 wanted to shout at M1"
"null","Fred is playing with Beth","","html-keyboard-response","10","71314","0.0-8.0-0.0","63586","3B","man","","null","M1 is playing with W3","play4","sentence","","","",""
"7147.395000094548","","","survey-likert-extra-labels","11","78464","0.0-8.0-1.0-0.0","63586","3B","man","","","M1 is playing with W3","play4","rating_causation","{""Q0"":1}","[0]","W3 asked to play with M1","M1 asked to play with W3"
"3532.884999993257","","","survey-likert-extra-labels","12","81999","0.0-8.0-2.0","63586","3B","man","","","M1 is playing with W3","play4","rating_volition","{""Q0"":3}","[0]","W3 wanted to play with M1","M1 wanted to play with W3"
"null","Jane is dancing with Luke","","html-keyboard-response","13","84011","0.0-9.0-0.0","63586","3B","man","","null","W4 is dancing with M2","dance4","sentence","","","",""
"49474.485000013374","","","survey-likert-extra-labels","14","133487","0.0-9.0-2.0","63586","3B","man","","","W4 is dancing with M2","dance4","rating_volition","{""Q0"":4}","[0]","M2 wanted to dance with W4","W4 wanted to dance with M2"
"4293.229999952018","","","survey-likert-extra-labels","15","137783","0.0-9.0-3.0-0.0","63586","3B","man","","","W4 is dancing with M2","dance4","rating_causation","{""Q0"":1}","[0]","M2 asked W4 to dance","W4 asked M2 to dance"
"null","Dave is talking to Fred","","html-keyboard-response","16","139786","0.0-10.0-0.0","63586","3B","man","","null","M3 is talking to M1","talk2","sentence","","","",""
"5603.680000058375","","","survey-likert-extra-labels","17","145392","0.0-10.0-1.0-0.0","63586","3B","man","","","M3 is talking to M1","talk2","rating_causation","{""Q0"":5}","[0]","M1 started a conversation with M3","M3 started a conversation with M1"
"3028.5400000866503","","","survey-likert-extra-labels","18","148424","0.0-10.0-2.0","63586","3B","man","","","M3 is talking to M1","talk2","rating_volition","{""Q0"":3}","[0]","M1 wanted to talk to M3","M3 wanted to talk to M1"
"null","Ruth is fighting with Jane","","html-keyboard-response","19","150426","0.0-11.0-0.0","63586","3B","man","","null","W2 is fighting with W4","fight1","sentence","","","",""
"4603.180000092834","","","survey-likert-extra-labels","20","155031","0.0-11.0-2.0","63586","3B","man","","","W2 is fighting with W4","fight1","rating_volition","{""Q0"":1}","[0]","W2 wanted to fight W4","W4 wanted to fight W2"
"3381.5199999371544","","","survey-likert-extra-labels","21","158415","0.0-11.0-3.0-0.0","63586","3B","man","","","W2 is fighting with W4","fight1","rating_causation","{""Q0"":3}","[0]","W2 started the fight with W4","W4 started the fight with W2"
"null","Jane is playing with Ruth","","html-keyboard-response","22","160425","0.0-12.0-0.0","63586","3B","man","","null","W4 is playing with W2","play1","sentence","","","",""
"18462.124999961816","","","survey-likert-extra-labels","23","178895","0.0-12.0-2.0","63586","3B","man","","","W4 is playing with W2","play1","rating_volition","{""Q0"":1}","[0]","W2 wanted to play with W4","W4 wanted to play with W2"
"5877.0100000547245","","","survey-likert-extra-labels","24","184775","0.0-12.0-3.0-0.0","63586","3B","man","","","W4 is playing with W2","play1","rating_causation","{""Q0"":2}","[0]","W2 asked to play with W4","W4 asked to play with W2"
"null","Dave is hiring Kate","","html-keyboard-response","25","186785","0.0-13.0-0.0","63586","3B","man","","null","M3 is hiring W1","hire","sentence","","","",""
"9860.334999975748","","","survey-likert-extra-labels","26","196647","0.0-13.0-1.0-0.0","63586","3B","man","","","M3 is hiring W1","hire","rating_causation","{""Q0"":6}","[0]","M3 will work for W1","W1 will work for M3"
"7189.119999995455","","","survey-likert-extra-labels","27","203839","0.0-13.0-2.0","63586","3B","man","","","M3 is hiring W1","hire","rating_volition","{""Q0"":2}","[0]","M3 is employing W1","W1 is employing M3"
"null","Luke is reminding Jane","","html-keyboard-response","28","205842","0.0-14.0-0.0","63586","3B","man","","null","M2 is reminding W4","remind","sentence","","","",""
"6603.969999938272","","","survey-likert-extra-labels","29","212447","0.0-14.0-2.0","63586","3B","man","","","M2 is reminding W4","remind","rating_volition","{""Q0"":1}","[0]","M2 is telling W4 again","W4 is telling M2 again"
"5452.665000106208","","","survey-likert-extra-labels","30","217903","0.0-14.0-3.0-0.0","63586","3B","man","","","M2 is reminding W4","remind","rating_causation","{""Q0"":5}","[0]","M2 is remembering","W4 is remembering"
"null","Jane is talking to Luke","","html-keyboard-response","31","219907","0.0-15.0-0.0","63586","3B","man","","null","W4 is talking to M2","talk4","sentence","","","",""
"6506.829999969341","","","survey-likert-extra-labels","32","226415","0.0-15.0-1.0-0.0","63586","3B","man","","","W4 is talking to M2","talk4","rating_causation","{""Q0"":5}","[0]","M2 started a conversation with W4","W4 started a conversation with M2"
"2861.034999950789","","","survey-likert-extra-labels","33","229279","0.0-15.0-2.0","63586","3B","man","","","W4 is talking to M2","talk4","rating_volition","{""Q0"":4}","[0]","M2 wanted to talk to W4","W4 wanted to talk to M2"
"null","Jane is flirting with Ruth","","html-keyboard-response","34","231284","0.0-16.0-0.0","63586","3B","man","","null","W4 is flirting with W2","flirt1","sentence","","","",""
"5409.184999996796","","","survey-likert-extra-labels","35","236695","0.0-16.0-2.0","63586","3B","man","","","W4 is flirting with W2","flirt1","rating_volition","{""Q0"":6}","[0]","W2 wanted to flirt with W4","W4 wanted to flirt with W2"
"4286.315000033937","","","survey-likert-extra-labels","36","240984","0.0-16.0-3.0-0.0","63586","3B","man","","","W4 is flirting with W2","flirt1","rating_causation","{""Q0"":5}","[0]","W2 started flirting with W4 first","W4 started flirting with W2 first"
"null","Beth is feeding Fred","","html-keyboard-response","37","242993","0.0-17.0-0.0","63586","3B","man","","null","W3 is feeding M1","feed","sentence","","","",""
"18444.735000026412","","","survey-likert-extra-labels","38","261439","0.0-17.0-2.0","63586","3B","man","","","W3 is feeding M1","feed","rating_volition","{""Q0"":0}","[0]","W3 is giving M1 food","M1 is giving W3 food"
"33565.24499994703","","","survey-likert-extra-labels","39","295008","0.0-17.0-3.0-0.0","63586","3B","man","","","W3 is feeding M1","feed","rating_causation","{""Q0"":5}","[0]","W3 is eating M1's food","M1 is eating W3's food"
"null","Ruth is kissing Mike","","html-keyboard-response","40","297026","0.0-18.0-0.0","63586","3B","man","","null","W2 is kissing M4","kiss4","sentence","","","",""
"3293.2899999432266","","","survey-likert-extra-labels","41","300321","0.0-18.0-1.0-0.0","63586","3B","man","","","W2 is kissing M4","kiss4","rating_causation","{""Q0"":3}","[0]","W2 asked to kiss M4","M4 asked to kiss W2"
"4195.8700000541285","","","survey-likert-extra-labels","42","304519","0.0-18.0-2.0","63586","3B","man","","","W2 is kissing M4","kiss4","rating_volition","{""Q0"":1}","[0]","W2 wanted to kiss M4","M4 wanted to kiss W2"
"null","Kate is touching Dave","","html-keyboard-response","43","306522","0.0-19.0-0.0","63586","3B","man","","null","W1 is touching M3","touch4","sentence","","","",""
"5787.735000019893","","","survey-likert-extra-labels","44","312312","0.0-19.0-2.0","63586","3B","man","","","W1 is touching M3","touch4","rating_volition","{""Q0"":5}","[0]","M3 wanted to touch W1","W1 wanted to touch M3"
"11029.280000017025","","","survey-likert-extra-labels","45","323343","0.0-19.0-3.0-0.0","63586","3B","man","","","W1 is touching M3","touch4","rating_causation","{""Q0"":4}","[0]","M3 asked to touch W1","W1 asked to touch M3"
"null","Fred is driving Dave","","html-keyboard-response","46","325355","0.0-20.0-0.0","63586","3B","man","","null","M1 is driving M3","drive","sentence","","","",""
"10387.54499994684","","","survey-likert-extra-labels","47","335744","0.0-20.0-1.0-0.0","63586","3B","man","","","M1 is driving M3","drive","rating_causation","{""Q0"":6}","[0]","M3 is taking M1 somewhere","M1 is taking M3 somewhere"
"4155.599999940023","","","survey-likert-extra-labels","48","339903","0.0-20.0-2.0","63586","3B","man","","","M1 is driving M3","drive","rating_volition","{""Q0"":0}","[0]","M3 is M1's passenger","M1 is M3's passenger"
"null","Ruth is marrying Jane","","html-keyboard-response","49","341906","0.0-21.0-0.0","63586","3B","man","","null","W2 is marrying W4","marry1","sentence","","","",""
"6635.81999996677","","","survey-likert-extra-labels","50","348543","0.0-21.0-1.0-0.0","63586","3B","man","","","W2 is marrying W4","marry1","rating_causation","{""Q0"":2}","[0]","W2 asked to marry W4","W4 asked to marry W2"
"3925.924999988638","","","survey-likert-extra-labels","51","352471","0.0-21.0-2.0","63586","3B","man","","","W2 is marrying W4","marry1","rating_volition","{""Q0"":1}","[0]","W2 wanted to marry W4","W4 wanted to marry W2"
"null","Beth is marrying Fred","","html-keyboard-response","52","354475","0.0-22.0-0.0","63586","3B","man","","null","W3 is marrying M1","marry4","sentence","","","",""
"6394.725000020117","","","survey-likert-extra-labels","53","360872","0.0-22.0-2.0","63586","3B","man","","","W3 is marrying M1","marry4","rating_volition","{""Q0"":2}","[0]","W3 wanted to marry M1","M1 wanted to marry W3"
"2828.8949999259785","","","survey-likert-extra-labels","54","363703","0.0-22.0-3.0-0.0","63586","3B","man","","","W3 is marrying M1","marry4","rating_causation","{""Q0"":2}","[0]","W3 asked to marry M1","M1 asked to marry W3"
"null","Luke is posing for Mike","","html-keyboard-response","55","365706","0.0-23.0-0.0","63586","3B","man","","null","M2 is posing for M4","pose","sentence","","","",""
"7155.380000011064","","","survey-likert-extra-labels","56","372863","0.0-23.0-2.0","63586","3B","man","","","M2 is posing for M4","pose","rating_volition","{""Q0"":1}","[0]","M2 is modelling for M4","M4 is modelling for M2"
"4933.589999913238","","","survey-likert-extra-labels","57","377800","0.0-23.0-3.0-0.0","63586","3B","man","","","M2 is posing for M4","pose","rating_causation","{""Q0"":5}","[0]","M2 is photographing M4","M4 is photographing M2"
"null","Dave is dancing with Fred","","html-keyboard-response","58","379806","0.0-24.0-0.0","63586","3B","man","","null","M3 is dancing with M1","dance2","sentence","","","",""
"16175.915000028908","","","survey-likert-extra-labels","59","395984","0.0-24.0-2.0","63586","3B","man","","","M3 is dancing with M1","dance2","rating_volition","{""Q0"":5}","[0]","M1 wanted to dance with M3","M3 wanted to dance with M1"
"19236.764999921434","","","survey-likert-extra-labels","60","415224","0.0-24.0-3.0-0.0","63586","3B","man","","","M3 is dancing with M1","dance2","rating_causation","{""Q0"":5}","[0]","M1 asked M3 to dance","M3 asked M1 to dance"
"null","Luke is marrying Mike","","html-keyboard-response","61","417226","0.0-25.0-0.0","63586","3B","man","","null","M2 is marrying M4","marry2","sentence","","","",""
"1843.7200000043958","","","survey-likert-extra-labels","62","419072","0.0-25.0-2.0","63586","3B","man","","","M2 is marrying M4","marry2","rating_volition","{""Q0"":1}","[0]","M2 wanted to marry M4","M4 wanted to marry M2"
"1728.4199999412522","","","survey-likert-extra-labels","63","420803","0.0-25.0-3.0-0.0","63586","3B","man","","","M2 is marrying M4","marry2","rating_causation","{""Q0"":2}","[0]","M2 asked to marry M4","M4 asked to marry M2"
"null","Luke is arguing with Jane","","html-keyboard-response","64","422806","0.0-26.0-0.0","63586","3B","man","","null","M2 is arguing with W4","argue4","sentence","","","",""
"11567.760000005364","","","survey-likert-extra-labels","65","434376","0.0-26.0-1.0-0.0","63586","3B","man","","","M2 is arguing with W4","argue4","rating_causation","{""Q0"":1}","[0]","M2 started an argument with W4","W4 started an argument with M2"
"3941.2699999520555","","","survey-likert-extra-labels","66","438320","0.0-26.0-2.0","63586","3B","man","","","M2 is arguing with W4","argue4","rating_volition","{""Q0"":3}","[0]","M2 wanted to argue with W4","W4 wanted to argue with M2"
"null","Fred is arguing with Dave","","html-keyboard-response","67","440323","0.0-27.0-0.0","63586","3B","man","","null","M1 is arguing with M3","argue2","sentence","","","",""
"3178.3350000623614","","","survey-likert-extra-labels","68","443503","0.0-27.0-2.0","63586","3B","man","","","M1 is arguing with M3","argue2","rating_volition","{""Q0"":1}","[0]","M1 wanted to argue with M3","M3 wanted to argue with M1"
"1276.9299999345094","","","survey-likert-extra-labels","69","444783","0.0-27.0-3.0-0.0","63586","3B","man","","","M1 is arguing with M3","argue2","rating_causation","{""Q0"":3}","[0]","M1 started an argument with M3","M3 started an argument with M1"
"null","Kate is playing with Dave","","html-keyboard-response","70","446786","0.0-28.0-0.0","63586","3B","man","","null","W1 is playing with M3","play3","sentence","","","",""
"5411.644999985583","","","survey-likert-extra-labels","71","452199","0.0-28.0-1.0-0.0","63586","3B","man","","","W1 is playing with M3","play3","rating_causation","{""Q0"":2}","[0]","M3 asked to play with W1","W1 asked to play with M3"
"4373.544999980368","","","survey-likert-extra-labels","72","456576","0.0-28.0-2.0","63586","3B","man","","","W1 is playing with M3","play3","rating_volition","{""Q0"":4}","[0]","M3 wanted to play with W1","W1 wanted to play with M3"
"null","Ruth is teaching Mike","","html-keyboard-response","73","458593","0.0-29.0-0.0","63586","3B","man","","null","W2 is teaching M4","teach","sentence","","","",""
"7845.229999977164","","","survey-likert-extra-labels","74","466439","0.0-29.0-2.0","63586","3B","man","","","W2 is teaching M4","teach","rating_volition","{""Q0"":0}","[0]","W2 is educating M4","M4 is educating W2"
"2533.4949999814853","","","survey-likert-extra-labels","75","468976","0.0-29.0-3.0-0.0","63586","3B","man","","","W2 is teaching M4","teach","rating_causation","{""Q0"":6}","[0]","W2 is learning from M4","M4 is learning from W2"
"null","Beth is dancing with Kate","","html-keyboard-response","76","470978","0.0-30.0-0.0","63586","3B","man","","null","W3 is dancing with W1","dance1","sentence","","","",""
"4092.4300000770018","","","survey-likert-extra-labels","77","475072","0.0-30.0-2.0","63586","3B","man","","","W3 is dancing with W1","dance1","rating_volition","{""Q0"":5}","[0]","W1 wanted to dance with W3","W3 wanted to dance with W1"
"14492.81000008341","","","survey-likert-extra-labels","78","489568","0.0-30.0-3.0-0.0","63586","3B","man","","","W3 is dancing with W1","dance1","rating_causation","{""Q0"":5}","[0]","W1 asked W3 to dance","W3 asked W1 to dance"
"null","Luke is kissing Jane","","html-keyboard-response","79","491572","0.0-31.0-0.0","63586","3B","man","","null","M2 is kissing W4","kiss3","sentence","","","",""
"2762.3250000178814","","","survey-likert-extra-labels","80","494336","0.0-31.0-1.0-0.0","63586","3B","man","","","M2 is kissing W4","kiss3","rating_causation","{""Q0"":3}","[0]","M2 asked to kiss W4","W4 asked to kiss M2"
"3348.3450000640005","","","survey-likert-extra-labels","81","497687","0.0-31.0-2.0","63586","3B","man","","","M2 is kissing W4","kiss3","rating_volition","{""Q0"":1}","[0]","M2 wanted to kiss W4","W4 wanted to kiss M2"
"null","Luke is fighting with Mike","","html-keyboard-response","82","499708","0.0-32.0-0.0","63586","3B","man","","null","M2 is fighting with M4","fight2","sentence","","","",""
"31958.020000020042","","","survey-likert-extra-labels","83","531672","0.0-32.0-2.0","63586","3B","man","","","M2 is fighting with M4","fight2","rating_volition","{""Q0"":0}","[0]","M2 wanted to fight M4","M4 wanted to fight M2"
"3404.2249999474734","","","survey-likert-extra-labels","84","535080","0.0-32.0-3.0-0.0","63586","3B","man","","","M2 is fighting with M4","fight2","rating_causation","{""Q0"":1}","[0]","M2 started the fight with M4","M4 started the fight with M2"
"null","Mike is flirting with Luke","","html-keyboard-response","85","537084","0.0-33.0-0.0","63586","3B","man","","null","M4 is flirting with M2","flirt2","sentence","","","",""
"2282.4000000255182","","","survey-likert-extra-labels","86","539368","0.0-33.0-1.0-0.0","63586","3B","man","","","M4 is flirting with M2","flirt2","rating_causation","{""Q0"":6}","[0]","M2 started flirting with M4 first","M4 started flirting with M2 first"
"3637.5649999827147","","","survey-likert-extra-labels","87","543008","0.0-33.0-2.0","63586","3B","man","","","M4 is flirting with M2","flirt2","rating_volition","{""Q0"":6}","[0]","M2 wanted to flirt with M4","M4 wanted to flirt with M2"
"null","Kate is kissing Beth","","html-keyboard-response","88","545012","0.0-34.0-0.0","63586","3B","man","","null","W1 is kissing W3","kiss1","sentence","","","",""
"8354.330000001937","","","survey-likert-extra-labels","89","553368","0.0-34.0-2.0","63586","3B","man","","","W1 is kissing W3","kiss1","rating_volition","{""Q0"":1}","[0]","W1 wanted to kiss W3","W3 wanted to kiss W1"
"1365.0849999394268","","","survey-likert-extra-labels","90","554736","0.0-34.0-3.0-0.0","63586","3B","man","","","W1 is kissing W3","kiss1","rating_causation","{""Q0"":2}","[0]","W1 asked to kiss W3","W3 asked to kiss W1"
"null","Jane is shouting at Luke","","html-keyboard-response","91","556743","0.0-35.0-0.0","63586","3B","man","","null","W4 is shouting at M2","shout3","sentence","","","",""
"7039.150000084192","","","survey-likert-extra-labels","92","563783","0.0-35.0-2.0","63586","3B","man","","","W4 is shouting at M2","shout3","rating_volition","{""Q0"":5}","[0]","M2 wanted to shout at W4","W4 wanted to shout at M2"
"5364.969999995083","","","survey-likert-extra-labels","93","569152","0.0-35.0-3.0-0.0","63586","3B","man","","","W4 is shouting at M2","shout3","rating_causation","{""Q0"":5}","[0]","M2 shouted at W4 first","W4 shouted at M2 first"
"null","Kate is arguing with Beth","","html-keyboard-response","94","571155","0.0-36.0-0.0","63586","3B","man","","null","W1 is arguing with W3","argue1","sentence","","","",""
"22859.219999983907","","","survey-likert-extra-labels","95","594016","0.0-36.0-1.0-0.0","63586","3B","man","","","W1 is arguing with W3","argue1","rating_causation","{""Q0"":1}","[0]","W1 started an argument with W3","W3 started an argument with W1"
"2829.0300000226125","","","survey-likert-extra-labels","96","596848","0.0-36.0-2.0","63586","3B","man","","","W1 is arguing with W3","argue1","rating_volition","{""Q0"":1}","[0]","W1 wanted to argue with W3","W3 wanted to argue with W1"
"null","Fred is touching Beth","","html-keyboard-response","97","598851","0.0-37.0-0.0","63586","3B","man","","null","M1 is touching W3","touch3","sentence","","","",""
"2746.9799999380484","","","survey-likert-extra-labels","98","601600","0.0-37.0-1.0-0.0","63586","3B","man","","","M1 is touching W3","touch3","rating_causation","{""Q0"":5}","[0]","W3 asked to touch M1","M1 asked to touch W3"
"4957.820000010543","","","survey-likert-extra-labels","99","606559","0.0-37.0-2.0","63586","3B","man","","","M1 is touching W3","touch3","rating_volition","{""Q0"":4}","[0]","W3 wanted to touch M1","M1 wanted to touch W3"
"null","Kate is flirting with Dave","","html-keyboard-response","100","608567","0.0-38.0-0.0","63586","3B","man","","null","W1 is flirting with M3","flirt4","sentence","","","",""
"2670.824999921024","","","survey-likert-extra-labels","101","611240","0.0-38.0-1.0-0.0","63586","3B","man","","","W1 is flirting with M3","flirt4","rating_causation","{""Q0"":6}","[0]","M3 started flirting with W1 first","W1 started flirting with M3 first"
"1461.0149998916313","","","survey-likert-extra-labels","102","612704","0.0-38.0-2.0","63586","3B","man","","","W1 is flirting with M3","flirt4","rating_volition","{""Q0"":6}","[0]","M3 wanted to flirt with W1","W1 wanted to flirt with M3"
"null","Ruth is arguing with Mike","","html-keyboard-response","103","614706","0.0-39.0-0.0","63586","3B","man","","null","W2 is arguing with M4","argue3","sentence","","","",""
"4603.884999989532","","","survey-likert-extra-labels","104","619312","0.0-39.0-1.0-0.0","63586","3B","man","","","W2 is arguing with M4","argue3","rating_causation","{""Q0"":1}","[0]","W2 started an argument with M4","M4 started an argument with W2"
"2411.75500000827","","","survey-likert-extra-labels","105","621728","0.0-39.0-2.0","63586","3B","man","","","W2 is arguing with M4","argue3","rating_volition","{""Q0"":2}","[0]","W2 wanted to argue with M4","M4 wanted to argue with W2"
"null","Ruth is carrying Jane","","html-keyboard-response","106","623745","0.0-40.0-0.0","63586","3B","man","","null","W2 is carrying W4","carry","sentence","","","",""
"3357.380000059493","","","survey-likert-extra-labels","107","627104","0.0-40.0-2.0","63586","3B","man","","","W2 is carrying W4","carry","rating_volition","{""Q0"":0}","[0]","W2 is transporting W4","W4 is transporting W2"
"3644.8099999688566","","","survey-likert-extra-labels","108","630752","0.0-40.0-3.0-0.0","63586","3B","man","","","W2 is carrying W4","carry","rating_causation","{""Q0"":6}","[0]","W2 is being moved by W4","W4 is being moved by W2"
"null","Mike is shouting at Ruth","","html-keyboard-response","109","632754","0.0-41.0-0.0","63586","3B","man","","null","M4 is shouting at W2","shout4","sentence","","","",""
"7060.78499997966","","","survey-likert-extra-labels","110","639816","0.0-41.0-1.0-0.0","63586","3B","man","","","M4 is shouting at W2","shout4","rating_causation","{""Q0"":5}","[0]","W2 shouted at M4 first","M4 shouted at W2 first"
"2780.3749999729916","","","survey-likert-extra-labels","111","642599","0.0-41.0-2.0","63586","3B","man","","","M4 is shouting at W2","shout4","rating_volition","{""Q0"":4}","[0]","W2 wanted to shout at M4","M4 wanted to shout at W2"
"null","Beth is shouting at Kate","","html-keyboard-response","112","644603","0.0-42.0-0.0","63586","3B","man","","null","W3 is shouting at W1","shout1","sentence","","","",""
"2467.854999937117","","","survey-likert-extra-labels","113","647072","0.0-42.0-2.0","63586","3B","man","","","W3 is shouting at W1","shout1","rating_volition","{""Q0"":4}","[0]","W1 wanted to shout at W3","W3 wanted to shout at W1"
"1668.790000025183","","","survey-likert-extra-labels","114","648743","0.0-42.0-3.0-0.0","63586","3B","man","","","W3 is shouting at W1","shout1","rating_causation","{""Q0"":5}","[0]","W1 shouted at W3 first","W3 shouted at W1 first"
"null","Fred is kissing Dave","","html-keyboard-response","115","650751","0.0-43.0-0.0","63586","3B","man","","null","M1 is kissing M3","kiss2","sentence","","","",""
"4102.76999999769","","","survey-likert-extra-labels","116","654855","0.0-43.0-2.0","63586","3B","man","","","M1 is kissing M3","kiss2","rating_volition","{""Q0"":1}","[0]","M1 wanted to kiss M3","M3 wanted to kiss M1"
"2037.529999972321","","","survey-likert-extra-labels","117","656896","0.0-43.0-3.0-0.0","63586","3B","man","","","M1 is kissing M3","kiss2","rating_causation","{""Q0"":2}","[0]","M1 asked to kiss M3","M3 asked to kiss M1"
"null","Dave is marrying Kate","","html-keyboard-response","118","658906","0.0-44.0-0.0","63586","3B","man","","null","M3 is marrying W1","marry3","sentence","","","",""
"2963.535000104457","","","survey-likert-extra-labels","119","661872","0.0-44.0-1.0-0.0","63586","3B","man","","","M3 is marrying W1","marry3","rating_causation","{""Q0"":1}","[0]","M3 asked to marry W1","W1 asked to marry M3"
"2133.56499990914","","","survey-likert-extra-labels","120","664008","0.0-44.0-2.0","63586","3B","man","","","M3 is marrying W1","marry3","rating_volition","{""Q0"":2}","[0]","M3 wanted to marry W1","W1 wanted to marry M3"
"null","Dave is fighting with Kate","","html-keyboard-response","121","666015","0.0-45.0-0.0","63586","3B","man","","null","M3 is fighting with W1","fight4","sentence","","","",""
"2454.5149999903515","","","survey-likert-extra-labels","122","668472","0.0-45.0-2.0","63586","3B","man","","","M3 is fighting with W1","fight4","rating_volition","{""Q0"":1}","[0]","M3 wanted to fight W1","W1 wanted to fight M3"
"1813.774999929592","","","survey-likert-extra-labels","123","670288","0.0-45.0-3.0-0.0","63586","3B","man","","","M3 is fighting with W1","fight4","rating_causation","{""Q0"":2}","[0]","M3 started the fight with W1","W1 started the fight with M3"
"null","Mike is touching Luke","","html-keyboard-response","124","672290","0.0-46.0-0.0","63586","3B","man","","null","M4 is touching M2","touch2","sentence","","","",""
"3380.6049999548122","","","survey-likert-extra-labels","125","675673","0.0-46.0-1.0-0.0","63586","3B","man","","","M4 is touching M2","touch2","rating_causation","{""Q0"":4}","[0]","M2 asked to touch M4","M4 asked to touch M2"
"2259.360000025481","","","survey-likert-extra-labels","126","677936","0.0-46.0-2.0","63586","3B","man","","","M4 is touching M2","touch2","rating_volition","{""Q0"":5}","[0]","M2 wanted to touch M4","M4 wanted to touch M2"
"null","Beth is fighting with Fred","","html-keyboard-response","127","679938","0.0-47.0-0.0","63586","3B","man","","null","W3 is fighting with M1","fight3","sentence","","","",""
"2636.36999996379","","","survey-likert-extra-labels","128","682576","0.0-47.0-1.0-0.0","63586","3B","man","","","W3 is fighting with M1","fight3","rating_causation","{""Q0"":1}","[0]","W3 started the fight with M1","M1 started the fight with W3"
"1244.4950001081452","","","survey-likert-extra-labels","129","683823","0.0-47.0-2.0","63586","3B","man","","","W3 is fighting with M1","fight3","rating_volition","{""Q0"":2}","[0]","W3 wanted to fight M1","M1 wanted to fight W3"
"null","Beth is talking to Kate","","html-keyboard-response","130","685832","0.0-48.0-0.0","63586","3B","man","","null","W3 is talking to W1","talk1","sentence","","","",""
"3157.4049999471754","","","survey-likert-extra-labels","131","688992","0.0-48.0-1.0-0.0","63586","3B","man","","","W3 is talking to W1","talk1","rating_causation","{""Q0"":5}","[0]","W1 started a conversation with W3","W3 started a conversation with W1"
"1701.1049999855459","","","survey-likert-extra-labels","132","690695","0.0-48.0-2.0","63586","3B","man","","","W3 is talking to W1","talk1","rating_volition","{""Q0"":4}","[0]","W1 wanted to talk to W3","W3 wanted to talk to W1"
"null","Mike is talking to Ruth","","html-keyboard-response","133","692709","0.0-49.0-0.0","63586","3B","man","","null","M4 is talking to W2","talk3","sentence","","","",""
"4240.879999939352","","","survey-likert-extra-labels","134","696952","0.0-49.0-1.0-0.0","63586","3B","man","","","M4 is talking to W2","talk3","rating_causation","{""Q0"":5}","[0]","W2 started a conversation with M4","M4 started a conversation with W2"
"2429.134999983944","","","survey-likert-extra-labels","135","699383","0.0-49.0-2.0","63586","3B","man","","","M4 is talking to W2","talk3","rating_volition","{""Q0"":5}","[0]","W2 wanted to talk to M4","M4 wanted to talk to W2"
"null","Mike is playing with Luke","","html-keyboard-response","136","701389","0.0-50.0-0.0","63586","3B","man","","null","M4 is playing with M2","play2","sentence","","","",""
"2872.8399999672547","","","survey-likert-extra-labels","137","704264","0.0-50.0-1.0-0.0","63586","3B","man","","","M4 is playing with M2","play2","rating_causation","{""Q0"":0}","[0]","M2 asked to play with M4","M4 asked to play with M2"
"3733.310000039637","","","survey-likert-extra-labels","138","707999","0.0-50.0-2.0","63586","3B","man","","","M4 is playing with M2","play2","rating_volition","{""Q0"":5}","[0]","M2 wanted to play with M4","M4 wanted to play with M2"
"null","Fred is flirting with Beth","","html-keyboard-response","139","710002","0.0-51.0-0.0","63586","3B","man","","null","M1 is flirting with W3","flirt3","sentence","","","",""
"7603.9050000254065","","","survey-likert-extra-labels","140","717608","0.0-51.0-1.0-0.0","63586","3B","man","","","M1 is flirting with W3","flirt3","rating_causation","{""Q0"":5}","[0]","W3 started flirting with M1 first","M1 started flirting with W3 first"
"2291.4749999763444","","","survey-likert-extra-labels","141","719903","0.0-51.0-2.0","63586","3B","man","","","M1 is flirting with W3","flirt3","rating_volition","{""Q0"":5}","[0]","W3 wanted to flirt with M1","M1 wanted to flirt with W3"
"null","Kate is chasing Beth","","html-keyboard-response","142","721905","0.0-52.0-0.0","63586","3B","man","","null","W1 is chasing W3","chase","sentence","","","",""
"3813.2149999728426","","","survey-likert-extra-labels","143","725720","0.0-52.0-1.0-0.0","63586","3B","man","","","W1 is chasing W3","chase","rating_causation","{""Q0"":6}","[0]","W1 is running away from W3","W3 is running away from W1"
"3733.0400000791997","","","survey-likert-extra-labels","144","729456","0.0-52.0-2.0","63586","3B","man","","","W1 is chasing W3","chase","rating_volition","{""Q0"":0}","[0]","W1 is behind W3","W3 is behind W1"
"null","Mike is dancing with Ruth","","html-keyboard-response","145","731458","0.0-53.0-0.0","63586","3B","man","","null","M4 is dancing with W2","dance3","sentence","","","",""
"4179.520000005141","","","survey-likert-extra-labels","146","735639","0.0-53.0-2.0","63586","3B","man","","","M4 is dancing with W2","dance3","rating_volition","{""Q0"":5}","[0]","W2 wanted to dance with M4","M4 wanted to dance with W2"
"2333.8699999731034","","","survey-likert-extra-labels","147","737976","0.0-53.0-3.0-0.0","63586","3B","man","","","M4 is dancing with W2","dance3","rating_causation","{""Q0"":5}","[0]","W2 asked M4 to dance","M4 asked W2 to dance"
"null","Jane is touching Ruth","","html-keyboard-response","148","739978","0.0-54.0-0.0","63586","3B","man","","null","W4 is touching W2","touch1","sentence","","","",""
"5315.579999936745","","","survey-likert-extra-labels","149","745295","0.0-54.0-2.0","63586","3B","man","","","W4 is touching W2","touch1","rating_volition","{""Q0"":6}","[0]","W2 wanted to touch W4","W4 wanted to touch W2"
"1421.3699999963865","","","survey-likert-extra-labels","150","746719","0.0-54.0-3.0-0.0","63586","3B","man","","","W4 is touching W2","touch1","rating_causation","{""Q0"":5}","[0]","W2 asked to touch W4","W4 asked to touch W2"
"1677.335000014864","<p>Thank you for completing that task.</p><p>The final part of this session is a short questionnaire.</p><p>Press Continue.</p>","0","html-button-response","151","748399","0.0-55.0","63586","3B","man","","","","","","","","",""
"23818.349999957718","","","survey-text","152","773226","0.0-56.0","63586","3B","man","","","","","demographics","{""Q0"":""21"",""Q1"":""English"",""Q2"":""English"",""Q3"":""United Kingdom"",""Q4"":""British"",""Q5"":""White British"",""Q6"":""Male""}","","",""
"1266.3600000087172","<p>Have you lived in the UK for the last 5 years or more?</p>","0","html-button-response","153","774495","0.0-57.0","63586","3B","man","","","","","fiveyears","","","",""
"6252.314999932423","","","survey-text","154","781751","0.0-58.0","63586","3B","man","","","","","worker_id","{""Q0"":""5f60d8caba1ab304f1fe19eb""}","","",""
"12529.830000014044","","","external-html","155","794423","0.0-59.0","63586","3B","man","debrief.html","","","","","","","",""
