"rt","stimulus","button_pressed","trial_type","trial_index","time_elapsed","internal_node_id","subject","list","ppt_gender","url","key_press","sentence_type","verb","test_part","responses","question_order","left_part","right_part"
"1988.1399999999303","Welcome to the experiment. Press Continue to begin.","0","html-button-response","0","1992","0.0-0.0","80628","3A","woman","","","","","","","","",""
"66171.6","","","external-html","1","69251","0.0-1.0","80628","3A","woman","consent.html","","","","","","","",""
"10484.43500000007","<p>Welcome.</p><p>In this experiment we will ask you to imagine some situations.</p><p>Each trial starts with a description of an event.</p><p>Then you will see alternative descriptions of that event, and you will rate on a scale how best they match the original description.</p><p>You will give your answer by clicking a button on a rating scale.</p><p>To do this task, you will have to use your imagination to visualise these events.</p><br><p>Ready?</p>","0","html-button-response","2","79738","0.0-2.0","80628","3A","woman","","","","","","","","",""
"14786.719999999943","<p>Before the experiment starts, you will watch an example trial. Press 'Continue'.</p>","0","html-button-response","3","95534","0.0-3.0","80628","3A","woman","","","","","","","","",""
"null","The police officer is arresting the robber","","html-keyboard-response","4","98550","0.0-4.0","80628","3A","woman","","null","","","","","","",""
"11100.209999999948","<img src='img/Example-trial.jpg' style='height:550px;''></img>","0","html-button-response","5","109652","0.0-5.0","80628","3A","woman","","","","","","","","",""
"4181.629999999917","<p>Ready to start the experiment?</p><br><p><strong>Remember to give an answer by clicking a button on the rating scale.</strong></p><p>Press 'Continue' to begin.</p>","0","html-button-response","6","114845","0.0-6.0","80628","3A","woman","","","","","","","","",""
"null","Beth is flirting with Jane","","html-keyboard-response","7","117865","0.0-7.0-0.0","80628","3A","woman","","null","W4 is flirting with W2","flirt1","sentence","","","",""
"9838.740000000034","","","survey-likert-extra-labels","8","127737","0.0-7.0-1.0-0.0","80628","3A","woman","","","W4 is flirting with W2","flirt1","rating_causation","{""Q0"":3}","[0]","W2 started flirting with W4 first","W4 started flirting with W2 first"
"12823.544999999955","","","survey-likert-extra-labels","9","140568","0.0-7.0-2.0","80628","3A","woman","","","W4 is flirting with W2","flirt1","rating_volition","{""Q0"":5}","[0]","W2 wanted to flirt with W4","W4 wanted to flirt with W2"
"null","Ruth is chasing Kate","","html-keyboard-response","10","142589","0.0-8.0-0.0","80628","3A","woman","","null","W1 is chasing W3","chase","sentence","","","",""
"9607.519999999931","","","survey-likert-extra-labels","11","152198","0.0-8.0-1.0-0.0","80628","3A","woman","","","W1 is chasing W3","chase","rating_causation","{""Q0"":6}","[0]","W1 is running away from W3","W3 is running away from W1"
"9516.584999999963","","","survey-likert-extra-labels","12","161723","0.0-8.0-2.0","80628","3A","woman","","","W1 is chasing W3","chase","rating_volition","{""Q0"":0}","[0]","W1 is behind W3","W3 is behind W1"
"null","Kate is marrying Luke","","html-keyboard-response","13","163734","0.0-9.0-0.0","80628","3A","woman","","null","W3 is marrying M1","marry4","sentence","","","",""
"7442.91499999995","","","survey-likert-extra-labels","14","171179","0.0-9.0-2.0","80628","3A","woman","","","W3 is marrying M1","marry4","rating_volition","{""Q0"":3}","[0]","W3 wanted to marry M1","M1 wanted to marry W3"
"5883.939999999915","","","survey-likert-extra-labels","15","177071","0.0-9.0-3.0-0.0","80628","3A","woman","","","W3 is marrying M1","marry4","rating_causation","{""Q0"":3}","[0]","W3 asked to marry M1","M1 asked to marry W3"
"null","Kate is shouting at Ruth","","html-keyboard-response","16","179085","0.0-10.0-0.0","80628","3A","woman","","null","W3 is shouting at W1","shout1","sentence","","","",""
"5182.360000000015","","","survey-likert-extra-labels","17","184269","0.0-10.0-1.0-0.0","80628","3A","woman","","","W3 is shouting at W1","shout1","rating_causation","{""Q0"":3}","[0]","W1 shouted at W3 first","W3 shouted at W1 first"
"10994.224999999919","","","survey-likert-extra-labels","18","195270","0.0-10.0-2.0","80628","3A","woman","","","W3 is shouting at W1","shout1","rating_volition","{""Q0"":5}","[0]","W1 wanted to shout at W3","W3 wanted to shout at W1"
"null","Fred is marrying Ruth","","html-keyboard-response","19","197285","0.0-11.0-0.0","80628","3A","woman","","null","M3 is marrying W1","marry3","sentence","","","",""
"5635.629999999976","","","survey-likert-extra-labels","20","202923","0.0-11.0-2.0","80628","3A","woman","","","M3 is marrying W1","marry3","rating_volition","{""Q0"":3}","[0]","M3 wanted to marry W1","W1 wanted to marry M3"
"9456.525000000052","","","survey-likert-extra-labels","21","212390","0.0-11.0-3.0-0.0","80628","3A","woman","","","M3 is marrying W1","marry3","rating_causation","{""Q0"":1}","[0]","M3 asked to marry W1","W1 asked to marry M3"
"null","Luke is flirting with Kate","","html-keyboard-response","22","214400","0.0-12.0-0.0","80628","3A","woman","","null","M1 is flirting with W3","flirt3","sentence","","","",""
"8786.970000000001","","","survey-likert-extra-labels","23","223189","0.0-12.0-2.0","80628","3A","woman","","","M1 is flirting with W3","flirt3","rating_volition","{""Q0"":5}","[0]","W3 wanted to flirt with M1","M1 wanted to flirt with W3"
"6533.370000000112","","","survey-likert-extra-labels","24","229730","0.0-12.0-3.0-0.0","80628","3A","woman","","","M1 is flirting with W3","flirt3","rating_causation","{""Q0"":5}","[0]","W3 started flirting with M1 first","M1 started flirting with W3 first"
"null","Dave is flirting with Mike","","html-keyboard-response","25","231743","0.0-13.0-0.0","80628","3A","woman","","null","M4 is flirting with M2","flirt2","sentence","","","",""
"7804.975000000006","","","survey-likert-extra-labels","26","239550","0.0-13.0-2.0","80628","3A","woman","","","M4 is flirting with M2","flirt2","rating_volition","{""Q0"":5}","[0]","M2 wanted to flirt with M4","M4 wanted to flirt with M2"
"7191.804999999935","","","survey-likert-extra-labels","27","246749","0.0-13.0-3.0-0.0","80628","3A","woman","","","M4 is flirting with M2","flirt2","rating_causation","{""Q0"":5}","[0]","M2 started flirting with M4 first","M4 started flirting with M2 first"
"null","Dave is dancing with Jane","","html-keyboard-response","28","248763","0.0-14.0-0.0","80628","3A","woman","","null","M4 is dancing with W2","dance3","sentence","","","",""
"7350.25499999983","","","survey-likert-extra-labels","29","256115","0.0-14.0-2.0","80628","3A","woman","","","M4 is dancing with W2","dance3","rating_volition","{""Q0"":3}","[0]","W2 wanted to dance with M4","M4 wanted to dance with W2"
"8275.77499999982","","","survey-likert-extra-labels","30","264399","0.0-14.0-3.0-0.0","80628","3A","woman","","","M4 is dancing with W2","dance3","rating_causation","{""Q0"":3}","[0]","W2 asked M4 to dance","M4 asked W2 to dance"
"null","Fred is shouting at Luke","","html-keyboard-response","31","266416","0.0-15.0-0.0","80628","3A","woman","","null","M3 is shouting at M1","shout2","sentence","","","",""
"9511.744999999995","","","survey-likert-extra-labels","32","275930","0.0-15.0-1.0-0.0","80628","3A","woman","","","M3 is shouting at M1","shout2","rating_causation","{""Q0"":5}","[0]","M1 shouted at M3 first","M3 shouted at M1 first"
"7952.610000000044","","","survey-likert-extra-labels","33","283891","0.0-15.0-2.0","80628","3A","woman","","","M3 is shouting at M1","shout2","rating_volition","{""Q0"":3}","[0]","M1 wanted to shout at M3","M3 wanted to shout at M1"
"null","Beth is shouting at Mike","","html-keyboard-response","34","285906","0.0-16.0-0.0","80628","3A","woman","","null","W4 is shouting at M2","shout3","sentence","","","",""
"8110.895000000077","","","survey-likert-extra-labels","35","294020","0.0-16.0-2.0","80628","3A","woman","","","W4 is shouting at M2","shout3","rating_volition","{""Q0"":5}","[0]","M2 wanted to shout at W4","W4 wanted to shout at M2"
"9329.695000000123","","","survey-likert-extra-labels","36","303356","0.0-16.0-3.0-0.0","80628","3A","woman","","","W4 is shouting at M2","shout3","rating_causation","{""Q0"":4}","[0]","M2 shouted at W4 first","W4 shouted at M2 first"
"null","Beth is talking to Mike","","html-keyboard-response","37","305371","0.0-17.0-0.0","80628","3A","woman","","null","W4 is talking to M2","talk4","sentence","","","",""
"8067.465000000084","","","survey-likert-extra-labels","38","313441","0.0-17.0-2.0","80628","3A","woman","","","W4 is talking to M2","talk4","rating_volition","{""Q0"":3}","[0]","M2 wanted to talk to W4","W4 wanted to talk to M2"
"5569.369999999937","","","survey-likert-extra-labels","39","319017","0.0-17.0-3.0-0.0","80628","3A","woman","","","W4 is talking to M2","talk4","rating_causation","{""Q0"":5}","[0]","M2 started a conversation with W4","W4 started a conversation with M2"
"null","Jane is carrying Beth","","html-keyboard-response","40","321038","0.0-18.0-0.0","80628","3A","woman","","null","W2 is carrying W4","carry","sentence","","","",""
"6335.010000000009","","","survey-likert-extra-labels","41","327375","0.0-18.0-2.0","80628","3A","woman","","","W2 is carrying W4","carry","rating_volition","{""Q0"":0}","[0]","W2 is transporting W4","W4 is transporting W2"
"10794.024999999907","","","survey-likert-extra-labels","42","338177","0.0-18.0-3.0-0.0","80628","3A","woman","","","W2 is carrying W4","carry","rating_causation","{""Q0"":6}","[0]","W2 is being moved by W4","W4 is being moved by W2"
"null","Fred is fighting with Ruth","","html-keyboard-response","43","340194","0.0-19.0-0.0","80628","3A","woman","","null","M3 is fighting with W1","fight4","sentence","","","",""
"6106.475000000035","","","survey-likert-extra-labels","44","346302","0.0-19.0-1.0-0.0","80628","3A","woman","","","M3 is fighting with W1","fight4","rating_causation","{""Q0"":3}","[0]","M3 started the fight with W1","W1 started the fight with M3"
"6829.074999999895","","","survey-likert-extra-labels","45","353138","0.0-19.0-2.0","80628","3A","woman","","","M3 is fighting with W1","fight4","rating_volition","{""Q0"":3}","[0]","M3 wanted to fight W1","W1 wanted to fight M3"
"null","Dave is touching Mike","","html-keyboard-response","46","355147","0.0-20.0-0.0","80628","3A","woman","","null","M4 is touching M2","touch2","sentence","","","",""
"4546.540000000037","","","survey-likert-extra-labels","47","359696","0.0-20.0-1.0-0.0","80628","3A","woman","","","M4 is touching M2","touch2","rating_causation","{""Q0"":3}","[0]","M2 asked to touch M4","M4 asked to touch M2"
"6625.310000000114","","","survey-likert-extra-labels","48","366328","0.0-20.0-2.0","80628","3A","woman","","","M4 is touching M2","touch2","rating_volition","{""Q0"":3}","[0]","M2 wanted to touch M4","M4 wanted to touch M2"
"null","Kate is fighting with Luke","","html-keyboard-response","49","368350","0.0-21.0-0.0","80628","3A","woman","","null","W3 is fighting with M1","fight3","sentence","","","",""
"9568.585000000021","","","survey-likert-extra-labels","50","377921","0.0-21.0-1.0-0.0","80628","3A","woman","","","W3 is fighting with M1","fight3","rating_causation","{""Q0"":3}","[0]","W3 started the fight with M1","M1 started the fight with W3"
"8337.12000000017","","","survey-likert-extra-labels","51","386268","0.0-21.0-2.0","80628","3A","woman","","","W3 is fighting with M1","fight3","rating_volition","{""Q0"":3}","[0]","W3 wanted to fight M1","M1 wanted to fight W3"
"null","Dave is talking to Jane","","html-keyboard-response","52","388284","0.0-22.0-0.0","80628","3A","woman","","null","M4 is talking to W2","talk3","sentence","","","",""
"6883.365000000165","","","survey-likert-extra-labels","53","395169","0.0-22.0-2.0","80628","3A","woman","","","M4 is talking to W2","talk3","rating_volition","{""Q0"":5}","[0]","W2 wanted to talk to M4","M4 wanted to talk to W2"
"5205.005000000063","","","survey-likert-extra-labels","54","400382","0.0-22.0-3.0-0.0","80628","3A","woman","","","M4 is talking to W2","talk3","rating_causation","{""Q0"":5}","[0]","W2 started a conversation with M4","M4 started a conversation with W2"
"null","Ruth is touching Fred","","html-keyboard-response","55","402390","0.0-23.0-0.0","80628","3A","woman","","null","W1 is touching M3","touch4","sentence","","","",""
"7390.309999999998","","","survey-likert-extra-labels","56","409782","0.0-23.0-1.0-0.0","80628","3A","woman","","","W1 is touching M3","touch4","rating_causation","{""Q0"":1}","[0]","M3 asked to touch W1","W1 asked to touch M3"
"8528.780000000086","","","survey-likert-extra-labels","57","418318","0.0-23.0-2.0","80628","3A","woman","","","W1 is touching M3","touch4","rating_volition","{""Q0"":1}","[0]","M3 wanted to touch W1","W1 wanted to touch M3"
"null","Jane is fighting with Beth","","html-keyboard-response","58","420329","0.0-24.0-0.0","80628","3A","woman","","null","W2 is fighting with W4","fight1","sentence","","","",""
"5235.674999999872","","","survey-likert-extra-labels","59","425567","0.0-24.0-1.0-0.0","80628","3A","woman","","","W2 is fighting with W4","fight1","rating_causation","{""Q0"":3}","[0]","W2 started the fight with W4","W4 started the fight with W2"
"3769.469999999972","","","survey-likert-extra-labels","60","429344","0.0-24.0-2.0","80628","3A","woman","","","W2 is fighting with W4","fight1","rating_volition","{""Q0"":3}","[0]","W2 wanted to fight W4","W4 wanted to fight W2"
"null","Mike is reminding Beth","","html-keyboard-response","61","431358","0.0-25.0-0.0","80628","3A","woman","","null","M2 is reminding W4","remind","sentence","","","",""
"10636.874999999884","","","survey-likert-extra-labels","62","441997","0.0-25.0-1.0-0.0","80628","3A","woman","","","M2 is reminding W4","remind","rating_causation","{""Q0"":3}","[0]","M2 is remembering","W4 is remembering"
"6845.350000000035","","","survey-likert-extra-labels","63","448850","0.0-25.0-2.0","80628","3A","woman","","","M2 is reminding W4","remind","rating_volition","{""Q0"":0}","[0]","M2 is telling W4 again","W4 is telling M2 again"
"null","Dave is shouting at Jane","","html-keyboard-response","64","450859","0.0-26.0-0.0","80628","3A","woman","","null","M4 is shouting at W2","shout4","sentence","","","",""
"4330.275000000023","","","survey-likert-extra-labels","65","455191","0.0-26.0-1.0-0.0","80628","3A","woman","","","M4 is shouting at W2","shout4","rating_causation","{""Q0"":3}","[0]","W2 shouted at M4 first","M4 shouted at W2 first"
"5395.299999999872","","","survey-likert-extra-labels","66","460594","0.0-26.0-2.0","80628","3A","woman","","","M4 is shouting at W2","shout4","rating_volition","{""Q0"":3}","[0]","W2 wanted to shout at M4","M4 wanted to shout at W2"
"null","Dave is playing with Mike","","html-keyboard-response","67","462614","0.0-27.0-0.0","80628","3A","woman","","null","M4 is playing with M2","play2","sentence","","","",""
"3703.6850000001723","","","survey-likert-extra-labels","68","466319","0.0-27.0-2.0","80628","3A","woman","","","M4 is playing with M2","play2","rating_volition","{""Q0"":3}","[0]","M2 wanted to play with M4","M4 wanted to play with M2"
"4356.190000000177","","","survey-likert-extra-labels","69","470683","0.0-27.0-3.0-0.0","80628","3A","woman","","","M4 is playing with M2","play2","rating_causation","{""Q0"":3}","[0]","M2 asked to play with M4","M4 asked to play with M2"
"null","Beth is touching Jane","","html-keyboard-response","70","472703","0.0-28.0-0.0","80628","3A","woman","","null","W4 is touching W2","touch1","sentence","","","",""
"3617.1449999999604","","","survey-likert-extra-labels","71","476322","0.0-28.0-2.0","80628","3A","woman","","","W4 is touching W2","touch1","rating_volition","{""Q0"":3}","[0]","W2 wanted to touch W4","W4 wanted to touch W2"
"8352.869999999937","","","survey-likert-extra-labels","72","484682","0.0-28.0-3.0-0.0","80628","3A","woman","","","W4 is touching W2","touch1","rating_causation","{""Q0"":3}","[0]","W2 asked to touch W4","W4 asked to touch W2"
"null","Fred is talking to Luke","","html-keyboard-response","73","486692","0.0-29.0-0.0","80628","3A","woman","","null","M3 is talking to M1","talk2","sentence","","","",""
"5164.134999999951","","","survey-likert-extra-labels","74","491859","0.0-29.0-1.0-0.0","80628","3A","woman","","","M3 is talking to M1","talk2","rating_causation","{""Q0"":1}","[0]","M1 started a conversation with M3","M3 started a conversation with M1"
"5628.725000000035","","","survey-likert-extra-labels","75","497495","0.0-29.0-2.0","80628","3A","woman","","","M3 is talking to M1","talk2","rating_volition","{""Q0"":5}","[0]","M1 wanted to talk to M3","M3 wanted to talk to M1"
"null","Beth is playing with Jane","","html-keyboard-response","76","499503","0.0-30.0-0.0","80628","3A","woman","","null","W4 is playing with W2","play1","sentence","","","",""
"5194.109999999928","","","survey-likert-extra-labels","77","504699","0.0-30.0-1.0-0.0","80628","3A","woman","","","W4 is playing with W2","play1","rating_causation","{""Q0"":4}","[0]","W2 asked to play with W4","W4 asked to play with W2"
"5073.609999999928","","","survey-likert-extra-labels","78","509780","0.0-30.0-2.0","80628","3A","woman","","","W4 is playing with W2","play1","rating_volition","{""Q0"":4}","[0]","W2 wanted to play with W4","W4 wanted to play with W2"
"null","Fred is hiring Ruth","","html-keyboard-response","79","511798","0.0-31.0-0.0","80628","3A","woman","","null","M3 is hiring W1","hire","sentence","","","",""
"5579.2900000000955","","","survey-likert-extra-labels","80","517381","0.0-31.0-2.0","80628","3A","woman","","","M3 is hiring W1","hire","rating_volition","{""Q0"":0}","[0]","M3 is employing W1","W1 is employing M3"
"7636.065000000119","","","survey-likert-extra-labels","81","525025","0.0-31.0-3.0-0.0","80628","3A","woman","","","M3 is hiring W1","hire","rating_causation","{""Q0"":6}","[0]","M3 will work for W1","W1 will work for M3"
"null","Luke is kissing Fred","","html-keyboard-response","82","527041","0.0-32.0-0.0","80628","3A","woman","","null","M1 is kissing M3","kiss2","sentence","","","",""
"10150.845000000088","","","survey-likert-extra-labels","83","537194","0.0-32.0-2.0","80628","3A","woman","","","M1 is kissing M3","kiss2","rating_volition","{""Q0"":2}","[0]","M1 wanted to kiss M3","M3 wanted to kiss M1"
"7740.780000000144","","","survey-likert-extra-labels","84","544942","0.0-32.0-3.0-0.0","80628","3A","woman","","","M1 is kissing M3","kiss2","rating_causation","{""Q0"":2}","[0]","M1 asked to kiss M3","M3 asked to kiss M1"
"null","Mike is kissing Beth","","html-keyboard-response","85","546958","0.0-33.0-0.0","80628","3A","woman","","null","M2 is kissing W4","kiss3","sentence","","","",""
"6112.210000000079","","","survey-likert-extra-labels","86","553072","0.0-33.0-1.0-0.0","80628","3A","woman","","","M2 is kissing W4","kiss3","rating_causation","{""Q0"":2}","[0]","M2 asked to kiss W4","W4 asked to kiss M2"
"5413.870000000112","","","survey-likert-extra-labels","87","558493","0.0-33.0-2.0","80628","3A","woman","","","M2 is kissing W4","kiss3","rating_volition","{""Q0"":1}","[0]","M2 wanted to kiss W4","W4 wanted to kiss M2"
"null","Mike is posing for Dave","","html-keyboard-response","88","560502","0.0-34.0-0.0","80628","3A","woman","","null","M2 is posing for M4","pose","sentence","","","",""
"22467.525000000023","","","survey-likert-extra-labels","89","582971","0.0-34.0-1.0-0.0","80628","3A","woman","","","M2 is posing for M4","pose","rating_causation","{""Q0"":6}","[0]","M2 is photographing M4","M4 is photographing M2"
"6511.905000000028","","","survey-likert-extra-labels","90","589490","0.0-34.0-2.0","80628","3A","woman","","","M2 is posing for M4","pose","rating_volition","{""Q0"":0}","[0]","M2 is modelling for M4","M4 is modelling for M2"
"null","Luke is driving Fred","","html-keyboard-response","91","591506","0.0-35.0-0.0","80628","3A","woman","","null","M1 is driving M3","drive","sentence","","","",""
"9851.839999999967","","","survey-likert-extra-labels","92","601359","0.0-35.0-2.0","80628","3A","woman","","","M1 is driving M3","drive","rating_volition","{""Q0"":0}","[0]","M3 is M1's passenger","M1 is M3's passenger"
"7405.824999999721","","","survey-likert-extra-labels","93","608772","0.0-35.0-3.0-0.0","80628","3A","woman","","","M1 is driving M3","drive","rating_causation","{""Q0"":6}","[0]","M3 is taking M1 somewhere","M1 is taking M3 somewhere"
"null","Jane is teaching Dave","","html-keyboard-response","94","610782","0.0-36.0-0.0","80628","3A","woman","","null","W2 is teaching M4","teach","sentence","","","",""
"5931.535000000149","","","survey-likert-extra-labels","95","616715","0.0-36.0-1.0-0.0","80628","3A","woman","","","W2 is teaching M4","teach","rating_causation","{""Q0"":6}","[0]","W2 is learning from M4","M4 is learning from W2"
"5017.949999999953","","","survey-likert-extra-labels","96","621740","0.0-36.0-2.0","80628","3A","woman","","","W2 is teaching M4","teach","rating_volition","{""Q0"":0}","[0]","W2 is educating M4","M4 is educating W2"
"null","Kate is dancing with Ruth","","html-keyboard-response","97","623750","0.0-37.0-0.0","80628","3A","woman","","null","W3 is dancing with W1","dance1","sentence","","","",""
"4172.135000000009","","","survey-likert-extra-labels","98","627924","0.0-37.0-1.0-0.0","80628","3A","woman","","","W3 is dancing with W1","dance1","rating_causation","{""Q0"":3}","[0]","W1 asked W3 to dance","W3 asked W1 to dance"
"5516.390000000014","","","survey-likert-extra-labels","99","633448","0.0-37.0-2.0","80628","3A","woman","","","W3 is dancing with W1","dance1","rating_volition","{""Q0"":3}","[0]","W1 wanted to dance with W3","W3 wanted to dance with W1"
"null","Fred is dancing with Luke","","html-keyboard-response","100","635458","0.0-38.0-0.0","80628","3A","woman","","null","M3 is dancing with M1","dance2","sentence","","","",""
"7673.584999999963","","","survey-likert-extra-labels","101","643133","0.0-38.0-2.0","80628","3A","woman","","","M3 is dancing with M1","dance2","rating_volition","{""Q0"":3}","[0]","M1 wanted to dance with M3","M3 wanted to dance with M1"
"4842.745000000112","","","survey-likert-extra-labels","102","647984","0.0-38.0-3.0-0.0","80628","3A","woman","","","M3 is dancing with M1","dance2","rating_causation","{""Q0"":3}","[0]","M1 asked M3 to dance","M3 asked M1 to dance"
"null","Jane is kissing Dave","","html-keyboard-response","103","650004","0.0-39.0-0.0","80628","3A","woman","","null","W2 is kissing M4","kiss4","sentence","","","",""
"5159.089999999851","","","survey-likert-extra-labels","104","655165","0.0-39.0-2.0","80628","3A","woman","","","W2 is kissing M4","kiss4","rating_volition","{""Q0"":2}","[0]","W2 wanted to kiss M4","M4 wanted to kiss W2"
"5399.5449999999255","","","survey-likert-extra-labels","105","660573","0.0-39.0-3.0-0.0","80628","3A","woman","","","W2 is kissing M4","kiss4","rating_causation","{""Q0"":4}","[0]","W2 asked to kiss M4","M4 asked to kiss W2"
"null","Kate is talking to Ruth","","html-keyboard-response","106","662581","0.0-40.0-0.0","80628","3A","woman","","null","W3 is talking to W1","talk1","sentence","","","",""
"3528.8000000000466","","","survey-likert-extra-labels","107","666112","0.0-40.0-1.0-0.0","80628","3A","woman","","","W3 is talking to W1","talk1","rating_causation","{""Q0"":3}","[0]","W1 started a conversation with W3","W3 started a conversation with W1"
"5295.554999999935","","","survey-likert-extra-labels","108","671416","0.0-40.0-2.0","80628","3A","woman","","","W3 is talking to W1","talk1","rating_volition","{""Q0"":3}","[0]","W1 wanted to talk to W3","W3 wanted to talk to W1"
"null","Mike is fighting with Dave","","html-keyboard-response","109","673425","0.0-41.0-0.0","80628","3A","woman","","null","M2 is fighting with M4","fight2","sentence","","","",""
"3190.670000000042","","","survey-likert-extra-labels","110","676617","0.0-41.0-1.0-0.0","80628","3A","woman","","","M2 is fighting with M4","fight2","rating_causation","{""Q0"":3}","[0]","M2 started the fight with M4","M4 started the fight with M2"
"8214.54999999993","","","survey-likert-extra-labels","111","684839","0.0-41.0-2.0","80628","3A","woman","","","M2 is fighting with M4","fight2","rating_volition","{""Q0"":2}","[0]","M2 wanted to fight M4","M4 wanted to fight M2"
"null","Jane is arguing with Dave","","html-keyboard-response","112","686849","0.0-42.0-0.0","80628","3A","woman","","null","W2 is arguing with M4","argue3","sentence","","","",""
"4656.234999999986","","","survey-likert-extra-labels","113","691508","0.0-42.0-1.0-0.0","80628","3A","woman","","","W2 is arguing with M4","argue3","rating_causation","{""Q0"":2}","[0]","W2 started an argument with M4","M4 started an argument with W2"
"9078.989999999874","","","survey-likert-extra-labels","114","700594","0.0-42.0-2.0","80628","3A","woman","","","W2 is arguing with M4","argue3","rating_volition","{""Q0"":4}","[0]","W2 wanted to argue with M4","M4 wanted to argue with W2"
"null","Mike is arguing with Beth","","html-keyboard-response","115","702613","0.0-43.0-0.0","80628","3A","woman","","null","M2 is arguing with W4","argue4","sentence","","","",""
"6026.210000000079","","","survey-likert-extra-labels","116","708642","0.0-43.0-2.0","80628","3A","woman","","","M2 is arguing with W4","argue4","rating_volition","{""Q0"":2}","[0]","M2 wanted to argue with W4","W4 wanted to argue with M2"
"5736.07500000007","","","survey-likert-extra-labels","117","714386","0.0-43.0-3.0-0.0","80628","3A","woman","","","M2 is arguing with W4","argue4","rating_causation","{""Q0"":4}","[0]","M2 started an argument with W4","W4 started an argument with M2"
"null","Luke is arguing with Fred","","html-keyboard-response","118","716403","0.0-44.0-0.0","80628","3A","woman","","null","M1 is arguing with M3","argue2","sentence","","","",""
"7553.819999999832","","","survey-likert-extra-labels","119","723959","0.0-44.0-2.0","80628","3A","woman","","","M1 is arguing with M3","argue2","rating_volition","{""Q0"":2}","[0]","M1 wanted to argue with M3","M3 wanted to argue with M1"
"5225.645000000019","","","survey-likert-extra-labels","120","729192","0.0-44.0-3.0-0.0","80628","3A","woman","","","M1 is arguing with M3","argue2","rating_causation","{""Q0"":4}","[0]","M1 started an argument with M3","M3 started an argument with M1"
"null","Kate is feeding Luke","","html-keyboard-response","121","731204","0.0-45.0-0.0","80628","3A","woman","","null","W3 is feeding M1","feed","sentence","","","",""
"7148.200000000186","","","survey-likert-extra-labels","122","738354","0.0-45.0-1.0-0.0","80628","3A","woman","","","W3 is feeding M1","feed","rating_causation","{""Q0"":5}","[0]","W3 is eating M1's food","M1 is eating W3's food"
"7456.0650000000605","","","survey-likert-extra-labels","123","745817","0.0-45.0-2.0","80628","3A","woman","","","W3 is feeding M1","feed","rating_volition","{""Q0"":0}","[0]","W3 is giving M1 food","M1 is giving W3 food"
"null","Luke is playing with Kate","","html-keyboard-response","124","747832","0.0-46.0-0.0","80628","3A","woman","","null","M1 is playing with W3","play4","sentence","","","",""
"6001.72499999986","","","survey-likert-extra-labels","125","753835","0.0-46.0-1.0-0.0","80628","3A","woman","","","M1 is playing with W3","play4","rating_causation","{""Q0"":4}","[0]","W3 asked to play with M1","M1 asked to play with W3"
"5195.979999999865","","","survey-likert-extra-labels","126","759039","0.0-46.0-2.0","80628","3A","woman","","","M1 is playing with W3","play4","rating_volition","{""Q0"":5}","[0]","W3 wanted to play with M1","M1 wanted to play with W3"
"null","Ruth is arguing with Kate","","html-keyboard-response","127","761047","0.0-47.0-0.0","80628","3A","woman","","null","W1 is arguing with W3","argue1","sentence","","","",""
"4220.539999999804","","","survey-likert-extra-labels","128","765270","0.0-47.0-2.0","80628","3A","woman","","","W1 is arguing with W3","argue1","rating_volition","{""Q0"":3}","[0]","W1 wanted to argue with W3","W3 wanted to argue with W1"
"7908.730000000098","","","survey-likert-extra-labels","129","773186","0.0-47.0-3.0-0.0","80628","3A","woman","","","W1 is arguing with W3","argue1","rating_causation","{""Q0"":2}","[0]","W1 started an argument with W3","W3 started an argument with W1"
"null","Ruth is kissing Kate","","html-keyboard-response","130","775195","0.0-48.0-0.0","80628","3A","woman","","null","W1 is kissing W3","kiss1","sentence","","","",""
"6184.835000000079","","","survey-likert-extra-labels","131","781382","0.0-48.0-2.0","80628","3A","woman","","","W1 is kissing W3","kiss1","rating_volition","{""Q0"":2}","[0]","W1 wanted to kiss W3","W3 wanted to kiss W1"
"4873.685000000056","","","survey-likert-extra-labels","132","786263","0.0-48.0-3.0-0.0","80628","3A","woman","","","W1 is kissing W3","kiss1","rating_causation","{""Q0"":2}","[0]","W1 asked to kiss W3","W3 asked to kiss W1"
"null","Ruth is playing with Fred","","html-keyboard-response","133","788277","0.0-49.0-0.0","80628","3A","woman","","null","W1 is playing with M3","play3","sentence","","","",""
"4786.614999999991","","","survey-likert-extra-labels","134","793066","0.0-49.0-1.0-0.0","80628","3A","woman","","","W1 is playing with M3","play3","rating_causation","{""Q0"":4}","[0]","M3 asked to play with W1","W1 asked to play with M3"
"5653.29999999993","","","survey-likert-extra-labels","135","798726","0.0-49.0-2.0","80628","3A","woman","","","W1 is playing with M3","play3","rating_volition","{""Q0"":2}","[0]","M3 wanted to play with W1","W1 wanted to play with M3"
"null","Beth is dancing with Mike","","html-keyboard-response","136","800740","0.0-50.0-0.0","80628","3A","woman","","null","W4 is dancing with M2","dance4","sentence","","","",""
"4537.4349999999395","","","survey-likert-extra-labels","137","805280","0.0-50.0-1.0-0.0","80628","3A","woman","","","W4 is dancing with M2","dance4","rating_causation","{""Q0"":3}","[0]","M2 asked W4 to dance","W4 asked M2 to dance"
"4698.320000000065","","","survey-likert-extra-labels","138","809986","0.0-50.0-2.0","80628","3A","woman","","","W4 is dancing with M2","dance4","rating_volition","{""Q0"":3}","[0]","M2 wanted to dance with W4","W4 wanted to dance with M2"
"null","Jane is marrying Beth","","html-keyboard-response","139","811993","0.0-51.0-0.0","80628","3A","woman","","null","W2 is marrying W4","marry1","sentence","","","",""
"4018.3699999999953","","","survey-likert-extra-labels","140","816013","0.0-51.0-2.0","80628","3A","woman","","","W2 is marrying W4","marry1","rating_volition","{""Q0"":3}","[0]","W2 wanted to marry W4","W4 wanted to marry W2"
"5770.599999999744","","","survey-likert-extra-labels","141","821791","0.0-51.0-3.0-0.0","80628","3A","woman","","","W2 is marrying W4","marry1","rating_causation","{""Q0"":3}","[0]","W2 asked to marry W4","W4 asked to marry W2"
"null","Ruth is flirting with Fred","","html-keyboard-response","142","823810","0.0-52.0-0.0","80628","3A","woman","","null","W1 is flirting with M3","flirt4","sentence","","","",""
"4461.624999999884","","","survey-likert-extra-labels","143","828273","0.0-52.0-1.0-0.0","80628","3A","woman","","","W1 is flirting with M3","flirt4","rating_causation","{""Q0"":4}","[0]","M3 started flirting with W1 first","W1 started flirting with M3 first"
"4157.704999999842","","","survey-likert-extra-labels","144","832439","0.0-52.0-2.0","80628","3A","woman","","","W1 is flirting with M3","flirt4","rating_volition","{""Q0"":2}","[0]","M3 wanted to flirt with W1","W1 wanted to flirt with M3"
"null","Luke is touching Kate","","html-keyboard-response","145","834446","0.0-53.0-0.0","80628","3A","woman","","null","M1 is touching W3","touch3","sentence","","","",""
"8021.155000000144","","","survey-likert-extra-labels","146","842469","0.0-53.0-2.0","80628","3A","woman","","","M1 is touching W3","touch3","rating_volition","{""Q0"":5}","[0]","W3 wanted to touch M1","M1 wanted to touch W3"
"7824.594999999856","","","survey-likert-extra-labels","147","850301","0.0-53.0-3.0-0.0","80628","3A","woman","","","M1 is touching W3","touch3","rating_causation","{""Q0"":4}","[0]","W3 asked to touch M1","M1 asked to touch W3"
"null","Mike is marrying Dave","","html-keyboard-response","148","852322","0.0-54.0-0.0","80628","3A","woman","","null","M2 is marrying M4","marry2","sentence","","","",""
"7143.505000000005","","","survey-likert-extra-labels","149","859467","0.0-54.0-2.0","80628","3A","woman","","","M2 is marrying M4","marry2","rating_volition","{""Q0"":3}","[0]","M2 wanted to marry M4","M4 wanted to marry M2"
"5433.395000000019","","","survey-likert-extra-labels","150","864908","0.0-54.0-3.0-0.0","80628","3A","woman","","","M2 is marrying M4","marry2","rating_causation","{""Q0"":3}","[0]","M2 asked to marry M4","M4 asked to marry M2"
"9071.67499999993","<p>Thank you for completing that task.</p><p>The final part of this session is a short questionnaire.</p><p>Press Continue.</p>","0","html-button-response","151","873986","0.0-55.0","80628","3A","woman","","","","","","","","",""
"43188.65499999991","","","survey-text","152","918232","0.0-56.0","80628","3A","woman","","","","","demographics","{""Q0"":""57"",""Q1"":""english"",""Q2"":""english"",""Q3"":""United Kingdom"",""Q4"":""british"",""Q5"":""white"",""Q6"":""female""}","","",""
"2545.79999999993","<p>Have you lived in the UK for the last 5 years or more?</p>","1","html-button-response","153","920783","0.0-57.0","80628","3A","woman","","","","","fiveyears","","","",""
"13833.48999999999","","","survey-text","154","935636","0.0-58.0","80628","3A","woman","","","","","worker_id","{""Q0"":""5be1cc598c6a19000137a503""}","","",""
"26918.545000000042","","","external-html","155","962664","0.0-59.0","80628","3A","woman","debrief.html","","","","","","","",""
