"rt","stimulus","button_pressed","trial_type","trial_index","time_elapsed","internal_node_id","subject","list","ppt_gender","url","key_press","sentence_type","verb","test_part","responses","question_order","left_part","right_part"
"2318.420000025071","Welcome to the experiment. Press Continue to begin.","0","html-button-response","0","2321","0.0-0.0","9189","4A","woman","","","","","","","","",""
"26151.440000045113","","","external-html","1","29539","0.0-1.0","9189","4A","woman","consent.html","","","","","","","",""
"10220.39999999106","<p>Welcome.</p><p>In this experiment we will ask you to imagine some situations.</p><p>Each trial starts with a description of an event.</p><p>Then you will see alternative descriptions of that event, and you will rate on a scale how best they match the original description.</p><p>You will give your answer by clicking a button on a rating scale.</p><p>To do this task, you will have to use your imagination to visualise these events.</p><br><p>Ready?</p>","0","html-button-response","2","39761","0.0-2.0","9189","4A","woman","","","","","","","","",""
"2885.46999997925","<p>Before the experiment starts, you will watch an example trial. Press 'Continue'.</p>","0","html-button-response","3","43652","0.0-3.0","9189","4A","woman","","","","","","","","",""
"null","The police officer is arresting the robber","","html-keyboard-response","4","46660","0.0-4.0","9189","4A","woman","","null","","","","","","",""
"18677.330000035","<img src='img/Example-trial.jpg' style='height:550px;''></img>","0","html-button-response","5","65338","0.0-5.0","9189","4A","woman","","","","","","","","",""
"2368.765000021085","<p>Ready to start the experiment?</p><br><p><strong>Remember to give an answer by clicking a button on the rating scale.</strong></p><p>Press 'Continue' to begin.</p>","0","html-button-response","6","68713","0.0-6.0","9189","4A","woman","","","","","","","","",""
"null","Ruth is chasing Kate","","html-keyboard-response","7","71721","0.0-7.0-0.0","9189","4A","woman","","null","W1 is chasing W3","chase","sentence","","","",""
"11545.630000007804","","","survey-likert-extra-labels","8","83270","0.0-7.0-2.0","9189","4A","woman","","","W1 is chasing W3","chase","rating_volition","{""Q0"":0}","[0]","W1 is behind W3","W3 is behind W1"
"8991.95499997586","","","survey-likert-extra-labels","9","92264","0.0-7.0-3.0-0.0","9189","4A","woman","","","W1 is chasing W3","chase","rating_causation","{""Q0"":6}","[0]","W1 is running away from W3","W3 is running away from W1"
"null","Beth is touching Jane","","html-keyboard-response","10","94270","0.0-8.0-0.0","9189","4A","woman","","null","W4 is touching W2","touch1","sentence","","","",""
"7877.425000013318","","","survey-likert-extra-labels","11","102148","0.0-8.0-2.0","9189","4A","woman","","","W4 is touching W2","touch1","rating_volition","{""Q0"":0}","[0]","W4 wanted to touch W2","W2 wanted to touch W4"
"8696.080000023358","","","survey-likert-extra-labels","12","110847","0.0-8.0-3.0-0.0","9189","4A","woman","","","W4 is touching W2","touch1","rating_causation","{""Q0"":0}","[0]","W4 asked to touch W2","W2 asked to touch W4"
"null","Ruth is arguing with Kate","","html-keyboard-response","13","112850","0.0-9.0-0.0","9189","4A","woman","","null","W1 is arguing with W3","argue1","sentence","","","",""
"9197.464999975637","","","survey-likert-extra-labels","14","122048","0.0-9.0-2.0","9189","4A","woman","","","W1 is arguing with W3","argue1","rating_volition","{""Q0"":6}","[0]","W3 wanted to argue with W1","W1 wanted to argue with W3"
"8640.54000005126","","","survey-likert-extra-labels","15","130691","0.0-9.0-3.0-0.0","9189","4A","woman","","","W1 is arguing with W3","argue1","rating_causation","{""Q0"":6}","[0]","W3 started an argument with W1","W1 started an argument with W3"
"null","Kate is fighting with Luke","","html-keyboard-response","16","132695","0.0-10.0-0.0","9189","4A","woman","","null","W3 is fighting with M1","fight3","sentence","","","",""
"9558.54499997804","","","survey-likert-extra-labels","17","142255","0.0-10.0-2.0","9189","4A","woman","","","W3 is fighting with M1","fight3","rating_volition","{""Q0"":6}","[0]","M1 wanted to fight W3","W3 wanted to fight M1"
"8349.560000002384","","","survey-likert-extra-labels","18","150607","0.0-10.0-3.0-0.0","9189","4A","woman","","","W3 is fighting with M1","fight3","rating_causation","{""Q0"":3}","[0]","M1 started the fight with W3","W3 started the fight with M1"
"null","Kate is playing with Luke","","html-keyboard-response","19","152609","0.0-11.0-0.0","9189","4A","woman","","null","W3 is playing with M1","play4","sentence","","","",""
"7847.534999949858","","","survey-likert-extra-labels","20","160458","0.0-11.0-2.0","9189","4A","woman","","","W3 is playing with M1","play4","rating_volition","{""Q0"":4}","[0]","M1 wanted to play with W3","W3 wanted to play with M1"
"4481.255000049714","","","survey-likert-extra-labels","21","164943","0.0-11.0-3.0-0.0","9189","4A","woman","","","W3 is playing with M1","play4","rating_causation","{""Q0"":3}","[0]","M1 asked to play with W3","W3 asked to play with M1"
"null","Jane is teaching Dave","","html-keyboard-response","22","166949","0.0-12.0-0.0","9189","4A","woman","","null","W2 is teaching M4","teach","sentence","","","",""
"5824.360000027809","","","survey-likert-extra-labels","23","172775","0.0-12.0-2.0","9189","4A","woman","","","W2 is teaching M4","teach","rating_volition","{""Q0"":0}","[0]","W2 is educating M4","M4 is educating W2"
"5972.209999978077","","","survey-likert-extra-labels","24","178751","0.0-12.0-3.0-0.0","9189","4A","woman","","","W2 is teaching M4","teach","rating_causation","{""Q0"":6}","[0]","W2 is learning from M4","M4 is learning from W2"
"null","Luke is arguing with Fred","","html-keyboard-response","25","180757","0.0-13.0-0.0","9189","4A","woman","","null","M1 is arguing with M3","argue2","sentence","","","",""
"4040.229999984149","","","survey-likert-extra-labels","26","184800","0.0-13.0-1.0-0.0","9189","4A","woman","","","M1 is arguing with M3","argue2","rating_causation","{""Q0"":3}","[0]","M3 started an argument with M1","M1 started an argument with M3"
"3283.705000008922","","","survey-likert-extra-labels","27","188087","0.0-13.0-2.0","9189","4A","woman","","","M1 is arguing with M3","argue2","rating_volition","{""Q0"":3}","[0]","M3 wanted to argue with M1","M1 wanted to argue with M3"
"null","Fred is fighting with Ruth","","html-keyboard-response","28","190089","0.0-14.0-0.0","9189","4A","woman","","null","M3 is fighting with W1","fight4","sentence","","","",""
"4358.354999974836","","","survey-likert-extra-labels","29","194451","0.0-14.0-1.0-0.0","9189","4A","woman","","","M3 is fighting with W1","fight4","rating_causation","{""Q0"":3}","[0]","W1 started the fight with M3","M3 started the fight with W1"
"2782.5399999856018","","","survey-likert-extra-labels","30","197236","0.0-14.0-2.0","9189","4A","woman","","","M3 is fighting with W1","fight4","rating_volition","{""Q0"":3}","[0]","W1 wanted to fight M3","M3 wanted to fight W1"
"null","Mike is playing with Dave","","html-keyboard-response","31","199241","0.0-15.0-0.0","9189","4A","woman","","null","M2 is playing with M4","play2","sentence","","","",""
"4348.379999981262","","","survey-likert-extra-labels","32","203591","0.0-15.0-2.0","9189","4A","woman","","","M2 is playing with M4","play2","rating_volition","{""Q0"":3}","[0]","M4 wanted to play with M2","M2 wanted to play with M4"
"6247.45999998413","","","survey-likert-extra-labels","33","209842","0.0-15.0-3.0-0.0","9189","4A","woman","","","M2 is playing with M4","play2","rating_causation","{""Q0"":3}","[0]","M4 asked to play with M2","M2 asked to play with M4"
"null","Mike is arguing with Beth","","html-keyboard-response","34","211847","0.0-16.0-0.0","9189","4A","woman","","null","M2 is arguing with W4","argue4","sentence","","","",""
"3721.194999990985","","","survey-likert-extra-labels","35","215571","0.0-16.0-2.0","9189","4A","woman","","","M2 is arguing with W4","argue4","rating_volition","{""Q0"":3}","[0]","W4 wanted to argue with M2","M2 wanted to argue with W4"
"5678.5600000293925","","","survey-likert-extra-labels","36","221252","0.0-16.0-3.0-0.0","9189","4A","woman","","","M2 is arguing with W4","argue4","rating_causation","{""Q0"":3}","[0]","W4 started an argument with M2","M2 started an argument with W4"
"null","Luke is marrying Kate","","html-keyboard-response","37","223257","0.0-17.0-0.0","9189","4A","woman","","null","M1 is marrying W3","marry4","sentence","","","",""
"8722.194999980275","","","survey-likert-extra-labels","38","231981","0.0-17.0-2.0","9189","4A","woman","","","M1 is marrying W3","marry4","rating_volition","{""Q0"":2}","[0]","M1 wanted to marry W3","W3 wanted to marry M1"
"9905.629999993835","","","survey-likert-extra-labels","39","241889","0.0-17.0-3.0-0.0","9189","4A","woman","","","M1 is marrying W3","marry4","rating_causation","{""Q0"":1}","[0]","M1 asked to marry W3","W3 asked to marry M1"
"null","Beth is marrying Jane","","html-keyboard-response","40","243893","0.0-18.0-0.0","9189","4A","woman","","null","W4 is marrying W2","marry1","sentence","","","",""
"6274.799999955576","","","survey-likert-extra-labels","41","250169","0.0-18.0-2.0","9189","4A","woman","","","W4 is marrying W2","marry1","rating_volition","{""Q0"":2}","[0]","W4 wanted to marry W2","W2 wanted to marry W4"
"5835.250000003725","","","survey-likert-extra-labels","42","256007","0.0-18.0-3.0-0.0","9189","4A","woman","","","W4 is marrying W2","marry1","rating_causation","{""Q0"":2}","[0]","W4 asked to marry W2","W2 asked to marry W4"
"null","Jane is fighting with Beth","","html-keyboard-response","43","258010","0.0-19.0-0.0","9189","4A","woman","","null","W2 is fighting with W4","fight1","sentence","","","",""
"3580.275000014808","","","survey-likert-extra-labels","44","261591","0.0-19.0-2.0","9189","4A","woman","","","W2 is fighting with W4","fight1","rating_volition","{""Q0"":3}","[0]","W4 wanted to fight W2","W2 wanted to fight W4"
"3285.7749999966472","","","survey-likert-extra-labels","45","264879","0.0-19.0-3.0-0.0","9189","4A","woman","","","W2 is fighting with W4","fight1","rating_causation","{""Q0"":3}","[0]","W4 started the fight with W2","W2 started the fight with W4"
"null","Mike is reminding Beth","","html-keyboard-response","46","266882","0.0-20.0-0.0","9189","4A","woman","","null","M2 is reminding W4","remind","sentence","","","",""
"6793.514999968465","","","survey-likert-extra-labels","47","273677","0.0-20.0-2.0","9189","4A","woman","","","M2 is reminding W4","remind","rating_volition","{""Q0"":0}","[0]","M2 is telling W4 again","W4 is telling M2 again"
"4725.495000020601","","","survey-likert-extra-labels","48","278406","0.0-20.0-3.0-0.0","9189","4A","woman","","","M2 is reminding W4","remind","rating_causation","{""Q0"":6}","[0]","M2 is remembering","W4 is remembering"
"null","Jane is carrying Beth","","html-keyboard-response","49","280412","0.0-21.0-0.0","9189","4A","woman","","null","W2 is carrying W4","carry","sentence","","","",""
"5198.7349999835715","","","survey-likert-extra-labels","50","285611","0.0-21.0-2.0","9189","4A","woman","","","W2 is carrying W4","carry","rating_volition","{""Q0"":0}","[0]","W2 is transporting W4","W4 is transporting W2"
"5416.689999983646","","","survey-likert-extra-labels","51","291030","0.0-21.0-3.0-0.0","9189","4A","woman","","","W2 is carrying W4","carry","rating_causation","{""Q0"":6}","[0]","W2 is being moved by W4","W4 is being moved by W2"
"null","Ruth is touching Fred","","html-keyboard-response","52","293033","0.0-22.0-0.0","9189","4A","woman","","null","W1 is touching M3","touch4","sentence","","","",""
"6456.865000014659","","","survey-likert-extra-labels","53","299491","0.0-22.0-2.0","9189","4A","woman","","","W1 is touching M3","touch4","rating_volition","{""Q0"":1}","[0]","W1 wanted to touch M3","M3 wanted to touch W1"
"7881.890000018757","","","survey-likert-extra-labels","54","307375","0.0-22.0-3.0-0.0","9189","4A","woman","","","W1 is touching M3","touch4","rating_causation","{""Q0"":1}","[0]","W1 asked to touch M3","M3 asked to touch W1"
"null","Fred is kissing Luke","","html-keyboard-response","55","309380","0.0-23.0-0.0","9189","4A","woman","","null","M3 is kissing M1","kiss2","sentence","","","",""
"7523.555000021588","","","survey-likert-extra-labels","56","316906","0.0-23.0-1.0-0.0","9189","4A","woman","","","M3 is kissing M1","kiss2","rating_causation","{""Q0"":2}","[0]","M3 asked to kiss M1","M1 asked to kiss M3"
"11652.584999974351","","","survey-likert-extra-labels","57","328561","0.0-23.0-2.0","9189","4A","woman","","","M3 is kissing M1","kiss2","rating_volition","{""Q0"":2}","[0]","M3 wanted to kiss M1","M1 wanted to kiss M3"
"null","Beth is kissing Mike","","html-keyboard-response","58","330564","0.0-24.0-0.0","9189","4A","woman","","null","W4 is kissing M2","kiss3","sentence","","","",""
"6817.190000030678","","","survey-likert-extra-labels","59","337382","0.0-24.0-1.0-0.0","9189","4A","woman","","","W4 is kissing M2","kiss3","rating_causation","{""Q0"":2}","[0]","W4 asked to kiss M2","M2 asked to kiss W4"
"5738.610000000335","","","survey-likert-extra-labels","60","343123","0.0-24.0-2.0","9189","4A","woman","","","W4 is kissing M2","kiss3","rating_volition","{""Q0"":2}","[0]","W4 wanted to kiss M2","M2 wanted to kiss W4"
"null","Ruth is marrying Fred","","html-keyboard-response","61","345130","0.0-25.0-0.0","9189","4A","woman","","null","W1 is marrying M3","marry3","sentence","","","",""
"8953.280000016093","","","survey-likert-extra-labels","62","354085","0.0-25.0-2.0","9189","4A","woman","","","W1 is marrying M3","marry3","rating_volition","{""Q0"":3}","[0]","W1 wanted to marry M3","M3 wanted to marry W1"
"6474.575000000186","","","survey-likert-extra-labels","63","360562","0.0-25.0-3.0-0.0","9189","4A","woman","","","W1 is marrying M3","marry3","rating_causation","{""Q0"":2}","[0]","W1 asked to marry M3","M3 asked to marry W1"
"null","Luke is shouting at Fred","","html-keyboard-response","64","362565","0.0-26.0-0.0","9189","4A","woman","","null","M1 is shouting at M3","shout2","sentence","","","",""
"3055.7649999973364","","","survey-likert-extra-labels","65","365622","0.0-26.0-1.0-0.0","9189","4A","woman","","","M1 is shouting at M3","shout2","rating_causation","{""Q0"":6}","[0]","M3 shouted at M1 first","M1 shouted at M3 first"
"5092.974999977741","","","survey-likert-extra-labels","66","370717","0.0-26.0-2.0","9189","4A","woman","","","M1 is shouting at M3","shout2","rating_volition","{""Q0"":6}","[0]","M3 wanted to shout at M1","M1 wanted to shout at M3"
"null","Fred is hiring Ruth","","html-keyboard-response","67","372723","0.0-27.0-0.0","9189","4A","woman","","null","M3 is hiring W1","hire","sentence","","","",""
"3492.480000015348","","","survey-likert-extra-labels","68","376217","0.0-27.0-1.0-0.0","9189","4A","woman","","","M3 is hiring W1","hire","rating_causation","{""Q0"":6}","[0]","M3 will work for W1","W1 will work for M3"
"3711.444999964442","","","survey-likert-extra-labels","69","379931","0.0-27.0-2.0","9189","4A","woman","","","M3 is hiring W1","hire","rating_volition","{""Q0"":0}","[0]","M3 is employing W1","W1 is employing M3"
"null","Mike is fighting with Dave","","html-keyboard-response","70","381935","0.0-28.0-0.0","9189","4A","woman","","null","M2 is fighting with M4","fight2","sentence","","","",""
"7855.954999977257","","","survey-likert-extra-labels","71","389793","0.0-28.0-2.0","9189","4A","woman","","","M2 is fighting with M4","fight2","rating_volition","{""Q0"":4}","[0]","M4 wanted to fight M2","M2 wanted to fight M4"
"7997.325000003912","","","survey-likert-extra-labels","72","397793","0.0-28.0-3.0-0.0","9189","4A","woman","","","M2 is fighting with M4","fight2","rating_causation","{""Q0"":5}","[0]","M4 started the fight with M2","M2 started the fight with M4"
"null","Luke is driving Fred","","html-keyboard-response","73","399796","0.0-29.0-0.0","9189","4A","woman","","null","M1 is driving M3","drive","sentence","","","",""
"4851.114999968559","","","survey-likert-extra-labels","74","404649","0.0-29.0-2.0","9189","4A","woman","","","M1 is driving M3","drive","rating_volition","{""Q0"":0}","[0]","M3 is M1's passenger","M1 is M3's passenger"
"6692.56499997573","","","survey-likert-extra-labels","75","411344","0.0-29.0-3.0-0.0","9189","4A","woman","","","M1 is driving M3","drive","rating_causation","{""Q0"":6}","[0]","M3 is taking M1 somewhere","M1 is taking M3 somewhere"
"null","Ruth is shouting at Kate","","html-keyboard-response","76","413350","0.0-30.0-0.0","9189","4A","woman","","null","W1 is shouting at W3","shout1","sentence","","","",""
"6315.034999977797","","","survey-likert-extra-labels","77","419666","0.0-30.0-1.0-0.0","9189","4A","woman","","","W1 is shouting at W3","shout1","rating_causation","{""Q0"":6}","[0]","W3 shouted at W1 first","W1 shouted at W3 first"
"3417.959999991581","","","survey-likert-extra-labels","78","423087","0.0-30.0-2.0","9189","4A","woman","","","W1 is shouting at W3","shout1","rating_volition","{""Q0"":6}","[0]","W3 wanted to shout at W1","W1 wanted to shout at W3"
"null","Dave is touching Mike","","html-keyboard-response","79","425093","0.0-31.0-0.0","9189","4A","woman","","null","M4 is touching M2","touch2","sentence","","","",""
"8156.484999984968","","","survey-likert-extra-labels","80","433251","0.0-31.0-1.0-0.0","9189","4A","woman","","","M4 is touching M2","touch2","rating_causation","{""Q0"":1}","[0]","M4 asked to touch M2","M2 asked to touch M4"
"3363.5399999911897","","","survey-likert-extra-labels","81","436618","0.0-31.0-2.0","9189","4A","woman","","","M4 is touching M2","touch2","rating_volition","{""Q0"":1}","[0]","M4 wanted to touch M2","M2 wanted to touch M4"
"null","Kate is dancing with Ruth","","html-keyboard-response","82","438622","0.0-32.0-0.0","9189","4A","woman","","null","W3 is dancing with W1","dance1","sentence","","","",""
"7433.164999994915","","","survey-likert-extra-labels","83","446058","0.0-32.0-1.0-0.0","9189","4A","woman","","","W3 is dancing with W1","dance1","rating_causation","{""Q0"":0}","[0]","W3 asked W1 to dance","W1 asked W3 to dance"
"3505.1649999804795","","","survey-likert-extra-labels","84","449566","0.0-32.0-2.0","9189","4A","woman","","","W3 is dancing with W1","dance1","rating_volition","{""Q0"":1}","[0]","W3 wanted to dance with W1","W1 wanted to dance with W3"
"null","Jane is arguing with Dave","","html-keyboard-response","85","451569","0.0-33.0-0.0","9189","4A","woman","","null","W2 is arguing with M4","argue3","sentence","","","",""
"5506.739999982528","","","survey-likert-extra-labels","86","457077","0.0-33.0-1.0-0.0","9189","4A","woman","","","W2 is arguing with M4","argue3","rating_causation","{""Q0"":5}","[0]","M4 started an argument with W2","W2 started an argument with M4"
"6290.934999997262","","","survey-likert-extra-labels","87","463371","0.0-33.0-2.0","9189","4A","woman","","","W2 is arguing with M4","argue3","rating_volition","{""Q0"":4}","[0]","M4 wanted to argue with W2","W2 wanted to argue with M4"
"null","Kate is kissing Ruth","","html-keyboard-response","88","465374","0.0-34.0-0.0","9189","4A","woman","","null","W3 is kissing W1","kiss1","sentence","","","",""
"3694.3849999806844","","","survey-likert-extra-labels","89","469072","0.0-34.0-2.0","9189","4A","woman","","","W3 is kissing W1","kiss1","rating_volition","{""Q0"":1}","[0]","W3 wanted to kiss W1","W1 wanted to kiss W3"
"7037.835000024643","","","survey-likert-extra-labels","90","476113","0.0-34.0-3.0-0.0","9189","4A","woman","","","W3 is kissing W1","kiss1","rating_causation","{""Q0"":1}","[0]","W3 asked to kiss W1","W1 asked to kiss W3"
"null","Dave is kissing Jane","","html-keyboard-response","91","478117","0.0-35.0-0.0","9189","4A","woman","","null","M4 is kissing W2","kiss4","sentence","","","",""
"3420.5249999649823","","","survey-likert-extra-labels","92","481539","0.0-35.0-2.0","9189","4A","woman","","","M4 is kissing W2","kiss4","rating_volition","{""Q0"":1}","[0]","M4 wanted to kiss W2","W2 wanted to kiss M4"
"3237.1100000455044","","","survey-likert-extra-labels","93","484778","0.0-35.0-3.0-0.0","9189","4A","woman","","","M4 is kissing W2","kiss4","rating_causation","{""Q0"":1}","[0]","M4 asked to kiss W2","W2 asked to kiss M4"
"null","Mike is posing for Dave","","html-keyboard-response","94","486783","0.0-36.0-0.0","9189","4A","woman","","null","M2 is posing for M4","pose","sentence","","","",""
"4422.34000004828","","","survey-likert-extra-labels","95","491207","0.0-36.0-2.0","9189","4A","woman","","","M2 is posing for M4","pose","rating_volition","{""Q0"":0}","[0]","M2 is modelling for M4","M4 is modelling for M2"
"4470.265000010841","","","survey-likert-extra-labels","96","495680","0.0-36.0-3.0-0.0","9189","4A","woman","","","M2 is posing for M4","pose","rating_causation","{""Q0"":6}","[0]","M2 is photographing M4","M4 is photographing M2"
"null","Jane is shouting at Dave","","html-keyboard-response","97","497685","0.0-37.0-0.0","9189","4A","woman","","null","W2 is shouting at M4","shout4","sentence","","","",""
"3860.37499998929","","","survey-likert-extra-labels","98","501548","0.0-37.0-2.0","9189","4A","woman","","","W2 is shouting at M4","shout4","rating_volition","{""Q0"":6}","[0]","M4 wanted to shout at W2","W2 wanted to shout at M4"
"7010.024999966845","","","survey-likert-extra-labels","99","508560","0.0-37.0-3.0-0.0","9189","4A","woman","","","W2 is shouting at M4","shout4","rating_causation","{""Q0"":5}","[0]","M4 shouted at W2 first","W2 shouted at M4 first"
"null","Dave is talking to Jane","","html-keyboard-response","100","510565","0.0-38.0-0.0","9189","4A","woman","","null","M4 is talking to W2","talk3","sentence","","","",""
"6073.26000003377","","","survey-likert-extra-labels","101","516640","0.0-38.0-1.0-0.0","9189","4A","woman","","","M4 is talking to W2","talk3","rating_causation","{""Q0"":1}","[0]","M4 started a conversation with W2","W2 started a conversation with M4"
"7076.644999964628","","","survey-likert-extra-labels","102","523718","0.0-38.0-2.0","9189","4A","woman","","","M4 is talking to W2","talk3","rating_volition","{""Q0"":1}","[0]","M4 wanted to talk to W2","W2 wanted to talk to M4"
"null","Beth is talking to Mike","","html-keyboard-response","103","525725","0.0-39.0-0.0","9189","4A","woman","","null","W4 is talking to M2","talk4","sentence","","","",""
"4533.095000020694","","","survey-likert-extra-labels","104","530259","0.0-39.0-1.0-0.0","9189","4A","woman","","","W4 is talking to M2","talk4","rating_causation","{""Q0"":1}","[0]","W4 started a conversation with M2","M2 started a conversation with W4"
"6068.314999982249","","","survey-likert-extra-labels","105","536330","0.0-39.0-2.0","9189","4A","woman","","","W4 is talking to M2","talk4","rating_volition","{""Q0"":1}","[0]","W4 wanted to talk to M2","M2 wanted to talk to W4"
"null","Beth is dancing with Mike","","html-keyboard-response","106","538335","0.0-40.0-0.0","9189","4A","woman","","null","W4 is dancing with M2","dance4","sentence","","","",""
"4522.664999996778","","","survey-likert-extra-labels","107","542859","0.0-40.0-2.0","9189","4A","woman","","","W4 is dancing with M2","dance4","rating_volition","{""Q0"":1}","[0]","W4 wanted to dance with M2","M2 wanted to dance with W4"
"7178.634999960195","","","survey-likert-extra-labels","108","550039","0.0-40.0-3.0-0.0","9189","4A","woman","","","W4 is dancing with M2","dance4","rating_causation","{""Q0"":3}","[0]","W4 asked M2 to dance","M2 asked W4 to dance"
"null","Luke is touching Kate","","html-keyboard-response","109","552044","0.0-41.0-0.0","9189","4A","woman","","null","M1 is touching W3","touch3","sentence","","","",""
"3695.324999978766","","","survey-likert-extra-labels","110","555741","0.0-41.0-1.0-0.0","9189","4A","woman","","","M1 is touching W3","touch3","rating_causation","{""Q0"":1}","[0]","M1 asked to touch W3","W3 asked to touch M1"
"5679.860000032932","","","survey-likert-extra-labels","111","561424","0.0-41.0-2.0","9189","4A","woman","","","M1 is touching W3","touch3","rating_volition","{""Q0"":1}","[0]","M1 wanted to touch W3","W3 wanted to touch M1"
"null","Jane is playing with Beth","","html-keyboard-response","112","563433","0.0-42.0-0.0","9189","4A","woman","","null","W2 is playing with W4","play1","sentence","","","",""
"6938.250000006519","","","survey-likert-extra-labels","113","570386","0.0-42.0-2.0","9189","4A","woman","","","W2 is playing with W4","play1","rating_volition","{""Q0"":5}","[0]","W4 wanted to play with W2","W2 wanted to play with W4"
"6512.165000021923","","","survey-likert-extra-labels","114","576902","0.0-42.0-3.0-0.0","9189","4A","woman","","","W2 is playing with W4","play1","rating_causation","{""Q0"":5}","[0]","W4 asked to play with W2","W2 asked to play with W4"
"null","Ruth is flirting with Fred","","html-keyboard-response","115","578905","0.0-43.0-0.0","9189","4A","woman","","null","W1 is flirting with M3","flirt4","sentence","","","",""
"5525.774999987334","","","survey-likert-extra-labels","116","584433","0.0-43.0-1.0-0.0","9189","4A","woman","","","W1 is flirting with M3","flirt4","rating_causation","{""Q0"":1}","[0]","W1 started flirting with M3 first","M3 started flirting with W1 first"
"7879.4249999918975","","","survey-likert-extra-labels","117","592314","0.0-43.0-2.0","9189","4A","woman","","","W1 is flirting with M3","flirt4","rating_volition","{""Q0"":0}","[0]","W1 wanted to flirt with M3","M3 wanted to flirt with W1"
"null","Fred is talking to Luke","","html-keyboard-response","118","594318","0.0-44.0-0.0","9189","4A","woman","","null","M3 is talking to M1","talk2","sentence","","","",""
"5465.184999979101","","","survey-likert-extra-labels","119","599785","0.0-44.0-2.0","9189","4A","woman","","","M3 is talking to M1","talk2","rating_volition","{""Q0"":0}","[0]","M3 wanted to talk to M1","M1 wanted to talk to M3"
"7291.09499999322","","","survey-likert-extra-labels","120","607079","0.0-44.0-3.0-0.0","9189","4A","woman","","","M3 is talking to M1","talk2","rating_causation","{""Q0"":1}","[0]","M3 started a conversation with M1","M1 started a conversation with M3"
"null","Kate is talking to Ruth","","html-keyboard-response","121","609083","0.0-45.0-0.0","9189","4A","woman","","null","W3 is talking to W1","talk1","sentence","","","",""
"3986.655000015162","","","survey-likert-extra-labels","122","613071","0.0-45.0-2.0","9189","4A","woman","","","W3 is talking to W1","talk1","rating_volition","{""Q0"":1}","[0]","W3 wanted to talk to W1","W1 wanted to talk to W3"
"4401.509999996051","","","survey-likert-extra-labels","123","617475","0.0-45.0-3.0-0.0","9189","4A","woman","","","W3 is talking to W1","talk1","rating_causation","{""Q0"":1}","[0]","W3 started a conversation with W1","W1 started a conversation with W3"
"null","Mike is shouting at Beth","","html-keyboard-response","124","619481","0.0-46.0-0.0","9189","4A","woman","","null","M2 is shouting at W4","shout3","sentence","","","",""
"3022.454999969341","","","survey-likert-extra-labels","125","622505","0.0-46.0-1.0-0.0","9189","4A","woman","","","M2 is shouting at W4","shout3","rating_causation","{""Q0"":6}","[0]","W4 shouted at M2 first","M2 shouted at W4 first"
"3041.4849999942817","","","survey-likert-extra-labels","126","625549","0.0-46.0-2.0","9189","4A","woman","","","M2 is shouting at W4","shout3","rating_volition","{""Q0"":5}","[0]","W4 wanted to shout at M2","M2 wanted to shout at W4"
"null","Beth is flirting with Jane","","html-keyboard-response","127","627553","0.0-47.0-0.0","9189","4A","woman","","null","W4 is flirting with W2","flirt1","sentence","","","",""
"4203.2149999868125","","","survey-likert-extra-labels","128","631758","0.0-47.0-1.0-0.0","9189","4A","woman","","","W4 is flirting with W2","flirt1","rating_causation","{""Q0"":1}","[0]","W4 started flirting with W2 first","W2 started flirting with W4 first"
"5485.080000013113","","","survey-likert-extra-labels","129","637246","0.0-47.0-2.0","9189","4A","woman","","","W4 is flirting with W2","flirt1","rating_volition","{""Q0"":0}","[0]","W4 wanted to flirt with W2","W2 wanted to flirt with W4"
"null","Fred is playing with Ruth","","html-keyboard-response","130","639249","0.0-48.0-0.0","9189","4A","woman","","null","M3 is playing with W1","play3","sentence","","","",""
"3334.9949999828823","","","survey-likert-extra-labels","131","642586","0.0-48.0-2.0","9189","4A","woman","","","M3 is playing with W1","play3","rating_volition","{""Q0"":5}","[0]","W1 wanted to play with M3","M3 wanted to play with W1"
"4124.004999990575","","","survey-likert-extra-labels","132","646713","0.0-48.0-3.0-0.0","9189","4A","woman","","","M3 is playing with W1","play3","rating_causation","{""Q0"":5}","[0]","W1 asked to play with M3","M3 asked to play with W1"
"null","Dave is marrying Mike","","html-keyboard-response","133","648717","0.0-49.0-0.0","9189","4A","woman","","null","M4 is marrying M2","marry2","sentence","","","",""
"6918.16000000108","","","survey-likert-extra-labels","134","655636","0.0-49.0-2.0","9189","4A","woman","","","M4 is marrying M2","marry2","rating_volition","{""Q0"":0}","[0]","M4 wanted to marry M2","M2 wanted to marry M4"
"3139.6850000019185","","","survey-likert-extra-labels","135","658778","0.0-49.0-3.0-0.0","9189","4A","woman","","","M4 is marrying M2","marry2","rating_causation","{""Q0"":1}","[0]","M4 asked to marry M2","M2 asked to marry M4"
"null","Dave is flirting with Mike","","html-keyboard-response","136","660783","0.0-50.0-0.0","9189","4A","woman","","null","M4 is flirting with M2","flirt2","sentence","","","",""
"2967.9899999755435","","","survey-likert-extra-labels","137","663753","0.0-50.0-1.0-0.0","9189","4A","woman","","","M4 is flirting with M2","flirt2","rating_causation","{""Q0"":1}","[0]","M4 started flirting with M2 first","M2 started flirting with M4 first"
"7551.659999997355","","","survey-likert-extra-labels","138","671303","0.0-50.0-2.0","9189","4A","woman","","","M4 is flirting with M2","flirt2","rating_volition","{""Q0"":1}","[0]","M4 wanted to flirt with M2","M2 wanted to flirt with M4"
"null","Kate is feeding Luke","","html-keyboard-response","139","673308","0.0-51.0-0.0","9189","4A","woman","","null","W3 is feeding M1","feed","sentence","","","",""
"6476.50499996962","","","survey-likert-extra-labels","140","679786","0.0-51.0-1.0-0.0","9189","4A","woman","","","W3 is feeding M1","feed","rating_causation","{""Q0"":6}","[0]","W3 is eating M1's food","M1 is eating W3's food"
"3570.2450000098906","","","survey-likert-extra-labels","141","683360","0.0-51.0-2.0","9189","4A","woman","","","W3 is feeding M1","feed","rating_volition","{""Q0"":0}","[0]","W3 is giving M1 food","M1 is giving W3 food"
"null","Luke is flirting with Kate","","html-keyboard-response","142","685367","0.0-52.0-0.0","9189","4A","woman","","null","M1 is flirting with W3","flirt3","sentence","","","",""
"4641.6999999783","","","survey-likert-extra-labels","143","690012","0.0-52.0-2.0","9189","4A","woman","","","M1 is flirting with W3","flirt3","rating_volition","{""Q0"":0}","[0]","M1 wanted to flirt with W3","W3 wanted to flirt with M1"
"4067.395000020042","","","survey-likert-extra-labels","144","694082","0.0-52.0-3.0-0.0","9189","4A","woman","","","M1 is flirting with W3","flirt3","rating_causation","{""Q0"":1}","[0]","M1 started flirting with W3 first","W3 started flirting with M1 first"
"null","Fred is dancing with Luke","","html-keyboard-response","145","696089","0.0-53.0-0.0","9189","4A","woman","","null","M3 is dancing with M1","dance2","sentence","","","",""
"8032.015000004321","","","survey-likert-extra-labels","146","704122","0.0-53.0-2.0","9189","4A","woman","","","M3 is dancing with M1","dance2","rating_volition","{""Q0"":1}","[0]","M3 wanted to dance with M1","M1 wanted to dance with M3"
"6134.68500005547","","","survey-likert-extra-labels","147","710260","0.0-53.0-3.0-0.0","9189","4A","woman","","","M3 is dancing with M1","dance2","rating_causation","{""Q0"":1}","[0]","M3 asked M1 to dance","M1 asked M3 to dance"
"null","Dave is dancing with Jane","","html-keyboard-response","148","712266","0.0-54.0-0.0","9189","4A","woman","","null","M4 is dancing with W2","dance3","sentence","","","",""
"4713.745000015479","","","survey-likert-extra-labels","149","716982","0.0-54.0-2.0","9189","4A","woman","","","M4 is dancing with W2","dance3","rating_volition","{""Q0"":0}","[0]","M4 wanted to dance with W2","W2 wanted to dance with M4"
"3506.3699999591336","","","survey-likert-extra-labels","150","720491","0.0-54.0-3.0-0.0","9189","4A","woman","","","M4 is dancing with W2","dance3","rating_causation","{""Q0"":1}","[0]","M4 asked W2 to dance","W2 asked M4 to dance"
"2099.0200000233017","<p>Thank you for completing that task.</p><p>The final part of this session is a short questionnaire.</p><p>Press Continue.</p>","0","html-button-response","151","722592","0.0-55.0","9189","4A","woman","","","","","","","","",""
"62901.16999996826","","","survey-text","152","786504","0.0-56.0","9189","4A","woman","","","","","demographics","{""Q0"":""21"",""Q1"":""English "",""Q2"":""English"",""Q3"":""England "",""Q4"":""English"",""Q5"":""White "",""Q6"":""Female""}","","",""
"3551.3449999853037","<p>Have you lived in the UK for the last 5 years or more?</p>","0","html-button-response","153","790060","0.0-57.0","9189","4A","woman","","","","","fiveyears","","","",""
"8514.770000008866","","","survey-text","154","799582","0.0-58.0","9189","4A","woman","","","","","worker_id","{""Q0"":""5f97f02ed00b3b01b7ba566b""}","","",""
"10420.924999983981","","","external-html","155","810090","0.0-59.0","9189","4A","woman","debrief.html","","","","","","","",""
