"rt","stimulus","button_pressed","trial_type","trial_index","time_elapsed","internal_node_id","subject","list","ppt_gender","url","key_press","sentence_type","verb","test_part","responses","question_order","left_part","right_part"
"38609.73500000546","Welcome to the experiment. Press Continue to begin.","0","html-button-response","0","38621","0.0-0.0","92851","2A","woman","","","","","","","","",""
"47973.56499999296","","","external-html","1","87676","0.0-1.0","92851","2A","woman","consent.html","","","","","","","",""
"34305.47999999544","<p>Welcome.</p><p>In this experiment we will ask you to imagine some situations.</p><p>Each trial starts with a description of an event.</p><p>Then you will see alternative descriptions of that event, and you will rate on a scale how best they match the original description.</p><p>You will give your answer by clicking a button on a rating scale.</p><p>To do this task, you will have to use your imagination to visualise these events.</p><br><p>Ready?</p>","0","html-button-response","2","121989","0.0-2.0","92851","2A","woman","","","","","","","","",""
"2607.640000001993","<p>Before the experiment starts, you will watch an example trial. Press 'Continue'.</p>","0","html-button-response","3","125608","0.0-3.0","92851","2A","woman","","","","","","","","",""
"null","The police officer is arresting the robber","","html-keyboard-response","4","128631","0.0-4.0","92851","2A","woman","","null","","","","","","",""
"17791.695000007167","<img src='img/Example-trial.jpg' style='height:550px;''></img>","0","html-button-response","5","146432","0.0-5.0","92851","2A","woman","","","","","","","","",""
"52099.67999999935","<p>Ready to start the experiment?</p><br><p><strong>Remember to give an answer by clicking a button on the rating scale.</strong></p><p>Press 'Continue' to begin.</p>","0","html-button-response","6","199545","0.0-6.0","92851","2A","woman","","","","","","","","",""
"null","Dave is shouting at Jane","","html-keyboard-response","7","202586","0.0-7.0-0.0","92851","2A","woman","","null","M4 is shouting at W2","shout4","sentence","","","",""
"27779.49999998964","","","survey-likert-extra-labels","8","230386","0.0-7.0-2.0","92851","2A","woman","","","M4 is shouting at W2","shout4","rating_volition","{""Q0"":0}","[0]","M4 wanted to shout at W2","W2 wanted to shout at M4"
"181319.2599999893","","","survey-likert-extra-labels","9","411730","0.0-7.0-3.0-0.0","92851","2A","woman","","","M4 is shouting at W2","shout4","rating_causation","{""Q0"":0}","[0]","M4 shouted at W2 first","W2 shouted at M4 first"
"null","Jane is dancing with Dave","","html-keyboard-response","10","413753","0.0-8.0-0.0","92851","2A","woman","","null","W2 is dancing with M4","dance3","sentence","","","",""
"7417.560000001686","","","survey-likert-extra-labels","11","421175","0.0-8.0-2.0","92851","2A","woman","","","W2 is dancing with M4","dance3","rating_volition","{""Q0"":3}","[0]","M4 wanted to dance with W2","W2 wanted to dance with M4"
"7402.900000000955","","","survey-likert-extra-labels","12","428602","0.0-8.0-3.0-0.0","92851","2A","woman","","","W2 is dancing with M4","dance3","rating_causation","{""Q0"":3}","[0]","M4 asked W2 to dance","W2 asked M4 to dance"
"null","Ruth is chasing Kate","","html-keyboard-response","13","430626","0.0-9.0-0.0","92851","2A","woman","","null","W1 is chasing W3","chase","sentence","","","",""
"4970.954999997048","","","survey-likert-extra-labels","14","435607","0.0-9.0-1.0-0.0","92851","2A","woman","","","W1 is chasing W3","chase","rating_causation","{""Q0"":6}","[0]","W1 is running away from W3","W3 is running away from W1"
"6673.275000008289","","","survey-likert-extra-labels","15","442304","0.0-9.0-2.0","92851","2A","woman","","","W1 is chasing W3","chase","rating_volition","{""Q0"":0}","[0]","W1 is behind W3","W3 is behind W1"
"null","Kate is shouting at Ruth","","html-keyboard-response","16","444330","0.0-10.0-0.0","92851","2A","woman","","null","W3 is shouting at W1","shout1","sentence","","","",""
"9512.640000000829","","","survey-likert-extra-labels","17","453847","0.0-10.0-1.0-0.0","92851","2A","woman","","","W3 is shouting at W1","shout1","rating_causation","{""Q0"":2}","[0]","W3 shouted at W1 first","W1 shouted at W3 first"
"55073.61000000674","","","survey-likert-extra-labels","18","508944","0.0-10.0-2.0","92851","2A","woman","","","W3 is shouting at W1","shout1","rating_volition","{""Q0"":2}","[0]","W3 wanted to shout at W1","W1 wanted to shout at W3"
"null","Jane is touching Beth","","html-keyboard-response","19","510977","0.0-11.0-0.0","92851","2A","woman","","null","W2 is touching W4","touch1","sentence","","","",""
"7185.370000006515","","","survey-likert-extra-labels","20","518172","0.0-11.0-1.0-0.0","92851","2A","woman","","","W2 is touching W4","touch1","rating_causation","{""Q0"":4}","[0]","W4 asked to touch W2","W2 asked to touch W4"
"3897.319999989122","","","survey-likert-extra-labels","21","522088","0.0-11.0-2.0","92851","2A","woman","","","W2 is touching W4","touch1","rating_volition","{""Q0"":5}","[0]","W4 wanted to touch W2","W2 wanted to touch W4"
"null","Ruth is talking to Kate","","html-keyboard-response","22","524116","0.0-12.0-0.0","92851","2A","woman","","null","W1 is talking to W3","talk1","sentence","","","",""
"8331.83999999892","","","survey-likert-extra-labels","23","532458","0.0-12.0-1.0-0.0","92851","2A","woman","","","W1 is talking to W3","talk1","rating_causation","{""Q0"":5}","[0]","W3 started a conversation with W1","W1 started a conversation with W3"
"109864.26500001107","","","survey-likert-extra-labels","24","642345","0.0-12.0-2.0","92851","2A","woman","","","W1 is talking to W3","talk1","rating_volition","{""Q0"":5}","[0]","W3 wanted to talk to W1","W1 wanted to talk to W3"
"null","Luke is kissing Fred","","html-keyboard-response","25","644371","0.0-13.0-0.0","92851","2A","woman","","null","M1 is kissing M3","kiss2","sentence","","","",""
"25217.94499999669","","","survey-likert-extra-labels","26","669598","0.0-13.0-1.0-0.0","92851","2A","woman","","","M1 is kissing M3","kiss2","rating_causation","{""Q0"":4}","[0]","M3 asked to kiss M1","M1 asked to kiss M3"
"8520.504999993136","","","survey-likert-extra-labels","27","678143","0.0-13.0-2.0","92851","2A","woman","","","M1 is kissing M3","kiss2","rating_volition","{""Q0"":6}","[0]","M3 wanted to kiss M1","M1 wanted to kiss M3"
"null","Beth is playing with Jane","","html-keyboard-response","28","680179","0.0-14.0-0.0","92851","2A","woman","","null","W4 is playing with W2","play1","sentence","","","",""
"6467.064999989816","","","survey-likert-extra-labels","29","686659","0.0-14.0-1.0-0.0","92851","2A","woman","","","W4 is playing with W2","play1","rating_causation","{""Q0"":2}","[0]","W4 asked to play with W2","W2 asked to play with W4"
"8860.889999996289","","","survey-likert-extra-labels","30","695543","0.0-14.0-2.0","92851","2A","woman","","","W4 is playing with W2","play1","rating_volition","{""Q0"":1}","[0]","W4 wanted to play with W2","W2 wanted to play with W4"
"null","Beth is shouting at Mike","","html-keyboard-response","31","697575","0.0-15.0-0.0","92851","2A","woman","","null","W4 is shouting at M2","shout3","sentence","","","",""
"11914.96000000916","","","survey-likert-extra-labels","32","709499","0.0-15.0-1.0-0.0","92851","2A","woman","","","W4 is shouting at M2","shout3","rating_causation","{""Q0"":3}","[0]","W4 shouted at M2 first","M2 shouted at W4 first"
"9128.805000000284","","","survey-likert-extra-labels","33","718652","0.0-15.0-2.0","92851","2A","woman","","","W4 is shouting at M2","shout3","rating_volition","{""Q0"":2}","[0]","W4 wanted to shout at M2","M2 wanted to shout at W4"
"null","Kate is touching Luke","","html-keyboard-response","34","720677","0.0-16.0-0.0","92851","2A","woman","","null","W3 is touching M1","touch3","sentence","","","",""
"7457.909999997355","","","survey-likert-extra-labels","35","728144","0.0-16.0-1.0-0.0","92851","2A","woman","","","W3 is touching M1","touch3","rating_causation","{""Q0"":4}","[0]","M1 asked to touch W3","W3 asked to touch M1"
"3933.145000002696","","","survey-likert-extra-labels","36","732100","0.0-16.0-2.0","92851","2A","woman","","","W3 is touching M1","touch3","rating_volition","{""Q0"":5}","[0]","M1 wanted to touch W3","W3 wanted to touch M1"
"null","Kate is feeding Luke","","html-keyboard-response","37","734123","0.0-17.0-0.0","92851","2A","woman","","null","W3 is feeding M1","feed","sentence","","","",""
"49645.4950000043","","","survey-likert-extra-labels","38","783778","0.0-17.0-1.0-0.0","92851","2A","woman","","","W3 is feeding M1","feed","rating_causation","{""Q0"":3}","[0]","W3 is eating M1's food","M1 is eating W3's food"
"3600.1350000005914","","","survey-likert-extra-labels","39","787402","0.0-17.0-2.0","92851","2A","woman","","","W3 is feeding M1","feed","rating_volition","{""Q0"":0}","[0]","W3 is giving M1 food","M1 is giving W3 food"
"null","Fred is arguing with Luke","","html-keyboard-response","40","789423","0.0-18.0-0.0","92851","2A","woman","","null","M3 is arguing with M1","argue2","sentence","","","",""
"3360.755000001518","","","survey-likert-extra-labels","41","792794","0.0-18.0-1.0-0.0","92851","2A","woman","","","M3 is arguing with M1","argue2","rating_causation","{""Q0"":3}","[0]","M3 started an argument with M1","M1 started an argument with M3"
"6566.950000007637","","","survey-likert-extra-labels","42","799384","0.0-18.0-2.0","92851","2A","woman","","","M3 is arguing with M1","argue2","rating_volition","{""Q0"":1}","[0]","M3 wanted to argue with M1","M1 wanted to argue with M3"
"null","Jane is talking to Dave","","html-keyboard-response","43","801409","0.0-19.0-0.0","92851","2A","woman","","null","W2 is talking to M4","talk3","sentence","","","",""
"3087.2400000080233","","","survey-likert-extra-labels","44","804506","0.0-19.0-2.0","92851","2A","woman","","","W2 is talking to M4","talk3","rating_volition","{""Q0"":3}","[0]","M4 wanted to talk to W2","W2 wanted to talk to M4"
"3493.289999998524","","","survey-likert-extra-labels","45","808023","0.0-19.0-3.0-0.0","92851","2A","woman","","","W2 is talking to M4","talk3","rating_causation","{""Q0"":5}","[0]","M4 started a conversation with W2","W2 started a conversation with M4"
"null","Ruth is kissing Kate","","html-keyboard-response","46","810045","0.0-20.0-0.0","92851","2A","woman","","null","W1 is kissing W3","kiss1","sentence","","","",""
"4412.750000003143","","","survey-likert-extra-labels","47","814467","0.0-20.0-1.0-0.0","92851","2A","woman","","","W1 is kissing W3","kiss1","rating_causation","{""Q0"":3}","[0]","W3 asked to kiss W1","W1 asked to kiss W3"
"3940.985000008368","","","survey-likert-extra-labels","48","818430","0.0-20.0-2.0","92851","2A","woman","","","W1 is kissing W3","kiss1","rating_volition","{""Q0"":4}","[0]","W3 wanted to kiss W1","W1 wanted to kiss W3"
"null","Beth is arguing with Mike","","html-keyboard-response","49","820466","0.0-21.0-0.0","92851","2A","woman","","null","W4 is arguing with M2","argue4","sentence","","","",""
"3883.5699999908684","","","survey-likert-extra-labels","50","824359","0.0-21.0-2.0","92851","2A","woman","","","W4 is arguing with M2","argue4","rating_volition","{""Q0"":3}","[0]","W4 wanted to argue with M2","M2 wanted to argue with W4"
"3480.6600000010803","","","survey-likert-extra-labels","51","827863","0.0-21.0-3.0-0.0","92851","2A","woman","","","W4 is arguing with M2","argue4","rating_causation","{""Q0"":2}","[0]","W4 started an argument with M2","M2 started an argument with W4"
"null","Mike is dancing with Beth","","html-keyboard-response","52","829894","0.0-22.0-0.0","92851","2A","woman","","null","M2 is dancing with W4","dance4","sentence","","","",""
"25190.72500000766","","","survey-likert-extra-labels","53","855095","0.0-22.0-1.0-0.0","92851","2A","woman","","","M2 is dancing with W4","dance4","rating_causation","{""Q0"":3}","[0]","W4 asked M2 to dance","M2 asked W4 to dance"
"5304.32500000461","","","survey-likert-extra-labels","54","860423","0.0-22.0-2.0","92851","2A","woman","","","M2 is dancing with W4","dance4","rating_volition","{""Q0"":5}","[0]","W4 wanted to dance with M2","M2 wanted to dance with W4"
"null","Ruth is fighting with Fred","","html-keyboard-response","55","862451","0.0-23.0-0.0","92851","2A","woman","","null","W1 is fighting with M3","fight4","sentence","","","",""
"3643.0899999977555","","","survey-likert-extra-labels","56","866104","0.0-23.0-2.0","92851","2A","woman","","","W1 is fighting with M3","fight4","rating_volition","{""Q0"":3}","[0]","W1 wanted to fight M3","M3 wanted to fight W1"
"4754.390000001877","","","survey-likert-extra-labels","57","870880","0.0-23.0-3.0-0.0","92851","2A","woman","","","W1 is fighting with M3","fight4","rating_causation","{""Q0"":1}","[0]","W1 started the fight with M3","M3 started the fight with W1"
"null","Mike is touching Dave","","html-keyboard-response","58","872906","0.0-24.0-0.0","92851","2A","woman","","null","M2 is touching M4","touch2","sentence","","","",""
"4669.65500000515","","","survey-likert-extra-labels","59","877586","0.0-24.0-2.0","92851","2A","woman","","","M2 is touching M4","touch2","rating_volition","{""Q0"":4}","[0]","M4 wanted to touch M2","M2 wanted to touch M4"
"4595.310000004247","","","survey-likert-extra-labels","60","882204","0.0-24.0-3.0-0.0","92851","2A","woman","","","M2 is touching M4","touch2","rating_causation","{""Q0"":5}","[0]","M4 asked to touch M2","M2 asked to touch M4"
"null","Fred is hiring Ruth","","html-keyboard-response","61","884230","0.0-25.0-0.0","92851","2A","woman","","null","M3 is hiring W1","hire","sentence","","","",""
"5112.624999994296","","","survey-likert-extra-labels","62","889353","0.0-25.0-2.0","92851","2A","woman","","","M3 is hiring W1","hire","rating_volition","{""Q0"":0}","[0]","M3 is employing W1","W1 is employing M3"
"10946.429999996326","","","survey-likert-extra-labels","63","900321","0.0-25.0-3.0-0.0","92851","2A","woman","","","M3 is hiring W1","hire","rating_causation","{""Q0"":6}","[0]","M3 will work for W1","W1 will work for M3"
"null","Mike is reminding Beth","","html-keyboard-response","64","902345","0.0-26.0-0.0","92851","2A","woman","","null","M2 is reminding W4","remind","sentence","","","",""
"5659.294999990379","","","survey-likert-extra-labels","65","908014","0.0-26.0-2.0","92851","2A","woman","","","M2 is reminding W4","remind","rating_volition","{""Q0"":0}","[0]","M2 is telling W4 again","W4 is telling M2 again"
"9857.694999998785","","","survey-likert-extra-labels","66","917894","0.0-26.0-3.0-0.0","92851","2A","woman","","","M2 is reminding W4","remind","rating_causation","{""Q0"":6}","[0]","M2 is remembering","W4 is remembering"
"null","Jane is carrying Beth","","html-keyboard-response","67","919919","0.0-27.0-0.0","92851","2A","woman","","null","W2 is carrying W4","carry","sentence","","","",""
"9187.959999995655","","","survey-likert-extra-labels","68","929117","0.0-27.0-2.0","92851","2A","woman","","","W2 is carrying W4","carry","rating_volition","{""Q0"":2}","[0]","W2 is transporting W4","W4 is transporting W2"
"5391.710000010789","","","survey-likert-extra-labels","69","934527","0.0-27.0-3.0-0.0","92851","2A","woman","","","W2 is carrying W4","carry","rating_causation","{""Q0"":6}","[0]","W2 is being moved by W4","W4 is being moved by W2"
"null","Luke is playing with Kate","","html-keyboard-response","70","936549","0.0-28.0-0.0","92851","2A","woman","","null","M1 is playing with W3","play4","sentence","","","",""
"5659.299999999348","","","survey-likert-extra-labels","71","942219","0.0-28.0-2.0","92851","2A","woman","","","M1 is playing with W3","play4","rating_volition","{""Q0"":2}","[0]","M1 wanted to play with W3","W3 wanted to play with M1"
"3629.0200000075856","","","survey-likert-extra-labels","72","945871","0.0-28.0-3.0-0.0","92851","2A","woman","","","M1 is playing with W3","play4","rating_causation","{""Q0"":1}","[0]","M1 asked to play with W3","W3 asked to play with M1"
"null","Mike is flirting with Dave","","html-keyboard-response","73","947898","0.0-29.0-0.0","92851","2A","woman","","null","M2 is flirting with M4","flirt2","sentence","","","",""
"24054.089999990538","","","survey-likert-extra-labels","74","971956","0.0-29.0-1.0-0.0","92851","2A","woman","","","M2 is flirting with M4","flirt2","rating_causation","{""Q0"":4}","[0]","M4 started flirting with M2 first","M2 started flirting with M4 first"
"28924.660000004224","","","survey-likert-extra-labels","75","1000904","0.0-29.0-2.0","92851","2A","woman","","","M2 is flirting with M4","flirt2","rating_volition","{""Q0"":6}","[0]","M4 wanted to flirt with M2","M2 wanted to flirt with M4"
"null","Kate is arguing with Ruth","","html-keyboard-response","76","1002928","0.0-30.0-0.0","92851","2A","woman","","null","W3 is arguing with W1","argue1","sentence","","","",""
"6701.800000009825","","","survey-likert-extra-labels","77","1009641","0.0-30.0-1.0-0.0","92851","2A","woman","","","W3 is arguing with W1","argue1","rating_causation","{""Q0"":2}","[0]","W3 started an argument with W1","W1 started an argument with W3"
"3787.7299999963725","","","survey-likert-extra-labels","78","1013453","0.0-30.0-2.0","92851","2A","woman","","","W3 is arguing with W1","argue1","rating_volition","{""Q0"":1}","[0]","W3 wanted to argue with W1","W1 wanted to argue with W3"
"null","Mike is talking to Beth","","html-keyboard-response","79","1015486","0.0-31.0-0.0","92851","2A","woman","","null","M2 is talking to W4","talk4","sentence","","","",""
"5593.204999997397","","","survey-likert-extra-labels","80","1021084","0.0-31.0-1.0-0.0","92851","2A","woman","","","M2 is talking to W4","talk4","rating_causation","{""Q0"":3}","[0]","W4 started a conversation with M2","M2 started a conversation with W4"
"4005.18499998725","","","survey-likert-extra-labels","81","1025113","0.0-31.0-2.0","92851","2A","woman","","","M2 is talking to W4","talk4","rating_volition","{""Q0"":5}","[0]","W4 wanted to talk to M2","M2 wanted to talk to W4"
"null","Mike is marrying Dave","","html-keyboard-response","82","1027142","0.0-32.0-0.0","92851","2A","woman","","null","M2 is marrying M4","marry2","sentence","","","",""
"5772.4900000030175","","","survey-likert-extra-labels","83","1032925","0.0-32.0-2.0","92851","2A","woman","","","M2 is marrying M4","marry2","rating_volition","{""Q0"":3}","[0]","M4 wanted to marry M2","M2 wanted to marry M4"
"9624.730000010459","","","survey-likert-extra-labels","84","1042574","0.0-32.0-3.0-0.0","92851","2A","woman","","","M2 is marrying M4","marry2","rating_causation","{""Q0"":4}","[0]","M4 asked to marry M2","M2 asked to marry M4"
"null","Fred is marrying Ruth","","html-keyboard-response","85","1044601","0.0-33.0-0.0","92851","2A","woman","","null","M3 is marrying W1","marry3","sentence","","","",""
"8199.800000002026","","","survey-likert-extra-labels","86","1052814","0.0-33.0-1.0-0.0","92851","2A","woman","","","M3 is marrying W1","marry3","rating_causation","{""Q0"":4}","[0]","W1 asked to marry M3","M3 asked to marry W1"
"6864.3100000047125","","","survey-likert-extra-labels","87","1059703","0.0-33.0-2.0","92851","2A","woman","","","M3 is marrying W1","marry3","rating_volition","{""Q0"":3}","[0]","W1 wanted to marry M3","M3 wanted to marry W1"
"null","Dave is playing with Mike","","html-keyboard-response","88","1061727","0.0-34.0-0.0","92851","2A","woman","","null","M4 is playing with M2","play2","sentence","","","",""
"4264.850000006612","","","survey-likert-extra-labels","89","1066003","0.0-34.0-2.0","92851","2A","woman","","","M4 is playing with M2","play2","rating_volition","{""Q0"":3}","[0]","M4 wanted to play with M2","M2 wanted to play with M4"
"3133.134999996284","","","survey-likert-extra-labels","90","1069159","0.0-34.0-3.0-0.0","92851","2A","woman","","","M4 is playing with M2","play2","rating_causation","{""Q0"":2}","[0]","M4 asked to play with M2","M2 asked to play with M4"
"null","Kate is marrying Luke","","html-keyboard-response","91","1071190","0.0-35.0-0.0","92851","2A","woman","","null","W3 is marrying M1","marry4","sentence","","","",""
"5914.680000001565","","","survey-likert-extra-labels","92","1077115","0.0-35.0-1.0-0.0","92851","2A","woman","","","W3 is marrying M1","marry4","rating_causation","{""Q0"":2}","[0]","M1 asked to marry W3","W3 asked to marry M1"
"2693.7899999902584","","","survey-likert-extra-labels","93","1079831","0.0-35.0-2.0","92851","2A","woman","","","W3 is marrying M1","marry4","rating_volition","{""Q0"":3}","[0]","M1 wanted to marry W3","W3 wanted to marry M1"
"null","Jane is teaching Dave","","html-keyboard-response","94","1081860","0.0-36.0-0.0","92851","2A","woman","","null","W2 is teaching M4","teach","sentence","","","",""
"4317.804999998771","","","survey-likert-extra-labels","95","1086189","0.0-36.0-1.0-0.0","92851","2A","woman","","","W2 is teaching M4","teach","rating_causation","{""Q0"":6}","[0]","W2 is learning from M4","M4 is learning from W2"
"3867.8849999995437","","","survey-likert-extra-labels","96","1090080","0.0-36.0-2.0","92851","2A","woman","","","W2 is teaching M4","teach","rating_volition","{""Q0"":0}","[0]","W2 is educating M4","M4 is educating W2"
"null","Luke is fighting with Kate","","html-keyboard-response","97","1092109","0.0-37.0-0.0","92851","2A","woman","","null","M1 is fighting with W3","fight3","sentence","","","",""
"6036.849999989616","","","survey-likert-extra-labels","98","1098156","0.0-37.0-2.0","92851","2A","woman","","","M1 is fighting with W3","fight3","rating_volition","{""Q0"":3}","[0]","M1 wanted to fight W3","W3 wanted to fight M1"
"2468.605000001844","","","survey-likert-extra-labels","99","1100648","0.0-37.0-3.0-0.0","92851","2A","woman","","","M1 is fighting with W3","fight3","rating_causation","{""Q0"":2}","[0]","M1 started the fight with W3","W3 started the fight with M1"
"null","Fred is shouting at Luke","","html-keyboard-response","100","1102671","0.0-38.0-0.0","92851","2A","woman","","null","M3 is shouting at M1","shout2","sentence","","","",""
"48020.62500000466","","","survey-likert-extra-labels","101","1150703","0.0-38.0-1.0-0.0","92851","2A","woman","","","M3 is shouting at M1","shout2","rating_causation","{""Q0"":3}","[0]","M3 shouted at M1 first","M1 shouted at M3 first"
"3630.044999998063","","","survey-likert-extra-labels","102","1154357","0.0-38.0-2.0","92851","2A","woman","","","M3 is shouting at M1","shout2","rating_volition","{""Q0"":3}","[0]","M3 wanted to shout at M1","M1 wanted to shout at M3"
"null","Dave is fighting with Mike","","html-keyboard-response","103","1156379","0.0-39.0-0.0","92851","2A","woman","","null","M4 is fighting with M2","fight2","sentence","","","",""
"5455.795000001555","","","survey-likert-extra-labels","104","1161846","0.0-39.0-2.0","92851","2A","woman","","","M4 is fighting with M2","fight2","rating_volition","{""Q0"":3}","[0]","M4 wanted to fight M2","M2 wanted to fight M4"
"4529.54999999213","","","survey-likert-extra-labels","105","1166407","0.0-39.0-3.0-0.0","92851","2A","woman","","","M4 is fighting with M2","fight2","rating_causation","{""Q0"":2}","[0]","M4 started the fight with M2","M2 started the fight with M4"
"null","Ruth is playing with Fred","","html-keyboard-response","106","1168442","0.0-40.0-0.0","92851","2A","woman","","null","W1 is playing with M3","play3","sentence","","","",""
"4137.604999996256","","","survey-likert-extra-labels","107","1172589","0.0-40.0-1.0-0.0","92851","2A","woman","","","W1 is playing with M3","play3","rating_causation","{""Q0"":3}","[0]","W1 asked to play with M3","M3 asked to play with W1"
"3219.8899999931455","","","survey-likert-extra-labels","108","1175827","0.0-40.0-2.0","92851","2A","woman","","","W1 is playing with M3","play3","rating_volition","{""Q0"":1}","[0]","W1 wanted to play with M3","M3 wanted to play with W1"
"null","Dave is arguing with Jane","","html-keyboard-response","109","1177849","0.0-41.0-0.0","92851","2A","woman","","null","M4 is arguing with W2","argue3","sentence","","","",""
"4138.324999992503","","","survey-likert-extra-labels","110","1181999","0.0-41.0-1.0-0.0","92851","2A","woman","","","M4 is arguing with W2","argue3","rating_causation","{""Q0"":3}","[0]","M4 started an argument with W2","W2 started an argument with M4"
"5219.809999995166","","","survey-likert-extra-labels","111","1187243","0.0-41.0-2.0","92851","2A","woman","","","M4 is arguing with W2","argue3","rating_volition","{""Q0"":2}","[0]","M4 wanted to argue with W2","W2 wanted to argue with M4"
"null","Fred is flirting with Ruth","","html-keyboard-response","112","1189272","0.0-42.0-0.0","92851","2A","woman","","null","M3 is flirting with W1","flirt4","sentence","","","",""
"4109.7450000087265","","","survey-likert-extra-labels","113","1193391","0.0-42.0-1.0-0.0","92851","2A","woman","","","M3 is flirting with W1","flirt4","rating_causation","{""Q0"":5}","[0]","W1 started flirting with M3 first","M3 started flirting with W1 first"
"5892.01500000502","","","survey-likert-extra-labels","114","1199304","0.0-42.0-2.0","92851","2A","woman","","","M3 is flirting with W1","flirt4","rating_volition","{""Q0"":6}","[0]","W1 wanted to flirt with M3","M3 wanted to flirt with W1"
"null","Mike is kissing Beth","","html-keyboard-response","115","1201337","0.0-43.0-0.0","92851","2A","woman","","null","M2 is kissing W4","kiss3","sentence","","","",""
"32290.37499999674","","","survey-likert-extra-labels","116","1233637","0.0-43.0-2.0","92851","2A","woman","","","M2 is kissing W4","kiss3","rating_volition","{""Q0"":4}","[0]","W4 wanted to kiss M2","M2 wanted to kiss W4"
"4591.345000007888","","","survey-likert-extra-labels","117","1238251","0.0-43.0-3.0-0.0","92851","2A","woman","","","M2 is kissing W4","kiss3","rating_causation","{""Q0"":4}","[0]","W4 asked to kiss M2","M2 asked to kiss W4"
"null","Mike is posing for Dave","","html-keyboard-response","118","1240287","0.0-44.0-0.0","92851","2A","woman","","null","M2 is posing for M4","pose","sentence","","","",""
"11909.800000008428","","","survey-likert-extra-labels","119","1252201","0.0-44.0-2.0","92851","2A","woman","","","M2 is posing for M4","pose","rating_volition","{""Q0"":0}","[0]","M2 is modelling for M4","M4 is modelling for M2"
"9860.054999997374","","","survey-likert-extra-labels","120","1262081","0.0-44.0-3.0-0.0","92851","2A","woman","","","M2 is posing for M4","pose","rating_causation","{""Q0"":5}","[0]","M2 is photographing M4","M4 is photographing M2"
"null","Fred is touching Ruth","","html-keyboard-response","121","1264109","0.0-45.0-0.0","92851","2A","woman","","null","M3 is touching W1","touch4","sentence","","","",""
"11693.359999990324","","","survey-likert-extra-labels","122","1275807","0.0-45.0-1.0-0.0","92851","2A","woman","","","M3 is touching W1","touch4","rating_causation","{""Q0"":5}","[0]","W1 asked to touch M3","M3 asked to touch W1"
"3572.504999989178","","","survey-likert-extra-labels","123","1279403","0.0-45.0-2.0","92851","2A","woman","","","M3 is touching W1","touch4","rating_volition","{""Q0"":6}","[0]","W1 wanted to touch M3","M3 wanted to touch W1"
"null","Luke is dancing with Fred","","html-keyboard-response","124","1281429","0.0-46.0-0.0","92851","2A","woman","","null","M1 is dancing with M3","dance2","sentence","","","",""
"5577.309999993071","","","survey-likert-extra-labels","125","1287016","0.0-46.0-1.0-0.0","92851","2A","woman","","","M1 is dancing with M3","dance2","rating_causation","{""Q0"":3}","[0]","M3 asked M1 to dance","M1 asked M3 to dance"
"5384.12000000244","","","survey-likert-extra-labels","126","1292424","0.0-46.0-2.0","92851","2A","woman","","","M1 is dancing with M3","dance2","rating_volition","{""Q0"":5}","[0]","M3 wanted to dance with M1","M1 wanted to dance with M3"
"null","Luke is driving Fred","","html-keyboard-response","127","1294458","0.0-47.0-0.0","92851","2A","woman","","null","M1 is driving M3","drive","sentence","","","",""
"49656.25","","","survey-likert-extra-labels","128","1344132","0.0-47.0-2.0","92851","2A","woman","","","M1 is driving M3","drive","rating_volition","{""Q0"":0}","[0]","M3 is M1's passenger","M1 is M3's passenger"
"4168.804999993881","","","survey-likert-extra-labels","129","1348324","0.0-47.0-3.0-0.0","92851","2A","woman","","","M1 is driving M3","drive","rating_causation","{""Q0"":6}","[0]","M3 is taking M1 somewhere","M1 is taking M3 somewhere"
"null","Luke is talking to Fred","","html-keyboard-response","130","1350348","0.0-48.0-0.0","92851","2A","woman","","null","M1 is talking to M3","talk2","sentence","","","",""
"5162.164999986999","","","survey-likert-extra-labels","131","1355520","0.0-48.0-1.0-0.0","92851","2A","woman","","","M1 is talking to M3","talk2","rating_causation","{""Q0"":4}","[0]","M3 started a conversation with M1","M1 started a conversation with M3"
"2645.1750000123866","","","survey-likert-extra-labels","132","1358188","0.0-48.0-2.0","92851","2A","woman","","","M1 is talking to M3","talk2","rating_volition","{""Q0"":5}","[0]","M3 wanted to talk to M1","M1 wanted to talk to M3"
"null","Jane is marrying Beth","","html-keyboard-response","133","1360211","0.0-49.0-0.0","92851","2A","woman","","null","W2 is marrying W4","marry1","sentence","","","",""
"5448.219999991357","","","survey-likert-extra-labels","134","1365668","0.0-49.0-2.0","92851","2A","woman","","","W2 is marrying W4","marry1","rating_volition","{""Q0"":3}","[0]","W4 wanted to marry W2","W2 wanted to marry W4"
"4426.850000003353","","","survey-likert-extra-labels","135","1370116","0.0-49.0-3.0-0.0","92851","2A","woman","","","W2 is marrying W4","marry1","rating_causation","{""Q0"":5}","[0]","W4 asked to marry W2","W2 asked to marry W4"
"null","Ruth is dancing with Kate","","html-keyboard-response","136","1372148","0.0-50.0-0.0","92851","2A","woman","","null","W1 is dancing with W3","dance1","sentence","","","",""
"6043.084999997634","","","survey-likert-extra-labels","137","1378200","0.0-50.0-1.0-0.0","92851","2A","woman","","","W1 is dancing with W3","dance1","rating_causation","{""Q0"":3}","[0]","W3 asked W1 to dance","W1 asked W3 to dance"
"3966.395000010263","","","survey-likert-extra-labels","138","1382189","0.0-50.0-2.0","92851","2A","woman","","","W1 is dancing with W3","dance1","rating_volition","{""Q0"":4}","[0]","W3 wanted to dance with W1","W1 wanted to dance with W3"
"null","Beth is fighting with Jane","","html-keyboard-response","139","1384214","0.0-51.0-0.0","92851","2A","woman","","null","W4 is fighting with W2","fight1","sentence","","","",""
"3277.2200000034645","","","survey-likert-extra-labels","140","1387501","0.0-51.0-1.0-0.0","92851","2A","woman","","","W4 is fighting with W2","fight1","rating_causation","{""Q0"":3}","[0]","W4 started the fight with W2","W2 started the fight with W4"
"2349.9199999934062","","","survey-likert-extra-labels","141","1389874","0.0-51.0-2.0","92851","2A","woman","","","W4 is fighting with W2","fight1","rating_volition","{""Q0"":2}","[0]","W4 wanted to fight W2","W2 wanted to fight W4"
"null","Kate is flirting with Luke","","html-keyboard-response","142","1391897","0.0-52.0-0.0","92851","2A","woman","","null","W3 is flirting with M1","flirt3","sentence","","","",""
"4698.399999993853","","","survey-likert-extra-labels","143","1396605","0.0-52.0-2.0","92851","2A","woman","","","W3 is flirting with M1","flirt3","rating_volition","{""Q0"":5}","[0]","M1 wanted to flirt with W3","W3 wanted to flirt with M1"
"4436.610000004526","","","survey-likert-extra-labels","144","1401065","0.0-52.0-3.0-0.0","92851","2A","woman","","","W3 is flirting with M1","flirt3","rating_causation","{""Q0"":4}","[0]","M1 started flirting with W3 first","W3 started flirting with M1 first"
"null","Jane is kissing Dave","","html-keyboard-response","145","1403090","0.0-53.0-0.0","92851","2A","woman","","null","W2 is kissing M4","kiss4","sentence","","","",""
"8290.09500000393","","","survey-likert-extra-labels","146","1411390","0.0-53.0-1.0-0.0","92851","2A","woman","","","W2 is kissing M4","kiss4","rating_causation","{""Q0"":3}","[0]","M4 asked to kiss W2","W2 asked to kiss M4"
"5200.325000012526","","","survey-likert-extra-labels","147","1416614","0.0-53.0-2.0","92851","2A","woman","","","W2 is kissing M4","kiss4","rating_volition","{""Q0"":5}","[0]","M4 wanted to kiss W2","W2 wanted to kiss M4"
"null","Jane is flirting with Beth","","html-keyboard-response","148","1418644","0.0-54.0-0.0","92851","2A","woman","","null","W2 is flirting with W4","flirt1","sentence","","","",""
"4724.130000002217","","","survey-likert-extra-labels","149","1423378","0.0-54.0-1.0-0.0","92851","2A","woman","","","W2 is flirting with W4","flirt1","rating_causation","{""Q0"":3}","[0]","W4 started flirting with W2 first","W2 started flirting with W4 first"
"5456.799999999814","","","survey-likert-extra-labels","150","1428858","0.0-54.0-2.0","92851","2A","woman","","","W2 is flirting with W4","flirt1","rating_volition","{""Q0"":5}","[0]","W4 wanted to flirt with W2","W2 wanted to flirt with W4"
"1170.9300000073854","<p>Thank you for completing that task.</p><p>The final part of this session is a short questionnaire.</p><p>Press Continue.</p>","0","html-button-response","151","1430050","0.0-55.0","92851","2A","woman","","","","","","","","",""
"39225.63000000082","","","survey-text","152","1470337","0.0-56.0","92851","2A","woman","","","","","demographics","{""Q0"":""22"",""Q1"":""English"",""Q2"":""English"",""Q3"":""England"",""Q4"":""British"",""Q5"":""Black African "",""Q6"":""Female""}","","",""
"1838.2549999952316","<p>Have you lived in the UK for the last 5 years or more?</p>","0","html-button-response","153","1472182","0.0-57.0","92851","2A","woman","","","","","fiveyears","","","",""
"7116.844999996712","","","survey-text","154","1480331","0.0-58.0","92851","2A","woman","","","","","worker_id","{""Q0"":""5f31d0120f6332109b59f367""}","","",""
"20922.009999994887","","","external-html","155","1501304","0.0-59.0","92851","2A","woman","debrief.html","","","","","","","",""
