id,rt,stimulus,button_pressed,trial_type,trial_index,time_elapsed,internal_node_id,subject,list,ppt_gender,ppt_language,url,first_guess,correct,key_press,responses,image,verb,phrase,condition,test_part,ptptID,ppt_race,figure_gender,figure_race,first_guess_num,like_me_gender,like_me_race,OverallLikeMe,LikeMeFeature
./data_edited_for_spelling/11298_EnglishWomanB.csv,21265,"<img src=""portrait/BW2.jpg""style=""height:400px;""></img>",2,html-button-response,4,1520878,0.0-3.0-1.0,11298,ListB,woman,english,NA,TRUE,2,NA,NA,NA,NA,NA,NA,NA,NA,asian,woman,black,1,1,0,0,Gender Match Race No-Match
./data_edited_for_spelling/11298_EnglishWomanB.csv,2309,"<img src=""portrait/WW2.jpg""style=""height:400px;""></img>",3,html-button-response,6,1524696,0.0-3.0-4.0,11298,ListB,woman,english,NA,TRUE,3,NA,NA,NA,NA,NA,NA,NA,NA,asian,woman,asian,1,1,1,1,Gender Match Race Match
./data_edited_for_spelling/11298_EnglishWomanB.csv,2845,"<img src=""portrait/WM2.jpg""style=""height:400px;""></img>",6,html-button-response,8,1529045,0.0-3.0-7.0,11298,ListB,woman,english,NA,TRUE,7,NA,NA,NA,NA,NA,NA,NA,NA,asian,man,asian,1,0,1,0,Gender No-Match Race Match
./data_edited_for_spelling/11298_EnglishWomanB.csv,4831,"<img src=""portrait/WM2.jpg""style=""height:400px;""></img>",7,html-button-response,9,1534879,0.0-3.0-9.0-0.0,11298,ListB,woman,english,NA,FALSE,7,NA,NA,NA,NA,NA,NA,NA,NA,asian,man,asian,0,0,1,0,Gender No-Match Race Match
./data_edited_for_spelling/11298_EnglishWomanB.csv,6345,"<img src=""portrait/WW1.jpg""style=""height:400px;""></img>",1,html-button-response,11,1542729,0.0-3.0-10.0,11298,ListB,woman,english,NA,TRUE,1,NA,NA,NA,NA,NA,NA,NA,NA,asian,woman,asian,1,1,1,1,Gender Match Race Match
./data_edited_for_spelling/11298_EnglishWomanB.csv,2328,"<img src=""portrait/BM2.jpg""style=""height:400px;""></img>",5,html-button-response,13,1546562,0.0-3.0-13.0,11298,ListB,woman,english,NA,TRUE,5,NA,NA,NA,NA,NA,NA,NA,NA,asian,man,black,1,0,0,0,Gender No-Match Race No-Match
./data_edited_for_spelling/11298_EnglishWomanB.csv,4078.9999999998836,"<img src=""portrait/BW1.jpg""style=""height:400px;""></img>",0,html-button-response,15,1552146,0.0-3.0-16.0,11298,ListB,woman,english,NA,TRUE,0,NA,NA,NA,NA,NA,NA,NA,NA,asian,woman,black,1,1,0,0,Gender Match Race No-Match
./data_edited_for_spelling/11298_EnglishWomanB.csv,2712,"<img src=""portrait/WM1.jpg""style=""height:400px;""></img>",6,html-button-response,17,1556363,0.0-3.0-19.0,11298,ListB,woman,english,NA,TRUE,6,NA,NA,NA,NA,NA,NA,NA,NA,asian,man,asian,1,0,1,0,Gender No-Match Race Match
./data_edited_for_spelling/11298_EnglishWomanB.csv,3844.999999999767,"<img src=""portrait/BM1.jpg""style=""height:400px;""></img>",4,html-button-response,19,1561713,0.0-3.0-22.0,11298,ListB,woman,english,NA,TRUE,4,NA,NA,NA,NA,NA,NA,NA,NA,asian,man,black,1,0,0,0,Gender No-Match Race No-Match
./data_edited_for_spelling/11298_EnglishWomanB.csv,4682,"<img src=""portrait/BW2.jpg""style=""height:400px;""></img>",2,html-button-response,24,1583397,0.0-3.1-1.1,11298,ListB,woman,english,NA,TRUE,2,NA,NA,NA,NA,NA,NA,NA,NA,asian,woman,black,1,1,0,0,Gender Match Race No-Match
./data_edited_for_spelling/11298_EnglishWomanB.csv,1095,"<img src=""portrait/WW2.jpg""style=""height:400px;""></img>",3,html-button-response,26,1585996,0.0-3.1-4.1,11298,ListB,woman,english,NA,TRUE,3,NA,NA,NA,NA,NA,NA,NA,NA,asian,woman,asian,1,1,1,1,Gender Match Race Match
./data_edited_for_spelling/11298_EnglishWomanB.csv,1412,"<img src=""portrait/WM2.jpg""style=""height:400px;""></img>",7,html-button-response,28,1588913,0.0-3.1-7.1,11298,ListB,woman,english,NA,TRUE,7,NA,NA,NA,NA,NA,NA,NA,NA,asian,man,asian,1,0,1,0,Gender No-Match Race Match
./data_edited_for_spelling/11298_EnglishWomanB.csv,3329,"<img src=""portrait/WW1.jpg""style=""height:400px;""></img>",1,html-button-response,30,1593747,0.0-3.1-10.1,11298,ListB,woman,english,NA,TRUE,1,NA,NA,NA,NA,NA,NA,NA,NA,asian,woman,asian,1,1,1,1,Gender Match Race Match
./data_edited_for_spelling/11298_EnglishWomanB.csv,3829,"<img src=""portrait/BM2.jpg""style=""height:400px;""></img>",5,html-button-response,32,1599080,0.0-3.1-13.1,11298,ListB,woman,english,NA,TRUE,5,NA,NA,NA,NA,NA,NA,NA,NA,asian,man,black,1,0,0,0,Gender No-Match Race No-Match
./data_edited_for_spelling/11298_EnglishWomanB.csv,7429,"<img src=""portrait/BW1.jpg""style=""height:400px;""></img>",0,html-button-response,34,1608013,0.0-3.1-16.1,11298,ListB,woman,english,NA,TRUE,0,NA,NA,NA,NA,NA,NA,NA,NA,asian,woman,black,1,1,0,0,Gender Match Race No-Match
./data_edited_for_spelling/11298_EnglishWomanB.csv,3329,"<img src=""portrait/WM1.jpg""style=""height:400px;""></img>",6,html-button-response,36,1612847,0.0-3.1-19.1,11298,ListB,woman,english,NA,TRUE,6,NA,NA,NA,NA,NA,NA,NA,NA,asian,man,asian,1,0,1,0,Gender No-Match Race Match
./data_edited_for_spelling/11298_EnglishWomanB.csv,7263,"<img src=""portrait/BM1.jpg""style=""height:400px;""></img>",4,html-button-response,38,1621613,0.0-3.1-22.1,11298,ListB,woman,english,NA,TRUE,4,NA,NA,NA,NA,NA,NA,NA,NA,asian,man,black,1,0,0,0,Gender No-Match Race No-Match
./data_edited_for_spelling/11298_EnglishWomanB.csv,4646.000000000233,"<img src=""portrait/BW2.jpg""style=""height:400px;""></img>",2,html-button-response,123,2002369,0.0-14.0-1.0,11298,ListB,woman,english,NA,TRUE,2,NA,NA,NA,NA,NA,NA,NA,NA,asian,woman,black,1,1,0,0,Gender Match Race No-Match
./data_edited_for_spelling/11298_EnglishWomanB.csv,3811.000000000233,"<img src=""portrait/WW1.jpg""style=""height:400px;""></img>",1,html-button-response,125,2007686,0.0-14.0-4.0,11298,ListB,woman,english,NA,TRUE,1,NA,NA,NA,NA,NA,NA,NA,NA,asian,woman,asian,1,1,1,1,Gender Match Race Match
./data_edited_for_spelling/11298_EnglishWomanB.csv,1661,"<img src=""portrait/BM2.jpg""style=""height:400px;""></img>",5,html-button-response,127,2010853,0.0-14.0-7.0,11298,ListB,woman,english,NA,TRUE,5,NA,NA,NA,NA,NA,NA,NA,NA,asian,man,black,1,0,0,0,Gender No-Match Race No-Match
./data_edited_for_spelling/11298_EnglishWomanB.csv,3762,"<img src=""portrait/WM2.jpg""style=""height:400px;""></img>",7,html-button-response,129,2016119,0.0-14.0-10.0,11298,ListB,woman,english,NA,TRUE,7,NA,NA,NA,NA,NA,NA,NA,NA,asian,man,asian,1,0,1,0,Gender No-Match Race Match
./data_edited_for_spelling/11298_EnglishWomanB.csv,1146,"<img src=""portrait/WW2.jpg""style=""height:400px;""></img>",3,html-button-response,131,2018769,0.0-14.0-13.0,11298,ListB,woman,english,NA,TRUE,3,NA,NA,NA,NA,NA,NA,NA,NA,asian,woman,asian,1,1,1,1,Gender Match Race Match
./data_edited_for_spelling/11298_EnglishWomanB.csv,2479.000000000233,"<img src=""portrait/WM1.jpg""style=""height:400px;""></img>",6,html-button-response,133,2022753,0.0-14.0-16.0,11298,ListB,woman,english,NA,TRUE,6,NA,NA,NA,NA,NA,NA,NA,NA,asian,man,asian,1,0,1,0,Gender No-Match Race Match
./data_edited_for_spelling/11298_EnglishWomanB.csv,1781,"<img src=""portrait/BM1.jpg""style=""height:400px;""></img>",4,html-button-response,135,2026038,0.0-14.0-19.0,11298,ListB,woman,english,NA,TRUE,4,NA,NA,NA,NA,NA,NA,NA,NA,asian,man,black,1,0,0,0,Gender No-Match Race No-Match
./data_edited_for_spelling/11298_EnglishWomanB.csv,1811,"<img src=""portrait/BW1.jpg""style=""height:400px;""></img>",2,html-button-response,137,2029354,0.0-14.0-22.0,11298,ListB,woman,english,NA,TRUE,0,NA,NA,NA,NA,NA,NA,NA,NA,asian,woman,black,1,1,0,0,Gender Match Race No-Match
./data_edited_for_spelling/11298_EnglishWomanB.csv,14033,"<img src=""portrait/BW1.jpg""style=""height:400px;""></img>",0,html-button-response,138,2044388,0.0-14.0-24.0-0.0,11298,ListB,woman,english,NA,FALSE,0,NA,NA,NA,NA,NA,NA,NA,NA,asian,woman,black,0,1,0,0,Gender Match Race No-Match
./data_edited_for_spelling/11298_EnglishWomanB.csv,4448,"<img src=""portrait/BW2.jpg""style=""height:400px;""></img>",2,html-button-response,143,2057255,0.0-14.1-1.1,11298,ListB,woman,english,NA,TRUE,2,NA,NA,NA,NA,NA,NA,NA,NA,asian,woman,black,1,1,0,0,Gender Match Race No-Match
./data_edited_for_spelling/11298_EnglishWomanB.csv,1860,"<img src=""portrait/WW1.jpg""style=""height:400px;""></img>",1,html-button-response,145,2060620,0.0-14.1-4.1,11298,ListB,woman,english,NA,TRUE,1,NA,NA,NA,NA,NA,NA,NA,NA,asian,woman,asian,1,1,1,1,Gender Match Race Match
./data_edited_for_spelling/11298_EnglishWomanB.csv,1079.0000000002328,"<img src=""portrait/BM2.jpg""style=""height:400px;""></img>",5,html-button-response,147,2063203,0.0-14.1-7.1,11298,ListB,woman,english,NA,TRUE,5,NA,NA,NA,NA,NA,NA,NA,NA,asian,man,black,1,0,0,0,Gender No-Match Race No-Match
./data_edited_for_spelling/11298_EnglishWomanB.csv,1496.0000000002328,"<img src=""portrait/WM2.jpg""style=""height:400px;""></img>",7,html-button-response,149,2066203,0.0-14.1-10.1,11298,ListB,woman,english,NA,TRUE,7,NA,NA,NA,NA,NA,NA,NA,NA,asian,man,asian,1,0,1,0,Gender No-Match Race Match
./data_edited_for_spelling/11298_EnglishWomanB.csv,1696,"<img src=""portrait/WW2.jpg""style=""height:400px;""></img>",3,html-button-response,151,2069403,0.0-14.1-13.1,11298,ListB,woman,english,NA,TRUE,3,NA,NA,NA,NA,NA,NA,NA,NA,asian,woman,asian,1,1,1,1,Gender Match Race Match
./data_edited_for_spelling/11298_EnglishWomanB.csv,2480,"<img src=""portrait/WM1.jpg""style=""height:400px;""></img>",6,html-button-response,153,2073387,0.0-14.1-16.1,11298,ListB,woman,english,NA,TRUE,6,NA,NA,NA,NA,NA,NA,NA,NA,asian,man,asian,1,0,1,0,Gender No-Match Race Match
./data_edited_for_spelling/11298_EnglishWomanB.csv,2328,"<img src=""portrait/BM1.jpg""style=""height:400px;""></img>",4,html-button-response,155,2077217,0.0-14.1-19.1,11298,ListB,woman,english,NA,TRUE,4,NA,NA,NA,NA,NA,NA,NA,NA,asian,man,black,1,0,0,0,Gender No-Match Race No-Match
./data_edited_for_spelling/11298_EnglishWomanB.csv,1696,"<img src=""portrait/BW1.jpg""style=""height:400px;""></img>",0,html-button-response,157,2080415,0.0-14.1-22.1,11298,ListB,woman,english,NA,TRUE,0,NA,NA,NA,NA,NA,NA,NA,NA,asian,woman,black,1,1,0,0,Gender Match Race No-Match
./data_edited_for_spelling/11298_EnglishWomanB.csv,5098.000000000233,"<img src=""portrait/BW1.jpg""style=""height:400px;""></img>",0,html-button-response,233,2347691,0.0-16.0-1.0,11298,ListB,woman,english,NA,TRUE,0,NA,NA,NA,NA,NA,NA,NA,NA,asian,woman,black,1,1,0,0,Gender Match Race No-Match
./data_edited_for_spelling/11298_EnglishWomanB.csv,2628.000000000233,"<img src=""portrait/BM1.jpg""style=""height:400px;""></img>",4,html-button-response,235,2351824,0.0-16.0-4.0,11298,ListB,woman,english,NA,TRUE,4,NA,NA,NA,NA,NA,NA,NA,NA,asian,man,black,1,0,0,0,Gender No-Match Race No-Match
./data_edited_for_spelling/11298_EnglishWomanB.csv,2779,"<img src=""portrait/WW1.jpg""style=""height:400px;""></img>",1,html-button-response,237,2356107,0.0-16.0-7.0,11298,ListB,woman,english,NA,TRUE,1,NA,NA,NA,NA,NA,NA,NA,NA,asian,woman,asian,1,1,1,1,Gender Match Race Match
./data_edited_for_spelling/11298_EnglishWomanB.csv,2213.000000000233,"<img src=""portrait/BW2.jpg""style=""height:400px;""></img>",2,html-button-response,239,2359824,0.0-16.0-10.0,11298,ListB,woman,english,NA,TRUE,2,NA,NA,NA,NA,NA,NA,NA,NA,asian,woman,black,1,1,0,0,Gender Match Race No-Match
./data_edited_for_spelling/11298_EnglishWomanB.csv,1512,"<img src=""portrait/BM2.jpg""style=""height:400px;""></img>",5,html-button-response,241,2362841,0.0-16.0-13.0,11298,ListB,woman,english,NA,TRUE,5,NA,NA,NA,NA,NA,NA,NA,NA,asian,man,black,1,0,0,0,Gender No-Match Race No-Match
./data_edited_for_spelling/11298_EnglishWomanB.csv,3295.000000000233,"<img src=""portrait/WM2.jpg""style=""height:400px;""></img>",7,html-button-response,243,2367641,0.0-16.0-16.0,11298,ListB,woman,english,NA,TRUE,7,NA,NA,NA,NA,NA,NA,NA,NA,asian,man,asian,1,0,1,0,Gender No-Match Race Match
./data_edited_for_spelling/11298_EnglishWomanB.csv,1412,"<img src=""portrait/WW2.jpg""style=""height:400px;""></img>",3,html-button-response,245,2370558,0.0-16.0-19.0,11298,ListB,woman,english,NA,TRUE,3,NA,NA,NA,NA,NA,NA,NA,NA,asian,woman,asian,1,1,1,1,Gender Match Race Match
./data_edited_for_spelling/11298_EnglishWomanB.csv,2077,"<img src=""portrait/WM1.jpg""style=""height:400px;""></img>",6,html-button-response,247,2374141,0.0-16.0-22.0,11298,ListB,woman,english,NA,TRUE,6,NA,NA,NA,NA,NA,NA,NA,NA,asian,man,asian,1,0,1,0,Gender No-Match Race Match
./data_edited_for_spelling/13413_ChineseManA.csv,8471.5,"<img src=""portrait/BW2.jpg""style=""height:400px;""></img>",2,html-button-response,4,373014,0.0-3.0-1.0,13413,ListA,man,chinese,NA,TRUE,2,NA,NA,NA,NA,NA,NA,NA,SW_C_M_A6,asian,woman,black,1,0,0,0,Gender No-Match Race No-Match
./data_edited_for_spelling/13413_ChineseManA.csv,10589.799999952316,"<img src=""portrait/WM1.jpg""style=""height:400px;""></img>",6,html-button-response,6,385121,0.0-3.0-4.0,13413,ListA,man,chinese,NA,TRUE,6,NA,NA,NA,NA,NA,NA,NA,SW_C_M_A6,asian,man,asian,1,1,1,1,Gender Match Race Match
./data_edited_for_spelling/13413_ChineseManA.csv,4765.899999976158,"<img src=""portrait/BM1.jpg""style=""height:400px;""></img>",4,html-button-response,8,391404,0.0-3.0-7.0,13413,ListA,man,chinese,NA,TRUE,4,NA,NA,NA,NA,NA,NA,NA,SW_C_M_A6,asian,man,black,1,1,0,0,Gender Match Race No-Match
./data_edited_for_spelling/13413_ChineseManA.csv,8615.900000035763,"<img src=""portrait/BM2.jpg""style=""height:400px;""></img>",5,html-button-response,10,401532,0.0-3.0-10.0,13413,ListA,man,chinese,NA,TRUE,5,NA,NA,NA,NA,NA,NA,NA,SW_C_M_A6,asian,man,black,1,1,0,0,Gender Match Race No-Match
./data_edited_for_spelling/13413_ChineseManA.csv,2370.600000023842,"<img src=""portrait/WW1.jpg""style=""height:400px;""></img>",1,html-button-response,12,405424,0.0-3.0-13.0,13413,ListA,man,chinese,NA,TRUE,1,NA,NA,NA,NA,NA,NA,NA,SW_C_M_A6,asian,woman,asian,1,0,1,0,Gender No-Match Race Match
./data_edited_for_spelling/13413_ChineseManA.csv,2074.899999976158,"<img src=""portrait/WW2.jpg""style=""height:400px;""></img>",3,html-button-response,14,409018,0.0-3.0-16.0,13413,ListA,man,chinese,NA,TRUE,3,NA,NA,NA,NA,NA,NA,NA,SW_C_M_A6,asian,woman,asian,1,0,1,0,Gender No-Match Race Match
./data_edited_for_spelling/13413_ChineseManA.csv,2288.600000023842,"<img src=""portrait/WM2.jpg""style=""height:400px;""></img>",7,html-button-response,16,412817,0.0-3.0-19.0,13413,ListA,man,chinese,NA,TRUE,7,NA,NA,NA,NA,NA,NA,NA,SW_C_M_A6,asian,man,asian,1,1,1,1,Gender Match Race Match
./data_edited_for_spelling/13413_ChineseManA.csv,12805.399999976158,"<img src=""portrait/BW1.jpg""style=""height:400px;""></img>",0,html-button-response,18,427136,0.0-3.0-22.0,13413,ListA,man,chinese,NA,TRUE,0,NA,NA,NA,NA,NA,NA,NA,SW_C_M_A6,asian,woman,black,1,0,0,0,Gender No-Match Race No-Match
./data_edited_for_spelling/13413_ChineseManA.csv,3920.100000023842,"<img src=""portrait/WW1.jpg""style=""height:400px;""></img>",1,html-button-response,103,1215972,0.0-14.0-1.0,13413,ListA,man,chinese,NA,TRUE,1,NA,NA,NA,NA,NA,NA,NA,SW_C_M_A6,asian,woman,asian,1,0,1,0,Gender No-Match Race Match
./data_edited_for_spelling/13413_ChineseManA.csv,2698.699999988079,"<img src=""portrait/WM1.jpg""style=""height:400px;""></img>",6,html-button-response,105,1220189,0.0-14.0-4.0,13413,ListA,man,chinese,NA,TRUE,6,NA,NA,NA,NA,NA,NA,NA,SW_C_M_A6,asian,man,asian,1,1,1,1,Gender Match Race Match
./data_edited_for_spelling/13413_ChineseManA.csv,9440.600000023842,"<img src=""portrait/WM2.jpg""style=""height:400px;""></img>",7,html-button-response,107,1231147,0.0-14.0-7.0,13413,ListA,man,chinese,NA,TRUE,7,NA,NA,NA,NA,NA,NA,NA,SW_C_M_A6,asian,man,asian,1,1,1,1,Gender Match Race Match
./data_edited_for_spelling/13413_ChineseManA.csv,2402.399999976158,"<img src=""portrait/BW2.jpg""style=""height:400px;""></img>",2,html-button-response,109,1235052,0.0-14.0-10.0,13413,ListA,man,chinese,NA,TRUE,2,NA,NA,NA,NA,NA,NA,NA,SW_C_M_A6,asian,woman,black,1,0,0,0,Gender No-Match Race No-Match
./data_edited_for_spelling/13413_ChineseManA.csv,3976,"<img src=""portrait/BM2.jpg""style=""height:400px;""></img>",5,html-button-response,111,1240531,0.0-14.0-13.0,13413,ListA,man,chinese,NA,TRUE,5,NA,NA,NA,NA,NA,NA,NA,SW_C_M_A6,asian,man,black,1,1,0,0,Gender Match Race No-Match
./data_edited_for_spelling/13413_ChineseManA.csv,3796.400000035763,"<img src=""portrait/BM1.jpg""style=""height:400px;""></img>",4,html-button-response,113,1245844,0.0-14.0-16.0,13413,ListA,man,chinese,NA,TRUE,4,NA,NA,NA,NA,NA,NA,NA,SW_C_M_A6,asian,man,black,1,1,0,0,Gender Match Race No-Match
./data_edited_for_spelling/13413_ChineseManA.csv,2356.199999988079,"<img src=""portrait/WW2.jpg""style=""height:400px;""></img>",3,html-button-response,115,1249717,0.0-14.0-19.0,13413,ListA,man,chinese,NA,TRUE,3,NA,NA,NA,NA,NA,NA,NA,SW_C_M_A6,asian,woman,asian,1,0,1,0,Gender No-Match Race Match
./data_edited_for_spelling/13413_ChineseManA.csv,3776.5,"<img src=""portrait/BW1.jpg""style=""height:400px;""></img>",0,html-button-response,117,1255016,0.0-14.0-22.0,13413,ListA,man,chinese,NA,TRUE,0,NA,NA,NA,NA,NA,NA,NA,SW_C_M_A6,asian,woman,black,1,0,0,0,Gender No-Match Race No-Match
./data_edited_for_spelling/13413_ChineseManA.csv,7425.899999976158,"<img src=""portrait/WM2.jpg""style=""height:400px;""></img>",7,html-button-response,193,1659154,0.0-16.0-1.0,13413,ListA,man,chinese,NA,TRUE,7,NA,NA,NA,NA,NA,NA,NA,SW_C_M_A6,asian,man,asian,1,1,1,1,Gender Match Race Match
./data_edited_for_spelling/13413_ChineseManA.csv,2590,"<img src=""portrait/WW1.jpg""style=""height:400px;""></img>",1,html-button-response,195,1663247,0.0-16.0-4.0,13413,ListA,man,chinese,NA,TRUE,1,NA,NA,NA,NA,NA,NA,NA,SW_C_M_A6,asian,woman,asian,1,0,1,0,Gender No-Match Race Match
./data_edited_for_spelling/13413_ChineseManA.csv,5015.099999964237,"<img src=""portrait/BW2.jpg""style=""height:400px;""></img>",2,html-button-response,197,1669764,0.0-16.0-7.0,13413,ListA,man,chinese,NA,TRUE,2,NA,NA,NA,NA,NA,NA,NA,SW_C_M_A6,asian,woman,black,1,0,0,0,Gender No-Match Race No-Match
./data_edited_for_spelling/13413_ChineseManA.csv,2781.5,"<img src=""portrait/BW1.jpg""style=""height:400px;""></img>",0,html-button-response,199,1674063,0.0-16.0-10.0,13413,ListA,man,chinese,NA,TRUE,0,NA,NA,NA,NA,NA,NA,NA,SW_C_M_A6,asian,woman,black,1,0,0,0,Gender No-Match Race No-Match
./data_edited_for_spelling/13413_ChineseManA.csv,1367.5,"<img src=""portrait/WW2.jpg""style=""height:400px;""></img>",3,html-button-response,201,1676936,0.0-16.0-13.0,13413,ListA,man,chinese,NA,TRUE,3,NA,NA,NA,NA,NA,NA,NA,SW_C_M_A6,asian,woman,asian,1,0,1,0,Gender No-Match Race Match
./data_edited_for_spelling/13413_ChineseManA.csv,2261.7999999523163,"<img src=""portrait/BM2.jpg""style=""height:400px;""></img>",5,html-button-response,203,1680700,0.0-16.0-16.0,13413,ListA,man,chinese,NA,TRUE,5,NA,NA,NA,NA,NA,NA,NA,SW_C_M_A6,asian,man,black,1,1,0,0,Gender Match Race No-Match
./data_edited_for_spelling/13413_ChineseManA.csv,2970.699999988079,"<img src=""portrait/WM1.jpg""style=""height:400px;""></img>",6,html-button-response,205,1685174,0.0-16.0-19.0,13413,ListA,man,chinese,NA,TRUE,6,NA,NA,NA,NA,NA,NA,NA,SW_C_M_A6,asian,man,asian,1,1,1,1,Gender Match Race Match
./data_edited_for_spelling/13413_ChineseManA.csv,2336.199999988079,"<img src=""portrait/BM1.jpg""style=""height:400px;""></img>",4,html-button-response,207,1689018,0.0-16.0-22.0,13413,ListA,man,chinese,NA,TRUE,4,NA,NA,NA,NA,NA,NA,NA,SW_C_M_A6,asian,man,black,1,1,0,0,Gender Match Race No-Match
./data_edited_for_spelling/14993_EnglishWomanB.csv,4289.844999992056,"<img src=""portrait/WW1.jpg""style=""height:400px;""></img>",1,html-button-response,4,460494,0.0-3.0-1.0,14993,ListB,woman,english,NA,TRUE,1,NA,NA,NA,NA,NA,NA,NA,NA,asian,woman,asian,1,1,1,1,Gender Match Race Match
./data_edited_for_spelling/14993_EnglishWomanB.csv,3393.355000007432,"<img src=""portrait/BM1.jpg""style=""height:400px;""></img>",4,html-button-response,6,465406,0.0-3.0-4.0,14993,ListB,woman,english,NA,TRUE,4,NA,NA,NA,NA,NA,NA,NA,NA,asian,man,black,1,0,0,0,Gender No-Match Race No-Match
./data_edited_for_spelling/14993_EnglishWomanB.csv,2154.4550000107847,"<img src=""portrait/BW2.jpg""style=""height:400px;""></img>",2,html-button-response,8,469080,0.0-3.0-7.0,14993,ListB,woman,english,NA,TRUE,2,NA,NA,NA,NA,NA,NA,NA,NA,asian,woman,black,1,1,0,0,Gender Match Race No-Match
./data_edited_for_spelling/14993_EnglishWomanB.csv,3690.505000005942,"<img src=""portrait/BW1.jpg""style=""height:400px;""></img>",0,html-button-response,10,474326,0.0-3.0-10.0,14993,ListB,woman,english,NA,TRUE,0,NA,NA,NA,NA,NA,NA,NA,NA,asian,woman,black,1,1,0,0,Gender Match Race No-Match
./data_edited_for_spelling/14993_EnglishWomanB.csv,4565.520000003744,"<img src=""portrait/WM2.jpg""style=""height:400px;""></img>",7,html-button-response,12,480412,0.0-3.0-13.0,14993,ListB,woman,english,NA,TRUE,7,NA,NA,NA,NA,NA,NA,NA,NA,asian,man,asian,1,0,1,0,Gender No-Match Race Match
./data_edited_for_spelling/14993_EnglishWomanB.csv,2890.1950000145007,"<img src=""portrait/WW2.jpg""style=""height:400px;""></img>",3,html-button-response,14,484814,0.0-3.0-16.0,14993,ListB,woman,english,NA,TRUE,3,NA,NA,NA,NA,NA,NA,NA,NA,asian,woman,asian,1,1,1,1,Gender Match Race Match
./data_edited_for_spelling/14993_EnglishWomanB.csv,3477.9299999936484,"<img src=""portrait/WM1.jpg""style=""height:400px;""></img>",6,html-button-response,16,489800,0.0-3.0-19.0,14993,ListB,woman,english,NA,TRUE,6,NA,NA,NA,NA,NA,NA,NA,NA,asian,man,asian,1,0,1,0,Gender No-Match Race Match
./data_edited_for_spelling/14993_EnglishWomanB.csv,2494.879999983823,"<img src=""portrait/BM2.jpg""style=""height:400px;""></img>",5,html-button-response,18,493815,0.0-3.0-22.0,14993,ListB,woman,english,NA,TRUE,5,NA,NA,NA,NA,NA,NA,NA,NA,asian,man,black,1,0,0,0,Gender No-Match Race No-Match
./data_edited_for_spelling/14993_EnglishWomanB.csv,4478.475000010803,"<img src=""portrait/BW2.jpg""style=""height:400px;""></img>",2,html-button-response,103,1622989,0.0-14.0-1.0,14993,ListB,woman,english,NA,TRUE,2,NA,NA,NA,NA,NA,NA,NA,NA,asian,woman,black,1,1,0,0,Gender Match Race No-Match
./data_edited_for_spelling/14993_EnglishWomanB.csv,6365.160000015749,"<img src=""portrait/WM1.jpg""style=""height:400px;""></img>",6,html-button-response,105,1630859,0.0-14.0-4.0,14993,ListB,woman,english,NA,TRUE,6,NA,NA,NA,NA,NA,NA,NA,NA,asian,man,asian,1,0,1,0,Gender No-Match Race Match
./data_edited_for_spelling/14993_EnglishWomanB.csv,5597.0650000090245,"<img src=""portrait/BM2.jpg""style=""height:400px;""></img>",5,html-button-response,107,1637966,0.0-14.0-7.0,14993,ListB,woman,english,NA,TRUE,5,NA,NA,NA,NA,NA,NA,NA,NA,asian,man,black,1,0,0,0,Gender No-Match Race No-Match
./data_edited_for_spelling/14993_EnglishWomanB.csv,2857.820000004722,"<img src=""portrait/WW2.jpg""style=""height:400px;""></img>",3,html-button-response,109,1642333,0.0-14.0-10.0,14993,ListB,woman,english,NA,TRUE,3,NA,NA,NA,NA,NA,NA,NA,NA,asian,woman,asian,1,1,1,1,Gender Match Race Match
./data_edited_for_spelling/14993_EnglishWomanB.csv,2427.289999992354,"<img src=""portrait/WM2.jpg""style=""height:400px;""></img>",7,html-button-response,111,1646294,0.0-14.0-13.0,14993,ListB,woman,english,NA,TRUE,7,NA,NA,NA,NA,NA,NA,NA,NA,asian,man,asian,1,0,1,0,Gender No-Match Race Match
./data_edited_for_spelling/14993_EnglishWomanB.csv,2894.6449999930337,"<img src=""portrait/BM1.jpg""style=""height:400px;""></img>",4,html-button-response,113,1650707,0.0-14.0-16.0,14993,ListB,woman,english,NA,TRUE,4,NA,NA,NA,NA,NA,NA,NA,NA,asian,man,black,1,0,0,0,Gender No-Match Race No-Match
./data_edited_for_spelling/14993_EnglishWomanB.csv,3491.5099999925587,"<img src=""portrait/WW1.jpg""style=""height:400px;""></img>",1,html-button-response,115,1655717,0.0-14.0-19.0,14993,ListB,woman,english,NA,TRUE,1,NA,NA,NA,NA,NA,NA,NA,NA,asian,woman,asian,1,1,1,1,Gender Match Race Match
./data_edited_for_spelling/14993_EnglishWomanB.csv,3563.0550000059884,"<img src=""portrait/BW1.jpg""style=""height:400px;""></img>",0,html-button-response,117,1660801,0.0-14.0-22.0,14993,ListB,woman,english,NA,TRUE,0,NA,NA,NA,NA,NA,NA,NA,NA,asian,woman,black,1,1,0,0,Gender Match Race No-Match
./data_edited_for_spelling/14993_EnglishWomanB.csv,3486.644999996759,"<img src=""portrait/BM2.jpg""style=""height:400px;""></img>",5,html-button-response,193,2424217,0.0-16.0-1.0,14993,ListB,woman,english,NA,TRUE,5,NA,NA,NA,NA,NA,NA,NA,NA,asian,man,black,1,0,0,0,Gender No-Match Race No-Match
./data_edited_for_spelling/14993_EnglishWomanB.csv,8614.81999998819,"<img src=""portrait/WM1.jpg""style=""height:400px;""></img>",6,html-button-response,195,2434347,0.0-16.0-4.0,14993,ListB,woman,english,NA,TRUE,6,NA,NA,NA,NA,NA,NA,NA,NA,asian,man,asian,1,0,1,0,Gender No-Match Race Match
./data_edited_for_spelling/14993_EnglishWomanB.csv,2987.599999993108,"<img src=""portrait/WW1.jpg""style=""height:400px;""></img>",1,html-button-response,197,2438847,0.0-16.0-7.0,14993,ListB,woman,english,NA,TRUE,1,NA,NA,NA,NA,NA,NA,NA,NA,asian,woman,asian,1,1,1,1,Gender Match Race Match
./data_edited_for_spelling/14993_EnglishWomanB.csv,3018.060000002384,"<img src=""portrait/WM2.jpg""style=""height:400px;""></img>",7,html-button-response,199,2443373,0.0-16.0-10.0,14993,ListB,woman,english,NA,TRUE,7,NA,NA,NA,NA,NA,NA,NA,NA,asian,man,asian,1,0,1,0,Gender No-Match Race Match
./data_edited_for_spelling/14993_EnglishWomanB.csv,3202.9100000215694,"<img src=""portrait/WW2.jpg""style=""height:400px;""></img>",3,html-button-response,201,2448093,0.0-16.0-13.0,14993,ListB,woman,english,NA,TRUE,3,NA,NA,NA,NA,NA,NA,NA,NA,asian,woman,asian,1,1,1,1,Gender Match Race Match
./data_edited_for_spelling/14993_EnglishWomanB.csv,2519.224999996368,"<img src=""portrait/BW2.jpg""style=""height:400px;""></img>",2,html-button-response,203,2452122,0.0-16.0-16.0,14993,ListB,woman,english,NA,TRUE,2,NA,NA,NA,NA,NA,NA,NA,NA,asian,woman,black,1,1,0,0,Gender Match Race No-Match
./data_edited_for_spelling/14993_EnglishWomanB.csv,2448.2199999908917,"<img src=""portrait/BW1.jpg""style=""height:400px;""></img>",0,html-button-response,205,2456094,0.0-16.0-19.0,14993,ListB,woman,english,NA,TRUE,0,NA,NA,NA,NA,NA,NA,NA,NA,asian,woman,black,1,1,0,0,Gender Match Race No-Match
./data_edited_for_spelling/14993_EnglishWomanB.csv,3825.494999997318,"<img src=""portrait/BM1.jpg""style=""height:400px;""></img>",4,html-button-response,207,2461447,0.0-16.0-22.0,14993,ListB,woman,english,NA,TRUE,4,NA,NA,NA,NA,NA,NA,NA,NA,asian,man,black,1,0,0,0,Gender No-Match Race No-Match
./data_edited_for_spelling/15487_ChineseManB.csv,9041.79999999702,"<img src=""portrait/WM2.jpg""style=""height:400px;""></img>",7,html-button-response,4,238805,0.0-3.0-1.0,15487,ListB,man,chinese,NA,TRUE,7,NA,NA,NA,NA,NA,NA,NA,CMB11,asian,man,asian,1,1,1,1,Gender Match Race Match
./data_edited_for_spelling/15487_ChineseManB.csv,4576.89999999851,"<img src=""portrait/WW2.jpg""style=""height:400px;""></img>",3,html-button-response,6,244904,0.0-3.0-4.0,15487,ListB,man,chinese,NA,TRUE,3,NA,NA,NA,NA,NA,NA,NA,CMB11,asian,woman,asian,1,0,1,0,Gender No-Match Race Match
./data_edited_for_spelling/15487_ChineseManB.csv,5408.59999999404,"<img src=""portrait/BW2.jpg""style=""height:400px;""></img>",2,html-button-response,8,251828,0.0-3.0-7.0,15487,ListB,man,chinese,NA,TRUE,2,NA,NA,NA,NA,NA,NA,NA,CMB11,asian,woman,black,1,0,0,0,Gender No-Match Race No-Match
./data_edited_for_spelling/15487_ChineseManB.csv,4509.70000000298,"<img src=""portrait/BW1.jpg""style=""height:400px;""></img>",0,html-button-response,10,257840,0.0-3.0-10.0,15487,ListB,man,chinese,NA,TRUE,0,NA,NA,NA,NA,NA,NA,NA,CMB11,asian,woman,black,1,0,0,0,Gender No-Match Race No-Match
./data_edited_for_spelling/15487_ChineseManB.csv,4692.60000000149,"<img src=""portrait/WM1.jpg""style=""height:400px;""></img>",6,html-button-response,12,264034,0.0-3.0-13.0,15487,ListB,man,chinese,NA,TRUE,6,NA,NA,NA,NA,NA,NA,NA,CMB11,asian,man,asian,1,1,1,1,Gender Match Race Match
./data_edited_for_spelling/15487_ChineseManB.csv,7360.5,"<img src=""portrait/BM2.jpg""style=""height:400px;""></img>",5,html-button-response,14,272897,0.0-3.0-16.0,15487,ListB,man,chinese,NA,TRUE,5,NA,NA,NA,NA,NA,NA,NA,CMB11,asian,man,black,1,1,0,0,Gender Match Race No-Match
./data_edited_for_spelling/15487_ChineseManB.csv,2628.40000000596,"<img src=""portrait/WW1.jpg""style=""height:400px;""></img>",1,html-button-response,16,277034,0.0-3.0-19.0,15487,ListB,man,chinese,NA,TRUE,1,NA,NA,NA,NA,NA,NA,NA,CMB11,asian,woman,asian,1,0,1,0,Gender No-Match Race Match
./data_edited_for_spelling/15487_ChineseManB.csv,3442.19999999553,"<img src=""portrait/BM1.jpg""style=""height:400px;""></img>",4,html-button-response,18,281989,0.0-3.0-22.0,15487,ListB,man,chinese,NA,TRUE,4,NA,NA,NA,NA,NA,NA,NA,CMB11,asian,man,black,1,1,0,0,Gender Match Race No-Match
./data_edited_for_spelling/15487_ChineseManB.csv,4622.79999999702,"<img src=""portrait/BM2.jpg""style=""height:400px;""></img>",5,html-button-response,103,972051,0.0-14.0-1.0,15487,ListB,man,chinese,NA,TRUE,5,NA,NA,NA,NA,NA,NA,NA,CMB11,asian,man,black,1,1,0,0,Gender Match Race No-Match
./data_edited_for_spelling/15487_ChineseManB.csv,4877.29999999702,"<img src=""portrait/BW1.jpg""style=""height:400px;""></img>",0,html-button-response,105,978431,0.0-14.0-4.0,15487,ListB,man,chinese,NA,TRUE,0,NA,NA,NA,NA,NA,NA,NA,CMB11,asian,woman,black,1,0,0,0,Gender No-Match Race No-Match
./data_edited_for_spelling/15487_ChineseManB.csv,3254.30000000447,"<img src=""portrait/BW2.jpg""style=""height:400px;""></img>",2,html-button-response,107,983186,0.0-14.0-7.0,15487,ListB,man,chinese,NA,TRUE,2,NA,NA,NA,NA,NA,NA,NA,CMB11,asian,woman,black,1,0,0,0,Gender No-Match Race No-Match
./data_edited_for_spelling/15487_ChineseManB.csv,2062.70000000298,"<img src=""portrait/WM2.jpg""style=""height:400px;""></img>",7,html-button-response,109,986750,0.0-14.0-10.0,15487,ListB,man,chinese,NA,TRUE,7,NA,NA,NA,NA,NA,NA,NA,CMB11,asian,man,asian,1,1,1,1,Gender Match Race Match
./data_edited_for_spelling/15487_ChineseManB.csv,2135,"<img src=""portrait/WW2.jpg""style=""height:400px;""></img>",3,html-button-response,111,990392,0.0-14.0-13.0,15487,ListB,man,chinese,NA,TRUE,3,NA,NA,NA,NA,NA,NA,NA,CMB11,asian,woman,asian,1,0,1,0,Gender No-Match Race Match
./data_edited_for_spelling/15487_ChineseManB.csv,1436.80000000447,"<img src=""portrait/WW1.jpg""style=""height:400px;""></img>",1,html-button-response,113,993332,0.0-14.0-16.0,15487,ListB,man,chinese,NA,TRUE,1,NA,NA,NA,NA,NA,NA,NA,CMB11,asian,woman,asian,1,0,1,0,Gender No-Match Race Match
./data_edited_for_spelling/15487_ChineseManB.csv,3683.69999999553,"<img src=""portrait/BM1.jpg""style=""height:400px;""></img>",4,html-button-response,115,998518,0.0-14.0-19.0,15487,ListB,man,chinese,NA,TRUE,4,NA,NA,NA,NA,NA,NA,NA,CMB11,asian,man,black,1,1,0,0,Gender Match Race No-Match
./data_edited_for_spelling/15487_ChineseManB.csv,3055.89999999851,"<img src=""portrait/WM1.jpg""style=""height:400px;""></img>",6,html-button-response,117,1003076,0.0-14.0-22.0,15487,ListB,man,chinese,NA,TRUE,6,NA,NA,NA,NA,NA,NA,NA,CMB11,asian,man,asian,1,1,1,1,Gender Match Race Match
./data_edited_for_spelling/15487_ChineseManB.csv,3286,"<img src=""portrait/BM2.jpg""style=""height:400px;""></img>",5,html-button-response,193,1253878,0.0-16.0-1.0,15487,ListB,man,chinese,NA,TRUE,5,NA,NA,NA,NA,NA,NA,NA,CMB11,asian,man,black,1,1,0,0,Gender Match Race No-Match
./data_edited_for_spelling/15487_ChineseManB.csv,1200.30000000447,"<img src=""portrait/WW2.jpg""style=""height:400px;""></img>",3,html-button-response,195,1256593,0.0-16.0-4.0,15487,ListB,man,chinese,NA,TRUE,3,NA,NA,NA,NA,NA,NA,NA,CMB11,asian,woman,asian,1,0,1,0,Gender No-Match Race Match
./data_edited_for_spelling/15487_ChineseManB.csv,1818.10000000149,"<img src=""portrait/WW1.jpg""style=""height:400px;""></img>",1,html-button-response,197,1259922,0.0-16.0-7.0,15487,ListB,man,chinese,NA,TRUE,1,NA,NA,NA,NA,NA,NA,NA,CMB11,asian,woman,asian,1,0,1,0,Gender No-Match Race Match
./data_edited_for_spelling/15487_ChineseManB.csv,1438.89999999851,"<img src=""portrait/BW2.jpg""style=""height:400px;""></img>",2,html-button-response,199,1262863,0.0-16.0-10.0,15487,ListB,man,chinese,NA,TRUE,2,NA,NA,NA,NA,NA,NA,NA,CMB11,asian,woman,black,1,0,0,0,Gender No-Match Race No-Match
./data_edited_for_spelling/15487_ChineseManB.csv,1571.19999999553,"<img src=""portrait/WM2.jpg""style=""height:400px;""></img>",7,html-button-response,201,1265937,0.0-16.0-13.0,15487,ListB,man,chinese,NA,TRUE,7,NA,NA,NA,NA,NA,NA,NA,CMB11,asian,man,asian,1,1,1,1,Gender Match Race Match
./data_edited_for_spelling/15487_ChineseManB.csv,1525.20000000298,"<img src=""portrait/BM1.jpg""style=""height:400px;""></img>",4,html-button-response,203,1268983,0.0-16.0-16.0,15487,ListB,man,chinese,NA,TRUE,4,NA,NA,NA,NA,NA,NA,NA,CMB11,asian,man,black,1,1,0,0,Gender Match Race No-Match
./data_edited_for_spelling/15487_ChineseManB.csv,3353.30000000447,"<img src=""portrait/BW1.jpg""style=""height:400px;""></img>",0,html-button-response,205,1273852,0.0-16.0-19.0,15487,ListB,man,chinese,NA,TRUE,0,NA,NA,NA,NA,NA,NA,NA,CMB11,asian,woman,black,1,0,0,0,Gender No-Match Race No-Match
./data_edited_for_spelling/15487_ChineseManB.csv,2592.89999999851,"<img src=""portrait/WM1.jpg""style=""height:400px;""></img>",6,html-button-response,207,1277947,0.0-16.0-22.0,15487,ListB,man,chinese,NA,TRUE,6,NA,NA,NA,NA,NA,NA,NA,CMB11,asian,man,asian,1,1,1,1,Gender Match Race Match
./data_edited_for_spelling/16769_ChineseManB.csv,5113.799999952316,"<img src=""portrait/WW1.jpg""style=""height:400px;""></img>",1,html-button-response,4,20058783,0.0-3.0-1.0,16769,ListB,man,chinese,NA,TRUE,1,NA,NA,NA,NA,NA,NA,NA,SW-C-M-B4,asian,woman,asian,1,0,1,0,Gender No-Match Race Match
./data_edited_for_spelling/16769_ChineseManB.csv,2471.4000000953674,"<img src=""portrait/WW2.jpg""style=""height:400px;""></img>",3,html-button-response,6,20062782,0.0-3.0-4.0,16769,ListB,man,chinese,NA,TRUE,3,NA,NA,NA,NA,NA,NA,NA,SW-C-M-B4,asian,woman,asian,1,0,1,0,Gender No-Match Race Match
./data_edited_for_spelling/16769_ChineseManB.csv,4356.600000143051,"<img src=""portrait/BW2.jpg""style=""height:400px;""></img>",2,html-button-response,8,20068698,0.0-3.0-7.0,16769,ListB,man,chinese,NA,TRUE,2,NA,NA,NA,NA,NA,NA,NA,SW-C-M-B4,asian,woman,black,1,0,0,0,Gender No-Match Race No-Match
./data_edited_for_spelling/16769_ChineseManB.csv,4803.899999856949,"<img src=""portrait/BM2.jpg""style=""height:400px;""></img>",5,html-button-response,10,20075019,0.0-3.0-10.0,16769,ListB,man,chinese,NA,TRUE,5,NA,NA,NA,NA,NA,NA,NA,SW-C-M-B4,asian,man,black,1,1,0,0,Gender Match Race No-Match
./data_edited_for_spelling/16769_ChineseManB.csv,2050.0999999046326,"<img src=""portrait/WM2.jpg""style=""height:400px;""></img>",7,html-button-response,12,20078596,0.0-3.0-13.0,16769,ListB,man,chinese,NA,TRUE,7,NA,NA,NA,NA,NA,NA,NA,SW-C-M-B4,asian,man,asian,1,1,1,1,Gender Match Race Match
./data_edited_for_spelling/16769_ChineseManB.csv,14542,"<img src=""portrait/BW1.jpg""style=""height:400px;""></img>",0,html-button-response,14,20094687,0.0-3.0-16.0,16769,ListB,man,chinese,NA,TRUE,0,NA,NA,NA,NA,NA,NA,NA,SW-C-M-B4,asian,woman,black,1,0,0,0,Gender No-Match Race No-Match
./data_edited_for_spelling/16769_ChineseManB.csv,5348.400000095367,"<img src=""portrait/BM1.jpg""style=""height:400px;""></img>",4,html-button-response,16,20101567,0.0-3.0-19.0,16769,ListB,man,chinese,NA,TRUE,4,NA,NA,NA,NA,NA,NA,NA,SW-C-M-B4,asian,man,black,1,1,0,0,Gender Match Race No-Match
./data_edited_for_spelling/16769_ChineseManB.csv,5244.900000095367,"<img src=""portrait/WM1.jpg""style=""height:400px;""></img>",6,html-button-response,18,20108344,0.0-3.0-22.0,16769,ListB,man,chinese,NA,TRUE,6,NA,NA,NA,NA,NA,NA,NA,SW-C-M-B4,asian,man,asian,1,1,1,1,Gender Match Race Match
./data_edited_for_spelling/16769_ChineseManB.csv,12322.5,"<img src=""portrait/WM1.jpg""style=""height:400px;""></img>",6,html-button-response,103,21438032,0.0-14.0-1.0,16769,ListB,man,chinese,NA,TRUE,6,NA,NA,NA,NA,NA,NA,NA,SW-C-M-B4,asian,man,asian,1,1,1,1,Gender Match Race Match
./data_edited_for_spelling/16769_ChineseManB.csv,2992.7000000476837,"<img src=""portrait/WW1.jpg""style=""height:400px;""></img>",1,html-button-response,105,21442558,0.0-14.0-4.0,16769,ListB,man,chinese,NA,TRUE,1,NA,NA,NA,NA,NA,NA,NA,SW-C-M-B4,asian,woman,asian,1,0,1,0,Gender No-Match Race Match
./data_edited_for_spelling/16769_ChineseManB.csv,2601.2000000476837,"<img src=""portrait/WW2.jpg""style=""height:400px;""></img>",3,html-button-response,107,21446687,0.0-14.0-7.0,16769,ListB,man,chinese,NA,TRUE,3,NA,NA,NA,NA,NA,NA,NA,SW-C-M-B4,asian,woman,asian,1,0,1,0,Gender No-Match Race Match
./data_edited_for_spelling/16769_ChineseManB.csv,7477.300000190735,"<img src=""portrait/BW2.jpg""style=""height:400px;""></img>",2,html-button-response,109,21455679,0.0-14.0-10.0,16769,ListB,man,chinese,NA,TRUE,2,NA,NA,NA,NA,NA,NA,NA,SW-C-M-B4,asian,woman,black,1,0,0,0,Gender No-Match Race No-Match
./data_edited_for_spelling/16769_ChineseManB.csv,2288.5999999046326,"<img src=""portrait/BM1.jpg""style=""height:400px;""></img>",4,html-button-response,111,21459490,0.0-14.0-13.0,16769,ListB,man,chinese,NA,TRUE,4,NA,NA,NA,NA,NA,NA,NA,SW-C-M-B4,asian,man,black,1,1,0,0,Gender Match Race No-Match
./data_edited_for_spelling/16769_ChineseManB.csv,1243.5999999046326,"<img src=""portrait/BW1.jpg""style=""height:400px;""></img>",4,html-button-response,113,21462287,0.0-14.0-16.0,16769,ListB,man,chinese,NA,TRUE,0,NA,NA,NA,NA,NA,NA,NA,SW-C-M-B4,asian,woman,black,1,0,0,0,Gender No-Match Race No-Match
./data_edited_for_spelling/16769_ChineseManB.csv,6688.299999952316,"<img src=""portrait/BW1.jpg""style=""height:400px;""></img>",0,html-button-response,114,21469987,0.0-14.0-18.0-0.0,16769,ListB,man,chinese,NA,FALSE,0,NA,NA,NA,NA,NA,NA,NA,SW-C-M-B4,asian,woman,black,0,0,0,0,Gender No-Match Race No-Match
./data_edited_for_spelling/16769_ChineseManB.csv,6792.200000047684,"<img src=""portrait/WM2.jpg""style=""height:400px;""></img>",7,html-button-response,116,21478311,0.0-14.0-19.0,16769,ListB,man,chinese,NA,TRUE,7,NA,NA,NA,NA,NA,NA,NA,SW-C-M-B4,asian,man,asian,1,1,1,1,Gender Match Race Match
./data_edited_for_spelling/16769_ChineseManB.csv,2195.2999999523163,"<img src=""portrait/BM2.jpg""style=""height:400px;""></img>",5,html-button-response,118,21482030,0.0-14.0-22.0,16769,ListB,man,chinese,NA,TRUE,5,NA,NA,NA,NA,NA,NA,NA,SW-C-M-B4,asian,man,black,1,1,0,0,Gender Match Race No-Match
./data_edited_for_spelling/16769_ChineseManB.csv,3316.7000000476837,"<img src=""portrait/WM1.jpg""style=""height:400px;""></img>",6,html-button-response,123,21496513,0.0-14.1-1.1,16769,ListB,man,chinese,NA,TRUE,6,NA,NA,NA,NA,NA,NA,NA,SW-C-M-B4,asian,man,asian,1,1,1,1,Gender Match Race Match
./data_edited_for_spelling/16769_ChineseManB.csv,3164.4000000953674,"<img src=""portrait/WW1.jpg""style=""height:400px;""></img>",1,html-button-response,125,21501262,0.0-14.1-4.1,16769,ListB,man,chinese,NA,TRUE,1,NA,NA,NA,NA,NA,NA,NA,SW-C-M-B4,asian,woman,asian,1,0,1,0,Gender No-Match Race Match
./data_edited_for_spelling/16769_ChineseManB.csv,3196.5,"<img src=""portrait/WW2.jpg""style=""height:400px;""></img>",3,html-button-response,127,21505976,0.0-14.1-7.1,16769,ListB,man,chinese,NA,TRUE,3,NA,NA,NA,NA,NA,NA,NA,SW-C-M-B4,asian,woman,asian,1,0,1,0,Gender No-Match Race Match
./data_edited_for_spelling/16769_ChineseManB.csv,3283.5,"<img src=""portrait/BW2.jpg""style=""height:400px;""></img>",2,html-button-response,129,21510838,0.0-14.1-10.1,16769,ListB,man,chinese,NA,TRUE,2,NA,NA,NA,NA,NA,NA,NA,SW-C-M-B4,asian,woman,black,1,0,0,0,Gender No-Match Race No-Match
./data_edited_for_spelling/16769_ChineseManB.csv,4001.699999809265,"<img src=""portrait/BM1.jpg""style=""height:400px;""></img>",4,html-button-response,131,21516350,0.0-14.1-13.1,16769,ListB,man,chinese,NA,TRUE,4,NA,NA,NA,NA,NA,NA,NA,SW-C-M-B4,asian,man,black,1,1,0,0,Gender Match Race No-Match
./data_edited_for_spelling/16769_ChineseManB.csv,2869.899999856949,"<img src=""portrait/BW1.jpg""style=""height:400px;""></img>",0,html-button-response,133,21520735,0.0-14.1-16.1,16769,ListB,man,chinese,NA,TRUE,0,NA,NA,NA,NA,NA,NA,NA,SW-C-M-B4,asian,woman,black,1,0,0,0,Gender No-Match Race No-Match
./data_edited_for_spelling/16769_ChineseManB.csv,4612.900000095367,"<img src=""portrait/WM2.jpg""style=""height:400px;""></img>",7,html-button-response,135,21526898,0.0-14.1-19.1,16769,ListB,man,chinese,NA,TRUE,7,NA,NA,NA,NA,NA,NA,NA,SW-C-M-B4,asian,man,asian,1,1,1,1,Gender Match Race Match
./data_edited_for_spelling/16769_ChineseManB.csv,2274.5,"<img src=""portrait/BM2.jpg""style=""height:400px;""></img>",5,html-button-response,137,21530689,0.0-14.1-22.1,16769,ListB,man,chinese,NA,TRUE,5,NA,NA,NA,NA,NA,NA,NA,SW-C-M-B4,asian,man,black,1,1,0,0,Gender Match Race No-Match
./data_edited_for_spelling/16769_ChineseManB.csv,6033.600000143051,"<img src=""portrait/BW1.jpg""style=""height:400px;""></img>",0,html-button-response,213,22229041,0.0-16.0-1.0,16769,ListB,man,chinese,NA,TRUE,0,NA,NA,NA,NA,NA,NA,NA,SW-C-M-B4,asian,woman,black,1,0,0,0,Gender No-Match Race No-Match
./data_edited_for_spelling/16769_ChineseManB.csv,2289.0999999046326,"<img src=""portrait/WW2.jpg""style=""height:400px;""></img>",3,html-button-response,215,22232861,0.0-16.0-4.0,16769,ListB,man,chinese,NA,TRUE,3,NA,NA,NA,NA,NA,NA,NA,SW-C-M-B4,asian,woman,asian,1,0,1,0,Gender No-Match Race Match
./data_edited_for_spelling/16769_ChineseManB.csv,2162.5,"<img src=""portrait/BM2.jpg""style=""height:400px;""></img>",5,html-button-response,217,22236603,0.0-16.0-7.0,16769,ListB,man,chinese,NA,TRUE,5,NA,NA,NA,NA,NA,NA,NA,SW-C-M-B4,asian,man,black,1,1,0,0,Gender Match Race No-Match
./data_edited_for_spelling/16769_ChineseManB.csv,5574.799999952316,"<img src=""portrait/BM1.jpg""style=""height:400px;""></img>",4,html-button-response,219,22243714,0.0-16.0-10.0,16769,ListB,man,chinese,NA,TRUE,4,NA,NA,NA,NA,NA,NA,NA,SW-C-M-B4,asian,man,black,1,1,0,0,Gender Match Race No-Match
./data_edited_for_spelling/16769_ChineseManB.csv,2834.600000143051,"<img src=""portrait/WW1.jpg""style=""height:400px;""></img>",1,html-button-response,221,22248081,0.0-16.0-13.0,16769,ListB,man,chinese,NA,TRUE,1,NA,NA,NA,NA,NA,NA,NA,SW-C-M-B4,asian,woman,asian,1,0,1,0,Gender No-Match Race Match
./data_edited_for_spelling/16769_ChineseManB.csv,3582.7999999523163,"<img src=""portrait/WM1.jpg""style=""height:400px;""></img>",6,html-button-response,223,22253231,0.0-16.0-16.0,16769,ListB,man,chinese,NA,TRUE,6,NA,NA,NA,NA,NA,NA,NA,SW-C-M-B4,asian,man,asian,1,1,1,1,Gender Match Race Match
./data_edited_for_spelling/16769_ChineseManB.csv,3575.2000000476837,"<img src=""portrait/BW2.jpg""style=""height:400px;""></img>",2,html-button-response,225,22258314,0.0-16.0-19.0,16769,ListB,man,chinese,NA,TRUE,2,NA,NA,NA,NA,NA,NA,NA,SW-C-M-B4,asian,woman,black,1,0,0,0,Gender No-Match Race No-Match
./data_edited_for_spelling/16769_ChineseManB.csv,3728.399999856949,"<img src=""portrait/WM2.jpg""style=""height:400px;""></img>",7,html-button-response,227,22263574,0.0-16.0-22.0,16769,ListB,man,chinese,NA,TRUE,7,NA,NA,NA,NA,NA,NA,NA,SW-C-M-B4,asian,man,asian,1,1,1,1,Gender Match Race Match
./data_edited_for_spelling/18833_ChineseWomanA.csv,16349,"<img src=""portrait/BM2.jpg""style=""height:400px;""></img>",5,html-button-response,4,58894,0.0-3.0-1.0,18833,ListA,woman,chinese,NA,TRUE,5,NA,NA,NA,NA,NA,NA,NA,SW_C_F_A5,asian,man,black,1,0,0,0,Gender No-Match Race No-Match
./data_edited_for_spelling/18833_ChineseWomanA.csv,7594.999999999993,"<img src=""portrait/BW2.jpg""style=""height:400px;""></img>",2,html-button-response,6,68275,0.0-3.0-4.0,18833,ListA,woman,chinese,NA,TRUE,2,NA,NA,NA,NA,NA,NA,NA,SW_C_F_A5,asian,woman,black,1,1,0,0,Gender Match Race No-Match
./data_edited_for_spelling/18833_ChineseWomanA.csv,6459,"<img src=""portrait/WM2.jpg""style=""height:400px;""></img>",7,html-button-response,8,76247,0.0-3.0-7.0,18833,ListA,woman,chinese,NA,TRUE,7,NA,NA,NA,NA,NA,NA,NA,SW_C_F_A5,asian,man,asian,1,0,1,0,Gender No-Match Race Match
./data_edited_for_spelling/18833_ChineseWomanA.csv,6675,"<img src=""portrait/BW1.jpg""style=""height:400px;""></img>",0,html-button-response,10,84436,0.0-3.0-10.0,18833,ListA,woman,chinese,NA,TRUE,0,NA,NA,NA,NA,NA,NA,NA,SW_C_F_A5,asian,woman,black,1,1,0,0,Gender Match Race No-Match
./data_edited_for_spelling/18833_ChineseWomanA.csv,5862,"<img src=""portrait/BM1.jpg""style=""height:400px;""></img>",4,html-button-response,12,91810,0.0-3.0-13.0,18833,ListA,woman,chinese,NA,TRUE,4,NA,NA,NA,NA,NA,NA,NA,SW_C_F_A5,asian,man,black,1,0,0,0,Gender No-Match Race No-Match
./data_edited_for_spelling/18833_ChineseWomanA.csv,9891.000000000015,"<img src=""portrait/WM1.jpg""style=""height:400px;""></img>",6,html-button-response,14,103213,0.0-3.0-16.0,18833,ListA,woman,chinese,NA,TRUE,6,NA,NA,NA,NA,NA,NA,NA,SW_C_F_A5,asian,man,asian,1,0,1,0,Gender No-Match Race Match
./data_edited_for_spelling/18833_ChineseWomanA.csv,5181,"<img src=""portrait/WW1.jpg""style=""height:400px;""></img>",1,html-button-response,16,109902,0.0-3.0-19.0,18833,ListA,woman,chinese,NA,TRUE,1,NA,NA,NA,NA,NA,NA,NA,SW_C_F_A5,asian,woman,asian,1,1,1,1,Gender Match Race Match
./data_edited_for_spelling/18833_ChineseWomanA.csv,5362,"<img src=""portrait/WW2.jpg""style=""height:400px;""></img>",3,html-button-response,18,116777,0.0-3.0-22.0,18833,ListA,woman,chinese,NA,TRUE,3,NA,NA,NA,NA,NA,NA,NA,SW_C_F_A5,asian,woman,asian,1,1,1,1,Gender Match Race Match
./data_edited_for_spelling/18833_ChineseWomanA.csv,4941,"<img src=""portrait/BM1.jpg""style=""height:400px;""></img>",4,html-button-response,103,558726,0.0-14.0-1.0,18833,ListA,woman,chinese,NA,TRUE,4,NA,NA,NA,NA,NA,NA,NA,SW_C_F_A5,asian,man,black,1,0,0,0,Gender No-Match Race No-Match
./data_edited_for_spelling/18833_ChineseWomanA.csv,4620,"<img src=""portrait/WW1.jpg""style=""height:400px;""></img>",1,html-button-response,105,564859,0.0-14.0-4.0,18833,ListA,woman,chinese,NA,TRUE,1,NA,NA,NA,NA,NA,NA,NA,SW_C_F_A5,asian,woman,asian,1,1,1,1,Gender Match Race Match
./data_edited_for_spelling/18833_ChineseWomanA.csv,3193,"<img src=""portrait/BW2.jpg""style=""height:400px;""></img>",2,html-button-response,107,569559,0.0-14.0-7.0,18833,ListA,woman,chinese,NA,TRUE,2,NA,NA,NA,NA,NA,NA,NA,SW_C_F_A5,asian,woman,black,1,1,0,0,Gender Match Race No-Match
./data_edited_for_spelling/18833_ChineseWomanA.csv,4125,"<img src=""portrait/BW1.jpg""style=""height:400px;""></img>",0,html-button-response,109,575195,0.0-14.0-10.0,18833,ListA,woman,chinese,NA,TRUE,0,NA,NA,NA,NA,NA,NA,NA,SW_C_F_A5,asian,woman,black,1,1,0,0,Gender Match Race No-Match
./data_edited_for_spelling/18833_ChineseWomanA.csv,4596,"<img src=""portrait/WW2.jpg""style=""height:400px;""></img>",3,html-button-response,111,581297,0.0-14.0-13.0,18833,ListA,woman,chinese,NA,TRUE,3,NA,NA,NA,NA,NA,NA,NA,SW_C_F_A5,asian,woman,asian,1,1,1,1,Gender Match Race Match
./data_edited_for_spelling/18833_ChineseWomanA.csv,9100,"<img src=""portrait/WM1.jpg""style=""height:400px;""></img>",6,html-button-response,113,591905,0.0-14.0-16.0,18833,ListA,woman,chinese,NA,TRUE,6,NA,NA,NA,NA,NA,NA,NA,SW_C_F_A5,asian,man,asian,1,0,1,0,Gender No-Match Race Match
./data_edited_for_spelling/18833_ChineseWomanA.csv,1966,"<img src=""portrait/BM2.jpg""style=""height:400px;""></img>",5,html-button-response,115,595386,0.0-14.0-19.0,18833,ListA,woman,chinese,NA,TRUE,5,NA,NA,NA,NA,NA,NA,NA,SW_C_F_A5,asian,man,black,1,0,0,0,Gender No-Match Race No-Match
./data_edited_for_spelling/18833_ChineseWomanA.csv,9318,"<img src=""portrait/WM2.jpg""style=""height:400px;""></img>",7,html-button-response,117,606212,0.0-14.0-22.0,18833,ListA,woman,chinese,NA,TRUE,7,NA,NA,NA,NA,NA,NA,NA,SW_C_F_A5,asian,man,asian,1,0,1,0,Gender No-Match Race Match
./data_edited_for_spelling/18833_ChineseWomanA.csv,5761.999999999884,"<img src=""portrait/BW2.jpg""style=""height:400px;""></img>",2,html-button-response,193,956206,0.0-16.0-1.0,18833,ListA,woman,chinese,NA,TRUE,2,NA,NA,NA,NA,NA,NA,NA,SW_C_F_A5,asian,woman,black,1,1,0,0,Gender Match Race No-Match
./data_edited_for_spelling/18833_ChineseWomanA.csv,3791,"<img src=""portrait/WW1.jpg""style=""height:400px;""></img>",1,html-button-response,195,961512,0.0-16.0-4.0,18833,ListA,woman,chinese,NA,TRUE,1,NA,NA,NA,NA,NA,NA,NA,SW_C_F_A5,asian,woman,asian,1,1,1,1,Gender Match Race Match
./data_edited_for_spelling/18833_ChineseWomanA.csv,4831,"<img src=""portrait/WM1.jpg""style=""height:400px;""></img>",6,html-button-response,197,967851,0.0-16.0-7.0,18833,ListA,woman,chinese,NA,TRUE,6,NA,NA,NA,NA,NA,NA,NA,SW_C_F_A5,asian,man,asian,1,0,1,0,Gender No-Match Race Match
./data_edited_for_spelling/18833_ChineseWomanA.csv,6981.000000000116,"<img src=""portrait/BM1.jpg""style=""height:400px;""></img>",4,html-button-response,199,976341,0.0-16.0-10.0,18833,ListA,woman,chinese,NA,TRUE,4,NA,NA,NA,NA,NA,NA,NA,SW_C_F_A5,asian,man,black,1,0,0,0,Gender No-Match Race No-Match
./data_edited_for_spelling/18833_ChineseWomanA.csv,4806,"<img src=""portrait/BW1.jpg""style=""height:400px;""></img>",0,html-button-response,201,982660,0.0-16.0-13.0,18833,ListA,woman,chinese,NA,TRUE,0,NA,NA,NA,NA,NA,NA,NA,SW_C_F_A5,asian,woman,black,1,1,0,0,Gender Match Race No-Match
./data_edited_for_spelling/18833_ChineseWomanA.csv,4114,"<img src=""portrait/WW2.jpg""style=""height:400px;""></img>",3,html-button-response,203,988281,0.0-16.0-16.0,18833,ListA,woman,chinese,NA,TRUE,3,NA,NA,NA,NA,NA,NA,NA,SW_C_F_A5,asian,woman,asian,1,1,1,1,Gender Match Race Match
./data_edited_for_spelling/18833_ChineseWomanA.csv,5983,"<img src=""portrait/BM2.jpg""style=""height:400px;""></img>",5,html-button-response,205,995775,0.0-16.0-19.0,18833,ListA,woman,chinese,NA,TRUE,5,NA,NA,NA,NA,NA,NA,NA,SW_C_F_A5,asian,man,black,1,0,0,0,Gender No-Match Race No-Match
./data_edited_for_spelling/18833_ChineseWomanA.csv,6339,"<img src=""portrait/WM2.jpg""style=""height:400px;""></img>",7,html-button-response,207,1003631,0.0-16.0-22.0,18833,ListA,woman,chinese,NA,TRUE,7,NA,NA,NA,NA,NA,NA,NA,SW_C_F_A5,asian,man,asian,1,0,1,0,Gender No-Match Race Match
./data_edited_for_spelling/23521_ChineseManB.csv,1845.3999999761581,"<img src=""portrait/WW1.jpg""style=""height:400px;""></img>",1,html-button-response,4,11511,0.0-3.0-1.0,23521,ListB,man,chinese,NA,TRUE,1,NA,NA,NA,NA,NA,NA,NA,SW_C_M_B5,asian,woman,asian,1,0,1,0,Gender No-Match Race Match
./data_edited_for_spelling/23521_ChineseManB.csv,2350.2000000476837,"<img src=""portrait/BW2.jpg""style=""height:400px;""></img>",2,html-button-response,6,15378,0.0-3.0-4.0,23521,ListB,man,chinese,NA,TRUE,2,NA,NA,NA,NA,NA,NA,NA,SW_C_M_B5,asian,woman,black,1,0,0,0,Gender No-Match Race No-Match
./data_edited_for_spelling/23521_ChineseManB.csv,2355.7999999523163,"<img src=""portrait/WM1.jpg""style=""height:400px;""></img>",6,html-button-response,8,19236,0.0-3.0-7.0,23521,ListB,man,chinese,NA,TRUE,6,NA,NA,NA,NA,NA,NA,NA,SW_C_M_B5,asian,man,asian,1,1,1,1,Gender Match Race Match
./data_edited_for_spelling/23521_ChineseManB.csv,3838.7000000476837,"<img src=""portrait/BW1.jpg""style=""height:400px;""></img>",0,html-button-response,10,24593,0.0-3.0-10.0,23521,ListB,man,chinese,NA,TRUE,0,NA,NA,NA,NA,NA,NA,NA,SW_C_M_B5,asian,woman,black,1,0,0,0,Gender No-Match Race No-Match
./data_edited_for_spelling/23521_ChineseManB.csv,13603.299999952316,"<img src=""portrait/WW2.jpg""style=""height:400px;""></img>",3,html-button-response,12,39700,0.0-3.0-13.0,23521,ListB,man,chinese,NA,TRUE,3,NA,NA,NA,NA,NA,NA,NA,SW_C_M_B5,asian,woman,asian,1,0,1,0,Gender No-Match Race Match
./data_edited_for_spelling/23521_ChineseManB.csv,2485.3000000715256,"<img src=""portrait/WM2.jpg""style=""height:400px;""></img>",7,html-button-response,14,43689,0.0-3.0-16.0,23521,ListB,man,chinese,NA,TRUE,7,NA,NA,NA,NA,NA,NA,NA,SW_C_M_B5,asian,man,asian,1,1,1,1,Gender Match Race Match
./data_edited_for_spelling/23521_ChineseManB.csv,3052.3000000715256,"<img src=""portrait/BM2.jpg""style=""height:400px;""></img>",5,html-button-response,16,48258,0.0-3.0-19.0,23521,ListB,man,chinese,NA,TRUE,5,NA,NA,NA,NA,NA,NA,NA,SW_C_M_B5,asian,man,black,1,1,0,0,Gender Match Race No-Match
./data_edited_for_spelling/23521_ChineseManB.csv,1893.5,"<img src=""portrait/BM1.jpg""style=""height:400px;""></img>",4,html-button-response,18,51665,0.0-3.0-22.0,23521,ListB,man,chinese,NA,TRUE,4,NA,NA,NA,NA,NA,NA,NA,SW_C_M_B5,asian,man,black,1,1,0,0,Gender Match Race No-Match
./data_edited_for_spelling/23521_ChineseManB.csv,1808.5,"<img src=""portrait/WW1.jpg""style=""height:400px;""></img>",1,html-button-response,103,353162,0.0-14.0-1.0,23521,ListB,man,chinese,NA,TRUE,1,NA,NA,NA,NA,NA,NA,NA,SW_C_M_B5,asian,woman,asian,1,0,1,0,Gender No-Match Race Match
./data_edited_for_spelling/23521_ChineseManB.csv,1535.7999999523163,"<img src=""portrait/WW2.jpg""style=""height:400px;""></img>",3,html-button-response,105,356202,0.0-14.0-4.0,23521,ListB,man,chinese,NA,TRUE,3,NA,NA,NA,NA,NA,NA,NA,SW_C_M_B5,asian,woman,asian,1,0,1,0,Gender No-Match Race Match
./data_edited_for_spelling/23521_ChineseManB.csv,2005.7999999523163,"<img src=""portrait/BW2.jpg""style=""height:400px;""></img>",2,html-button-response,107,359718,0.0-14.0-7.0,23521,ListB,man,chinese,NA,TRUE,2,NA,NA,NA,NA,NA,NA,NA,SW_C_M_B5,asian,woman,black,1,0,0,0,Gender No-Match Race No-Match
./data_edited_for_spelling/23521_ChineseManB.csv,1162.3999999761581,"<img src=""portrait/BM1.jpg""style=""height:400px;""></img>",4,html-button-response,109,362383,0.0-14.0-10.0,23521,ListB,man,chinese,NA,TRUE,4,NA,NA,NA,NA,NA,NA,NA,SW_C_M_B5,asian,man,black,1,1,0,0,Gender Match Race No-Match
./data_edited_for_spelling/23521_ChineseManB.csv,3959,"<img src=""portrait/BW1.jpg""style=""height:400px;""></img>",0,html-button-response,111,367843,0.0-14.0-13.0,23521,ListB,man,chinese,NA,TRUE,0,NA,NA,NA,NA,NA,NA,NA,SW_C_M_B5,asian,woman,black,1,0,0,0,Gender No-Match Race No-Match
./data_edited_for_spelling/23521_ChineseManB.csv,5106.199999928474,"<img src=""portrait/WM1.jpg""style=""height:400px;""></img>",6,html-button-response,113,374459,0.0-14.0-16.0,23521,ListB,man,chinese,NA,TRUE,6,NA,NA,NA,NA,NA,NA,NA,SW_C_M_B5,asian,man,asian,1,1,1,1,Gender Match Race Match
./data_edited_for_spelling/23521_ChineseManB.csv,3096.5999999046326,"<img src=""portrait/BM2.jpg""style=""height:400px;""></img>",5,html-button-response,115,379057,0.0-14.0-19.0,23521,ListB,man,chinese,NA,TRUE,5,NA,NA,NA,NA,NA,NA,NA,SW_C_M_B5,asian,man,black,1,1,0,0,Gender Match Race No-Match
./data_edited_for_spelling/23521_ChineseManB.csv,5583.399999976158,"<img src=""portrait/WM2.jpg""style=""height:400px;""></img>",7,html-button-response,117,386142,0.0-14.0-22.0,23521,ListB,man,chinese,NA,TRUE,7,NA,NA,NA,NA,NA,NA,NA,SW_C_M_B5,asian,man,asian,1,1,1,1,Gender Match Race Match
./data_edited_for_spelling/23521_ChineseManB.csv,1855,"<img src=""portrait/WM1.jpg""style=""height:400px;""></img>",6,html-button-response,193,623077,0.0-16.0-1.0,23521,ListB,man,chinese,NA,TRUE,6,NA,NA,NA,NA,NA,NA,NA,SW_C_M_B5,asian,man,asian,1,1,1,1,Gender Match Race Match
./data_edited_for_spelling/23521_ChineseManB.csv,1712.4000000953674,"<img src=""portrait/BW2.jpg""style=""height:400px;""></img>",2,html-button-response,195,626291,0.0-16.0-4.0,23521,ListB,man,chinese,NA,TRUE,2,NA,NA,NA,NA,NA,NA,NA,SW_C_M_B5,asian,woman,black,1,0,0,0,Gender No-Match Race No-Match
./data_edited_for_spelling/23521_ChineseManB.csv,4326.899999976158,"<img src=""portrait/WW2.jpg""style=""height:400px;""></img>",3,html-button-response,197,632120,0.0-16.0-7.0,23521,ListB,man,chinese,NA,TRUE,3,NA,NA,NA,NA,NA,NA,NA,SW_C_M_B5,asian,woman,asian,1,0,1,0,Gender No-Match Race Match
./data_edited_for_spelling/23521_ChineseManB.csv,2186.399999976158,"<img src=""portrait/BM1.jpg""style=""height:400px;""></img>",4,html-button-response,199,635810,0.0-16.0-10.0,23521,ListB,man,chinese,NA,TRUE,4,NA,NA,NA,NA,NA,NA,NA,SW_C_M_B5,asian,man,black,1,1,0,0,Gender Match Race No-Match
./data_edited_for_spelling/23521_ChineseManB.csv,1486.1000000238419,"<img src=""portrait/BW1.jpg""style=""height:400px;""></img>",0,html-button-response,201,638805,0.0-16.0-13.0,23521,ListB,man,chinese,NA,TRUE,0,NA,NA,NA,NA,NA,NA,NA,SW_C_M_B5,asian,woman,black,1,0,0,0,Gender No-Match Race No-Match
./data_edited_for_spelling/23521_ChineseManB.csv,3051.1999999284744,"<img src=""portrait/BM2.jpg""style=""height:400px;""></img>",5,html-button-response,203,643358,0.0-16.0-16.0,23521,ListB,man,chinese,NA,TRUE,5,NA,NA,NA,NA,NA,NA,NA,SW_C_M_B5,asian,man,black,1,1,0,0,Gender Match Race No-Match
./data_edited_for_spelling/23521_ChineseManB.csv,1675.1999999284744,"<img src=""portrait/WW1.jpg""style=""height:400px;""></img>",1,html-button-response,205,646548,0.0-16.0-19.0,23521,ListB,man,chinese,NA,TRUE,1,NA,NA,NA,NA,NA,NA,NA,SW_C_M_B5,asian,woman,asian,1,0,1,0,Gender No-Match Race Match
./data_edited_for_spelling/23521_ChineseManB.csv,3917.399999976158,"<img src=""portrait/WM2.jpg""style=""height:400px;""></img>",7,html-button-response,207,651967,0.0-16.0-22.0,23521,ListB,man,chinese,NA,TRUE,7,NA,NA,NA,NA,NA,NA,NA,SW_C_M_B5,asian,man,asian,1,1,1,1,Gender Match Race Match
./data_edited_for_spelling/24789_ChineseWomanB.csv,4174.100000143051,"<img src=""portrait/WM1.jpg""style=""height:400px;""></img>",6,html-button-response,4,465694,0.0-3.0-1.0,24789,ListB,woman,chinese,NA,TRUE,6,NA,NA,NA,NA,NA,NA,NA,SW_C_F_B8,asian,man,asian,1,0,1,0,Gender No-Match Race Match
./data_edited_for_spelling/24789_ChineseWomanB.csv,3428.4000000953674,"<img src=""portrait/BM2.jpg""style=""height:400px;""></img>",5,html-button-response,6,470628,0.0-3.0-4.0,24789,ListB,woman,chinese,NA,TRUE,5,NA,NA,NA,NA,NA,NA,NA,SW_C_F_B8,asian,man,black,1,0,0,0,Gender No-Match Race No-Match
./data_edited_for_spelling/24789_ChineseWomanB.csv,6973.400000095367,"<img src=""portrait/BM1.jpg""style=""height:400px;""></img>",4,html-button-response,8,479111,0.0-3.0-7.0,24789,ListB,woman,chinese,NA,TRUE,4,NA,NA,NA,NA,NA,NA,NA,SW_C_F_B8,asian,man,black,1,0,0,0,Gender No-Match Race No-Match
./data_edited_for_spelling/24789_ChineseWomanB.csv,3316.2000000476837,"<img src=""portrait/WW2.jpg""style=""height:400px;""></img>",3,html-button-response,10,483933,0.0-3.0-10.0,24789,ListB,woman,chinese,NA,TRUE,3,NA,NA,NA,NA,NA,NA,NA,SW_C_F_B8,asian,woman,asian,1,1,1,1,Gender Match Race Match
./data_edited_for_spelling/24789_ChineseWomanB.csv,4736,"<img src=""portrait/BW2.jpg""style=""height:400px;""></img>",2,html-button-response,12,490188,0.0-3.0-13.0,24789,ListB,woman,chinese,NA,TRUE,2,NA,NA,NA,NA,NA,NA,NA,SW_C_F_B8,asian,woman,black,1,1,0,0,Gender Match Race No-Match
./data_edited_for_spelling/24789_ChineseWomanB.csv,12214.200000047684,"<img src=""portrait/WM2.jpg""style=""height:400px;""></img>",7,html-button-response,14,503928,0.0-3.0-16.0,24789,ListB,woman,chinese,NA,TRUE,7,NA,NA,NA,NA,NA,NA,NA,SW_C_F_B8,asian,man,asian,1,0,1,0,Gender No-Match Race Match
./data_edited_for_spelling/24789_ChineseWomanB.csv,3270.5999999046326,"<img src=""portrait/WW1.jpg""style=""height:400px;""></img>",1,html-button-response,16,508706,0.0-3.0-19.0,24789,ListB,woman,chinese,NA,TRUE,1,NA,NA,NA,NA,NA,NA,NA,SW_C_F_B8,asian,woman,asian,1,1,1,1,Gender Match Race Match
./data_edited_for_spelling/24789_ChineseWomanB.csv,6778.599999904633,"<img src=""portrait/BW1.jpg""style=""height:400px;""></img>",0,html-button-response,18,516993,0.0-3.0-22.0,24789,ListB,woman,chinese,NA,TRUE,0,NA,NA,NA,NA,NA,NA,NA,SW_C_F_B8,asian,woman,black,1,1,0,0,Gender Match Race No-Match
./data_edited_for_spelling/24789_ChineseWomanB.csv,2662.9000000953674,"<img src=""portrait/BM2.jpg""style=""height:400px;""></img>",5,html-button-response,103,1088434,0.0-14.0-1.0,24789,ListB,woman,chinese,NA,TRUE,5,NA,NA,NA,NA,NA,NA,NA,SW_C_F_B8,asian,man,black,1,0,0,0,Gender No-Match Race No-Match
./data_edited_for_spelling/24789_ChineseWomanB.csv,3128.399999856949,"<img src=""portrait/BW1.jpg""style=""height:400px;""></img>",0,html-button-response,105,1093076,0.0-14.0-4.0,24789,ListB,woman,chinese,NA,TRUE,0,NA,NA,NA,NA,NA,NA,NA,SW_C_F_B8,asian,woman,black,1,1,0,0,Gender Match Race No-Match
./data_edited_for_spelling/24789_ChineseWomanB.csv,5902,"<img src=""portrait/WW1.jpg""style=""height:400px;""></img>",1,html-button-response,107,1100494,0.0-14.0-7.0,24789,ListB,woman,chinese,NA,TRUE,1,NA,NA,NA,NA,NA,NA,NA,SW_C_F_B8,asian,woman,asian,1,1,1,1,Gender Match Race Match
./data_edited_for_spelling/24789_ChineseWomanB.csv,2725.7999999523163,"<img src=""portrait/WM1.jpg""style=""height:400px;""></img>",6,html-button-response,109,1104724,0.0-14.0-10.0,24789,ListB,woman,chinese,NA,TRUE,6,NA,NA,NA,NA,NA,NA,NA,SW_C_F_B8,asian,man,asian,1,0,1,0,Gender No-Match Race Match
./data_edited_for_spelling/24789_ChineseWomanB.csv,1954.4000000953674,"<img src=""portrait/WM2.jpg""style=""height:400px;""></img>",7,html-button-response,111,1108204,0.0-14.0-13.0,24789,ListB,woman,chinese,NA,TRUE,7,NA,NA,NA,NA,NA,NA,NA,SW_C_F_B8,asian,man,asian,1,0,1,0,Gender No-Match Race Match
./data_edited_for_spelling/24789_ChineseWomanB.csv,3387.300000190735,"<img src=""portrait/BM1.jpg""style=""height:400px;""></img>",4,html-button-response,113,1113117,0.0-14.0-16.0,24789,ListB,woman,chinese,NA,TRUE,4,NA,NA,NA,NA,NA,NA,NA,SW_C_F_B8,asian,man,black,1,0,0,0,Gender No-Match Race No-Match
./data_edited_for_spelling/24789_ChineseWomanB.csv,3358.2999999523163,"<img src=""portrait/WW2.jpg""style=""height:400px;""></img>",3,html-button-response,115,1117984,0.0-14.0-19.0,24789,ListB,woman,chinese,NA,TRUE,3,NA,NA,NA,NA,NA,NA,NA,SW_C_F_B8,asian,woman,asian,1,1,1,1,Gender Match Race Match
./data_edited_for_spelling/24789_ChineseWomanB.csv,11234.199999809265,"<img src=""portrait/BW2.jpg""style=""height:400px;""></img>",2,html-button-response,117,1130741,0.0-14.0-22.0,24789,ListB,woman,chinese,NA,TRUE,2,NA,NA,NA,NA,NA,NA,NA,SW_C_F_B8,asian,woman,black,1,1,0,0,Gender Match Race No-Match
./data_edited_for_spelling/24789_ChineseWomanB.csv,2825.9000000953674,"<img src=""portrait/WW2.jpg""style=""height:400px;""></img>",3,html-button-response,193,1504964,0.0-16.0-1.0,24789,ListB,woman,chinese,NA,TRUE,3,NA,NA,NA,NA,NA,NA,NA,SW_C_F_B8,asian,woman,asian,1,1,1,1,Gender Match Race Match
./data_edited_for_spelling/24789_ChineseWomanB.csv,2580.9000000953674,"<img src=""portrait/WM1.jpg""style=""height:400px;""></img>",7,html-button-response,195,1509059,0.0-16.0-4.0,24789,ListB,woman,chinese,NA,TRUE,6,NA,NA,NA,NA,NA,NA,NA,SW_C_F_B8,asian,man,asian,1,0,1,0,Gender No-Match Race Match
./data_edited_for_spelling/24789_ChineseWomanB.csv,1583.2000000476837,"<img src=""portrait/WM1.jpg""style=""height:400px;""></img>",6,html-button-response,196,1511646,0.0-16.0-6.0-0.0,24789,ListB,woman,chinese,NA,FALSE,6,NA,NA,NA,NA,NA,NA,NA,SW_C_F_B8,asian,man,asian,0,0,1,0,Gender No-Match Race Match
./data_edited_for_spelling/24789_ChineseWomanB.csv,5108.299999952316,"<img src=""portrait/BM2.jpg""style=""height:400px;""></img>",5,html-button-response,198,1518269,0.0-16.0-7.0,24789,ListB,woman,chinese,NA,TRUE,5,NA,NA,NA,NA,NA,NA,NA,SW_C_F_B8,asian,man,black,1,0,0,0,Gender No-Match Race No-Match
./data_edited_for_spelling/24789_ChineseWomanB.csv,2134.2999999523163,"<img src=""portrait/BW1.jpg""style=""height:400px;""></img>",1,html-button-response,200,1521920,0.0-16.0-10.0,24789,ListB,woman,chinese,NA,TRUE,0,NA,NA,NA,NA,NA,NA,NA,SW_C_F_B8,asian,woman,black,1,1,0,0,Gender Match Race No-Match
./data_edited_for_spelling/24789_ChineseWomanB.csv,1283.6000001430511,"<img src=""portrait/BW1.jpg""style=""height:400px;""></img>",0,html-button-response,201,1524208,0.0-16.0-12.0-0.0,24789,ListB,woman,chinese,NA,FALSE,0,NA,NA,NA,NA,NA,NA,NA,SW_C_F_B8,asian,woman,black,0,1,0,0,Gender Match Race No-Match
./data_edited_for_spelling/24789_ChineseWomanB.csv,5149.600000143051,"<img src=""portrait/BM1.jpg""style=""height:400px;""></img>",4,html-button-response,203,1530861,0.0-16.0-13.0,24789,ListB,woman,chinese,NA,TRUE,4,NA,NA,NA,NA,NA,NA,NA,SW_C_F_B8,asian,man,black,1,0,0,0,Gender No-Match Race No-Match
./data_edited_for_spelling/24789_ChineseWomanB.csv,2915.899999856949,"<img src=""portrait/WW1.jpg""style=""height:400px;""></img>",1,html-button-response,205,1535286,0.0-16.0-16.0,24789,ListB,woman,chinese,NA,TRUE,1,NA,NA,NA,NA,NA,NA,NA,SW_C_F_B8,asian,woman,asian,1,1,1,1,Gender Match Race Match
./data_edited_for_spelling/24789_ChineseWomanB.csv,4297.5,"<img src=""portrait/BW2.jpg""style=""height:400px;""></img>",2,html-button-response,207,1541098,0.0-16.0-19.0,24789,ListB,woman,chinese,NA,TRUE,2,NA,NA,NA,NA,NA,NA,NA,SW_C_F_B8,asian,woman,black,1,1,0,0,Gender Match Race No-Match
./data_edited_for_spelling/24789_ChineseWomanB.csv,3670.699999809265,"<img src=""portrait/WM2.jpg""style=""height:400px;""></img>",7,html-button-response,209,1546273,0.0-16.0-22.0,24789,ListB,woman,chinese,NA,TRUE,7,NA,NA,NA,NA,NA,NA,NA,SW_C_F_B8,asian,man,asian,1,0,1,0,Gender No-Match Race Match
./data_edited_for_spelling/24789_ChineseWomanB.csv,4899.399999856949,"<img src=""portrait/WW2.jpg""style=""height:400px;""></img>",3,html-button-response,214,1568639,0.0-16.1-1.1,24789,ListB,woman,chinese,NA,TRUE,3,NA,NA,NA,NA,NA,NA,NA,SW_C_F_B8,asian,woman,asian,1,1,1,1,Gender Match Race Match
./data_edited_for_spelling/24789_ChineseWomanB.csv,5228.600000143051,"<img src=""portrait/WM1.jpg""style=""height:400px;""></img>",6,html-button-response,216,1575397,0.0-16.1-4.1,24789,ListB,woman,chinese,NA,TRUE,6,NA,NA,NA,NA,NA,NA,NA,SW_C_F_B8,asian,man,asian,1,0,1,0,Gender No-Match Race Match
./data_edited_for_spelling/24789_ChineseWomanB.csv,1692.4000000953674,"<img src=""portrait/BM2.jpg""style=""height:400px;""></img>",5,html-button-response,218,1578614,0.0-16.1-7.1,24789,ListB,woman,chinese,NA,TRUE,5,NA,NA,NA,NA,NA,NA,NA,SW_C_F_B8,asian,man,black,1,0,0,0,Gender No-Match Race No-Match
./data_edited_for_spelling/24789_ChineseWomanB.csv,13127.299999952316,"<img src=""portrait/BW1.jpg""style=""height:400px;""></img>",0,html-button-response,220,1593254,0.0-16.1-10.1,24789,ListB,woman,chinese,NA,TRUE,0,NA,NA,NA,NA,NA,NA,NA,SW_C_F_B8,asian,woman,black,1,1,0,0,Gender Match Race No-Match
./data_edited_for_spelling/24789_ChineseWomanB.csv,3400.2000000476837,"<img src=""portrait/BM1.jpg""style=""height:400px;""></img>",4,html-button-response,222,1598159,0.0-16.1-13.1,24789,ListB,woman,chinese,NA,TRUE,4,NA,NA,NA,NA,NA,NA,NA,SW_C_F_B8,asian,man,black,1,0,0,0,Gender No-Match Race No-Match
./data_edited_for_spelling/24789_ChineseWomanB.csv,4594.5,"<img src=""portrait/WW1.jpg""style=""height:400px;""></img>",1,html-button-response,224,1604256,0.0-16.1-16.1,24789,ListB,woman,chinese,NA,TRUE,1,NA,NA,NA,NA,NA,NA,NA,SW_C_F_B8,asian,woman,asian,1,1,1,1,Gender Match Race Match
./data_edited_for_spelling/24789_ChineseWomanB.csv,2592.2999999523163,"<img src=""portrait/BW2.jpg""style=""height:400px;""></img>",2,html-button-response,226,1608367,0.0-16.1-19.1,24789,ListB,woman,chinese,NA,TRUE,2,NA,NA,NA,NA,NA,NA,NA,SW_C_F_B8,asian,woman,black,1,1,0,0,Gender Match Race No-Match
./data_edited_for_spelling/24789_ChineseWomanB.csv,1453,"<img src=""portrait/WM2.jpg""style=""height:400px;""></img>",7,html-button-response,228,1611337,0.0-16.1-22.1,24789,ListB,woman,chinese,NA,TRUE,7,NA,NA,NA,NA,NA,NA,NA,SW_C_F_B8,asian,man,asian,1,0,1,0,Gender No-Match Race Match
./data_edited_for_spelling/24894_ChineseWomanA.csv,4107.999999999971,"<img src=""portrait/BW2.jpg""style=""height:400px;""></img>",2,html-button-response,4,137949,0.0-3.0-1.0,24894,ListA,woman,chinese,NA,TRUE,2,NA,NA,NA,NA,NA,NA,NA,SW_C_F_A2,asian,woman,black,1,1,0,0,Gender Match Race No-Match
./data_edited_for_spelling/24894_ChineseWomanA.csv,3131,"<img src=""portrait/BM1.jpg""style=""height:400px;""></img>",4,html-button-response,6,142590,0.0-3.0-4.0,24894,ListA,woman,chinese,NA,TRUE,4,NA,NA,NA,NA,NA,NA,NA,SW_C_F_A2,asian,man,black,1,0,0,0,Gender No-Match Race No-Match
./data_edited_for_spelling/24894_ChineseWomanA.csv,2710,"<img src=""portrait/WM2.jpg""style=""height:400px;""></img>",7,html-button-response,8,146804,0.0-3.0-7.0,24894,ListA,woman,chinese,NA,TRUE,7,NA,NA,NA,NA,NA,NA,NA,SW_C_F_A2,asian,man,asian,1,0,1,0,Gender No-Match Race Match
./data_edited_for_spelling/24894_ChineseWomanA.csv,3846,"<img src=""portrait/BW1.jpg""style=""height:400px;""></img>",0,html-button-response,10,152156,0.0-3.0-10.0,24894,ListA,woman,chinese,NA,TRUE,0,NA,NA,NA,NA,NA,NA,NA,SW_C_F_A2,asian,woman,black,1,1,0,0,Gender Match Race No-Match
./data_edited_for_spelling/24894_ChineseWomanA.csv,2311,"<img src=""portrait/WM1.jpg""style=""height:400px;""></img>",6,html-button-response,12,155974,0.0-3.0-13.0,24894,ListA,woman,chinese,NA,TRUE,6,NA,NA,NA,NA,NA,NA,NA,SW_C_F_A2,asian,man,asian,1,0,1,0,Gender No-Match Race Match
./data_edited_for_spelling/24894_ChineseWomanA.csv,3500,"<img src=""portrait/WW2.jpg""style=""height:400px;""></img>",3,html-button-response,14,160980,0.0-3.0-16.0,24894,ListA,woman,chinese,NA,TRUE,3,NA,NA,NA,NA,NA,NA,NA,SW_C_F_A2,asian,woman,asian,1,1,1,1,Gender Match Race Match
./data_edited_for_spelling/24894_ChineseWomanA.csv,2594,"<img src=""portrait/BM2.jpg""style=""height:400px;""></img>",5,html-button-response,16,165080,0.0-3.0-19.0,24894,ListA,woman,chinese,NA,TRUE,5,NA,NA,NA,NA,NA,NA,NA,SW_C_F_A2,asian,man,black,1,0,0,0,Gender No-Match Race No-Match
./data_edited_for_spelling/24894_ChineseWomanA.csv,3373.999999999971,"<img src=""portrait/WW1.jpg""style=""height:400px;""></img>",1,html-button-response,18,169960,0.0-3.0-22.0,24894,ListA,woman,chinese,NA,TRUE,1,NA,NA,NA,NA,NA,NA,NA,SW_C_F_A2,asian,woman,asian,1,1,1,1,Gender Match Race Match
./data_edited_for_spelling/24894_ChineseWomanA.csv,4446.000000000058,"<img src=""portrait/WM2.jpg""style=""height:400px;""></img>",7,html-button-response,103,489369,0.0-14.0-1.0,24894,ListA,woman,chinese,NA,TRUE,7,NA,NA,NA,NA,NA,NA,NA,SW_C_F_A2,asian,man,asian,1,0,1,0,Gender No-Match Race Match
./data_edited_for_spelling/24894_ChineseWomanA.csv,2406.999999999942,"<img src=""portrait/WW2.jpg""style=""height:400px;""></img>",3,html-button-response,105,493283,0.0-14.0-4.0,24894,ListA,woman,chinese,NA,TRUE,3,NA,NA,NA,NA,NA,NA,NA,SW_C_F_A2,asian,woman,asian,1,1,1,1,Gender Match Race Match
./data_edited_for_spelling/24894_ChineseWomanA.csv,2283.000000000058,"<img src=""portrait/BW2.jpg""style=""height:400px;""></img>",2,html-button-response,107,497072,0.0-14.0-7.0,24894,ListA,woman,chinese,NA,TRUE,2,NA,NA,NA,NA,NA,NA,NA,SW_C_F_A2,asian,woman,black,1,1,0,0,Gender Match Race No-Match
./data_edited_for_spelling/24894_ChineseWomanA.csv,1879,"<img src=""portrait/BM2.jpg""style=""height:400px;""></img>",5,html-button-response,109,500455,0.0-14.0-10.0,24894,ListA,woman,chinese,NA,TRUE,5,NA,NA,NA,NA,NA,NA,NA,SW_C_F_A2,asian,man,black,1,0,0,0,Gender No-Match Race No-Match
./data_edited_for_spelling/24894_ChineseWomanA.csv,2048,"<img src=""portrait/WM1.jpg""style=""height:400px;""></img>",6,html-button-response,111,504010,0.0-14.0-13.0,24894,ListA,woman,chinese,NA,TRUE,6,NA,NA,NA,NA,NA,NA,NA,SW_C_F_A2,asian,man,asian,1,0,1,0,Gender No-Match Race Match
./data_edited_for_spelling/24894_ChineseWomanA.csv,2197,"<img src=""portrait/BW1.jpg""style=""height:400px;""></img>",0,html-button-response,113,507712,0.0-14.0-16.0,24894,ListA,woman,chinese,NA,TRUE,0,NA,NA,NA,NA,NA,NA,NA,SW_C_F_A2,asian,woman,black,1,1,0,0,Gender Match Race No-Match
./data_edited_for_spelling/24894_ChineseWomanA.csv,2385.999999999942,"<img src=""portrait/WW1.jpg""style=""height:400px;""></img>",1,html-button-response,115,511602,0.0-14.0-19.0,24894,ListA,woman,chinese,NA,TRUE,1,NA,NA,NA,NA,NA,NA,NA,SW_C_F_A2,asian,woman,asian,1,1,1,1,Gender Match Race Match
./data_edited_for_spelling/24894_ChineseWomanA.csv,2131.999999999942,"<img src=""portrait/BM1.jpg""style=""height:400px;""></img>",4,html-button-response,117,515239,0.0-14.0-22.0,24894,ListA,woman,chinese,NA,TRUE,4,NA,NA,NA,NA,NA,NA,NA,SW_C_F_A2,asian,man,black,1,0,0,0,Gender No-Match Race No-Match
./data_edited_for_spelling/24894_ChineseWomanA.csv,4668,"<img src=""portrait/BW2.jpg""style=""height:400px;""></img>",2,html-button-response,193,723182,0.0-16.0-1.0,24894,ListA,woman,chinese,NA,TRUE,2,NA,NA,NA,NA,NA,NA,NA,SW_C_F_A2,asian,woman,black,1,1,0,0,Gender Match Race No-Match
./data_edited_for_spelling/24894_ChineseWomanA.csv,2887,"<img src=""portrait/BM1.jpg""style=""height:400px;""></img>",4,html-button-response,195,727574,0.0-16.0-4.0,24894,ListA,woman,chinese,NA,TRUE,4,NA,NA,NA,NA,NA,NA,NA,SW_C_F_A2,asian,man,black,1,0,0,0,Gender No-Match Race No-Match
./data_edited_for_spelling/24894_ChineseWomanA.csv,2205.0000000001164,"<img src=""portrait/BM2.jpg""style=""height:400px;""></img>",5,html-button-response,197,731285,0.0-16.0-7.0,24894,ListA,woman,chinese,NA,TRUE,5,NA,NA,NA,NA,NA,NA,NA,SW_C_F_A2,asian,man,black,1,0,0,0,Gender No-Match Race No-Match
./data_edited_for_spelling/24894_ChineseWomanA.csv,2292,"<img src=""portrait/BW1.jpg""style=""height:400px;""></img>",0,html-button-response,199,735082,0.0-16.0-10.0,24894,ListA,woman,chinese,NA,TRUE,0,NA,NA,NA,NA,NA,NA,NA,SW_C_F_A2,asian,woman,black,1,1,0,0,Gender Match Race No-Match
./data_edited_for_spelling/24894_ChineseWomanA.csv,2372,"<img src=""portrait/WW1.jpg""style=""height:400px;""></img>",1,html-button-response,201,738959,0.0-16.0-13.0,24894,ListA,woman,chinese,NA,TRUE,1,NA,NA,NA,NA,NA,NA,NA,SW_C_F_A2,asian,woman,asian,1,1,1,1,Gender Match Race Match
./data_edited_for_spelling/24894_ChineseWomanA.csv,5462,"<img src=""portrait/WM1.jpg""style=""height:400px;""></img>",6,html-button-response,203,745927,0.0-16.0-16.0,24894,ListA,woman,chinese,NA,TRUE,6,NA,NA,NA,NA,NA,NA,NA,SW_C_F_A2,asian,man,asian,1,0,1,0,Gender No-Match Race Match
./data_edited_for_spelling/24894_ChineseWomanA.csv,2612,"<img src=""portrait/WW2.jpg""style=""height:400px;""></img>",3,html-button-response,205,750045,0.0-16.0-19.0,24894,ListA,woman,chinese,NA,TRUE,3,NA,NA,NA,NA,NA,NA,NA,SW_C_F_A2,asian,woman,asian,1,1,1,1,Gender Match Race Match
./data_edited_for_spelling/24894_ChineseWomanA.csv,4024,"<img src=""portrait/WM2.jpg""style=""height:400px;""></img>",7,html-button-response,207,755574,0.0-16.0-22.0,24894,ListA,woman,chinese,NA,TRUE,7,NA,NA,NA,NA,NA,NA,NA,SW_C_F_A2,asian,man,asian,1,0,1,0,Gender No-Match Race Match
./data_edited_for_spelling/25238_EnglishManB.csv,2945.7000000178814,"<img src=""portrait/WW2.jpg""style=""height:400px;""></img>",3,html-button-response,4,63033,0.0-3.0-1.0,25238,ListB,man,english,NA,TRUE,3,NA,NA,NA,NA,NA,NA,NA,EMB10,asian,woman,asian,1,0,1,0,Gender No-Match Race Match
./data_edited_for_spelling/25238_EnglishManB.csv,74127.19999998808,"<img src=""portrait/BW1.jpg""style=""height:400px;""></img>",0,html-button-response,6,138673,0.0-3.0-4.0,25238,ListB,man,english,NA,TRUE,0,NA,NA,NA,NA,NA,NA,NA,EMB10,asian,woman,black,1,0,0,0,Gender No-Match Race No-Match
./data_edited_for_spelling/25238_EnglishManB.csv,2496,"<img src=""portrait/WM1.jpg""style=""height:400px;""></img>",6,html-button-response,8,142685,0.0-3.0-7.0,25238,ListB,man,english,NA,TRUE,6,NA,NA,NA,NA,NA,NA,NA,EMB10,asian,man,asian,1,1,1,1,Gender Match Race Match
./data_edited_for_spelling/25238_EnglishManB.csv,4890.800000011921,"<img src=""portrait/BW2.jpg""style=""height:400px;""></img>",2,html-button-response,10,149084,0.0-3.0-10.0,25238,ListB,man,english,NA,TRUE,2,NA,NA,NA,NA,NA,NA,NA,EMB10,asian,woman,black,1,0,0,0,Gender No-Match Race No-Match
./data_edited_for_spelling/25238_EnglishManB.csv,1902.5,"<img src=""portrait/BM2.jpg""style=""height:400px;""></img>",5,html-button-response,12,152496,0.0-3.0-13.0,25238,ListB,man,english,NA,TRUE,5,NA,NA,NA,NA,NA,NA,NA,EMB10,asian,man,black,1,1,0,0,Gender Match Race No-Match
./data_edited_for_spelling/25238_EnglishManB.csv,5157.0999999940395,"<img src=""portrait/WW1.jpg""style=""height:400px;""></img>",1,html-button-response,14,159165,0.0-3.0-16.0,25238,ListB,man,english,NA,TRUE,1,NA,NA,NA,NA,NA,NA,NA,EMB10,asian,woman,asian,1,0,1,0,Gender No-Match Race Match
./data_edited_for_spelling/25238_EnglishManB.csv,2473.0999999940395,"<img src=""portrait/BM1.jpg""style=""height:400px;""></img>",4,html-button-response,16,163149,0.0-3.0-19.0,25238,ListB,man,english,NA,TRUE,4,NA,NA,NA,NA,NA,NA,NA,EMB10,asian,man,black,1,1,0,0,Gender Match Race No-Match
./data_edited_for_spelling/25238_EnglishManB.csv,2181.4000000059605,"<img src=""portrait/WM2.jpg""style=""height:400px;""></img>",7,html-button-response,18,166839,0.0-3.0-22.0,25238,ListB,man,english,NA,TRUE,7,NA,NA,NA,NA,NA,NA,NA,EMB10,asian,man,asian,1,1,1,1,Gender Match Race Match
./data_edited_for_spelling/25238_EnglishManB.csv,3239.4000000059605,"<img src=""portrait/WM1.jpg""style=""height:400px;""></img>",6,html-button-response,103,558261,0.0-14.0-1.0,25238,ListB,man,english,NA,TRUE,6,NA,NA,NA,NA,NA,NA,NA,EMB10,asian,man,asian,1,1,1,1,Gender Match Race Match
./data_edited_for_spelling/25238_EnglishManB.csv,1386.199999988079,"<img src=""portrait/WW2.jpg""style=""height:400px;""></img>",3,html-button-response,105,561160,0.0-14.0-4.0,25238,ListB,man,english,NA,TRUE,3,NA,NA,NA,NA,NA,NA,NA,EMB10,asian,woman,asian,1,0,1,0,Gender No-Match Race Match
./data_edited_for_spelling/25238_EnglishManB.csv,4372.699999988079,"<img src=""portrait/BM1.jpg""style=""height:400px;""></img>",4,html-button-response,107,567042,0.0-14.0-7.0,25238,ListB,man,english,NA,TRUE,4,NA,NA,NA,NA,NA,NA,NA,EMB10,asian,man,black,1,1,0,0,Gender Match Race No-Match
./data_edited_for_spelling/25238_EnglishManB.csv,1255.4000000059605,"<img src=""portrait/BM2.jpg""style=""height:400px;""></img>",5,html-button-response,109,569813,0.0-14.0-10.0,25238,ListB,man,english,NA,TRUE,5,NA,NA,NA,NA,NA,NA,NA,EMB10,asian,man,black,1,1,0,0,Gender Match Race No-Match
./data_edited_for_spelling/25238_EnglishManB.csv,1649.6000000238419,"<img src=""portrait/BW2.jpg""style=""height:400px;""></img>",2,html-button-response,111,572974,0.0-14.0-13.0,25238,ListB,man,english,NA,TRUE,2,NA,NA,NA,NA,NA,NA,NA,EMB10,asian,woman,black,1,0,0,0,Gender No-Match Race No-Match
./data_edited_for_spelling/25238_EnglishManB.csv,1901.9000000059605,"<img src=""portrait/BW1.jpg""style=""height:400px;""></img>",0,html-button-response,113,576386,0.0-14.0-16.0,25238,ListB,man,english,NA,TRUE,0,NA,NA,NA,NA,NA,NA,NA,EMB10,asian,woman,black,1,0,0,0,Gender No-Match Race No-Match
./data_edited_for_spelling/25238_EnglishManB.csv,1976.4000000059605,"<img src=""portrait/WM2.jpg""style=""height:400px;""></img>",7,html-button-response,115,579870,0.0-14.0-19.0,25238,ListB,man,english,NA,TRUE,7,NA,NA,NA,NA,NA,NA,NA,EMB10,asian,man,asian,1,1,1,1,Gender Match Race Match
./data_edited_for_spelling/25238_EnglishManB.csv,2171.0999999940395,"<img src=""portrait/WW1.jpg""style=""height:400px;""></img>",1,html-button-response,117,583554,0.0-14.0-22.0,25238,ListB,man,english,NA,TRUE,1,NA,NA,NA,NA,NA,NA,NA,EMB10,asian,woman,asian,1,0,1,0,Gender No-Match Race Match
./data_edited_for_spelling/25238_EnglishManB.csv,3148.0999999940395,"<img src=""portrait/WM1.jpg""style=""height:400px;""></img>",6,html-button-response,193,779015,0.0-16.0-1.0,25238,ListB,man,english,NA,TRUE,6,NA,NA,NA,NA,NA,NA,NA,EMB10,asian,man,asian,1,1,1,1,Gender Match Race Match
./data_edited_for_spelling/25238_EnglishManB.csv,4138.799999982119,"<img src=""portrait/WW1.jpg""style=""height:400px;""></img>",1,html-button-response,195,784662,0.0-16.0-4.0,25238,ListB,man,english,NA,TRUE,1,NA,NA,NA,NA,NA,NA,NA,EMB10,asian,woman,asian,1,0,1,0,Gender No-Match Race Match
./data_edited_for_spelling/25238_EnglishManB.csv,3898.4000000059605,"<img src=""portrait/BW1.jpg""style=""height:400px;""></img>",0,html-button-response,197,790799,0.0-16.0-7.0,25238,ListB,man,english,NA,TRUE,0,NA,NA,NA,NA,NA,NA,NA,EMB10,asian,woman,black,1,0,0,0,Gender No-Match Race No-Match
./data_edited_for_spelling/25238_EnglishManB.csv,1078.8999999761581,"<img src=""portrait/WW2.jpg""style=""height:400px;""></img>",3,html-button-response,199,793388,0.0-16.0-10.0,25238,ListB,man,english,NA,TRUE,3,NA,NA,NA,NA,NA,NA,NA,EMB10,asian,woman,asian,1,0,1,0,Gender No-Match Race Match
./data_edited_for_spelling/25238_EnglishManB.csv,2430.5999999940395,"<img src=""portrait/WM2.jpg""style=""height:400px;""></img>",7,html-button-response,201,797323,0.0-16.0-13.0,25238,ListB,man,english,NA,TRUE,7,NA,NA,NA,NA,NA,NA,NA,EMB10,asian,man,asian,1,1,1,1,Gender Match Race Match
./data_edited_for_spelling/25238_EnglishManB.csv,1875.5999999940395,"<img src=""portrait/BW2.jpg""style=""height:400px;""></img>",2,html-button-response,203,800712,0.0-16.0-16.0,25238,ListB,man,english,NA,TRUE,2,NA,NA,NA,NA,NA,NA,NA,EMB10,asian,woman,black,1,0,0,0,Gender No-Match Race No-Match
./data_edited_for_spelling/25238_EnglishManB.csv,1857.699999988079,"<img src=""portrait/BM2.jpg""style=""height:400px;""></img>",5,html-button-response,205,804078,0.0-16.0-19.0,25238,ListB,man,english,NA,TRUE,5,NA,NA,NA,NA,NA,NA,NA,EMB10,asian,man,black,1,1,0,0,Gender Match Race No-Match
./data_edited_for_spelling/25238_EnglishManB.csv,3414.199999988079,"<img src=""portrait/BM1.jpg""style=""height:400px;""></img>",4,html-button-response,207,809003,0.0-16.0-22.0,25238,ListB,man,english,NA,TRUE,4,NA,NA,NA,NA,NA,NA,NA,EMB10,asian,man,black,1,1,0,0,Gender Match Race No-Match
./data_edited_for_spelling/28850_EnglishWomanA.csv,4766.400000095367,"<img src=""portrait/BM2.jpg""style=""height:400px;""></img>",5,html-button-response,4,75822,0.0-3.0-1.0,28850,ListA,woman,english,NA,TRUE,5,NA,NA,NA,NA,NA,NA,NA,NA,asian,man,black,1,0,0,0,Gender No-Match Race No-Match
./data_edited_for_spelling/28850_EnglishWomanA.csv,4261.799999952316,"<img src=""portrait/WW1.jpg""style=""height:400px;""></img>",1,html-button-response,6,81589,0.0-3.0-4.0,28850,ListA,woman,english,NA,TRUE,1,NA,NA,NA,NA,NA,NA,NA,NA,asian,woman,asian,1,1,1,1,Gender Match Race Match
./data_edited_for_spelling/28850_EnglishWomanA.csv,1954.4000000953674,"<img src=""portrait/BW2.jpg""style=""height:400px;""></img>",2,html-button-response,8,85062,0.0-3.0-7.0,28850,ListA,woman,english,NA,TRUE,2,NA,NA,NA,NA,NA,NA,NA,NA,asian,woman,black,1,1,0,0,Gender Match Race No-Match
./data_edited_for_spelling/28850_EnglishWomanA.csv,3232.5,"<img src=""portrait/BW1.jpg""style=""height:400px;""></img>",4,html-button-response,10,89814,0.0-3.0-10.0,28850,ListA,woman,english,NA,TRUE,0,NA,NA,NA,NA,NA,NA,NA,NA,asian,woman,black,1,1,0,0,Gender Match Race No-Match
./data_edited_for_spelling/28850_EnglishWomanA.csv,8097.299999952316,"<img src=""portrait/BW1.jpg""style=""height:400px;""></img>",0,html-button-response,11,98917,0.0-3.0-12.0-0.0,28850,ListA,woman,english,NA,FALSE,0,NA,NA,NA,NA,NA,NA,NA,NA,asian,woman,black,0,1,0,0,Gender Match Race No-Match
./data_edited_for_spelling/28850_EnglishWomanA.csv,3761.0999999046326,"<img src=""portrait/WM1.jpg""style=""height:400px;""></img>",7,html-button-response,13,104190,0.0-3.0-13.0,28850,ListA,woman,english,NA,TRUE,6,NA,NA,NA,NA,NA,NA,NA,NA,asian,man,asian,1,0,1,0,Gender No-Match Race Match
./data_edited_for_spelling/28850_EnglishWomanA.csv,2286.5,"<img src=""portrait/WM1.jpg""style=""height:400px;""></img>",6,html-button-response,14,107478,0.0-3.0-15.0-0.0,28850,ListA,woman,english,NA,FALSE,6,NA,NA,NA,NA,NA,NA,NA,NA,asian,man,asian,0,0,1,0,Gender No-Match Race Match
./data_edited_for_spelling/28850_EnglishWomanA.csv,2497.300000190735,"<img src=""portrait/BM1.jpg""style=""height:400px;""></img>",4,html-button-response,16,111494,0.0-3.0-16.0,28850,ListA,woman,english,NA,TRUE,4,NA,NA,NA,NA,NA,NA,NA,NA,asian,man,black,1,0,0,0,Gender No-Match Race No-Match
./data_edited_for_spelling/28850_EnglishWomanA.csv,3183.399999856949,"<img src=""portrait/WW2.jpg""style=""height:400px;""></img>",3,html-button-response,18,116197,0.0-3.0-19.0,28850,ListA,woman,english,NA,TRUE,3,NA,NA,NA,NA,NA,NA,NA,NA,asian,woman,asian,1,1,1,1,Gender Match Race Match
./data_edited_for_spelling/28850_EnglishWomanA.csv,2544.7999999523163,"<img src=""portrait/WM2.jpg""style=""height:400px;""></img>",7,html-button-response,20,120254,0.0-3.0-22.0,28850,ListA,woman,english,NA,TRUE,7,NA,NA,NA,NA,NA,NA,NA,NA,asian,man,asian,1,0,1,0,Gender No-Match Race Match
./data_edited_for_spelling/28850_EnglishWomanA.csv,5715.200000047684,"<img src=""portrait/BM2.jpg""style=""height:400px;""></img>",5,html-button-response,25,146422,0.0-3.1-1.1,28850,ListA,woman,english,NA,TRUE,5,NA,NA,NA,NA,NA,NA,NA,NA,asian,man,black,1,0,0,0,Gender No-Match Race No-Match
./data_edited_for_spelling/28850_EnglishWomanA.csv,5114,"<img src=""portrait/WW1.jpg""style=""height:400px;""></img>",1,html-button-response,27,153039,0.0-3.1-4.1,28850,ListA,woman,english,NA,TRUE,1,NA,NA,NA,NA,NA,NA,NA,NA,asian,woman,asian,1,1,1,1,Gender Match Race Match
./data_edited_for_spelling/28850_EnglishWomanA.csv,4966.5,"<img src=""portrait/BW2.jpg""style=""height:400px;""></img>",2,html-button-response,29,159518,0.0-3.1-7.1,28850,ListA,woman,english,NA,TRUE,2,NA,NA,NA,NA,NA,NA,NA,NA,asian,woman,black,1,1,0,0,Gender Match Race No-Match
./data_edited_for_spelling/28850_EnglishWomanA.csv,4016.800000190735,"<img src=""portrait/BW1.jpg""style=""height:400px;""></img>",0,html-button-response,31,165037,0.0-3.1-10.1,28850,ListA,woman,english,NA,TRUE,0,NA,NA,NA,NA,NA,NA,NA,NA,asian,woman,black,1,1,0,0,Gender Match Race No-Match
./data_edited_for_spelling/28850_EnglishWomanA.csv,3554.800000190735,"<img src=""portrait/WM1.jpg""style=""height:400px;""></img>",6,html-button-response,33,170102,0.0-3.1-13.1,28850,ListA,woman,english,NA,TRUE,6,NA,NA,NA,NA,NA,NA,NA,NA,asian,man,asian,1,0,1,0,Gender No-Match Race Match
./data_edited_for_spelling/28850_EnglishWomanA.csv,1484.6000001430511,"<img src=""portrait/BM1.jpg""style=""height:400px;""></img>",4,html-button-response,35,173093,0.0-3.1-16.1,28850,ListA,woman,english,NA,TRUE,4,NA,NA,NA,NA,NA,NA,NA,NA,asian,man,black,1,0,0,0,Gender No-Match Race No-Match
./data_edited_for_spelling/28850_EnglishWomanA.csv,2751.2000000476837,"<img src=""portrait/WW2.jpg""style=""height:400px;""></img>",3,html-button-response,37,177357,0.0-3.1-19.1,28850,ListA,woman,english,NA,TRUE,3,NA,NA,NA,NA,NA,NA,NA,NA,asian,woman,asian,1,1,1,1,Gender Match Race Match
./data_edited_for_spelling/28850_EnglishWomanA.csv,4333.799999952316,"<img src=""portrait/WM2.jpg""style=""height:400px;""></img>",7,html-button-response,39,183198,0.0-3.1-22.1,28850,ListA,woman,english,NA,TRUE,7,NA,NA,NA,NA,NA,NA,NA,NA,asian,man,asian,1,0,1,0,Gender No-Match Race Match
./data_edited_for_spelling/28850_EnglishWomanA.csv,12062.799999952316,"<img src=""portrait/WM2.jpg""style=""height:400px;""></img>",7,html-button-response,124,941620,0.0-14.0-1.0,28850,ListA,woman,english,NA,TRUE,7,NA,NA,NA,NA,NA,NA,NA,NA,asian,man,asian,1,0,1,0,Gender No-Match Race Match
./data_edited_for_spelling/28850_EnglishWomanA.csv,1838.5,"<img src=""portrait/BM1.jpg""style=""height:400px;""></img>",4,html-button-response,126,944964,0.0-14.0-4.0,28850,ListA,woman,english,NA,TRUE,4,NA,NA,NA,NA,NA,NA,NA,NA,asian,man,black,1,0,0,0,Gender No-Match Race No-Match
./data_edited_for_spelling/28850_EnglishWomanA.csv,3401.399999856949,"<img src=""portrait/BM2.jpg""style=""height:400px;""></img>",5,html-button-response,128,949877,0.0-14.0-7.0,28850,ListA,woman,english,NA,TRUE,5,NA,NA,NA,NA,NA,NA,NA,NA,asian,man,black,1,0,0,0,Gender No-Match Race No-Match
./data_edited_for_spelling/28850_EnglishWomanA.csv,3142.7999999523163,"<img src=""portrait/WM1.jpg""style=""height:400px;""></img>",6,html-button-response,130,954524,0.0-14.0-10.0,28850,ListA,woman,english,NA,TRUE,6,NA,NA,NA,NA,NA,NA,NA,NA,asian,man,asian,1,0,1,0,Gender No-Match Race Match
./data_edited_for_spelling/28850_EnglishWomanA.csv,4502,"<img src=""portrait/WW1.jpg""style=""height:400px;""></img>",1,html-button-response,132,960540,0.0-14.0-13.0,28850,ListA,woman,english,NA,TRUE,1,NA,NA,NA,NA,NA,NA,NA,NA,asian,woman,asian,1,1,1,1,Gender Match Race Match
./data_edited_for_spelling/28850_EnglishWomanA.csv,7697.799999952316,"<img src=""portrait/WW2.jpg""style=""height:400px;""></img>",3,html-button-response,134,969757,0.0-14.0-16.0,28850,ListA,woman,english,NA,TRUE,3,NA,NA,NA,NA,NA,NA,NA,NA,asian,woman,asian,1,1,1,1,Gender Match Race Match
./data_edited_for_spelling/28850_EnglishWomanA.csv,3829.7000000476837,"<img src=""portrait/BW1.jpg""style=""height:400px;""></img>",0,html-button-response,136,975093,0.0-14.0-19.0,28850,ListA,woman,english,NA,TRUE,0,NA,NA,NA,NA,NA,NA,NA,NA,asian,woman,black,1,1,0,0,Gender Match Race No-Match
./data_edited_for_spelling/28850_EnglishWomanA.csv,1942.2000000476837,"<img src=""portrait/BW2.jpg""style=""height:400px;""></img>",2,html-button-response,138,978540,0.0-14.0-22.0,28850,ListA,woman,english,NA,TRUE,2,NA,NA,NA,NA,NA,NA,NA,NA,asian,woman,black,1,1,0,0,Gender Match Race No-Match
./data_edited_for_spelling/28850_EnglishWomanA.csv,1580.7000000476837,"<img src=""portrait/WW2.jpg""style=""height:400px;""></img>",3,html-button-response,214,1368205,0.0-16.0-1.0,28850,ListA,woman,english,NA,TRUE,3,NA,NA,NA,NA,NA,NA,NA,NA,asian,woman,asian,1,1,1,1,Gender Match Race Match
./data_edited_for_spelling/28850_EnglishWomanA.csv,3275.7000000476837,"<img src=""portrait/BM2.jpg""style=""height:400px;""></img>",5,html-button-response,216,1372999,0.0-16.0-4.0,28850,ListA,woman,english,NA,TRUE,5,NA,NA,NA,NA,NA,NA,NA,NA,asian,man,black,1,0,0,0,Gender No-Match Race No-Match
./data_edited_for_spelling/28850_EnglishWomanA.csv,3381.899999856949,"<img src=""portrait/BM1.jpg""style=""height:400px;""></img>",4,html-button-response,218,1377900,0.0-16.0-7.0,28850,ListA,woman,english,NA,TRUE,4,NA,NA,NA,NA,NA,NA,NA,NA,asian,man,black,1,0,0,0,Gender No-Match Race No-Match
./data_edited_for_spelling/28850_EnglishWomanA.csv,6400.299999952316,"<img src=""portrait/BW1.jpg""style=""height:400px;""></img>",0,html-button-response,220,1385812,0.0-16.0-10.0,28850,ListA,woman,english,NA,TRUE,0,NA,NA,NA,NA,NA,NA,NA,NA,asian,woman,black,1,1,0,0,Gender Match Race No-Match
./data_edited_for_spelling/28850_EnglishWomanA.csv,2383.0999999046326,"<img src=""portrait/WM2.jpg""style=""height:400px;""></img>",7,html-button-response,222,1389700,0.0-16.0-13.0,28850,ListA,woman,english,NA,TRUE,7,NA,NA,NA,NA,NA,NA,NA,NA,asian,man,asian,1,0,1,0,Gender No-Match Race Match
./data_edited_for_spelling/28850_EnglishWomanA.csv,2361,"<img src=""portrait/WM1.jpg""style=""height:400px;""></img>",6,html-button-response,224,1393575,0.0-16.0-16.0,28850,ListA,woman,english,NA,TRUE,6,NA,NA,NA,NA,NA,NA,NA,NA,asian,man,asian,1,0,1,0,Gender No-Match Race Match
./data_edited_for_spelling/28850_EnglishWomanA.csv,2131.2999999523163,"<img src=""portrait/BW2.jpg""style=""height:400px;""></img>",3,html-button-response,226,1397220,0.0-16.0-19.0,28850,ListA,woman,english,NA,TRUE,2,NA,NA,NA,NA,NA,NA,NA,NA,asian,woman,black,1,1,0,0,Gender Match Race No-Match
./data_edited_for_spelling/28850_EnglishWomanA.csv,3655,"<img src=""portrait/BW2.jpg""style=""height:400px;""></img>",2,html-button-response,227,1401877,0.0-16.0-21.0-0.0,28850,ListA,woman,english,NA,FALSE,2,NA,NA,NA,NA,NA,NA,NA,NA,asian,woman,black,0,1,0,0,Gender Match Race No-Match
./data_edited_for_spelling/28850_EnglishWomanA.csv,2683,"<img src=""portrait/WW1.jpg""style=""height:400px;""></img>",1,html-button-response,229,1406092,0.0-16.0-22.0,28850,ListA,woman,english,NA,TRUE,1,NA,NA,NA,NA,NA,NA,NA,NA,asian,woman,asian,1,1,1,1,Gender Match Race Match
./data_edited_for_spelling/28850_EnglishWomanA.csv,3276.2999999523163,"<img src=""portrait/WW2.jpg""style=""height:400px;""></img>",3,html-button-response,234,1421764,0.0-16.1-1.1,28850,ListA,woman,english,NA,TRUE,3,NA,NA,NA,NA,NA,NA,NA,NA,asian,woman,asian,1,1,1,1,Gender Match Race Match
./data_edited_for_spelling/28850_EnglishWomanA.csv,3519.100000143051,"<img src=""portrait/BM2.jpg""style=""height:400px;""></img>",5,html-button-response,236,1426797,0.0-16.1-4.1,28850,ListA,woman,english,NA,TRUE,5,NA,NA,NA,NA,NA,NA,NA,NA,asian,man,black,1,0,0,0,Gender No-Match Race No-Match
./data_edited_for_spelling/28850_EnglishWomanA.csv,2762.2000000476837,"<img src=""portrait/BM1.jpg""style=""height:400px;""></img>",4,html-button-response,238,1431076,0.0-16.1-7.1,28850,ListA,woman,english,NA,TRUE,4,NA,NA,NA,NA,NA,NA,NA,NA,asian,man,black,1,0,0,0,Gender No-Match Race No-Match
./data_edited_for_spelling/28850_EnglishWomanA.csv,8061.100000143051,"<img src=""portrait/BW1.jpg""style=""height:400px;""></img>",0,html-button-response,240,1440653,0.0-16.1-10.1,28850,ListA,woman,english,NA,TRUE,0,NA,NA,NA,NA,NA,NA,NA,NA,asian,woman,black,1,1,0,0,Gender Match Race No-Match
./data_edited_for_spelling/28850_EnglishWomanA.csv,1907.0999999046326,"<img src=""portrait/WM2.jpg""style=""height:400px;""></img>",7,html-button-response,242,1444077,0.0-16.1-13.1,28850,ListA,woman,english,NA,TRUE,7,NA,NA,NA,NA,NA,NA,NA,NA,asian,man,asian,1,0,1,0,Gender No-Match Race Match
./data_edited_for_spelling/28850_EnglishWomanA.csv,2065.600000143051,"<img src=""portrait/WM1.jpg""style=""height:400px;""></img>",6,html-button-response,244,1447654,0.0-16.1-16.1,28850,ListA,woman,english,NA,TRUE,6,NA,NA,NA,NA,NA,NA,NA,NA,asian,man,asian,1,0,1,0,Gender No-Match Race Match
./data_edited_for_spelling/28850_EnglishWomanA.csv,3175.0999999046326,"<img src=""portrait/BW2.jpg""style=""height:400px;""></img>",2,html-button-response,246,1452332,0.0-16.1-19.1,28850,ListA,woman,english,NA,TRUE,2,NA,NA,NA,NA,NA,NA,NA,NA,asian,woman,black,1,1,0,0,Gender Match Race No-Match
./data_edited_for_spelling/28850_EnglishWomanA.csv,1448.7999999523163,"<img src=""portrait/WW1.jpg""style=""height:400px;""></img>",1,html-button-response,248,1455300,0.0-16.1-22.1,28850,ListA,woman,english,NA,TRUE,1,NA,NA,NA,NA,NA,NA,NA,NA,asian,woman,asian,1,1,1,1,Gender Match Race Match
./data_edited_for_spelling/29418_EnglishManB.csv,7414.5999999940395,"<img src=""portrait/WM2.jpg""style=""height:400px;""></img>",7,html-button-response,4,271487,0.0-3.0-1.0,29418,ListB,man,english,NA,TRUE,7,NA,NA,NA,NA,NA,NA,NA,SW_E_M_B5,asian,man,asian,1,1,1,1,Gender Match Race Match
./data_edited_for_spelling/29418_EnglishManB.csv,3245,"<img src=""portrait/BM2.jpg""style=""height:400px;""></img>",5,html-button-response,6,276245,0.0-3.0-4.0,29418,ListB,man,english,NA,TRUE,5,NA,NA,NA,NA,NA,NA,NA,SW_E_M_B5,asian,man,black,1,1,0,0,Gender Match Race No-Match
./data_edited_for_spelling/29418_EnglishManB.csv,7892.5,"<img src=""portrait/BW2.jpg""style=""height:400px;""></img>",2,html-button-response,8,285654,0.0-3.0-7.0,29418,ListB,man,english,NA,TRUE,2,NA,NA,NA,NA,NA,NA,NA,SW_E_M_B5,asian,woman,black,1,0,0,0,Gender No-Match Race No-Match
./data_edited_for_spelling/29418_EnglishManB.csv,2705.199999988079,"<img src=""portrait/WW2.jpg""style=""height:400px;""></img>",3,html-button-response,10,289877,0.0-3.0-10.0,29418,ListB,man,english,NA,TRUE,3,NA,NA,NA,NA,NA,NA,NA,SW_E_M_B5,asian,woman,asian,1,0,1,0,Gender No-Match Race Match
./data_edited_for_spelling/29418_EnglishManB.csv,4103.9000000059605,"<img src=""portrait/BW1.jpg""style=""height:400px;""></img>",0,html-button-response,12,295502,0.0-3.0-13.0,29418,ListB,man,english,NA,TRUE,0,NA,NA,NA,NA,NA,NA,NA,SW_E_M_B5,asian,woman,black,1,0,0,0,Gender No-Match Race No-Match
./data_edited_for_spelling/29418_EnglishManB.csv,3086.0999999940395,"<img src=""portrait/BM1.jpg""style=""height:400px;""></img>",4,html-button-response,14,300123,0.0-3.0-16.0,29418,ListB,man,english,NA,TRUE,4,NA,NA,NA,NA,NA,NA,NA,SW_E_M_B5,asian,man,black,1,1,0,0,Gender Match Race No-Match
./data_edited_for_spelling/29418_EnglishManB.csv,3196.699999988079,"<img src=""portrait/WW1.jpg""style=""height:400px;""></img>",1,html-button-response,16,304835,0.0-3.0-19.0,29418,ListB,man,english,NA,TRUE,1,NA,NA,NA,NA,NA,NA,NA,SW_E_M_B5,asian,woman,asian,1,0,1,0,Gender No-Match Race Match
./data_edited_for_spelling/29418_EnglishManB.csv,4478.299999982119,"<img src=""portrait/WM1.jpg""style=""height:400px;""></img>",6,html-button-response,18,310834,0.0-3.0-22.0,29418,ListB,man,english,NA,TRUE,6,NA,NA,NA,NA,NA,NA,NA,SW_E_M_B5,asian,man,asian,1,1,1,1,Gender Match Race Match
./data_edited_for_spelling/29418_EnglishManB.csv,4359.100000023842,"<img src=""portrait/WM1.jpg""style=""height:400px;""></img>",6,html-button-response,103,1449225,0.0-14.0-1.0,29418,ListB,man,english,NA,TRUE,6,NA,NA,NA,NA,NA,NA,NA,SW_E_M_B5,asian,man,asian,1,1,1,1,Gender Match Race Match
./data_edited_for_spelling/29418_EnglishManB.csv,2411.199999988079,"<img src=""portrait/BW2.jpg""style=""height:400px;""></img>",2,html-button-response,105,1453157,0.0-14.0-4.0,29418,ListB,man,english,NA,TRUE,2,NA,NA,NA,NA,NA,NA,NA,SW_E_M_B5,asian,woman,black,1,0,0,0,Gender No-Match Race No-Match
./data_edited_for_spelling/29418_EnglishManB.csv,3349,"<img src=""portrait/WW1.jpg""style=""height:400px;""></img>",1,html-button-response,107,1458018,0.0-14.0-7.0,29418,ListB,man,english,NA,TRUE,1,NA,NA,NA,NA,NA,NA,NA,SW_E_M_B5,asian,woman,asian,1,0,1,0,Gender No-Match Race Match
./data_edited_for_spelling/29418_EnglishManB.csv,3657.300000011921,"<img src=""portrait/BW1.jpg""style=""height:400px;""></img>",0,html-button-response,109,1463194,0.0-14.0-10.0,29418,ListB,man,english,NA,TRUE,0,NA,NA,NA,NA,NA,NA,NA,SW_E_M_B5,asian,woman,black,1,0,0,0,Gender No-Match Race No-Match
./data_edited_for_spelling/29418_EnglishManB.csv,1530.0999999940395,"<img src=""portrait/BM2.jpg""style=""height:400px;""></img>",5,html-button-response,111,1466249,0.0-14.0-13.0,29418,ListB,man,english,NA,TRUE,5,NA,NA,NA,NA,NA,NA,NA,SW_E_M_B5,asian,man,black,1,1,0,0,Gender Match Race No-Match
./data_edited_for_spelling/29418_EnglishManB.csv,2200.300000011921,"<img src=""portrait/WM2.jpg""style=""height:400px;""></img>",7,html-button-response,113,1469961,0.0-14.0-16.0,29418,ListB,man,english,NA,TRUE,7,NA,NA,NA,NA,NA,NA,NA,SW_E_M_B5,asian,man,asian,1,1,1,1,Gender Match Race Match
./data_edited_for_spelling/29418_EnglishManB.csv,2379.7999999821186,"<img src=""portrait/BM1.jpg""style=""height:400px;""></img>",4,html-button-response,115,1473848,0.0-14.0-19.0,29418,ListB,man,english,NA,TRUE,4,NA,NA,NA,NA,NA,NA,NA,SW_E_M_B5,asian,man,black,1,1,0,0,Gender Match Race No-Match
./data_edited_for_spelling/29418_EnglishManB.csv,1431.699999988079,"<img src=""portrait/WW2.jpg""style=""height:400px;""></img>",3,html-button-response,117,1476790,0.0-14.0-22.0,29418,ListB,man,english,NA,TRUE,3,NA,NA,NA,NA,NA,NA,NA,SW_E_M_B5,asian,woman,asian,1,0,1,0,Gender No-Match Race Match
./data_edited_for_spelling/29418_EnglishManB.csv,1637.2000000178814,"<img src=""portrait/WW2.jpg""style=""height:400px;""></img>",3,html-button-response,193,1912210,0.0-16.0-1.0,29418,ListB,man,english,NA,TRUE,3,NA,NA,NA,NA,NA,NA,NA,SW_E_M_B5,asian,woman,asian,1,0,1,0,Gender No-Match Race Match
./data_edited_for_spelling/29418_EnglishManB.csv,2711.5,"<img src=""portrait/BW1.jpg""style=""height:400px;""></img>",0,html-button-response,195,1916446,0.0-16.0-4.0,29418,ListB,man,english,NA,TRUE,0,NA,NA,NA,NA,NA,NA,NA,SW_E_M_B5,asian,woman,black,1,0,0,0,Gender No-Match Race No-Match
./data_edited_for_spelling/29418_EnglishManB.csv,1630.6000000238419,"<img src=""portrait/BM2.jpg""style=""height:400px;""></img>",5,html-button-response,197,1919591,0.0-16.0-7.0,29418,ListB,man,english,NA,TRUE,5,NA,NA,NA,NA,NA,NA,NA,SW_E_M_B5,asian,man,black,1,1,0,0,Gender Match Race No-Match
./data_edited_for_spelling/29418_EnglishManB.csv,2044.5,"<img src=""portrait/WW1.jpg""style=""height:400px;""></img>",1,html-button-response,199,1923144,0.0-16.0-10.0,29418,ListB,man,english,NA,TRUE,1,NA,NA,NA,NA,NA,NA,NA,SW_E_M_B5,asian,woman,asian,1,0,1,0,Gender No-Match Race Match
./data_edited_for_spelling/29418_EnglishManB.csv,4144.4000000059605,"<img src=""portrait/WM1.jpg""style=""height:400px;""></img>",6,html-button-response,201,1928806,0.0-16.0-13.0,29418,ListB,man,english,NA,TRUE,6,NA,NA,NA,NA,NA,NA,NA,SW_E_M_B5,asian,man,asian,1,1,1,1,Gender Match Race Match
./data_edited_for_spelling/29418_EnglishManB.csv,1010.9000000059605,"<img src=""portrait/WM2.jpg""style=""height:400px;""></img>",7,html-button-response,203,1931350,0.0-16.0-16.0,29418,ListB,man,english,NA,TRUE,7,NA,NA,NA,NA,NA,NA,NA,SW_E_M_B5,asian,man,asian,1,1,1,1,Gender Match Race Match
./data_edited_for_spelling/29418_EnglishManB.csv,1253.300000011921,"<img src=""portrait/BM1.jpg""style=""height:400px;""></img>",4,html-button-response,205,1934123,0.0-16.0-19.0,29418,ListB,man,english,NA,TRUE,4,NA,NA,NA,NA,NA,NA,NA,SW_E_M_B5,asian,man,black,1,1,0,0,Gender Match Race No-Match
./data_edited_for_spelling/29418_EnglishManB.csv,4764.9000000059605,"<img src=""portrait/BW2.jpg""style=""height:400px;""></img>",2,html-button-response,207,1940391,0.0-16.0-22.0,29418,ListB,man,english,NA,TRUE,2,NA,NA,NA,NA,NA,NA,NA,SW_E_M_B5,asian,woman,black,1,0,0,0,Gender No-Match Race No-Match
