subject,id,rt,stimulus,trial_type,trial_index,list,ppt_race,ppt_gender,gifevent_type,verb,test_part,left_part,right_part,response,event,condition,condition_specific,left_gender,right_gender,left_race,right_race,left_name_code,right_name_code,position0_name_code_counterbalanced,position100_name_code_counterbalanced,position0_gender,position0_race,position_0_dominant,response_reversed,score_hundred,score,rt.mean,rt.sd,rt.se,ppt_age,position100_gender,position100_race,ppt_demog,dyad_gender,dyad_race
3803,./study3_prolific_data/3803_WWb.csv,13933.829999994488,<img src='stim/dance4.gif' style='height:250px;''></img>,html-slider-response-extra-labels,18,listB,white,woman,dance4,dance4,rating_volition,WW2 wanted to dance with BW1,BW1 wanted to dance with WW2,49,dance,different_race,different_race_F,woman,woman,black,white,BW1,WW2,WW2,BW1,woman,white,dominant,51,49,-1,6362.542937498802,2810.839764375242,314.26143935012664,54,woman,black,White Women,NA,Female Dyads
3803,./study3_prolific_data/3803_WWb.csv,10136.5850000293,<img src='stim/dance4.gif' style='height:250px;''></img>,html-slider-response-extra-labels,19,listB,white,woman,dance4,dance4,rating_causation,WW2 asked BW1 to dance,BW1 asked WW2 to dance,64,dance,different_race,different_race_F,woman,woman,black,white,BW1,WW2,WW2,BW1,woman,white,dominant,36,64,14,6362.542937498802,2810.839764375242,314.26143935012664,54,woman,black,White Women,NA,Female Dyads
3803,./study3_prolific_data/3803_WWb.csv,7352.635000017472,<img src='stim/dance1.gif' style='height:250px;''></img>,html-slider-response-extra-labels,21,listB,white,woman,dance1,dance1,rating_causation,WW1 asked WM2 to dance,WM2 asked WW1 to dance,26,dance,different_gender,different_gender_W,man,woman,white,white,WM2,WW1,WW1,WM2,woman,white,nondominant,74,74,24,6362.542937498802,2810.839764375242,314.26143935012664,54,man,white,White Women,White Dyads,NA
3803,./study3_prolific_data/3803_WWb.csv,4392.384999955539,<img src='stim/dance1.gif' style='height:250px;''></img>,html-slider-response-extra-labels,22,listB,white,woman,dance1,dance1,rating_volition,WW1 wanted to dance with WM2,WM2 wanted to dance with WW1,27,dance,different_gender,different_gender_W,man,woman,white,white,WM2,WW1,WW1,WM2,woman,white,nondominant,73,73,23,6362.542937498802,2810.839764375242,314.26143935012664,54,man,white,White Women,White Dyads,NA
3803,./study3_prolific_data/3803_WWb.csv,8702.040000003763,<img src='stim/flirt4.gif' style='height:250px;''></img>,html-slider-response-extra-labels,24,listB,white,woman,flirt4,flirt4,rating_causation,WW2 started flirting with BW1 first,BW1 started flirting with WW2 first,29,flirt,different_race,different_race_F,woman,woman,black,white,BW1,WW2,WW2,BW1,woman,white,dominant,71,29,-21,6362.542937498802,2810.839764375242,314.26143935012664,54,woman,black,White Women,NA,Female Dyads
3803,./study3_prolific_data/3803_WWb.csv,6455.435000010766,<img src='stim/flirt4.gif' style='height:250px;''></img>,html-slider-response-extra-labels,25,listB,white,woman,flirt4,flirt4,rating_volition,WW2 wanted to flirt with BW1,BW1 wanted to flirt with WW2,28,flirt,different_race,different_race_F,woman,woman,black,white,BW1,WW2,WW2,BW1,woman,white,dominant,72,28,-22,6362.542937498802,2810.839764375242,314.26143935012664,54,woman,black,White Women,NA,Female Dyads
3803,./study3_prolific_data/3803_WWb.csv,14505.88999997126,<img src='stim/marry4.gif' style='height:250px;''></img>,html-slider-response-extra-labels,27,listB,white,woman,marry4,marry4,rating_causation,WW1 asked to marry BW2,BW2 asked to marry WW1,27,marry,different_race,different_race_F,woman,woman,black,white,BW2,WW1,WW1,BW2,woman,white,dominant,73,27,-23,6362.542937498802,2810.839764375242,314.26143935012664,54,woman,black,White Women,NA,Female Dyads
3803,./study3_prolific_data/3803_WWb.csv,4348.495000042021,<img src='stim/marry4.gif' style='height:250px;''></img>,html-slider-response-extra-labels,28,listB,white,woman,marry4,marry4,rating_volition,WW1 wanted to marry BW2,BW2 wanted to marry WW1,26,marry,different_race,different_race_F,woman,woman,black,white,BW2,WW1,WW1,BW2,woman,white,dominant,74,26,-24,6362.542937498802,2810.839764375242,314.26143935012664,54,woman,black,White Women,NA,Female Dyads
3803,./study3_prolific_data/3803_WWb.csv,6417.025000031572,<img src='stim/argue3.gif' style='height:250px;''></img>,html-slider-response-extra-labels,30,listB,white,woman,argue3,argue3,rating_causation,WM1 started an argument with BM2,BM2 started an argument with WM1,31,argue,different_race,different_race_M,man,man,black,white,BM2,WM1,WM1,BM2,man,white,dominant,69,31,-19,6362.542937498802,2810.839764375242,314.26143935012664,54,man,black,White Women,NA,Male Dyads
3803,./study3_prolific_data/3803_WWb.csv,4348.800000036135,<img src='stim/argue3.gif' style='height:250px;''></img>,html-slider-response-extra-labels,31,listB,white,woman,argue3,argue3,rating_volition,WM1 wanted to argue with BM2,BM2 wanted to argue with WM1,32,argue,different_race,different_race_M,man,man,black,white,BM2,WM1,WM1,BM2,man,white,dominant,68,32,-18,6362.542937498802,2810.839764375242,314.26143935012664,54,man,black,White Women,NA,Male Dyads
3803,./study3_prolific_data/3803_WWb.csv,6212.709999992512,<img src='stim/flirt1.gif' style='height:250px;''></img>,html-slider-response-extra-labels,33,listB,white,woman,flirt1,flirt1,rating_volition,WW1 wanted to flirt with WM2,WM2 wanted to flirt with WW1,67,flirt,different_gender,different_gender_W,man,woman,white,white,WM2,WW1,WW1,WM2,woman,white,nondominant,33,33,-17,6362.542937498802,2810.839764375242,314.26143935012664,54,man,white,White Women,White Dyads,NA
3803,./study3_prolific_data/3803_WWb.csv,7181.054999993648,<img src='stim/flirt1.gif' style='height:250px;''></img>,html-slider-response-extra-labels,34,listB,white,woman,flirt1,flirt1,rating_causation,WW1 started flirting with WM2 first,WM2 started flirting with WW1 first,66,flirt,different_gender,different_gender_W,man,woman,white,white,WM2,WW1,WW1,WM2,woman,white,nondominant,34,34,-16,6362.542937498802,2810.839764375242,314.26143935012664,54,man,white,White Women,White Dyads,NA
3803,./study3_prolific_data/3803_WWb.csv,14165.615000005346,<img src='stim/shout3.gif' style='height:250px;''></img>,html-slider-response-extra-labels,36,listB,white,woman,shout3,shout3,rating_volition,BM2 wanted to shout at WM2,WM2 wanted to shout at BM2,48,shout,different_race,different_race_M,man,man,white,black,WM2,BM2,BM2,WM2,man,black,nondominant,52,52,2,6362.542937498802,2810.839764375242,314.26143935012664,54,man,white,White Women,NA,Male Dyads
3803,./study3_prolific_data/3803_WWb.csv,5181.329999992158,<img src='stim/shout3.gif' style='height:250px;''></img>,html-slider-response-extra-labels,37,listB,white,woman,shout3,shout3,rating_causation,BM2 shouted at WM2 first,WM2 shouted at BM2 first,47,shout,different_race,different_race_M,man,man,white,black,WM2,BM2,BM2,WM2,man,black,nondominant,53,53,3,6362.542937498802,2810.839764375242,314.26143935012664,54,man,white,White Women,NA,Male Dyads
3803,./study3_prolific_data/3803_WWb.csv,12081.46499999566,<img src='stim/kiss1.gif' style='height:250px;''></img>,html-slider-response-extra-labels,42,listB,white,woman,kiss1,kiss1,rating_causation,WM2 asked to kiss WW2,WW2 asked to kiss WM2,61,kiss,different_gender,different_gender_W,woman,man,white,white,WW2,WM2,WM2,WW2,man,white,dominant,39,61,11,6362.542937498802,2810.839764375242,314.26143935012664,54,woman,white,White Women,White Dyads,NA
3803,./study3_prolific_data/3803_WWb.csv,12855.45999999158,<img src='stim/kiss1.gif' style='height:250px;''></img>,html-slider-response-extra-labels,43,listB,white,woman,kiss1,kiss1,rating_volition,WM2 wanted to kiss WW2,WW2 wanted to kiss WM2,27,kiss,different_gender,different_gender_W,woman,man,white,white,WW2,WM2,WM2,WW2,man,white,dominant,73,27,-23,6362.542937498802,2810.839764375242,314.26143935012664,54,woman,white,White Women,White Dyads,NA
3803,./study3_prolific_data/3803_WWb.csv,5820.62000001315,<img src='stim/kiss3.gif' style='height:250px;''></img>,html-slider-response-extra-labels,45,listB,white,woman,kiss3,kiss3,rating_volition,WM2 wanted to kiss BM2,BM2 wanted to kiss WM2,48,kiss,different_race,different_race_M,man,man,black,white,BM2,WM2,WM2,BM2,man,white,dominant,52,48,-2,6362.542937498802,2810.839764375242,314.26143935012664,54,man,black,White Women,NA,Male Dyads
3803,./study3_prolific_data/3803_WWb.csv,6604.530000011437,<img src='stim/kiss3.gif' style='height:250px;''></img>,html-slider-response-extra-labels,46,listB,white,woman,kiss3,kiss3,rating_causation,WM2 asked to kiss BM2,BM2 asked to kiss WM2,45,kiss,different_race,different_race_M,man,man,black,white,BM2,WM2,WM2,BM2,man,white,dominant,55,45,-5,6362.542937498802,2810.839764375242,314.26143935012664,54,man,black,White Women,NA,Male Dyads
3803,./study3_prolific_data/3803_WWb.csv,8037.55499998806,<img src='stim/talk4.gif' style='height:250px;''></img>,html-slider-response-extra-labels,48,listB,white,woman,talk4,talk4,rating_volition,BW1 wanted to talk to WW2,WW2 wanted to talk to BW1,66,talk,different_race,different_race_F,woman,woman,white,black,WW2,BW1,BW1,WW2,woman,black,nondominant,34,34,-16,6362.542937498802,2810.839764375242,314.26143935012664,54,woman,white,White Women,NA,Female Dyads
3803,./study3_prolific_data/3803_WWb.csv,6038.024999957997,<img src='stim/talk4.gif' style='height:250px;''></img>,html-slider-response-extra-labels,49,listB,white,woman,talk4,talk4,rating_causation,BW1 started a conversation with WW2,WW2 started a conversation with BW1,60,talk,different_race,different_race_F,woman,woman,white,black,WW2,BW1,BW1,WW2,woman,black,nondominant,40,40,-10,6362.542937498802,2810.839764375242,314.26143935012664,54,woman,white,White Women,NA,Female Dyads
3803,./study3_prolific_data/3803_WWb.csv,4970.8799999789335,<img src='stim/fight1.gif' style='height:250px;''></img>,html-slider-response-extra-labels,51,listB,white,woman,fight1,fight1,rating_volition,WM1 wanted to fight WW1,WW1 wanted to fight WM1,73,fight,different_gender,different_gender_W,woman,man,white,white,WW1,WM1,WM1,WW1,man,white,dominant,27,73,23,6362.542937498802,2810.839764375242,314.26143935012664,54,woman,white,White Women,White Dyads,NA
3803,./study3_prolific_data/3803_WWb.csv,6186.770000029355,<img src='stim/fight1.gif' style='height:250px;''></img>,html-slider-response-extra-labels,52,listB,white,woman,fight1,fight1,rating_causation,WM1 started the fight with WW1,WW1 started the fight with WM1,73,fight,different_gender,different_gender_W,woman,man,white,white,WW1,WM1,WM1,WW1,man,white,dominant,27,73,23,6362.542937498802,2810.839764375242,314.26143935012664,54,woman,white,White Women,White Dyads,NA
3803,./study3_prolific_data/3803_WWb.csv,10836.019999987911,<img src='stim/talk2.gif' style='height:250px;''></img>,html-slider-response-extra-labels,57,listB,white,woman,talk2,talk2,rating_causation,BW1 started a conversation with BM2,BM2 started a conversation with BW1,29,talk,different_gender,different_gender_B,man,woman,black,black,BM2,BW1,BW1,BM2,woman,black,nondominant,71,71,21,6362.542937498802,2810.839764375242,314.26143935012664,54,man,black,White Women,Black Dyads,NA
3803,./study3_prolific_data/3803_WWb.csv,7146.925000008196,<img src='stim/talk2.gif' style='height:250px;''></img>,html-slider-response-extra-labels,58,listB,white,woman,talk2,talk2,rating_volition,BW1 wanted to talk to BM2,BM2 wanted to talk to BW1,68,talk,different_gender,different_gender_B,man,woman,black,black,BM2,BW1,BW1,BM2,woman,black,nondominant,32,32,-18,6362.542937498802,2810.839764375242,314.26143935012664,54,man,black,White Women,Black Dyads,NA
3803,./study3_prolific_data/3803_WWb.csv,6176.420000032522,<img src='stim/talk3.gif' style='height:250px;''></img>,html-slider-response-extra-labels,60,listB,white,woman,talk3,talk3,rating_volition,WM2 wanted to talk to BM1,BM1 wanted to talk to WM2,33,talk,different_race,different_race_M,man,man,black,white,BM1,WM2,WM2,BM1,man,white,dominant,67,33,-17,6362.542937498802,2810.839764375242,314.26143935012664,54,man,black,White Women,NA,Male Dyads
3803,./study3_prolific_data/3803_WWb.csv,6355.604999989737,<img src='stim/talk3.gif' style='height:250px;''></img>,html-slider-response-extra-labels,61,listB,white,woman,talk3,talk3,rating_causation,WM2 started a conversation with BM1,BM1 started a conversation with WM2,35,talk,different_race,different_race_M,man,man,black,white,BM1,WM2,WM2,BM1,man,white,dominant,65,35,-15,6362.542937498802,2810.839764375242,314.26143935012664,54,man,black,White Women,NA,Male Dyads
3803,./study3_prolific_data/3803_WWb.csv,6260.089999996126,<img src='stim/flirt2.gif' style='height:250px;''></img>,html-slider-response-extra-labels,63,listB,white,woman,flirt2,flirt2,rating_volition,BM2 wanted to flirt with BW1,BW1 wanted to flirt with BM2,47,flirt,different_gender,different_gender_B,woman,man,black,black,BW1,BM2,BM2,BW1,man,black,dominant,53,47,-3,6362.542937498802,2810.839764375242,314.26143935012664,54,woman,black,White Women,Black Dyads,NA
3803,./study3_prolific_data/3803_WWb.csv,8073.724999965634,<img src='stim/flirt2.gif' style='height:250px;''></img>,html-slider-response-extra-labels,64,listB,white,woman,flirt2,flirt2,rating_causation,BM2 started flirting with BW1 first,BW1 started flirting with BM2 first,48,flirt,different_gender,different_gender_B,woman,man,black,black,BW1,BM2,BM2,BW1,man,black,dominant,52,48,-2,6362.542937498802,2810.839764375242,314.26143935012664,54,woman,black,White Women,Black Dyads,NA
3803,./study3_prolific_data/3803_WWb.csv,9417.064999986906,<img src='stim/play2.gif' style='height:250px;''></img>,html-slider-response-extra-labels,66,listB,white,woman,play2,play2,rating_causation,BW1 asked to play with BM1,BM1 asked to play with BW1,55,play,different_gender,different_gender_B,man,woman,black,black,BM1,BW1,BW1,BM1,woman,black,nondominant,45,45,-5,6362.542937498802,2810.839764375242,314.26143935012664,54,man,black,White Women,Black Dyads,NA
3803,./study3_prolific_data/3803_WWb.csv,3983.0000000074506,<img src='stim/play2.gif' style='height:250px;''></img>,html-slider-response-extra-labels,67,listB,white,woman,play2,play2,rating_volition,BW1 wanted to play with BM1,BM1 wanted to play with BW1,58,play,different_gender,different_gender_B,man,woman,black,black,BM1,BW1,BW1,BM1,woman,black,nondominant,42,42,-8,6362.542937498802,2810.839764375242,314.26143935012664,54,man,black,White Women,Black Dyads,NA
3803,./study3_prolific_data/3803_WWb.csv,7351.174999959767,<img src='stim/argue4.gif' style='height:250px;''></img>,html-slider-response-extra-labels,69,listB,white,woman,argue4,argue4,rating_causation,BW2 started an argument with WW1,WW1 started an argument with BW2,62,argue,different_race,different_race_F,woman,woman,white,black,WW1,BW2,BW2,WW1,woman,black,nondominant,38,38,-12,6362.542937498802,2810.839764375242,314.26143935012664,54,woman,white,White Women,NA,Female Dyads
3803,./study3_prolific_data/3803_WWb.csv,7329.1999999783,<img src='stim/argue4.gif' style='height:250px;''></img>,html-slider-response-extra-labels,70,listB,white,woman,argue4,argue4,rating_volition,BW2 wanted to argue with WW1,WW1 wanted to argue with BW2,58,argue,different_race,different_race_F,woman,woman,white,black,WW1,BW2,BW2,WW1,woman,black,nondominant,42,42,-8,6362.542937498802,2810.839764375242,314.26143935012664,54,woman,white,White Women,NA,Female Dyads
3803,./study3_prolific_data/3803_WWb.csv,7366.625000024214,<img src='stim/touch2.gif' style='height:250px;''></img>,html-slider-response-extra-labels,78,listB,white,woman,touch2,touch2,rating_causation,BM1 asked to touch BW1,BW1 asked to touch BM1,47,touch,different_gender,different_gender_B,woman,man,black,black,BW1,BM1,BM1,BW1,man,black,dominant,53,47,-3,6362.542937498802,2810.839764375242,314.26143935012664,54,woman,black,White Women,Black Dyads,NA
3803,./study3_prolific_data/3803_WWb.csv,7778.074999980163,<img src='stim/touch2.gif' style='height:250px;''></img>,html-slider-response-extra-labels,79,listB,white,woman,touch2,touch2,rating_volition,BM1 wanted to touch BW1,BW1 wanted to touch BM1,44,touch,different_gender,different_gender_B,woman,man,black,black,BW1,BM1,BM1,BW1,man,black,dominant,56,44,-6,6362.542937498802,2810.839764375242,314.26143935012664,54,woman,black,White Women,Black Dyads,NA
3803,./study3_prolific_data/3803_WWb.csv,6161.250000004657,<img src='stim/shout1.gif' style='height:250px;''></img>,html-slider-response-extra-labels,81,listB,white,woman,shout1,shout1,rating_volition,WW2 wanted to shout at WM2,WM2 wanted to shout at WW2,35,shout,different_gender,different_gender_W,man,woman,white,white,WM2,WW2,WW2,WM2,woman,white,nondominant,65,65,15,6362.542937498802,2810.839764375242,314.26143935012664,54,man,white,White Women,White Dyads,NA
3803,./study3_prolific_data/3803_WWb.csv,4031.2899999553338,<img src='stim/shout1.gif' style='height:250px;''></img>,html-slider-response-extra-labels,82,listB,white,woman,shout1,shout1,rating_causation,WW2 shouted at WM2 first,WM2 shouted at WW2 first,39,shout,different_gender,different_gender_W,man,woman,white,white,WM2,WW2,WW2,WM2,woman,white,nondominant,61,61,11,6362.542937498802,2810.839764375242,314.26143935012664,54,man,white,White Women,White Dyads,NA
3803,./study3_prolific_data/3803_WWb.csv,6027.004999981727,<img src='stim/fight3.gif' style='height:250px;''></img>,html-slider-response-extra-labels,84,listB,white,woman,fight3,fight3,rating_causation,WM1 started the fight with BM1,BM1 started the fight with WM1,46,fight,different_race,different_race_M,man,man,black,white,BM1,WM1,WM1,BM1,man,white,dominant,54,46,-4,6362.542937498802,2810.839764375242,314.26143935012664,54,man,black,White Women,NA,Male Dyads
3803,./study3_prolific_data/3803_WWb.csv,3973.009999957867,<img src='stim/fight3.gif' style='height:250px;''></img>,html-slider-response-extra-labels,85,listB,white,woman,fight3,fight3,rating_volition,WM1 wanted to fight BM1,BM1 wanted to fight WM1,47,fight,different_race,different_race_M,man,man,black,white,BM1,WM1,WM1,BM1,man,white,dominant,53,47,-3,6362.542937498802,2810.839764375242,314.26143935012664,54,man,black,White Women,NA,Male Dyads
3803,./study3_prolific_data/3803_WWb.csv,5475.910000037402,<img src='stim/argue2.gif' style='height:250px;''></img>,html-slider-response-extra-labels,87,listB,white,woman,argue2,argue2,rating_volition,BW2 wanted to argue with BM1,BM1 wanted to argue with BW2,61,argue,different_gender,different_gender_B,man,woman,black,black,BM1,BW2,BW2,BM1,woman,black,nondominant,39,39,-11,6362.542937498802,2810.839764375242,314.26143935012664,54,man,black,White Women,Black Dyads,NA
3803,./study3_prolific_data/3803_WWb.csv,3152.5699999765493,<img src='stim/argue2.gif' style='height:250px;''></img>,html-slider-response-extra-labels,88,listB,white,woman,argue2,argue2,rating_causation,BW2 started an argument with BM1,BM1 started an argument with BW2,60,argue,different_gender,different_gender_B,man,woman,black,black,BM1,BW2,BW2,BM1,woman,black,nondominant,40,40,-10,6362.542937498802,2810.839764375242,314.26143935012664,54,man,black,White Women,Black Dyads,NA
3803,./study3_prolific_data/3803_WWb.csv,6300.724999979138,<img src='stim/talk1.gif' style='height:250px;''></img>,html-slider-response-extra-labels,90,listB,white,woman,talk1,talk1,rating_volition,WM2 wanted to talk to WW1,WW1 wanted to talk to WM2,37,talk,different_gender,different_gender_W,woman,man,white,white,WW1,WM2,WM2,WW1,man,white,dominant,63,37,-13,6362.542937498802,2810.839764375242,314.26143935012664,54,woman,white,White Women,White Dyads,NA
3803,./study3_prolific_data/3803_WWb.csv,5366.6400000220165,<img src='stim/talk1.gif' style='height:250px;''></img>,html-slider-response-extra-labels,91,listB,white,woman,talk1,talk1,rating_causation,WM2 started a conversation with WW1,WW1 started a conversation with WM2,43,talk,different_gender,different_gender_W,woman,man,white,white,WW1,WM2,WM2,WW1,man,white,dominant,57,43,-7,6362.542937498802,2810.839764375242,314.26143935012664,54,woman,white,White Women,White Dyads,NA
3803,./study3_prolific_data/3803_WWb.csv,5819.120000000112,<img src='stim/touch1.gif' style='height:250px;''></img>,html-slider-response-extra-labels,93,listB,white,woman,touch1,touch1,rating_volition,WW1 wanted to touch WM1,WM1 wanted to touch WW1,47,touch,different_gender,different_gender_W,man,woman,white,white,WM1,WW1,WW1,WM1,woman,white,nondominant,53,53,3,6362.542937498802,2810.839764375242,314.26143935012664,54,man,white,White Women,White Dyads,NA
3803,./study3_prolific_data/3803_WWb.csv,4834.4550000038,<img src='stim/touch1.gif' style='height:250px;''></img>,html-slider-response-extra-labels,94,listB,white,woman,touch1,touch1,rating_causation,WW1 asked to touch WM1,WM1 asked to touch WW1,48,touch,different_gender,different_gender_W,man,woman,white,white,WM1,WW1,WW1,WM1,woman,white,nondominant,52,52,2,6362.542937498802,2810.839764375242,314.26143935012664,54,man,white,White Women,White Dyads,NA
3803,./study3_prolific_data/3803_WWb.csv,3067.334999970626,<img src='stim/dance2.gif' style='height:250px;''></img>,html-slider-response-extra-labels,96,listB,white,woman,dance2,dance2,rating_causation,BM2 asked BW1 to dance,BW1 asked BM2 to dance,46,dance,different_gender,different_gender_B,woman,man,black,black,BW1,BM2,BM2,BW1,man,black,dominant,54,46,-4,6362.542937498802,2810.839764375242,314.26143935012664,54,woman,black,White Women,Black Dyads,NA
3803,./study3_prolific_data/3803_WWb.csv,5081.309999979567,<img src='stim/dance2.gif' style='height:250px;''></img>,html-slider-response-extra-labels,97,listB,white,woman,dance2,dance2,rating_volition,BM2 wanted to dance with BW1,BW1 wanted to dance with BM2,41,dance,different_gender,different_gender_B,woman,man,black,black,BW1,BM2,BM2,BW1,man,black,dominant,59,41,-9,6362.542937498802,2810.839764375242,314.26143935012664,54,woman,black,White Women,Black Dyads,NA
3803,./study3_prolific_data/3803_WWb.csv,7126.709999982268,<img src='stim/marry3.gif' style='height:250px;''></img>,html-slider-response-extra-labels,99,listB,white,woman,marry3,marry3,rating_causation,BM2 asked to marry WM1,WM1 asked to marry BM2,44,marry,different_race,different_race_M,man,man,white,black,WM1,BM2,BM2,WM1,man,black,nondominant,56,56,6,6362.542937498802,2810.839764375242,314.26143935012664,54,man,white,White Women,NA,Male Dyads
3803,./study3_prolific_data/3803_WWb.csv,4907.77499997057,<img src='stim/marry3.gif' style='height:250px;''></img>,html-slider-response-extra-labels,100,listB,white,woman,marry3,marry3,rating_volition,BM2 wanted to marry WM1,WM1 wanted to marry BM2,46,marry,different_race,different_race_M,man,man,white,black,WM1,BM2,BM2,WM1,man,black,nondominant,54,54,4,6362.542937498802,2810.839764375242,314.26143935012664,54,man,white,White Women,NA,Male Dyads
3803,./study3_prolific_data/3803_WWb.csv,4501.564999984112,<img src='stim/touch4.gif' style='height:250px;''></img>,html-slider-response-extra-labels,105,listB,white,woman,touch4,touch4,rating_causation,WW1 asked to touch BW1,BW1 asked to touch WW1,48,touch,different_race,different_race_F,woman,woman,black,white,BW1,WW1,WW1,BW1,woman,white,dominant,52,48,-2,6362.542937498802,2810.839764375242,314.26143935012664,54,woman,black,White Women,NA,Female Dyads
3803,./study3_prolific_data/3803_WWb.csv,3264.054999977816,<img src='stim/touch4.gif' style='height:250px;''></img>,html-slider-response-extra-labels,106,listB,white,woman,touch4,touch4,rating_volition,WW1 wanted to touch BW1,BW1 wanted to touch WW1,46,touch,different_race,different_race_F,woman,woman,black,white,BW1,WW1,WW1,BW1,woman,white,dominant,54,46,-4,6362.542937498802,2810.839764375242,314.26143935012664,54,woman,black,White Women,NA,Female Dyads
3803,./study3_prolific_data/3803_WWb.csv,7277.439999976195,<img src='stim/marry2.gif' style='height:250px;''></img>,html-slider-response-extra-labels,108,listB,white,woman,marry2,marry2,rating_volition,BM1 wanted to marry BW2,BW2 wanted to marry BM1,51,marry,different_gender,different_gender_B,woman,man,black,black,BW2,BM1,BM1,BW2,man,black,dominant,49,51,1,6362.542937498802,2810.839764375242,314.26143935012664,54,woman,black,White Women,Black Dyads,NA
3803,./study3_prolific_data/3803_WWb.csv,3752.7699999627657,<img src='stim/marry2.gif' style='height:250px;''></img>,html-slider-response-extra-labels,109,listB,white,woman,marry2,marry2,rating_causation,BM1 asked to marry BW2,BW2 asked to marry BM1,55,marry,different_gender,different_gender_B,woman,man,black,black,BW2,BM1,BM1,BW2,man,black,dominant,45,55,5,6362.542937498802,2810.839764375242,314.26143935012664,54,woman,black,White Women,Black Dyads,NA
3803,./study3_prolific_data/3803_WWb.csv,6003.26500000665,<img src='stim/fight4.gif' style='height:250px;''></img>,html-slider-response-extra-labels,111,listB,white,woman,fight4,fight4,rating_volition,BW1 wanted to fight WW1,WW1 wanted to fight BW1,57,fight,different_race,different_race_F,woman,woman,white,black,WW1,BW1,BW1,WW1,woman,black,nondominant,43,43,-7,6362.542937498802,2810.839764375242,314.26143935012664,54,woman,white,White Women,NA,Female Dyads
3803,./study3_prolific_data/3803_WWb.csv,10343.004999973346,<img src='stim/fight4.gif' style='height:250px;''></img>,html-slider-response-extra-labels,112,listB,white,woman,fight4,fight4,rating_causation,BW1 started the fight with WW1,WW1 started the fight with BW1,55,fight,different_race,different_race_F,woman,woman,white,black,WW1,BW1,BW1,WW1,woman,black,nondominant,45,45,-5,6362.542937498802,2810.839764375242,314.26143935012664,54,woman,white,White Women,NA,Female Dyads
3803,./study3_prolific_data/3803_WWb.csv,5385.960000043269,<img src='stim/kiss2.gif' style='height:250px;''></img>,html-slider-response-extra-labels,117,listB,white,woman,kiss2,kiss2,rating_causation,BW2 asked to kiss BM2,BM2 asked to kiss BW2,57,kiss,different_gender,different_gender_B,man,woman,black,black,BM2,BW2,BW2,BM2,woman,black,nondominant,43,43,-7,6362.542937498802,2810.839764375242,314.26143935012664,54,man,black,White Women,Black Dyads,NA
3803,./study3_prolific_data/3803_WWb.csv,4926.115000038408,<img src='stim/kiss2.gif' style='height:250px;''></img>,html-slider-response-extra-labels,118,listB,white,woman,kiss2,kiss2,rating_volition,BW2 wanted to kiss BM2,BM2 wanted to kiss BW2,54,kiss,different_gender,different_gender_B,man,woman,black,black,BM2,BW2,BW2,BM2,woman,black,nondominant,46,46,-4,6362.542937498802,2810.839764375242,314.26143935012664,54,man,black,White Women,Black Dyads,NA
3803,./study3_prolific_data/3803_WWb.csv,7869.545000023209,<img src='stim/shout2.gif' style='height:250px;''></img>,html-slider-response-extra-labels,120,listB,white,woman,shout2,shout2,rating_volition,BM2 wanted to shout at BW2,BW2 wanted to shout at BM2,44,shout,different_gender,different_gender_B,woman,man,black,black,BW2,BM2,BM2,BW2,man,black,dominant,56,44,-6,6362.542937498802,2810.839764375242,314.26143935012664,54,woman,black,White Women,Black Dyads,NA
3803,./study3_prolific_data/3803_WWb.csv,3637.015000043903,<img src='stim/shout2.gif' style='height:250px;''></img>,html-slider-response-extra-labels,121,listB,white,woman,shout2,shout2,rating_causation,BM2 shouted at BW2 first,BW2 shouted at BM2 first,56,shout,different_gender,different_gender_B,woman,man,black,black,BW2,BM2,BM2,BW2,man,black,dominant,44,56,6,6362.542937498802,2810.839764375242,314.26143935012664,54,woman,black,White Women,Black Dyads,NA
3803,./study3_prolific_data/3803_WWb.csv,3526.8900000373837,<img src='stim/play3.gif' style='height:250px;''></img>,html-slider-response-extra-labels,123,listB,white,woman,play3,play3,rating_volition,WM1 wanted to play with BM1,BM1 wanted to play with WM1,47,play,different_race,different_race_M,man,man,black,white,BM1,WM1,WM1,BM1,man,white,dominant,53,47,-3,6362.542937498802,2810.839764375242,314.26143935012664,54,man,black,White Women,NA,Male Dyads
3803,./study3_prolific_data/3803_WWb.csv,4376.455000019632,<img src='stim/play3.gif' style='height:250px;''></img>,html-slider-response-extra-labels,124,listB,white,woman,play3,play3,rating_causation,WM1 asked to play with BM1,BM1 asked to play with WM1,46,play,different_race,different_race_M,man,man,black,white,BM1,WM1,WM1,BM1,man,white,dominant,54,46,-4,6362.542937498802,2810.839764375242,314.26143935012664,54,man,black,White Women,NA,Male Dyads
3803,./study3_prolific_data/3803_WWb.csv,7019.564999965951,<img src='stim/marry1.gif' style='height:250px;''></img>,html-slider-response-extra-labels,129,listB,white,woman,marry1,marry1,rating_causation,WW2 asked to marry WM1,WM1 asked to marry WW2,42,marry,different_gender,different_gender_W,man,woman,white,white,WM1,WW2,WW2,WM1,woman,white,nondominant,58,58,8,6362.542937498802,2810.839764375242,314.26143935012664,54,man,white,White Women,White Dyads,NA
3803,./study3_prolific_data/3803_WWb.csv,4373.595000011846,<img src='stim/marry1.gif' style='height:250px;''></img>,html-slider-response-extra-labels,130,listB,white,woman,marry1,marry1,rating_volition,WW2 wanted to marry WM1,WM1 wanted to marry WW2,42,marry,different_gender,different_gender_W,man,woman,white,white,WM1,WW2,WW2,WM1,woman,white,nondominant,58,58,8,6362.542937498802,2810.839764375242,314.26143935012664,54,man,white,White Women,White Dyads,NA
3803,./study3_prolific_data/3803_WWb.csv,4260.255000030156,<img src='stim/play4.gif' style='height:250px;''></img>,html-slider-response-extra-labels,132,listB,white,woman,play4,play4,rating_volition,BW1 wanted to play with WW1,WW1 wanted to play with BW1,47,play,different_race,different_race_F,woman,woman,white,black,WW1,BW1,BW1,WW1,woman,black,nondominant,53,53,3,6362.542937498802,2810.839764375242,314.26143935012664,54,woman,white,White Women,NA,Female Dyads
3803,./study3_prolific_data/3803_WWb.csv,2606.9550000247546,<img src='stim/play4.gif' style='height:250px;''></img>,html-slider-response-extra-labels,133,listB,white,woman,play4,play4,rating_causation,BW1 asked to play with WW1,WW1 asked to play with BW1,47,play,different_race,different_race_F,woman,woman,white,black,WW1,BW1,BW1,WW1,woman,black,nondominant,53,53,3,6362.542937498802,2810.839764375242,314.26143935012664,54,woman,white,White Women,NA,Female Dyads
3803,./study3_prolific_data/3803_WWb.csv,5781.510000000708,<img src='stim/flirt3.gif' style='height:250px;''></img>,html-slider-response-extra-labels,135,listB,white,woman,flirt3,flirt3,rating_volition,BM1 wanted to flirt with WM2,WM2 wanted to flirt with BM1,54,flirt,different_race,different_race_M,man,man,white,black,WM2,BM1,BM1,WM2,man,black,nondominant,46,46,-4,6362.542937498802,2810.839764375242,314.26143935012664,54,man,white,White Women,NA,Male Dyads
3803,./study3_prolific_data/3803_WWb.csv,4631.029999989551,<img src='stim/flirt3.gif' style='height:250px;''></img>,html-slider-response-extra-labels,136,listB,white,woman,flirt3,flirt3,rating_causation,BM1 started flirting with WM2 first,WM2 started flirting with BM1 first,54,flirt,different_race,different_race_M,man,man,white,black,WM2,BM1,BM1,WM2,man,black,nondominant,46,46,-4,6362.542937498802,2810.839764375242,314.26143935012664,54,man,white,White Women,NA,Male Dyads
3803,./study3_prolific_data/3803_WWb.csv,5111.205000022892,<img src='stim/argue1.gif' style='height:250px;''></img>,html-slider-response-extra-labels,138,listB,white,woman,argue1,argue1,rating_causation,WM1 started an argument with WW2,WW2 started an argument with WM1,56,argue,different_gender,different_gender_W,woman,man,white,white,WW2,WM1,WM1,WW2,man,white,dominant,44,56,6,6362.542937498802,2810.839764375242,314.26143935012664,54,woman,white,White Women,White Dyads,NA
3803,./study3_prolific_data/3803_WWb.csv,4109.074999985751,<img src='stim/argue1.gif' style='height:250px;''></img>,html-slider-response-extra-labels,139,listB,white,woman,argue1,argue1,rating_volition,WM1 wanted to argue with WW2,WW2 wanted to argue with WM1,55,argue,different_gender,different_gender_W,woman,man,white,white,WW2,WM1,WM1,WW2,man,white,dominant,45,55,5,6362.542937498802,2810.839764375242,314.26143935012664,54,woman,white,White Women,White Dyads,NA
3803,./study3_prolific_data/3803_WWb.csv,5207.890000019688,<img src='stim/shout4.gif' style='height:250px;''></img>,html-slider-response-extra-labels,141,listB,white,woman,shout4,shout4,rating_causation,WW2 shouted at BW2 first,BW2 shouted at WW2 first,56,shout,different_race,different_race_F,woman,woman,black,white,BW2,WW2,WW2,BW2,woman,white,dominant,44,56,6,6362.542937498802,2810.839764375242,314.26143935012664,54,woman,black,White Women,NA,Female Dyads
3803,./study3_prolific_data/3803_WWb.csv,4627.470000006724,<img src='stim/shout4.gif' style='height:250px;''></img>,html-slider-response-extra-labels,142,listB,white,woman,shout4,shout4,rating_volition,WW2 wanted to shout at BW2,BW2 wanted to shout at WW2,53,shout,different_race,different_race_F,woman,woman,black,white,BW2,WW2,WW2,BW2,woman,white,dominant,47,53,3,6362.542937498802,2810.839764375242,314.26143935012664,54,woman,black,White Women,NA,Female Dyads
3803,./study3_prolific_data/3803_WWb.csv,5441.730000020471,<img src='stim/dance3.gif' style='height:250px;''></img>,html-slider-response-extra-labels,144,listB,white,woman,dance3,dance3,rating_volition,BM1 wanted to dance with WM2,WM2 wanted to dance with BM1,54,dance,different_race,different_race_M,man,man,white,black,WM2,BM1,BM1,WM2,man,black,nondominant,46,46,-4,6362.542937498802,2810.839764375242,314.26143935012664,54,man,white,White Women,NA,Male Dyads
3803,./study3_prolific_data/3803_WWb.csv,4812.570000009146,<img src='stim/dance3.gif' style='height:250px;''></img>,html-slider-response-extra-labels,145,listB,white,woman,dance3,dance3,rating_causation,BM1 asked WM2 to dance,WM2 asked BM1 to dance,53,dance,different_race,different_race_M,man,man,white,black,WM2,BM1,BM1,WM2,man,black,nondominant,47,47,-3,6362.542937498802,2810.839764375242,314.26143935012664,54,man,white,White Women,NA,Male Dyads
3803,./study3_prolific_data/3803_WWb.csv,9258.47000000067,<img src='stim/fight2.gif' style='height:250px;''></img>,html-slider-response-extra-labels,147,listB,white,woman,fight2,fight2,rating_volition,BW1 wanted to fight BM1,BM1 wanted to fight BW1,44,fight,different_gender,different_gender_B,man,woman,black,black,BM1,BW1,BW1,BM1,woman,black,nondominant,56,56,6,6362.542937498802,2810.839764375242,314.26143935012664,54,man,black,White Women,Black Dyads,NA
3803,./study3_prolific_data/3803_WWb.csv,4179.714999976568,<img src='stim/fight2.gif' style='height:250px;''></img>,html-slider-response-extra-labels,148,listB,white,woman,fight2,fight2,rating_causation,BW1 started the fight with BM1,BM1 started the fight with BW1,46,fight,different_gender,different_gender_B,man,woman,black,black,BM1,BW1,BW1,BM1,woman,black,nondominant,54,54,4,6362.542937498802,2810.839764375242,314.26143935012664,54,man,black,White Women,Black Dyads,NA
3803,./study3_prolific_data/3803_WWb.csv,3294.3150000064634,<img src='stim/play1.gif' style='height:250px;''></img>,html-slider-response-extra-labels,150,listB,white,woman,play1,play1,rating_volition,WM1 wanted to play with WW1,WW1 wanted to play with WM1,44,play,different_gender,different_gender_W,woman,man,white,white,WW1,WM1,WM1,WW1,man,white,dominant,56,44,-6,6362.542937498802,2810.839764375242,314.26143935012664,54,woman,white,White Women,White Dyads,NA
3803,./study3_prolific_data/3803_WWb.csv,3158.8100000517443,<img src='stim/play1.gif' style='height:250px;''></img>,html-slider-response-extra-labels,151,listB,white,woman,play1,play1,rating_causation,WM1 asked to play with WW1,WW1 asked to play with WM1,46,play,different_gender,different_gender_W,woman,man,white,white,WW1,WM1,WM1,WW1,man,white,dominant,54,46,-4,6362.542937498802,2810.839764375242,314.26143935012664,54,woman,white,White Women,White Dyads,NA
3803,./study3_prolific_data/3803_WWb.csv,2881.5099999774247,<img src='stim/touch3.gif' style='height:250px;''></img>,html-slider-response-extra-labels,153,listB,white,woman,touch3,touch3,rating_causation,BM1 asked to touch WM1,WM1 asked to touchh BM1,56,touch,different_race,different_race_M,man,man,white,black,WM1,BM1,BM1,WM1,man,black,nondominant,44,44,-6,6362.542937498802,2810.839764375242,314.26143935012664,54,man,white,White Women,NA,Male Dyads
3803,./study3_prolific_data/3803_WWb.csv,7356.579999963287,<img src='stim/touch3.gif' style='height:250px;''></img>,html-slider-response-extra-labels,154,listB,white,woman,touch3,touch3,rating_volition,BM1 wanted to touch WM1,WM1 wanted to touch BM1,54,touch,different_race,different_race_M,man,man,white,black,WM1,BM1,BM1,WM1,man,black,nondominant,46,46,-4,6362.542937498802,2810.839764375242,314.26143935012664,54,man,white,White Women,NA,Male Dyads
3803,./study3_prolific_data/3803_WWb.csv,4852.87000000244,<img src='stim/kiss4.gif' style='height:250px;''></img>,html-slider-response-extra-labels,157,listB,white,woman,kiss4,kiss4,rating_causation,BW2 asked to kiss WW2,WW2 asked to kiss BW2,70,kiss,different_race,different_race_F,woman,woman,white,black,WW2,BW2,BW2,WW2,woman,black,nondominant,30,30,-20,6362.542937498802,2810.839764375242,314.26143935012664,54,woman,white,White Women,NA,Female Dyads
4809,./study3_prolific_data/4809_BWa.csv,10646.25999997952,<img src='stim/fight4.gif' style='height:250px;''></img>,html-slider-response-extra-labels,15,listA,black,woman,fight4,fight4,rating_causation,WW1 started the fight with BW1,BW1 started the fight with WW1,10,fight,different_race,different_race_F,woman,woman,white,black,WW1,BW1,WW1,BW1,woman,white,dominant,90,10,-40,5963.2810624982085,2524.884191781083,282.2906344068558,21,woman,black,Black Women,NA,Female Dyads
4809,./study3_prolific_data/4809_BWa.csv,8642.289999988861,<img src='stim/fight4.gif' style='height:250px;''></img>,html-slider-response-extra-labels,16,listA,black,woman,fight4,fight4,rating_volition,WW1 wanted to fight BW1,BW1 wanted to fight WW1,16,fight,different_race,different_race_F,woman,woman,white,black,WW1,BW1,WW1,BW1,woman,white,dominant,84,16,-34,5963.2810624982085,2524.884191781083,282.2906344068558,21,woman,black,Black Women,NA,Female Dyads
4809,./study3_prolific_data/4809_BWa.csv,10205.210000014633,<img src='stim/shout3.gif' style='height:250px;''></img>,html-slider-response-extra-labels,18,listA,black,woman,shout3,shout3,rating_volition,WM2 wanted to shout at BM2,BM2 wanted to shout at WM2,17,shout,different_race,different_race_M,man,man,white,black,WM2,BM2,WM2,BM2,man,white,dominant,83,17,-33,5963.2810624982085,2524.884191781083,282.2906344068558,21,man,black,Black Women,NA,Male Dyads
4809,./study3_prolific_data/4809_BWa.csv,10902.529999992112,<img src='stim/shout3.gif' style='height:250px;''></img>,html-slider-response-extra-labels,19,listA,black,woman,shout3,shout3,rating_causation,WM2 shouted at BM2 first,BM2 shouted at WM2 first,18,shout,different_race,different_race_M,man,man,white,black,WM2,BM2,WM2,BM2,man,white,dominant,82,18,-32,5963.2810624982085,2524.884191781083,282.2906344068558,21,man,black,Black Women,NA,Male Dyads
4809,./study3_prolific_data/4809_BWa.csv,9292.454999987967,<img src='stim/flirt3.gif' style='height:250px;''></img>,html-slider-response-extra-labels,21,listA,black,woman,flirt3,flirt3,rating_volition,WM2 wanted to flirt with BM1,BM1 wanted to flirt with WM2,16,flirt,different_race,different_race_M,man,man,white,black,WM2,BM1,WM2,BM1,man,white,dominant,84,16,-34,5963.2810624982085,2524.884191781083,282.2906344068558,21,man,black,Black Women,NA,Male Dyads
4809,./study3_prolific_data/4809_BWa.csv,4256.995000003371,<img src='stim/flirt3.gif' style='height:250px;''></img>,html-slider-response-extra-labels,22,listA,black,woman,flirt3,flirt3,rating_causation,WM2 started flirting with BM1 first,BM1 started flirting with WM2 first,22,flirt,different_race,different_race_M,man,man,white,black,WM2,BM1,WM2,BM1,man,white,dominant,78,22,-28,5963.2810624982085,2524.884191781083,282.2906344068558,21,man,black,Black Women,NA,Male Dyads
4809,./study3_prolific_data/4809_BWa.csv,9329.649999999674,<img src='stim/argue1.gif' style='height:250px;''></img>,html-slider-response-extra-labels,24,listA,black,woman,argue1,argue1,rating_volition,WW2 wanted to argue with WM1,WM1 wanted to argue with WW2,84,argue,different_gender,different_gender_W,woman,man,white,white,WW2,WM1,WW2,WM1,woman,white,nondominant,16,16,-34,5963.2810624982085,2524.884191781083,282.2906344068558,21,man,white,Black Women,White Dyads,NA
4809,./study3_prolific_data/4809_BWa.csv,5209.169999987353,<img src='stim/argue1.gif' style='height:250px;''></img>,html-slider-response-extra-labels,25,listA,black,woman,argue1,argue1,rating_causation,WW2 started an argument with WM1,WM1 started an argument with WW2,82,argue,different_gender,different_gender_W,woman,man,white,white,WW2,WM1,WW2,WM1,woman,white,nondominant,18,18,-32,5963.2810624982085,2524.884191781083,282.2906344068558,21,man,white,Black Women,White Dyads,NA
4809,./study3_prolific_data/4809_BWa.csv,6766.91999999457,<img src='stim/shout2.gif' style='height:250px;''></img>,html-slider-response-extra-labels,27,listA,black,woman,shout2,shout2,rating_causation,BW2 shouted at BM2 first,BM2 shouted at BW2 first,79,shout,different_gender,different_gender_B,woman,man,black,black,BW2,BM2,BW2,BM2,woman,black,nondominant,21,21,-29,5963.2810624982085,2524.884191781083,282.2906344068558,21,man,black,Black Women,Black Dyads,NA
4809,./study3_prolific_data/4809_BWa.csv,4162.745000008727,<img src='stim/shout2.gif' style='height:250px;''></img>,html-slider-response-extra-labels,28,listA,black,woman,shout2,shout2,rating_volition,BW2 wanted to shout at BM2,BM2 wanted to shout at BW2,85,shout,different_gender,different_gender_B,woman,man,black,black,BW2,BM2,BW2,BM2,woman,black,nondominant,15,15,-35,5963.2810624982085,2524.884191781083,282.2906344068558,21,man,black,Black Women,Black Dyads,NA
4809,./study3_prolific_data/4809_BWa.csv,9427.625000011176,<img src='stim/marry2.gif' style='height:250px;''></img>,html-slider-response-extra-labels,30,listA,black,woman,marry2,marry2,rating_causation,BW2 asked to marry BM1,BM1 asked to marry BW2,86,marry,different_gender,different_gender_B,woman,man,black,black,BW2,BM1,BW2,BM1,woman,black,nondominant,14,14,-36,5963.2810624982085,2524.884191781083,282.2906344068558,21,man,black,Black Women,Black Dyads,NA
4809,./study3_prolific_data/4809_BWa.csv,5353.490000008605,<img src='stim/marry2.gif' style='height:250px;''></img>,html-slider-response-extra-labels,31,listA,black,woman,marry2,marry2,rating_volition,BW2 wanted to marry BM1,BM1 wanted to marry BW2,89,marry,different_gender,different_gender_B,woman,man,black,black,BW2,BM1,BW2,BM1,woman,black,nondominant,11,11,-39,5963.2810624982085,2524.884191781083,282.2906344068558,21,man,black,Black Women,Black Dyads,NA
4809,./study3_prolific_data/4809_BWa.csv,7126.56999999308,<img src='stim/fight1.gif' style='height:250px;''></img>,html-slider-response-extra-labels,33,listA,black,woman,fight1,fight1,rating_causation,WW1 started the fight with WM1,WM1 started the fight with WW1,15,fight,different_gender,different_gender_W,woman,man,white,white,WW1,WM1,WW1,WM1,woman,white,nondominant,85,85,35,5963.2810624982085,2524.884191781083,282.2906344068558,21,man,white,Black Women,White Dyads,NA
4809,./study3_prolific_data/4809_BWa.csv,5121.370000008028,<img src='stim/fight1.gif' style='height:250px;''></img>,html-slider-response-extra-labels,34,listA,black,woman,fight1,fight1,rating_volition,WW1 wanted to fight WM1,WM1 wanted to fight WW1,18,fight,different_gender,different_gender_W,woman,man,white,white,WW1,WM1,WW1,WM1,woman,white,nondominant,82,82,32,5963.2810624982085,2524.884191781083,282.2906344068558,21,man,white,Black Women,White Dyads,NA
4809,./study3_prolific_data/4809_BWa.csv,10139.114999998128,<img src='stim/flirt4.gif' style='height:250px;''></img>,html-slider-response-extra-labels,36,listA,black,woman,flirt4,flirt4,rating_volition,BW1 wanted to flirt with WW2,WW2 wanted to flirt with BW1,88,flirt,different_race,different_race_F,woman,woman,black,white,BW1,WW2,BW1,WW2,woman,black,nondominant,12,12,-38,5963.2810624982085,2524.884191781083,282.2906344068558,21,woman,white,Black Women,NA,Female Dyads
4809,./study3_prolific_data/4809_BWa.csv,4457.689999981085,<img src='stim/flirt4.gif' style='height:250px;''></img>,html-slider-response-extra-labels,37,listA,black,woman,flirt4,flirt4,rating_causation,BW1 started flirting with WW2 first,WW2 started flirting with BW1 first,83,flirt,different_race,different_race_F,woman,woman,black,white,BW1,WW2,BW1,WW2,woman,black,nondominant,17,17,-33,5963.2810624982085,2524.884191781083,282.2906344068558,21,woman,white,Black Women,NA,Female Dyads
4809,./study3_prolific_data/4809_BWa.csv,4118.84499998996,<img src='stim/marry1.gif' style='height:250px;''></img>,html-slider-response-extra-labels,39,listA,black,woman,marry1,marry1,rating_causation,WM1 asked to marry WW2,WW2 asked to marry WM1,10,marry,different_gender,different_gender_W,man,woman,white,white,WM1,WW2,WM1,WW2,man,white,dominant,90,10,-40,5963.2810624982085,2524.884191781083,282.2906344068558,21,woman,white,Black Women,White Dyads,NA
4809,./study3_prolific_data/4809_BWa.csv,3441.61000000895,<img src='stim/marry1.gif' style='height:250px;''></img>,html-slider-response-extra-labels,40,listA,black,woman,marry1,marry1,rating_volition,WM1 wanted to marry WW2,WW2 wanted to marry WM1,13,marry,different_gender,different_gender_W,man,woman,white,white,WM1,WW2,WM1,WW2,man,white,dominant,87,13,-37,5963.2810624982085,2524.884191781083,282.2906344068558,21,woman,white,Black Women,White Dyads,NA
4809,./study3_prolific_data/4809_BWa.csv,5496.280000021216,<img src='stim/argue4.gif' style='height:250px;''></img>,html-slider-response-extra-labels,42,listA,black,woman,argue4,argue4,rating_causation,WW1 started an argument with BW2,BW2 started an argument with WW1,18,argue,different_race,different_race_F,woman,woman,white,black,WW1,BW2,WW1,BW2,woman,white,dominant,82,18,-32,5963.2810624982085,2524.884191781083,282.2906344068558,21,woman,black,Black Women,NA,Female Dyads
4809,./study3_prolific_data/4809_BWa.csv,4816.879999998491,<img src='stim/argue4.gif' style='height:250px;''></img>,html-slider-response-extra-labels,43,listA,black,woman,argue4,argue4,rating_volition,WW1 wanted to argue with BW2,BW2 wanted to argue with WW1,14,argue,different_race,different_race_F,woman,woman,white,black,WW1,BW2,WW1,BW2,woman,white,dominant,86,14,-36,5963.2810624982085,2524.884191781083,282.2906344068558,21,woman,black,Black Women,NA,Female Dyads
4809,./study3_prolific_data/4809_BWa.csv,6949.285000009695,<img src='stim/play1.gif' style='height:250px;''></img>,html-slider-response-extra-labels,45,listA,black,woman,play1,play1,rating_causation,WW1 asked to play with WM1,WM1 asked to play with WW1,77,play,different_gender,different_gender_W,woman,man,white,white,WW1,WM1,WW1,WM1,woman,white,nondominant,23,23,-27,5963.2810624982085,2524.884191781083,282.2906344068558,21,man,white,Black Women,White Dyads,NA
4809,./study3_prolific_data/4809_BWa.csv,9679.514999996172,<img src='stim/play1.gif' style='height:250px;''></img>,html-slider-response-extra-labels,46,listA,black,woman,play1,play1,rating_volition,WW1 wanted to play with WM1,WM1 wanted to play with WW1,19,play,different_gender,different_gender_W,woman,man,white,white,WW1,WM1,WW1,WM1,woman,white,nondominant,81,81,31,5963.2810624982085,2524.884191781083,282.2906344068558,21,man,white,Black Women,White Dyads,NA
4809,./study3_prolific_data/4809_BWa.csv,8630.249999987427,<img src='stim/kiss2.gif' style='height:250px;''></img>,html-slider-response-extra-labels,48,listA,black,woman,kiss2,kiss2,rating_causation,BM2 asked to kiss BW2,BW2 asked to kiss BM2,16,kiss,different_gender,different_gender_B,man,woman,black,black,BM2,BW2,BM2,BW2,man,black,dominant,84,16,-34,5963.2810624982085,2524.884191781083,282.2906344068558,21,woman,black,Black Women,Black Dyads,NA
4809,./study3_prolific_data/4809_BWa.csv,4737.094999989495,<img src='stim/kiss2.gif' style='height:250px;''></img>,html-slider-response-extra-labels,49,listA,black,woman,kiss2,kiss2,rating_volition,BM2 wanted to kiss BW2,BW2 wanted to kiss BM2,14,kiss,different_gender,different_gender_B,man,woman,black,black,BM2,BW2,BM2,BW2,man,black,dominant,86,14,-36,5963.2810624982085,2524.884191781083,282.2906344068558,21,woman,black,Black Women,Black Dyads,NA
4809,./study3_prolific_data/4809_BWa.csv,4942.340000008699,<img src='stim/dance4.gif' style='height:250px;''></img>,html-slider-response-extra-labels,57,listA,black,woman,dance4,dance4,rating_volition,BW1 wanted to dance with WW2,WW2 wanted to dance with BW1,82,dance,different_race,different_race_F,woman,woman,black,white,BW1,WW2,BW1,WW2,woman,black,nondominant,18,18,-32,5963.2810624982085,2524.884191781083,282.2906344068558,21,woman,white,Black Women,NA,Female Dyads
4809,./study3_prolific_data/4809_BWa.csv,8943.13499997952,<img src='stim/dance4.gif' style='height:250px;''></img>,html-slider-response-extra-labels,58,listA,black,woman,dance4,dance4,rating_causation,BW1 asked WW2 to dance,WW2 asked BW1 to dance,79,dance,different_race,different_race_F,woman,woman,black,white,BW1,WW2,BW1,WW2,woman,black,nondominant,21,21,-29,5963.2810624982085,2524.884191781083,282.2906344068558,21,woman,white,Black Women,NA,Female Dyads
4809,./study3_prolific_data/4809_BWa.csv,7672.220000007655,<img src='stim/touch3.gif' style='height:250px;''></img>,html-slider-response-extra-labels,63,listA,black,woman,touch3,touch3,rating_volition,WM1 wanted to touch BM1,BM1 wanted to touch WM1,89,touch,different_race,different_race_M,man,man,white,black,WM1,BM1,WM1,BM1,man,white,dominant,11,89,39,5963.2810624982085,2524.884191781083,282.2906344068558,21,man,black,Black Women,NA,Male Dyads
4809,./study3_prolific_data/4809_BWa.csv,5477.444999996806,<img src='stim/touch3.gif' style='height:250px;''></img>,html-slider-response-extra-labels,64,listA,black,woman,touch3,touch3,rating_causation,WM1 asked to touchh BM1,BM1 asked to touch WM1,16,touch,different_race,different_race_M,man,man,white,black,WM1,BM1,WM1,BM1,man,white,dominant,84,16,-34,5963.2810624982085,2524.884191781083,282.2906344068558,21,man,black,Black Women,NA,Male Dyads
4809,./study3_prolific_data/4809_BWa.csv,11265.89999999851,<img src='stim/play4.gif' style='height:250px;''></img>,html-slider-response-extra-labels,66,listA,black,woman,play4,play4,rating_volition,WW1 wanted to play with BW1,BW1 wanted to play with WW1,85,play,different_race,different_race_F,woman,woman,white,black,WW1,BW1,WW1,BW1,woman,white,dominant,15,85,35,5963.2810624982085,2524.884191781083,282.2906344068558,21,woman,black,Black Women,NA,Female Dyads
4809,./study3_prolific_data/4809_BWa.csv,6590.020000003278,<img src='stim/play4.gif' style='height:250px;''></img>,html-slider-response-extra-labels,67,listA,black,woman,play4,play4,rating_causation,WW1 asked to play with BW1,BW1 asked to play with WW1,15,play,different_race,different_race_F,woman,woman,white,black,WW1,BW1,WW1,BW1,woman,white,dominant,85,15,-35,5963.2810624982085,2524.884191781083,282.2906344068558,21,woman,black,Black Women,NA,Female Dyads
4809,./study3_prolific_data/4809_BWa.csv,5121.249999996508,<img src='stim/shout1.gif' style='height:250px;''></img>,html-slider-response-extra-labels,69,listA,black,woman,shout1,shout1,rating_volition,WM2 wanted to shout at WW2,WW2 wanted to shout at WM2,9,shout,different_gender,different_gender_W,man,woman,white,white,WM2,WW2,WM2,WW2,man,white,dominant,91,9,-41,5963.2810624982085,2524.884191781083,282.2906344068558,21,woman,white,Black Women,White Dyads,NA
4809,./study3_prolific_data/4809_BWa.csv,3714.0399999916553,<img src='stim/shout1.gif' style='height:250px;''></img>,html-slider-response-extra-labels,70,listA,black,woman,shout1,shout1,rating_causation,WM2 shouted at WW2 first,WW2 shouted at WM2 first,11,shout,different_gender,different_gender_W,man,woman,white,white,WM2,WW2,WM2,WW2,man,white,dominant,89,11,-39,5963.2810624982085,2524.884191781083,282.2906344068558,21,woman,white,Black Women,White Dyads,NA
4809,./study3_prolific_data/4809_BWa.csv,7884.22000000719,<img src='stim/kiss1.gif' style='height:250px;''></img>,html-slider-response-extra-labels,72,listA,black,woman,kiss1,kiss1,rating_volition,WW2 wanted to kiss WM2,WM2 wanted to kiss WW2,73,kiss,different_gender,different_gender_W,woman,man,white,white,WW2,WM2,WW2,WM2,woman,white,nondominant,27,27,-23,5963.2810624982085,2524.884191781083,282.2906344068558,21,man,white,Black Women,White Dyads,NA
4809,./study3_prolific_data/4809_BWa.csv,4915.054999990389,<img src='stim/kiss1.gif' style='height:250px;''></img>,html-slider-response-extra-labels,73,listA,black,woman,kiss1,kiss1,rating_causation,WW2 asked to kiss WM2,WM2 asked to kiss WW2,67,kiss,different_gender,different_gender_W,woman,man,white,white,WW2,WM2,WW2,WM2,woman,white,nondominant,33,33,-17,5963.2810624982085,2524.884191781083,282.2906344068558,21,man,white,Black Women,White Dyads,NA
4809,./study3_prolific_data/4809_BWa.csv,4571.700000000419,<img src='stim/dance2.gif' style='height:250px;''></img>,html-slider-response-extra-labels,75,listA,black,woman,dance2,dance2,rating_volition,BW1 wanted to dance with BM2,BM2 wanted to dance with BW1,82,dance,different_gender,different_gender_B,woman,man,black,black,BW1,BM2,BW1,BM2,woman,black,nondominant,18,18,-32,5963.2810624982085,2524.884191781083,282.2906344068558,21,man,black,Black Women,Black Dyads,NA
4809,./study3_prolific_data/4809_BWa.csv,3169.2150000017136,<img src='stim/dance2.gif' style='height:250px;''></img>,html-slider-response-extra-labels,76,listA,black,woman,dance2,dance2,rating_causation,BW1 asked BM2 to dance,BM2 asked BW1 to dance,70,dance,different_gender,different_gender_B,woman,man,black,black,BW1,BM2,BW1,BM2,woman,black,nondominant,30,30,-20,5963.2810624982085,2524.884191781083,282.2906344068558,21,man,black,Black Women,Black Dyads,NA
4809,./study3_prolific_data/4809_BWa.csv,4521.054999990156,<img src='stim/argue3.gif' style='height:250px;''></img>,html-slider-response-extra-labels,78,listA,black,woman,argue3,argue3,rating_volition,BM2 wanted to argue with WM1,WM1 wanted to argue with BM2,24,argue,different_race,different_race_M,man,man,black,white,BM2,WM1,BM2,WM1,man,black,nondominant,76,76,26,5963.2810624982085,2524.884191781083,282.2906344068558,21,man,white,Black Women,NA,Male Dyads
4809,./study3_prolific_data/4809_BWa.csv,2988.2199999992736,<img src='stim/argue3.gif' style='height:250px;''></img>,html-slider-response-extra-labels,79,listA,black,woman,argue3,argue3,rating_causation,BM2 started an argument with WM1,WM1 started an argument with BM2,72,argue,different_race,different_race_M,man,man,black,white,BM2,WM1,BM2,WM1,man,black,nondominant,28,28,-22,5963.2810624982085,2524.884191781083,282.2906344068558,21,man,white,Black Women,NA,Male Dyads
4809,./study3_prolific_data/4809_BWa.csv,12102.564999979222,<img src='stim/talk4.gif' style='height:250px;''></img>,html-slider-response-extra-labels,81,listA,black,woman,talk4,talk4,rating_causation,WW2 started a conversation with BW1,BW1 started a conversation with WW2,86,talk,different_race,different_race_F,woman,woman,white,black,WW2,BW1,WW2,BW1,woman,white,dominant,14,86,36,5963.2810624982085,2524.884191781083,282.2906344068558,21,woman,black,Black Women,NA,Female Dyads
4809,./study3_prolific_data/4809_BWa.csv,3462.4199999962,<img src='stim/talk4.gif' style='height:250px;''></img>,html-slider-response-extra-labels,82,listA,black,woman,talk4,talk4,rating_volition,WW2 wanted to talk to BW1,BW1 wanted to talk to WW2,79,talk,different_race,different_race_F,woman,woman,white,black,WW2,BW1,WW2,BW1,woman,white,dominant,21,79,29,5963.2810624982085,2524.884191781083,282.2906344068558,21,woman,black,Black Women,NA,Female Dyads
4809,./study3_prolific_data/4809_BWa.csv,7455.849999998463,<img src='stim/dance3.gif' style='height:250px;''></img>,html-slider-response-extra-labels,84,listA,black,woman,dance3,dance3,rating_causation,WM2 asked BM1 to dance,BM1 asked WM2 to dance,73,dance,different_race,different_race_M,man,man,white,black,WM2,BM1,WM2,BM1,man,white,dominant,27,73,23,5963.2810624982085,2524.884191781083,282.2906344068558,21,man,black,Black Women,NA,Male Dyads
4809,./study3_prolific_data/4809_BWa.csv,4024.969999998575,<img src='stim/dance3.gif' style='height:250px;''></img>,html-slider-response-extra-labels,85,listA,black,woman,dance3,dance3,rating_volition,WM2 wanted to dance with BM1,BM1 wanted to dance with WM2,82,dance,different_race,different_race_M,man,man,white,black,WM2,BM1,WM2,BM1,man,white,dominant,18,82,32,5963.2810624982085,2524.884191781083,282.2906344068558,21,man,black,Black Women,NA,Male Dyads
4809,./study3_prolific_data/4809_BWa.csv,6693.0349999747705,<img src='stim/play2.gif' style='height:250px;''></img>,html-slider-response-extra-labels,87,listA,black,woman,play2,play2,rating_causation,BM1 asked to play with BW1,BW1 asked to play with BM1,82,play,different_gender,different_gender_B,man,woman,black,black,BM1,BW1,BM1,BW1,man,black,dominant,18,82,32,5963.2810624982085,2524.884191781083,282.2906344068558,21,woman,black,Black Women,Black Dyads,NA
4809,./study3_prolific_data/4809_BWa.csv,4097.344999987399,<img src='stim/play2.gif' style='height:250px;''></img>,html-slider-response-extra-labels,88,listA,black,woman,play2,play2,rating_volition,BM1 wanted to play with BW1,BW1 wanted to play with BM1,88,play,different_gender,different_gender_B,man,woman,black,black,BM1,BW1,BM1,BW1,man,black,dominant,12,88,38,5963.2810624982085,2524.884191781083,282.2906344068558,21,woman,black,Black Women,Black Dyads,NA
4809,./study3_prolific_data/4809_BWa.csv,6966.580000007525,<img src='stim/play3.gif' style='height:250px;''></img>,html-slider-response-extra-labels,90,listA,black,woman,play3,play3,rating_volition,BM1 wanted to play with WM1,WM1 wanted to play with BM1,12,play,different_race,different_race_M,man,man,black,white,BM1,WM1,BM1,WM1,man,black,nondominant,88,88,38,5963.2810624982085,2524.884191781083,282.2906344068558,21,man,white,Black Women,NA,Male Dyads
4809,./study3_prolific_data/4809_BWa.csv,4473.75999999349,<img src='stim/play3.gif' style='height:250px;''></img>,html-slider-response-extra-labels,91,listA,black,woman,play3,play3,rating_causation,BM1 asked to play with WM1,WM1 asked to play with BM1,16,play,different_race,different_race_M,man,man,black,white,BM1,WM1,BM1,WM1,man,black,nondominant,84,84,34,5963.2810624982085,2524.884191781083,282.2906344068558,21,man,white,Black Women,NA,Male Dyads
4809,./study3_prolific_data/4809_BWa.csv,4955.450000008568,<img src='stim/touch4.gif' style='height:250px;''></img>,html-slider-response-extra-labels,96,listA,black,woman,touch4,touch4,rating_volition,BW1 wanted to touch WW1,WW1 wanted to touch BW1,76,touch,different_race,different_race_F,woman,woman,black,white,BW1,WW1,BW1,WW1,woman,black,nondominant,24,24,-26,5963.2810624982085,2524.884191781083,282.2906344068558,21,woman,white,Black Women,NA,Female Dyads
4809,./study3_prolific_data/4809_BWa.csv,3424.395000009099,<img src='stim/touch4.gif' style='height:250px;''></img>,html-slider-response-extra-labels,97,listA,black,woman,touch4,touch4,rating_causation,BW1 asked to touch WW1,WW1 asked to touch BW1,84,touch,different_race,different_race_F,woman,woman,black,white,BW1,WW1,BW1,WW1,woman,black,nondominant,16,16,-34,5963.2810624982085,2524.884191781083,282.2906344068558,21,woman,white,Black Women,NA,Female Dyads
4809,./study3_prolific_data/4809_BWa.csv,4290.359999984503,<img src='stim/kiss3.gif' style='height:250px;''></img>,html-slider-response-extra-labels,99,listA,black,woman,kiss3,kiss3,rating_volition,BM2 wanted to kiss WM2,WM2 wanted to kiss BM2,24,kiss,different_race,different_race_M,man,man,black,white,BM2,WM2,BM2,WM2,man,black,nondominant,76,76,26,5963.2810624982085,2524.884191781083,282.2906344068558,21,man,white,Black Women,NA,Male Dyads
4809,./study3_prolific_data/4809_BWa.csv,3985.37499998929,<img src='stim/kiss3.gif' style='height:250px;''></img>,html-slider-response-extra-labels,100,listA,black,woman,kiss3,kiss3,rating_causation,BM2 asked to kiss WM2,WM2 asked to kiss BM2,22,kiss,different_race,different_race_M,man,man,black,white,BM2,WM2,BM2,WM2,man,black,nondominant,78,78,28,5963.2810624982085,2524.884191781083,282.2906344068558,21,man,white,Black Women,NA,Male Dyads
4809,./study3_prolific_data/4809_BWa.csv,8270.499999984168,<img src='stim/kiss4.gif' style='height:250px;''></img>,html-slider-response-extra-labels,102,listA,black,woman,kiss4,kiss4,rating_volition,WW2 wanted to kiss BW2,BW2 wanted to kiss WW2,22,kiss,different_race,different_race_F,woman,woman,white,black,WW2,BW2,WW2,BW2,woman,white,dominant,78,22,-28,5963.2810624982085,2524.884191781083,282.2906344068558,21,woman,black,Black Women,NA,Female Dyads
4809,./study3_prolific_data/4809_BWa.csv,6552.700000000186,<img src='stim/kiss4.gif' style='height:250px;''></img>,html-slider-response-extra-labels,103,listA,black,woman,kiss4,kiss4,rating_causation,WW2 asked to kiss BW2,BW2 asked to kiss WW2,15,kiss,different_race,different_race_F,woman,woman,white,black,WW2,BW2,WW2,BW2,woman,white,dominant,85,15,-35,5963.2810624982085,2524.884191781083,282.2906344068558,21,woman,black,Black Women,NA,Female Dyads
4809,./study3_prolific_data/4809_BWa.csv,4703.804999997374,<img src='stim/dance1.gif' style='height:250px;''></img>,html-slider-response-extra-labels,105,listA,black,woman,dance1,dance1,rating_causation,WM2 asked WW1 to dance,WW1 asked WM2 to dance,88,dance,different_gender,different_gender_W,man,woman,white,white,WM2,WW1,WM2,WW1,man,white,dominant,12,88,38,5963.2810624982085,2524.884191781083,282.2906344068558,21,woman,white,Black Women,White Dyads,NA
4809,./study3_prolific_data/4809_BWa.csv,3809.749999985797,<img src='stim/dance1.gif' style='height:250px;''></img>,html-slider-response-extra-labels,106,listA,black,woman,dance1,dance1,rating_volition,WM2 wanted to dance with WW1,WW1 wanted to dance with WM2,83,dance,different_gender,different_gender_W,man,woman,white,white,WM2,WW1,WM2,WW1,man,white,dominant,17,83,33,5963.2810624982085,2524.884191781083,282.2906344068558,21,woman,white,Black Women,White Dyads,NA
4809,./study3_prolific_data/4809_BWa.csv,6733.5299999977,<img src='stim/touch1.gif' style='height:250px;''></img>,html-slider-response-extra-labels,108,listA,black,woman,touch1,touch1,rating_volition,WM1 wanted to touch WW1,WW1 wanted to touch WM1,75,touch,different_gender,different_gender_W,man,woman,white,white,WM1,WW1,WM1,WW1,man,white,dominant,25,75,25,5963.2810624982085,2524.884191781083,282.2906344068558,21,woman,white,Black Women,White Dyads,NA
4809,./study3_prolific_data/4809_BWa.csv,3014.309999998659,<img src='stim/touch1.gif' style='height:250px;''></img>,html-slider-response-extra-labels,109,listA,black,woman,touch1,touch1,rating_causation,WM1 asked to touch WW1,WW1 asked to touch WM1,76,touch,different_gender,different_gender_W,man,woman,white,white,WM1,WW1,WM1,WW1,man,white,dominant,24,76,26,5963.2810624982085,2524.884191781083,282.2906344068558,21,woman,white,Black Women,White Dyads,NA
4809,./study3_prolific_data/4809_BWa.csv,4953.385000000708,<img src='stim/talk2.gif' style='height:250px;''></img>,html-slider-response-extra-labels,111,listA,black,woman,talk2,talk2,rating_causation,BM2 started a conversation with BW1,BW1 started a conversation with BM2,76,talk,different_gender,different_gender_B,man,woman,black,black,BM2,BW1,BM2,BW1,man,black,dominant,24,76,26,5963.2810624982085,2524.884191781083,282.2906344068558,21,woman,black,Black Women,Black Dyads,NA
4809,./study3_prolific_data/4809_BWa.csv,2147.5999999966007,<img src='stim/talk2.gif' style='height:250px;''></img>,html-slider-response-extra-labels,112,listA,black,woman,talk2,talk2,rating_volition,BM2 wanted to talk to BW1,BW1 wanted to talk to BM2,76,talk,different_gender,different_gender_B,man,woman,black,black,BM2,BW1,BM2,BW1,man,black,dominant,24,76,26,5963.2810624982085,2524.884191781083,282.2906344068558,21,woman,black,Black Women,Black Dyads,NA
4809,./study3_prolific_data/4809_BWa.csv,6868.375000020023,<img src='stim/talk1.gif' style='height:250px;''></img>,html-slider-response-extra-labels,120,listA,black,woman,talk1,talk1,rating_volition,WW1 wanted to talk to WM2,WM2 wanted to talk to WW1,23,talk,different_gender,different_gender_W,woman,man,white,white,WW1,WM2,WW1,WM2,woman,white,nondominant,77,77,27,5963.2810624982085,2524.884191781083,282.2906344068558,21,man,white,Black Women,White Dyads,NA
4809,./study3_prolific_data/4809_BWa.csv,11170.03000000841,<img src='stim/talk1.gif' style='height:250px;''></img>,html-slider-response-extra-labels,121,listA,black,woman,talk1,talk1,rating_causation,WW1 started a conversation with WM2,WM2 started a conversation with WW1,23,talk,different_gender,different_gender_W,woman,man,white,white,WW1,WM2,WW1,WM2,woman,white,nondominant,77,77,27,5963.2810624982085,2524.884191781083,282.2906344068558,21,man,white,Black Women,White Dyads,NA
4809,./study3_prolific_data/4809_BWa.csv,8449.51000000583,<img src='stim/argue2.gif' style='height:250px;''></img>,html-slider-response-extra-labels,123,listA,black,woman,argue2,argue2,rating_causation,BM1 started an argument with BW2,BW2 started an argument with BM1,18,argue,different_gender,different_gender_B,man,woman,black,black,BM1,BW2,BM1,BW2,man,black,dominant,82,18,-32,5963.2810624982085,2524.884191781083,282.2906344068558,21,woman,black,Black Women,Black Dyads,NA
4809,./study3_prolific_data/4809_BWa.csv,5478.499999997439,<img src='stim/argue2.gif' style='height:250px;''></img>,html-slider-response-extra-labels,124,listA,black,woman,argue2,argue2,rating_volition,BM1 wanted to argue with BW2,BW2 wanted to argue with BM1,28,argue,different_gender,different_gender_B,man,woman,black,black,BM1,BW2,BM1,BW2,man,black,dominant,72,28,-22,5963.2810624982085,2524.884191781083,282.2906344068558,21,woman,black,Black Women,Black Dyads,NA
4809,./study3_prolific_data/4809_BWa.csv,7266.150000010384,<img src='stim/marry3.gif' style='height:250px;''></img>,html-slider-response-extra-labels,126,listA,black,woman,marry3,marry3,rating_volition,WM1 wanted to marry BM2,BM2 wanted to marry WM1,77,marry,different_race,different_race_M,man,man,white,black,WM1,BM2,WM1,BM2,man,white,dominant,23,77,27,5963.2810624982085,2524.884191781083,282.2906344068558,21,man,black,Black Women,NA,Male Dyads
4809,./study3_prolific_data/4809_BWa.csv,2693.1949999998324,<img src='stim/marry3.gif' style='height:250px;''></img>,html-slider-response-extra-labels,127,listA,black,woman,marry3,marry3,rating_causation,WM1 asked to marry BM2,BM2 asked to marry WM1,85,marry,different_race,different_race_M,man,man,white,black,WM1,BM2,WM1,BM2,man,white,dominant,15,85,35,5963.2810624982085,2524.884191781083,282.2906344068558,21,man,black,Black Women,NA,Male Dyads
4809,./study3_prolific_data/4809_BWa.csv,8566.714999993565,<img src='stim/touch2.gif' style='height:250px;''></img>,html-slider-response-extra-labels,129,listA,black,woman,touch2,touch2,rating_causation,BW1 asked to touch BM1,BM1 asked to touch BW1,67,touch,different_gender,different_gender_B,woman,man,black,black,BW1,BM1,BW1,BM1,woman,black,nondominant,33,33,-17,5963.2810624982085,2524.884191781083,282.2906344068558,21,man,black,Black Women,Black Dyads,NA
4809,./study3_prolific_data/4809_BWa.csv,2910.050000005868,<img src='stim/touch2.gif' style='height:250px;''></img>,html-slider-response-extra-labels,130,listA,black,woman,touch2,touch2,rating_volition,BW1 wanted to touch BM1,BM1 wanted to touch BW1,74,touch,different_gender,different_gender_B,woman,man,black,black,BW1,BM1,BW1,BM1,woman,black,nondominant,26,26,-24,5963.2810624982085,2524.884191781083,282.2906344068558,21,man,black,Black Women,Black Dyads,NA
4809,./study3_prolific_data/4809_BWa.csv,8744.980000017677,<img src='stim/shout4.gif' style='height:250px;''></img>,html-slider-response-extra-labels,132,listA,black,woman,shout4,shout4,rating_volition,BW2 wanted to shout at WW2,WW2 wanted to shout at BW2,76,shout,different_race,different_race_F,woman,woman,black,white,BW2,WW2,BW2,WW2,woman,black,nondominant,24,24,-26,5963.2810624982085,2524.884191781083,282.2906344068558,21,woman,white,Black Women,NA,Female Dyads
4809,./study3_prolific_data/4809_BWa.csv,2995.769999979529,<img src='stim/shout4.gif' style='height:250px;''></img>,html-slider-response-extra-labels,133,listA,black,woman,shout4,shout4,rating_causation,BW2 shouted at WW2 first,WW2 shouted at BW2 first,81,shout,different_race,different_race_F,woman,woman,black,white,BW2,WW2,BW2,WW2,woman,black,nondominant,19,19,-31,5963.2810624982085,2524.884191781083,282.2906344068558,21,woman,white,Black Women,NA,Female Dyads
4809,./study3_prolific_data/4809_BWa.csv,7705.360000021756,<img src='stim/flirt2.gif' style='height:250px;''></img>,html-slider-response-extra-labels,135,listA,black,woman,flirt2,flirt2,rating_volition,BW1 wanted to flirt with BM2,BM2 wanted to flirt with BW1,18,flirt,different_gender,different_gender_B,woman,man,black,black,BW1,BM2,BW1,BM2,woman,black,nondominant,82,82,32,5963.2810624982085,2524.884191781083,282.2906344068558,21,man,black,Black Women,Black Dyads,NA
4809,./study3_prolific_data/4809_BWa.csv,3464.63999999105,<img src='stim/flirt2.gif' style='height:250px;''></img>,html-slider-response-extra-labels,136,listA,black,woman,flirt2,flirt2,rating_causation,BW1 started flirting with BM2 first,BM2 started flirting with BW1 first,28,flirt,different_gender,different_gender_B,woman,man,black,black,BW1,BM2,BW1,BM2,woman,black,nondominant,72,72,22,5963.2810624982085,2524.884191781083,282.2906344068558,21,man,black,Black Women,Black Dyads,NA
4809,./study3_prolific_data/4809_BWa.csv,6442.465000000084,<img src='stim/talk3.gif' style='height:250px;''></img>,html-slider-response-extra-labels,138,listA,black,woman,talk3,talk3,rating_volition,BM1 wanted to talk to WM2,WM2 wanted to talk to BM1,69,talk,different_race,different_race_M,man,man,black,white,BM1,WM2,BM1,WM2,man,black,nondominant,31,31,-19,5963.2810624982085,2524.884191781083,282.2906344068558,21,man,white,Black Women,NA,Male Dyads
4809,./study3_prolific_data/4809_BWa.csv,2373.15500000841,<img src='stim/talk3.gif' style='height:250px;''></img>,html-slider-response-extra-labels,139,listA,black,woman,talk3,talk3,rating_causation,BM1 started a conversation with WM2,WM2 started a conversation with BM1,78,talk,different_race,different_race_M,man,man,black,white,BM1,WM2,BM1,WM2,man,black,nondominant,22,22,-28,5963.2810624982085,2524.884191781083,282.2906344068558,21,man,white,Black Women,NA,Male Dyads
4809,./study3_prolific_data/4809_BWa.csv,5819.560000003548,<img src='stim/fight3.gif' style='height:250px;''></img>,html-slider-response-extra-labels,141,listA,black,woman,fight3,fight3,rating_causation,BM1 started the fight with WM1,WM1 started the fight with BM1,71,fight,different_race,different_race_M,man,man,black,white,BM1,WM1,BM1,WM1,man,black,nondominant,29,29,-21,5963.2810624982085,2524.884191781083,282.2906344068558,21,man,white,Black Women,NA,Male Dyads
4809,./study3_prolific_data/4809_BWa.csv,1924.005000008037,<img src='stim/fight3.gif' style='height:250px;''></img>,html-slider-response-extra-labels,142,listA,black,woman,fight3,fight3,rating_volition,BM1 wanted to fight WM1,WM1 wanted to fight BM1,79,fight,different_race,different_race_M,man,man,black,white,BM1,WM1,BM1,WM1,man,black,nondominant,21,21,-29,5963.2810624982085,2524.884191781083,282.2906344068558,21,man,white,Black Women,NA,Male Dyads
4809,./study3_prolific_data/4809_BWa.csv,4592.119999986608,<img src='stim/fight2.gif' style='height:250px;''></img>,html-slider-response-extra-labels,144,listA,black,woman,fight2,fight2,rating_volition,BM1 wanted to fight BW1,BW1 wanted to fight BM1,23,fight,different_gender,different_gender_B,man,woman,black,black,BM1,BW1,BM1,BW1,man,black,dominant,77,23,-27,5963.2810624982085,2524.884191781083,282.2906344068558,21,woman,black,Black Women,Black Dyads,NA
4809,./study3_prolific_data/4809_BWa.csv,2896.5899999893736,<img src='stim/fight2.gif' style='height:250px;''></img>,html-slider-response-extra-labels,145,listA,black,woman,fight2,fight2,rating_causation,BM1 started the fight with BW1,BW1 started the fight with BM1,17,fight,different_gender,different_gender_B,man,woman,black,black,BM1,BW1,BM1,BW1,man,black,dominant,83,17,-33,5963.2810624982085,2524.884191781083,282.2906344068558,21,woman,black,Black Women,Black Dyads,NA
4809,./study3_prolific_data/4809_BWa.csv,8436.220000003232,<img src='stim/marry4.gif' style='height:250px;''></img>,html-slider-response-extra-labels,150,listA,black,woman,marry4,marry4,rating_causation,BW2 asked to marry WW1,WW1 asked to marry BW2,75,marry,different_race,different_race_F,woman,woman,black,white,BW2,WW1,BW2,WW1,woman,black,nondominant,25,25,-25,5963.2810624982085,2524.884191781083,282.2906344068558,21,woman,white,Black Women,NA,Female Dyads
4809,./study3_prolific_data/4809_BWa.csv,3455.06999999634,<img src='stim/marry4.gif' style='height:250px;''></img>,html-slider-response-extra-labels,151,listA,black,woman,marry4,marry4,rating_volition,BW2 wanted to marry WW1,WW1 wanted to marry BW2,79,marry,different_race,different_race_F,woman,woman,black,white,BW2,WW1,BW2,WW1,woman,black,nondominant,21,21,-29,5963.2810624982085,2524.884191781083,282.2906344068558,21,woman,white,Black Women,NA,Female Dyads
4809,./study3_prolific_data/4809_BWa.csv,5248.634999996284,<img src='stim/flirt1.gif' style='height:250px;''></img>,html-slider-response-extra-labels,153,listA,black,woman,flirt1,flirt1,rating_volition,WM2 wanted to flirt with WW1,WW1 wanted to flirt with WM2,81,flirt,different_gender,different_gender_W,man,woman,white,white,WM2,WW1,WM2,WW1,man,white,dominant,19,81,31,5963.2810624982085,2524.884191781083,282.2906344068558,21,woman,white,Black Women,White Dyads,NA
4809,./study3_prolific_data/4809_BWa.csv,2758.044999995036,<img src='stim/flirt1.gif' style='height:250px;''></img>,html-slider-response-extra-labels,154,listA,black,woman,flirt1,flirt1,rating_causation,WM2 started flirting with WW1 first,WW1 started flirting with WM2 first,74,flirt,different_gender,different_gender_W,man,woman,white,white,WM2,WW1,WM2,WW1,man,white,dominant,26,74,24,5963.2810624982085,2524.884191781083,282.2906344068558,21,woman,white,Black Women,White Dyads,NA
6133,./study3_prolific_data/6133_WMb.csv,4364.854999992531,<img src='stim/play3.gif' style='height:250px;''></img>,html-slider-response-extra-labels,15,listB,white,man,play3,play3,rating_causation,WM1 asked to play with BM1,BM1 asked to play with WM1,83,play,different_race,different_race_M,man,man,black,white,BM1,WM1,WM1,BM1,man,white,dominant,17,83,33,2948.233250001431,2075.585028156763,232.05746080196687,20,man,black,White Men,NA,Male Dyads
6133,./study3_prolific_data/6133_WMb.csv,2676.659999997355,<img src='stim/play3.gif' style='height:250px;''></img>,html-slider-response-extra-labels,16,listB,white,man,play3,play3,rating_volition,WM1 wanted to play with BM1,BM1 wanted to play with WM1,74,play,different_race,different_race_M,man,man,black,white,BM1,WM1,WM1,BM1,man,white,dominant,26,74,24,2948.233250001431,2075.585028156763,232.05746080196687,20,man,black,White Men,NA,Male Dyads
6133,./study3_prolific_data/6133_WMb.csv,2111.250000016298,<img src='stim/argue1.gif' style='height:250px;''></img>,html-slider-response-extra-labels,18,listB,white,man,argue1,argue1,rating_causation,WM1 started an argument with WW2,WW2 started an argument with WM1,78,argue,different_gender,different_gender_W,woman,man,white,white,WW2,WM1,WM1,WW2,man,white,dominant,22,78,28,2948.233250001431,2075.585028156763,232.05746080196687,20,woman,white,White Men,White Dyads,NA
6133,./study3_prolific_data/6133_WMb.csv,2537.3649999964982,<img src='stim/argue1.gif' style='height:250px;''></img>,html-slider-response-extra-labels,19,listB,white,man,argue1,argue1,rating_volition,WM1 wanted to argue with WW2,WW2 wanted to argue with WM1,29,argue,different_gender,different_gender_W,woman,man,white,white,WW2,WM1,WM1,WW2,man,white,dominant,71,29,-21,2948.233250001431,2075.585028156763,232.05746080196687,20,woman,white,White Men,White Dyads,NA
6133,./study3_prolific_data/6133_WMb.csv,3525.2849999815226,<img src='stim/marry3.gif' style='height:250px;''></img>,html-slider-response-extra-labels,21,listB,white,man,marry3,marry3,rating_causation,BM2 asked to marry WM1,WM1 asked to marry BM2,9,marry,different_race,different_race_M,man,man,white,black,WM1,BM2,BM2,WM1,man,black,nondominant,91,91,41,2948.233250001431,2075.585028156763,232.05746080196687,20,man,white,White Men,NA,Male Dyads
6133,./study3_prolific_data/6133_WMb.csv,1136.4449999819044,<img src='stim/marry3.gif' style='height:250px;''></img>,html-slider-response-extra-labels,22,listB,white,man,marry3,marry3,rating_volition,BM2 wanted to marry WM1,WM1 wanted to marry BM2,17,marry,different_race,different_race_M,man,man,white,black,WM1,BM2,BM2,WM1,man,black,nondominant,83,83,33,2948.233250001431,2075.585028156763,232.05746080196687,20,man,white,White Men,NA,Male Dyads
6133,./study3_prolific_data/6133_WMb.csv,3335.080000018934,<img src='stim/dance2.gif' style='height:250px;''></img>,html-slider-response-extra-labels,24,listB,white,man,dance2,dance2,rating_causation,BM2 asked BW1 to dance,BW1 asked BM2 to dance,13,dance,different_gender,different_gender_B,woman,man,black,black,BW1,BM2,BM2,BW1,man,black,dominant,87,13,-37,2948.233250001431,2075.585028156763,232.05746080196687,20,woman,black,White Men,Black Dyads,NA
6133,./study3_prolific_data/6133_WMb.csv,1445.6750000244938,<img src='stim/dance2.gif' style='height:250px;''></img>,html-slider-response-extra-labels,25,listB,white,man,dance2,dance2,rating_volition,BM2 wanted to dance with BW1,BW1 wanted to dance with BM2,12,dance,different_gender,different_gender_B,woman,man,black,black,BW1,BM2,BM2,BW1,man,black,dominant,88,12,-38,2948.233250001431,2075.585028156763,232.05746080196687,20,woman,black,White Men,Black Dyads,NA
6133,./study3_prolific_data/6133_WMb.csv,3805.725000012899,<img src='stim/touch1.gif' style='height:250px;''></img>,html-slider-response-extra-labels,30,listB,white,man,touch1,touch1,rating_volition,WW1 wanted to touch WM1,WM1 wanted to touch WW1,90,touch,different_gender,different_gender_W,man,woman,white,white,WM1,WW1,WW1,WM1,woman,white,nondominant,10,10,-40,2948.233250001431,2075.585028156763,232.05746080196687,20,man,white,White Men,White Dyads,NA
6133,./study3_prolific_data/6133_WMb.csv,2762.8200000035577,<img src='stim/touch1.gif' style='height:250px;''></img>,html-slider-response-extra-labels,31,listB,white,man,touch1,touch1,rating_causation,WW1 asked to touch WM1,WM1 asked to touch WW1,88,touch,different_gender,different_gender_W,man,woman,white,white,WM1,WW1,WW1,WM1,woman,white,nondominant,12,12,-38,2948.233250001431,2075.585028156763,232.05746080196687,20,man,white,White Men,White Dyads,NA
6133,./study3_prolific_data/6133_WMb.csv,1964.594999997644,<img src='stim/argue4.gif' style='height:250px;''></img>,html-slider-response-extra-labels,36,listB,white,man,argue4,argue4,rating_causation,BW2 started an argument with WW1,WW1 started an argument with BW2,99,argue,different_race,different_race_F,woman,woman,white,black,WW1,BW2,BW2,WW1,woman,black,nondominant,1,1,-49,2948.233250001431,2075.585028156763,232.05746080196687,20,woman,white,White Men,NA,Female Dyads
6133,./study3_prolific_data/6133_WMb.csv,1559.6150000055786,<img src='stim/argue4.gif' style='height:250px;''></img>,html-slider-response-extra-labels,37,listB,white,man,argue4,argue4,rating_volition,BW2 wanted to argue with WW1,WW1 wanted to argue with BW2,88,argue,different_race,different_race_F,woman,woman,white,black,WW1,BW2,BW2,WW1,woman,black,nondominant,12,12,-38,2948.233250001431,2075.585028156763,232.05746080196687,20,woman,white,White Men,NA,Female Dyads
6133,./study3_prolific_data/6133_WMb.csv,3022.785000008298,<img src='stim/fight2.gif' style='height:250px;''></img>,html-slider-response-extra-labels,39,listB,white,man,fight2,fight2,rating_causation,BW1 started the fight with BM1,BM1 started the fight with BW1,80,fight,different_gender,different_gender_B,man,woman,black,black,BM1,BW1,BW1,BM1,woman,black,nondominant,20,20,-30,2948.233250001431,2075.585028156763,232.05746080196687,20,man,black,White Men,Black Dyads,NA
6133,./study3_prolific_data/6133_WMb.csv,1371.865000022808,<img src='stim/fight2.gif' style='height:250px;''></img>,html-slider-response-extra-labels,40,listB,white,man,fight2,fight2,rating_volition,BW1 wanted to fight BM1,BM1 wanted to fight BW1,80,fight,different_gender,different_gender_B,man,woman,black,black,BM1,BW1,BW1,BM1,woman,black,nondominant,20,20,-30,2948.233250001431,2075.585028156763,232.05746080196687,20,man,black,White Men,Black Dyads,NA
6133,./study3_prolific_data/6133_WMb.csv,2021.0700000170616,<img src='stim/play1.gif' style='height:250px;''></img>,html-slider-response-extra-labels,42,listB,white,man,play1,play1,rating_causation,WM1 asked to play with WW1,WW1 asked to play with WM1,80,play,different_gender,different_gender_W,woman,man,white,white,WW1,WM1,WM1,WW1,man,white,dominant,20,80,30,2948.233250001431,2075.585028156763,232.05746080196687,20,woman,white,White Men,White Dyads,NA
6133,./study3_prolific_data/6133_WMb.csv,1719.184999994468,<img src='stim/play1.gif' style='height:250px;''></img>,html-slider-response-extra-labels,43,listB,white,man,play1,play1,rating_volition,WM1 wanted to play with WW1,WW1 wanted to play with WM1,24,play,different_gender,different_gender_W,woman,man,white,white,WW1,WM1,WM1,WW1,man,white,dominant,76,24,-26,2948.233250001431,2075.585028156763,232.05746080196687,20,woman,white,White Men,White Dyads,NA
6133,./study3_prolific_data/6133_WMb.csv,1434.5350000075996,<img src='stim/kiss3.gif' style='height:250px;''></img>,html-slider-response-extra-labels,45,listB,white,man,kiss3,kiss3,rating_causation,WM2 asked to kiss BM2,BM2 asked to kiss WM2,29,kiss,different_race,different_race_M,man,man,black,white,BM2,WM2,WM2,BM2,man,white,dominant,71,29,-21,2948.233250001431,2075.585028156763,232.05746080196687,20,man,black,White Men,NA,Male Dyads
6133,./study3_prolific_data/6133_WMb.csv,1221.2350000045262,<img src='stim/kiss3.gif' style='height:250px;''></img>,html-slider-response-extra-labels,46,listB,white,man,kiss3,kiss3,rating_volition,WM2 wanted to kiss BM2,BM2 wanted to kiss WM2,26,kiss,different_race,different_race_M,man,man,black,white,BM2,WM2,WM2,BM2,man,white,dominant,74,26,-24,2948.233250001431,2075.585028156763,232.05746080196687,20,man,black,White Men,NA,Male Dyads
6133,./study3_prolific_data/6133_WMb.csv,3049.69000001438,<img src='stim/flirt2.gif' style='height:250px;''></img>,html-slider-response-extra-labels,48,listB,white,man,flirt2,flirt2,rating_causation,BM2 started flirting with BW1 first,BW1 started flirting with BM2 first,91,flirt,different_gender,different_gender_B,woman,man,black,black,BW1,BM2,BM2,BW1,man,black,dominant,9,91,41,2948.233250001431,2075.585028156763,232.05746080196687,20,woman,black,White Men,Black Dyads,NA
6133,./study3_prolific_data/6133_WMb.csv,2095.59499999159,<img src='stim/flirt2.gif' style='height:250px;''></img>,html-slider-response-extra-labels,49,listB,white,man,flirt2,flirt2,rating_volition,BM2 wanted to flirt with BW1,BW1 wanted to flirt with BM2,8,flirt,different_gender,different_gender_B,woman,man,black,black,BW1,BM2,BM2,BW1,man,black,dominant,92,8,-42,2948.233250001431,2075.585028156763,232.05746080196687,20,woman,black,White Men,Black Dyads,NA
6133,./study3_prolific_data/6133_WMb.csv,5402.605000010226,<img src='stim/talk3.gif' style='height:250px;''></img>,html-slider-response-extra-labels,51,listB,white,man,talk3,talk3,rating_causation,WM2 started a conversation with BM1,BM1 started a conversation with WM2,85,talk,different_race,different_race_M,man,man,black,white,BM1,WM2,WM2,BM1,man,white,dominant,15,85,35,2948.233250001431,2075.585028156763,232.05746080196687,20,man,black,White Men,NA,Male Dyads
6133,./study3_prolific_data/6133_WMb.csv,1004.175000009127,<img src='stim/talk3.gif' style='height:250px;''></img>,html-slider-response-extra-labels,52,listB,white,man,talk3,talk3,rating_volition,WM2 wanted to talk to BM1,BM1 wanted to talk to WM2,91,talk,different_race,different_race_M,man,man,black,white,BM1,WM2,WM2,BM1,man,white,dominant,9,91,41,2948.233250001431,2075.585028156763,232.05746080196687,20,man,black,White Men,NA,Male Dyads
6133,./study3_prolific_data/6133_WMb.csv,3282.19500000705,<img src='stim/fight3.gif' style='height:250px;''></img>,html-slider-response-extra-labels,57,listB,white,man,fight3,fight3,rating_volition,WM1 wanted to fight BM1,BM1 wanted to fight WM1,4,fight,different_race,different_race_M,man,man,black,white,BM1,WM1,WM1,BM1,man,white,dominant,96,4,-46,2948.233250001431,2075.585028156763,232.05746080196687,20,man,black,White Men,NA,Male Dyads
6133,./study3_prolific_data/6133_WMb.csv,1052.094999991823,<img src='stim/fight3.gif' style='height:250px;''></img>,html-slider-response-extra-labels,58,listB,white,man,fight3,fight3,rating_causation,WM1 started the fight with BM1,BM1 started the fight with WM1,10,fight,different_race,different_race_M,man,man,black,white,BM1,WM1,WM1,BM1,man,white,dominant,90,10,-40,2948.233250001431,2075.585028156763,232.05746080196687,20,man,black,White Men,NA,Male Dyads
6133,./study3_prolific_data/6133_WMb.csv,2735.144999984186,<img src='stim/shout3.gif' style='height:250px;''></img>,html-slider-response-extra-labels,66,listB,white,man,shout3,shout3,rating_causation,BM2 shouted at WM2 first,WM2 shouted at BM2 first,15,shout,different_race,different_race_M,man,man,white,black,WM2,BM2,BM2,WM2,man,black,nondominant,85,85,35,2948.233250001431,2075.585028156763,232.05746080196687,20,man,white,White Men,NA,Male Dyads
6133,./study3_prolific_data/6133_WMb.csv,948.8750000018626,<img src='stim/shout3.gif' style='height:250px;''></img>,html-slider-response-extra-labels,67,listB,white,man,shout3,shout3,rating_volition,BM2 wanted to shout at WM2,WM2 wanted to shout at BM2,16,shout,different_race,different_race_M,man,man,white,black,WM2,BM2,BM2,WM2,man,black,nondominant,84,84,34,2948.233250001431,2075.585028156763,232.05746080196687,20,man,white,White Men,NA,Male Dyads
6133,./study3_prolific_data/6133_WMb.csv,2094.8999999964144,<img src='stim/talk1.gif' style='height:250px;''></img>,html-slider-response-extra-labels,72,listB,white,man,talk1,talk1,rating_volition,WM2 wanted to talk to WW1,WW1 wanted to talk to WM2,90,talk,different_gender,different_gender_W,woman,man,white,white,WW1,WM2,WM2,WW1,man,white,dominant,10,90,40,2948.233250001431,2075.585028156763,232.05746080196687,20,woman,white,White Men,White Dyads,NA
6133,./study3_prolific_data/6133_WMb.csv,1353.4749999816995,<img src='stim/talk1.gif' style='height:250px;''></img>,html-slider-response-extra-labels,73,listB,white,man,talk1,talk1,rating_causation,WM2 started a conversation with WW1,WW1 started a conversation with WM2,89,talk,different_gender,different_gender_W,woman,man,white,white,WW1,WM2,WM2,WW1,man,white,dominant,11,89,39,2948.233250001431,2075.585028156763,232.05746080196687,20,woman,white,White Men,White Dyads,NA
6133,./study3_prolific_data/6133_WMb.csv,4563.1500000017695,<img src='stim/marry1.gif' style='height:250px;''></img>,html-slider-response-extra-labels,75,listB,white,man,marry1,marry1,rating_causation,WW2 asked to marry WM1,WM1 asked to marry WW2,100,marry,different_gender,different_gender_W,man,woman,white,white,WM1,WW2,WW2,WM1,woman,white,nondominant,0,0,-50,2948.233250001431,2075.585028156763,232.05746080196687,20,man,white,White Men,White Dyads,NA
6133,./study3_prolific_data/6133_WMb.csv,2002.055000019027,<img src='stim/marry1.gif' style='height:250px;''></img>,html-slider-response-extra-labels,76,listB,white,man,marry1,marry1,rating_volition,WW2 wanted to marry WM1,WM1 wanted to marry WW2,90,marry,different_gender,different_gender_W,man,woman,white,white,WM1,WW2,WW2,WM1,woman,white,nondominant,10,10,-40,2948.233250001431,2075.585028156763,232.05746080196687,20,man,white,White Men,White Dyads,NA
6133,./study3_prolific_data/6133_WMb.csv,6814.385000005132,<img src='stim/argue3.gif' style='height:250px;''></img>,html-slider-response-extra-labels,78,listB,white,man,argue3,argue3,rating_causation,WM1 started an argument with BM2,BM2 started an argument with WM1,94,argue,different_race,different_race_M,man,man,black,white,BM2,WM1,WM1,BM2,man,white,dominant,6,94,44,2948.233250001431,2075.585028156763,232.05746080196687,20,man,black,White Men,NA,Male Dyads
6133,./study3_prolific_data/6133_WMb.csv,2471.669999998994,<img src='stim/argue3.gif' style='height:250px;''></img>,html-slider-response-extra-labels,79,listB,white,man,argue3,argue3,rating_volition,WM1 wanted to argue with BM2,BM2 wanted to argue with WM1,53,argue,different_race,different_race_M,man,man,black,white,BM2,WM1,WM1,BM2,man,white,dominant,47,53,3,2948.233250001431,2075.585028156763,232.05746080196687,20,man,black,White Men,NA,Male Dyads
6133,./study3_prolific_data/6133_WMb.csv,1925.1299999887124,<img src='stim/kiss1.gif' style='height:250px;''></img>,html-slider-response-extra-labels,81,listB,white,man,kiss1,kiss1,rating_volition,WM2 wanted to kiss WW2,WW2 wanted to kiss WM2,93,kiss,different_gender,different_gender_W,woman,man,white,white,WW2,WM2,WM2,WW2,man,white,dominant,7,93,43,2948.233250001431,2075.585028156763,232.05746080196687,20,woman,white,White Men,White Dyads,NA
6133,./study3_prolific_data/6133_WMb.csv,2217.80499999295,<img src='stim/kiss1.gif' style='height:250px;''></img>,html-slider-response-extra-labels,82,listB,white,man,kiss1,kiss1,rating_causation,WM2 asked to kiss WW2,WW2 asked to kiss WM2,84,kiss,different_gender,different_gender_W,woman,man,white,white,WW2,WM2,WM2,WW2,man,white,dominant,16,84,34,2948.233250001431,2075.585028156763,232.05746080196687,20,woman,white,White Men,White Dyads,NA
6133,./study3_prolific_data/6133_WMb.csv,8854.744999989634,<img src='stim/touch4.gif' style='height:250px;''></img>,html-slider-response-extra-labels,84,listB,white,man,touch4,touch4,rating_causation,WW1 asked to touch BW1,BW1 asked to touch WW1,14,touch,different_race,different_race_F,woman,woman,black,white,BW1,WW1,WW1,BW1,woman,white,dominant,86,14,-36,2948.233250001431,2075.585028156763,232.05746080196687,20,woman,black,White Men,NA,Female Dyads
6133,./study3_prolific_data/6133_WMb.csv,1531.0450000106357,<img src='stim/touch4.gif' style='height:250px;''></img>,html-slider-response-extra-labels,85,listB,white,man,touch4,touch4,rating_volition,WW1 wanted to touch BW1,BW1 wanted to touch WW1,42,touch,different_race,different_race_F,woman,woman,black,white,BW1,WW1,WW1,BW1,woman,white,dominant,58,42,-8,2948.233250001431,2075.585028156763,232.05746080196687,20,woman,black,White Men,NA,Female Dyads
6133,./study3_prolific_data/6133_WMb.csv,6826.795000000857,<img src='stim/marry2.gif' style='height:250px;''></img>,html-slider-response-extra-labels,87,listB,white,man,marry2,marry2,rating_causation,BM1 asked to marry BW2,BW2 asked to marry BM1,14,marry,different_gender,different_gender_B,woman,man,black,black,BW2,BM1,BM1,BW2,man,black,dominant,86,14,-36,2948.233250001431,2075.585028156763,232.05746080196687,20,woman,black,White Men,Black Dyads,NA
6133,./study3_prolific_data/6133_WMb.csv,2114.0700000105426,<img src='stim/marry2.gif' style='height:250px;''></img>,html-slider-response-extra-labels,88,listB,white,man,marry2,marry2,rating_volition,BM1 wanted to marry BW2,BW2 wanted to marry BM1,46,marry,different_gender,different_gender_B,woman,man,black,black,BW2,BM1,BM1,BW2,man,black,dominant,54,46,-4,2948.233250001431,2075.585028156763,232.05746080196687,20,woman,black,White Men,Black Dyads,NA
6133,./study3_prolific_data/6133_WMb.csv,1914.3350000085773,<img src='stim/kiss4.gif' style='height:250px;''></img>,html-slider-response-extra-labels,90,listB,white,man,kiss4,kiss4,rating_volition,BW2 wanted to kiss WW2,WW2 wanted to kiss BW2,89,kiss,different_race,different_race_F,woman,woman,white,black,WW2,BW2,BW2,WW2,woman,black,nondominant,11,11,-39,2948.233250001431,2075.585028156763,232.05746080196687,20,woman,white,White Men,NA,Female Dyads
6133,./study3_prolific_data/6133_WMb.csv,1446.6250000114087,<img src='stim/kiss4.gif' style='height:250px;''></img>,html-slider-response-extra-labels,91,listB,white,man,kiss4,kiss4,rating_causation,BW2 asked to kiss WW2,WW2 asked to kiss BW2,90,kiss,different_race,different_race_F,woman,woman,white,black,WW2,BW2,BW2,WW2,woman,black,nondominant,10,10,-40,2948.233250001431,2075.585028156763,232.05746080196687,20,woman,white,White Men,NA,Female Dyads
6133,./study3_prolific_data/6133_WMb.csv,5203.645000001416,<img src='stim/touch2.gif' style='height:250px;''></img>,html-slider-response-extra-labels,93,listB,white,man,touch2,touch2,rating_causation,BM1 asked to touch BW1,BW1 asked to touch BM1,7,touch,different_gender,different_gender_B,woman,man,black,black,BW1,BM1,BM1,BW1,man,black,dominant,93,7,-43,2948.233250001431,2075.585028156763,232.05746080196687,20,woman,black,White Men,Black Dyads,NA
6133,./study3_prolific_data/6133_WMb.csv,1277.4199999985285,<img src='stim/touch2.gif' style='height:250px;''></img>,html-slider-response-extra-labels,94,listB,white,man,touch2,touch2,rating_volition,BM1 wanted to touch BW1,BW1 wanted to touch BM1,44,touch,different_gender,different_gender_B,woman,man,black,black,BW1,BM1,BM1,BW1,man,black,dominant,56,44,-6,2948.233250001431,2075.585028156763,232.05746080196687,20,woman,black,White Men,Black Dyads,NA
6133,./study3_prolific_data/6133_WMb.csv,1782.165000011446,<img src='stim/touch3.gif' style='height:250px;''></img>,html-slider-response-extra-labels,96,listB,white,man,touch3,touch3,rating_volition,BM1 wanted to touch WM1,WM1 wanted to touch BM1,91,touch,different_race,different_race_M,man,man,white,black,WM1,BM1,BM1,WM1,man,black,nondominant,9,9,-41,2948.233250001431,2075.585028156763,232.05746080196687,20,man,white,White Men,NA,Male Dyads
6133,./study3_prolific_data/6133_WMb.csv,1193.3750000025611,<img src='stim/touch3.gif' style='height:250px;''></img>,html-slider-response-extra-labels,97,listB,white,man,touch3,touch3,rating_causation,BM1 asked to touch WM1,WM1 asked to touchh BM1,45,touch,different_race,different_race_M,man,man,white,black,WM1,BM1,BM1,WM1,man,black,nondominant,55,55,5,2948.233250001431,2075.585028156763,232.05746080196687,20,man,white,White Men,NA,Male Dyads
6133,./study3_prolific_data/6133_WMb.csv,4107.335000007879,<img src='stim/dance1.gif' style='height:250px;''></img>,html-slider-response-extra-labels,99,listB,white,man,dance1,dance1,rating_causation,WW1 asked WM2 to dance,WM2 asked WW1 to dance,15,dance,different_gender,different_gender_W,man,woman,white,white,WM2,WW1,WW1,WM2,woman,white,nondominant,85,85,35,2948.233250001431,2075.585028156763,232.05746080196687,20,man,white,White Men,White Dyads,NA
6133,./study3_prolific_data/6133_WMb.csv,1738.5700000158977,<img src='stim/dance1.gif' style='height:250px;''></img>,html-slider-response-extra-labels,100,listB,white,man,dance1,dance1,rating_volition,WW1 wanted to dance with WM2,WM2 wanted to dance with WW1,37,dance,different_gender,different_gender_W,man,woman,white,white,WM2,WW1,WW1,WM2,woman,white,nondominant,63,63,13,2948.233250001431,2075.585028156763,232.05746080196687,20,man,white,White Men,White Dyads,NA
6133,./study3_prolific_data/6133_WMb.csv,1372.0500000054017,<img src='stim/fight4.gif' style='height:250px;''></img>,html-slider-response-extra-labels,102,listB,white,man,fight4,fight4,rating_volition,BW1 wanted to fight WW1,WW1 wanted to fight BW1,80,fight,different_race,different_race_F,woman,woman,white,black,WW1,BW1,BW1,WW1,woman,black,nondominant,20,20,-30,2948.233250001431,2075.585028156763,232.05746080196687,20,woman,white,White Men,NA,Female Dyads
6133,./study3_prolific_data/6133_WMb.csv,2274.130000005244,<img src='stim/fight4.gif' style='height:250px;''></img>,html-slider-response-extra-labels,103,listB,white,man,fight4,fight4,rating_causation,BW1 started the fight with WW1,WW1 started the fight with BW1,77,fight,different_race,different_race_F,woman,woman,white,black,WW1,BW1,BW1,WW1,woman,black,nondominant,23,23,-27,2948.233250001431,2075.585028156763,232.05746080196687,20,woman,white,White Men,NA,Female Dyads
6133,./study3_prolific_data/6133_WMb.csv,4905.215000006137,<img src='stim/argue2.gif' style='height:250px;''></img>,html-slider-response-extra-labels,105,listB,white,man,argue2,argue2,rating_volition,BW2 wanted to argue with BM1,BM1 wanted to argue with BW2,39,argue,different_gender,different_gender_B,man,woman,black,black,BM1,BW2,BW2,BM1,woman,black,nondominant,61,61,11,2948.233250001431,2075.585028156763,232.05746080196687,20,man,black,White Men,Black Dyads,NA
6133,./study3_prolific_data/6133_WMb.csv,1503.049999999348,<img src='stim/argue2.gif' style='height:250px;''></img>,html-slider-response-extra-labels,106,listB,white,man,argue2,argue2,rating_causation,BW2 started an argument with BM1,BM1 started an argument with BW2,1,argue,different_gender,different_gender_B,man,woman,black,black,BM1,BW2,BW2,BM1,woman,black,nondominant,99,99,49,2948.233250001431,2075.585028156763,232.05746080196687,20,man,black,White Men,Black Dyads,NA
6133,./study3_prolific_data/6133_WMb.csv,4902.715000003809,<img src='stim/play4.gif' style='height:250px;''></img>,html-slider-response-extra-labels,108,listB,white,man,play4,play4,rating_volition,BW1 wanted to play with WW1,WW1 wanted to play with BW1,57,play,different_race,different_race_F,woman,woman,white,black,WW1,BW1,BW1,WW1,woman,black,nondominant,43,43,-7,2948.233250001431,2075.585028156763,232.05746080196687,20,woman,white,White Men,NA,Female Dyads
6133,./study3_prolific_data/6133_WMb.csv,1381.1149999964982,<img src='stim/play4.gif' style='height:250px;''></img>,html-slider-response-extra-labels,109,listB,white,man,play4,play4,rating_causation,BW1 asked to play with WW1,WW1 asked to play with BW1,5,play,different_race,different_race_F,woman,woman,white,black,WW1,BW1,BW1,WW1,woman,black,nondominant,95,95,45,2948.233250001431,2075.585028156763,232.05746080196687,20,woman,white,White Men,NA,Female Dyads
6133,./study3_prolific_data/6133_WMb.csv,5620.7200000062585,<img src='stim/marry4.gif' style='height:250px;''></img>,html-slider-response-extra-labels,111,listB,white,man,marry4,marry4,rating_causation,WW1 asked to marry BW2,BW2 asked to marry WW1,16,marry,different_race,different_race_F,woman,woman,black,white,BW2,WW1,WW1,BW2,woman,white,dominant,84,16,-34,2948.233250001431,2075.585028156763,232.05746080196687,20,woman,black,White Men,NA,Female Dyads
6133,./study3_prolific_data/6133_WMb.csv,882.2649999929126,<img src='stim/marry4.gif' style='height:250px;''></img>,html-slider-response-extra-labels,112,listB,white,man,marry4,marry4,rating_volition,WW1 wanted to marry BW2,BW2 wanted to marry WW1,46,marry,different_race,different_race_F,woman,woman,black,white,BW2,WW1,WW1,BW2,woman,white,dominant,54,46,-4,2948.233250001431,2075.585028156763,232.05746080196687,20,woman,black,White Men,NA,Female Dyads
6133,./study3_prolific_data/6133_WMb.csv,2563.235000008717,<img src='stim/flirt1.gif' style='height:250px;''></img>,html-slider-response-extra-labels,114,listB,white,man,flirt1,flirt1,rating_causation,WW1 started flirting with WM2 first,WM2 started flirting with WW1 first,84,flirt,different_gender,different_gender_W,man,woman,white,white,WM2,WW1,WW1,WM2,woman,white,nondominant,16,16,-34,2948.233250001431,2075.585028156763,232.05746080196687,20,man,white,White Men,White Dyads,NA
6133,./study3_prolific_data/6133_WMb.csv,1728.9400000008754,<img src='stim/flirt1.gif' style='height:250px;''></img>,html-slider-response-extra-labels,115,listB,white,man,flirt1,flirt1,rating_volition,WW1 wanted to flirt with WM2,WM2 wanted to flirt with WW1,47,flirt,different_gender,different_gender_W,man,woman,white,white,WM2,WW1,WW1,WM2,woman,white,nondominant,53,53,3,2948.233250001431,2075.585028156763,232.05746080196687,20,man,white,White Men,White Dyads,NA
