id,rt,stimulus,button_pressed,choices,ChosenStimulus,trial_type,trial_index,time_elapsed,internal_node_id,subject_id,study_id,session_id,subject,list,ppt_gender,url,key_press,sentence_type,verb,test_part,responses,question_order,left_part,right_part,name_order,condition
/Users/lefoll/Documents/UzK/Workshops/Participating/2025_ReplicationGames/like_me_study_reproduction/R_scripts/scripts_and_data_original/Data_Preprocessing_original/EmpathyStudy/full_empathy_data/10811_M.csv,9937.199999988079,NA,NA,NA,NA,survey-likert-extra-labels,8,111018,0.0-7.0-1.0,anomymised,6560c4cfd080ba12b16d8282,6564c8afe758abc3acda9083,10811,1A,man,NA,NA,Somebody says<br><em>Dave and Ruth are meeting each other</em>,meet_conjoined,rating_volition,-0,[0],The speaker identifies more with <br>Dave than Ruth,The speaker identifies more with<br>Ruth than Dave,left_to_right,conjoined
/Users/lefoll/Documents/UzK/Workshops/Participating/2025_ReplicationGames/like_me_study_reproduction/R_scripts/scripts_and_data_original/Data_Preprocessing_original/EmpathyStudy/full_empathy_data/10811_M.csv,10341.300000011921,NA,NA,NA,NA,survey-likert-extra-labels,10,123369,0.0-8.0-1.0,anomymised,6560c4cfd080ba12b16d8282,6564c8afe758abc3acda9083,10811,1A,man,NA,NA,Somebody says<br><em>Fred is hiring Ruth,hire,rating_volition,-2,[0],Fred is employing Ruth,Ruth is employing Fred,NA,catch
/Users/lefoll/Documents/UzK/Workshops/Participating/2025_ReplicationGames/like_me_study_reproduction/R_scripts/scripts_and_data_original/Data_Preprocessing_original/EmpathyStudy/full_empathy_data/10811_M.csv,8671.59999999404,NA,NA,NA,NA,survey-likert-extra-labels,12,134049,0.0-9.0-1.0,anomymised,6560c4cfd080ba12b16d8282,6564c8afe758abc3acda9083,10811,1A,man,NA,NA,Somebody says<br><em>Fred is being opposed by Beth</em>,oppose_passive,rating_volition,1,[0],The speaker identifies more with <br>Beth than Fred,The speaker identifies more with<br>Fred than Beth,right_to_left,passive
/Users/lefoll/Documents/UzK/Workshops/Participating/2025_ReplicationGames/like_me_study_reproduction/R_scripts/scripts_and_data_original/Data_Preprocessing_original/EmpathyStudy/full_empathy_data/10811_M.csv,7374.100000023842,NA,NA,NA,NA,survey-likert-extra-labels,14,143441,0.0-10.0-1.0,anomymised,6560c4cfd080ba12b16d8282,6564c8afe758abc3acda9083,10811,1A,man,NA,NA,Somebody says<br><em>Beth is opposing Fred</em>,oppose_active,rating_volition,1,[0],The speaker identifies more with <br>Fred than Beth,The speaker identifies more with<br>Beth than Fred,right_to_left,active
/Users/lefoll/Documents/UzK/Workshops/Participating/2025_ReplicationGames/like_me_study_reproduction/R_scripts/scripts_and_data_original/Data_Preprocessing_original/EmpathyStudy/full_empathy_data/10811_M.csv,13823.399999976158,NA,NA,NA,NA,survey-likert-extra-labels,16,159275,0.0-11.0-1.0,anomymised,6560c4cfd080ba12b16d8282,6564c8afe758abc3acda9083,10811,1A,man,NA,NA,Somebody says<br><em>Beth is being touched by Ruth</em>,touch_passive,rating_volition,-2,[0],The speaker identifies more with <br>Ruth than Beth,The speaker identifies more with<br>Beth than Ruth,right_to_left,passive
/Users/lefoll/Documents/UzK/Workshops/Participating/2025_ReplicationGames/like_me_study_reproduction/R_scripts/scripts_and_data_original/Data_Preprocessing_original/EmpathyStudy/full_empathy_data/10811_M.csv,4715.299999982119,NA,NA,NA,NA,survey-likert-extra-labels,18,165993,0.0-12.0-1.0,anomymised,6560c4cfd080ba12b16d8282,6564c8afe758abc3acda9083,10811,1A,man,NA,NA,Somebody says<br><em>Ruth and Fred are kissing each other</em>,kiss_conjoined,rating_volition,-0,[0],The speaker identifies more with <br>Ruth than Fred,The speaker identifies more with<br>Fred than Ruth,left_to_right,conjoined
/Users/lefoll/Documents/UzK/Workshops/Participating/2025_ReplicationGames/like_me_study_reproduction/R_scripts/scripts_and_data_original/Data_Preprocessing_original/EmpathyStudy/full_empathy_data/10811_M.csv,7721.5999999940395,NA,NA,NA,NA,survey-likert-extra-labels,20,175725,0.0-13.0-1.0,anomymised,6560c4cfd080ba12b16d8282,6564c8afe758abc3acda9083,10811,1A,man,NA,NA,Somebody says<br><em>Ruth is challenging Mike</em>,challenge_active,rating_volition,-1,[0],The speaker identifies more with <br>Mike than Ruth,The speaker identifies more with<br>Ruth than Mike,right_to_left,active
/Users/lefoll/Documents/UzK/Workshops/Participating/2025_ReplicationGames/like_me_study_reproduction/R_scripts/scripts_and_data_original/Data_Preprocessing_original/EmpathyStudy/full_empathy_data/10811_M.csv,4904,NA,NA,NA,NA,survey-likert-extra-labels,22,182633,0.0-14.0-1.0,anomymised,6560c4cfd080ba12b16d8282,6564c8afe758abc3acda9083,10811,1A,man,NA,NA,Somebody says<br><em>Dave is flirting with Kate</em>,flirt_active,rating_volition,1,[0],The speaker identifies more with <br>Kate than Dave,The speaker identifies more with<br>Dave than Kate,right_to_left,active
/Users/lefoll/Documents/UzK/Workshops/Participating/2025_ReplicationGames/like_me_study_reproduction/R_scripts/scripts_and_data_original/Data_Preprocessing_original/EmpathyStudy/full_empathy_data/10811_M.csv,4144.9000000059605,NA,NA,NA,NA,survey-likert-extra-labels,24,188781,0.0-15.0-1.0,anomymised,6560c4cfd080ba12b16d8282,6564c8afe758abc3acda9083,10811,1A,man,NA,NA,Somebody says<br><em>Jane is teaching Dave,teach,rating_volition,-1,[0],Jane is educating Dave,Dave is educating Jane,NA,catch
/Users/lefoll/Documents/UzK/Workshops/Participating/2025_ReplicationGames/like_me_study_reproduction/R_scripts/scripts_and_data_original/Data_Preprocessing_original/EmpathyStudy/full_empathy_data/10811_M.csv,7749.100000023842,NA,NA,NA,NA,survey-likert-extra-labels,26,198537,0.0-16.0-1.0,anomymised,6560c4cfd080ba12b16d8282,6564c8afe758abc3acda9083,10811,1A,man,NA,NA,Somebody says<br><em>Kate is being hugged by Beth</em>,hug_passive,rating_volition,-1,[0],The speaker identifies more with <br>Kate than Beth,The speaker identifies more with<br>Beth than Kate,left_to_right,passive
/Users/lefoll/Documents/UzK/Workshops/Participating/2025_ReplicationGames/like_me_study_reproduction/R_scripts/scripts_and_data_original/Data_Preprocessing_original/EmpathyStudy/full_empathy_data/10811_M.csv,5832.200000017881,NA,NA,NA,NA,survey-likert-extra-labels,28,206375,0.0-17.0-1.0,anomymised,6560c4cfd080ba12b16d8282,6564c8afe758abc3acda9083,10811,1A,man,NA,NA,Somebody says<br><em>Mike is seducing Jane</em>,seduce_active,rating_volition,-1,[0],The speaker identifies more with <br>Jane than Mike,The speaker identifies more with<br>Mike than Jane,right_to_left,active
/Users/lefoll/Documents/UzK/Workshops/Participating/2025_ReplicationGames/like_me_study_reproduction/R_scripts/scripts_and_data_original/Data_Preprocessing_original/EmpathyStudy/full_empathy_data/10811_M.csv,4125,NA,NA,NA,NA,survey-likert-extra-labels,30,212509,0.0-18.0-1.0,anomymised,6560c4cfd080ba12b16d8282,6564c8afe758abc3acda9083,10811,1A,man,NA,NA,Somebody says<br><em>Ruth is shouting at Luke</em>,shout_active,rating_volition,-1,[0],The speaker identifies more with <br>Luke than Ruth,The speaker identifies more with<br>Ruth than Luke,right_to_left,active
/Users/lefoll/Documents/UzK/Workshops/Participating/2025_ReplicationGames/like_me_study_reproduction/R_scripts/scripts_and_data_original/Data_Preprocessing_original/EmpathyStudy/full_empathy_data/10811_M.csv,3727.9000000059605,NA,NA,NA,NA,survey-likert-extra-labels,32,218238,0.0-19.0-1.0,anomymised,6560c4cfd080ba12b16d8282,6564c8afe758abc3acda9083,10811,1A,man,NA,NA,Somebody says<br><em>Jane is looking at Dave</em>,look_active,rating_volition,1,[0],The speaker identifies more with <br>Dave than Jane,The speaker identifies more with<br>Jane than Dave,right_to_left,active
/Users/lefoll/Documents/UzK/Workshops/Participating/2025_ReplicationGames/like_me_study_reproduction/R_scripts/scripts_and_data_original/Data_Preprocessing_original/EmpathyStudy/full_empathy_data/10811_M.csv,4319.299999982119,NA,NA,NA,NA,survey-likert-extra-labels,34,224561,0.0-20.0-1.0,anomymised,6560c4cfd080ba12b16d8282,6564c8afe758abc3acda9083,10811,1A,man,NA,NA,Somebody says<br><em>Mike is posing for Dave,pose,rating_volition,-2,[0],Mike is modelling for Dave,Dave is modelling for Mike,NA,catch
/Users/lefoll/Documents/UzK/Workshops/Participating/2025_ReplicationGames/like_me_study_reproduction/R_scripts/scripts_and_data_original/Data_Preprocessing_original/EmpathyStudy/full_empathy_data/10811_M.csv,3619.7000000178814,NA,NA,NA,NA,survey-likert-extra-labels,36,230187,0.0-21.0-1.0,anomymised,6560c4cfd080ba12b16d8282,6564c8afe758abc3acda9083,10811,1A,man,NA,NA,Somebody says<br><em>Kate and Fred are shouting at each other</em>,shout_conjoined,rating_volition,-0,[0],The speaker identifies more with <br>Kate than Fred,The speaker identifies more with<br>Fred than Kate,left_to_right,conjoined
/Users/lefoll/Documents/UzK/Workshops/Participating/2025_ReplicationGames/like_me_study_reproduction/R_scripts/scripts_and_data_original/Data_Preprocessing_original/EmpathyStudy/full_empathy_data/10811_M.csv,3451.5999999940395,NA,NA,NA,NA,survey-likert-extra-labels,38,235657,0.0-22.0-1.0,anomymised,6560c4cfd080ba12b16d8282,6564c8afe758abc3acda9083,10811,1A,man,NA,NA,Somebody says<br><em>Beth and Jane are flirting with each other</em>,flirt_conjoined,rating_volition,0,[0],The speaker identifies more with <br>Jane than Beth,The speaker identifies more with<br>Beth than Jane,right_to_left,conjoined
/Users/lefoll/Documents/UzK/Workshops/Participating/2025_ReplicationGames/like_me_study_reproduction/R_scripts/scripts_and_data_original/Data_Preprocessing_original/EmpathyStudy/full_empathy_data/10811_M.csv,2220.7000000178814,NA,NA,NA,NA,survey-likert-extra-labels,40,239895,0.0-23.0-1.0,anomymised,6560c4cfd080ba12b16d8282,6564c8afe758abc3acda9083,10811,1A,man,NA,NA,Somebody says<br><em>Beth and Mike are touching each other</em>,touch_conjoined,rating_volition,0,[0],The speaker identifies more with <br>Mike than Beth,The speaker identifies more with<br>Beth than Mike,right_to_left,conjoined
/Users/lefoll/Documents/UzK/Workshops/Participating/2025_ReplicationGames/like_me_study_reproduction/R_scripts/scripts_and_data_original/Data_Preprocessing_original/EmpathyStudy/full_empathy_data/10811_M.csv,2074.300000011921,NA,NA,NA,NA,survey-likert-extra-labels,42,243991,0.0-24.0-1.0,anomymised,6560c4cfd080ba12b16d8282,6564c8afe758abc3acda9083,10811,1A,man,NA,NA,Somebody says<br><em>Jane and Ruth are hugging each other</em>,hug_conjoined,rating_volition,-0,[0],The speaker identifies more with <br>Jane than Ruth,The speaker identifies more with<br>Ruth than Jane,left_to_right,conjoined
/Users/lefoll/Documents/UzK/Workshops/Participating/2025_ReplicationGames/like_me_study_reproduction/R_scripts/scripts_and_data_original/Data_Preprocessing_original/EmpathyStudy/full_empathy_data/10811_M.csv,2793.0999999940395,NA,NA,NA,NA,survey-likert-extra-labels,44,248789,0.0-25.0-1.0,anomymised,6560c4cfd080ba12b16d8282,6564c8afe758abc3acda9083,10811,1A,man,NA,NA,Somebody says<br><em>Ruth and Dave are arguing with each other</em>,argue_conjoined,rating_volition,0,[0],The speaker identifies more with <br>Dave than Ruth,The speaker identifies more with<br>Ruth than Dave,right_to_left,conjoined
/Users/lefoll/Documents/UzK/Workshops/Participating/2025_ReplicationGames/like_me_study_reproduction/R_scripts/scripts_and_data_original/Data_Preprocessing_original/EmpathyStudy/full_empathy_data/10811_M.csv,5195.800000011921,NA,NA,NA,NA,survey-likert-extra-labels,46,255987,0.0-26.0-1.0,anomymised,6560c4cfd080ba12b16d8282,6564c8afe758abc3acda9083,10811,1A,man,NA,NA,Somebody says<br><em>Jane is being looked at by Beth</em>,look_passive,rating_volition,1,[0],The speaker identifies more with <br>Jane than Beth,The speaker identifies more with<br>Beth than Jane,left_to_right,passive
/Users/lefoll/Documents/UzK/Workshops/Participating/2025_ReplicationGames/like_me_study_reproduction/R_scripts/scripts_and_data_original/Data_Preprocessing_original/EmpathyStudy/full_empathy_data/10811_M.csv,4040.0999999940395,NA,NA,NA,NA,survey-likert-extra-labels,48,262031,0.0-27.0-1.0,anomymised,6560c4cfd080ba12b16d8282,6564c8afe758abc3acda9083,10811,1A,man,NA,NA,Somebody says<br><em>Mike is copying Ruth</em>,copy_active,rating_volition,-1,[0],The speaker identifies more with <br>Ruth than Mike,The speaker identifies more with<br>Mike than Ruth,right_to_left,active
/Users/lefoll/Documents/UzK/Workshops/Participating/2025_ReplicationGames/like_me_study_reproduction/R_scripts/scripts_and_data_original/Data_Preprocessing_original/EmpathyStudy/full_empathy_data/10811_M.csv,4753,NA,NA,NA,NA,survey-likert-extra-labels,50,268788,0.0-28.0-1.0,anomymised,6560c4cfd080ba12b16d8282,6564c8afe758abc3acda9083,10811,1A,man,NA,NA,Somebody says<br><em>Ruth is kissing Kate</em>,kiss_active,rating_volition,2,[0],The speaker identifies more with <br>Ruth than Kate,The speaker identifies more with<br>Kate than Ruth,left_to_right,active
/Users/lefoll/Documents/UzK/Workshops/Participating/2025_ReplicationGames/like_me_study_reproduction/R_scripts/scripts_and_data_original/Data_Preprocessing_original/EmpathyStudy/full_empathy_data/10811_M.csv,3176.800000011921,NA,NA,NA,NA,survey-likert-extra-labels,52,273980,0.0-29.0-1.0,anomymised,6560c4cfd080ba12b16d8282,6564c8afe758abc3acda9083,10811,1A,man,NA,NA,Somebody says<br><em>Jane is carrying Beth,carry,rating_volition,-1,[0],Jane is transporting Beth,Beth is transporting Jane,NA,catch
/Users/lefoll/Documents/UzK/Workshops/Participating/2025_ReplicationGames/like_me_study_reproduction/R_scripts/scripts_and_data_original/Data_Preprocessing_original/EmpathyStudy/full_empathy_data/10811_M.csv,4289.299999982119,NA,NA,NA,NA,survey-likert-extra-labels,54,280294,0.0-30.0-1.0,anomymised,6560c4cfd080ba12b16d8282,6564c8afe758abc3acda9083,10811,1A,man,NA,NA,Somebody says<br><em>Mike is reminding Beth,remind,rating_volition,-1,[0],Mike is telling Beth again,Beth is telling Mike again,NA,catch
/Users/lefoll/Documents/UzK/Workshops/Participating/2025_ReplicationGames/like_me_study_reproduction/R_scripts/scripts_and_data_original/Data_Preprocessing_original/EmpathyStudy/full_empathy_data/10811_M.csv,11980.199999988079,NA,NA,NA,NA,survey-likert-extra-labels,56,294295,0.0-31.0-1.0,anomymised,6560c4cfd080ba12b16d8282,6564c8afe758abc3acda9083,10811,1A,man,NA,NA,Somebody says<br><em>Ruth is chasing Kate,chase,rating_volition,-1,[0],Ruth is behind Kate,Kate is behind Ruth,NA,catch
/Users/lefoll/Documents/UzK/Workshops/Participating/2025_ReplicationGames/like_me_study_reproduction/R_scripts/scripts_and_data_original/Data_Preprocessing_original/EmpathyStudy/full_empathy_data/10811_M.csv,9349.59999999404,NA,NA,NA,NA,survey-likert-extra-labels,58,305653,0.0-32.0-1.0,anomymised,6560c4cfd080ba12b16d8282,6564c8afe758abc3acda9083,10811,1A,man,NA,NA,Somebody says<br><em>Mike is being shouted at by Luke</em>,shout_passive,rating_volition,2,[0],The speaker identifies more with <br>Luke than Mike,The speaker identifies more with<br>Mike than Luke,right_to_left,passive
/Users/lefoll/Documents/UzK/Workshops/Participating/2025_ReplicationGames/like_me_study_reproduction/R_scripts/scripts_and_data_original/Data_Preprocessing_original/EmpathyStudy/full_empathy_data/10811_M.csv,4165,NA,NA,NA,NA,survey-likert-extra-labels,60,311834,0.0-33.0-1.0,anomymised,6560c4cfd080ba12b16d8282,6564c8afe758abc3acda9083,10811,1A,man,NA,NA,Somebody says<br><em>Mike is touching Dave</em>,touch_active,rating_volition,1,[0],The speaker identifies more with <br>Dave than Mike,The speaker identifies more with<br>Mike than Dave,right_to_left,active
/Users/lefoll/Documents/UzK/Workshops/Participating/2025_ReplicationGames/like_me_study_reproduction/R_scripts/scripts_and_data_original/Data_Preprocessing_original/EmpathyStudy/full_empathy_data/10811_M.csv,3919.9000000059605,NA,NA,NA,NA,survey-likert-extra-labels,62,317767,0.0-34.0-1.0,anomymised,6560c4cfd080ba12b16d8282,6564c8afe758abc3acda9083,10811,1A,man,NA,NA,Somebody says<br><em>Beth is playing with Ruth</em>,play_active,rating_volition,1,[0],The speaker identifies more with <br>Ruth than Beth,The speaker identifies more with<br>Beth than Ruth,right_to_left,active
/Users/lefoll/Documents/UzK/Workshops/Participating/2025_ReplicationGames/like_me_study_reproduction/R_scripts/scripts_and_data_original/Data_Preprocessing_original/EmpathyStudy/full_empathy_data/10811_M.csv,3063.199999988079,NA,NA,NA,NA,survey-likert-extra-labels,64,322836,0.0-35.0-1.0,anomymised,6560c4cfd080ba12b16d8282,6564c8afe758abc3acda9083,10811,1A,man,NA,NA,Somebody says<br><em>Mike and Beth are dancing with each other</em>,dance_conjoined,rating_volition,0,[0],The speaker identifies more with <br>Beth than Mike,The speaker identifies more with<br>Mike than Beth,right_to_left,conjoined
/Users/lefoll/Documents/UzK/Workshops/Participating/2025_ReplicationGames/like_me_study_reproduction/R_scripts/scripts_and_data_original/Data_Preprocessing_original/EmpathyStudy/full_empathy_data/10811_M.csv,1367.199999988079,NA,NA,NA,NA,survey-likert-extra-labels,66,326205,0.0-36.0-1.0,anomymised,6560c4cfd080ba12b16d8282,6564c8afe758abc3acda9083,10811,1A,man,NA,NA,Somebody says<br><em>Kate and Fred are playing with each other</em>,play_conjoined,rating_volition,0,[0],The speaker identifies more with <br>Fred than Kate,The speaker identifies more with<br>Kate than Fred,right_to_left,conjoined
/Users/lefoll/Documents/UzK/Workshops/Participating/2025_ReplicationGames/like_me_study_reproduction/R_scripts/scripts_and_data_original/Data_Preprocessing_original/EmpathyStudy/full_empathy_data/10811_M.csv,4476.800000011921,NA,NA,NA,NA,survey-likert-extra-labels,68,332693,0.0-37.0-1.0,anomymised,6560c4cfd080ba12b16d8282,6564c8afe758abc3acda9083,10811,1A,man,NA,NA,Somebody says<br><em>Jane is being challenged by Ruth</em>,challenge_passive,rating_volition,-1,[0],The speaker identifies more with <br>Jane than Ruth,The speaker identifies more with<br>Ruth than Jane,left_to_right,passive
/Users/lefoll/Documents/UzK/Workshops/Participating/2025_ReplicationGames/like_me_study_reproduction/R_scripts/scripts_and_data_original/Data_Preprocessing_original/EmpathyStudy/full_empathy_data/10811_M.csv,5560.9000000059605,NA,NA,NA,NA,survey-likert-extra-labels,70,340271,0.0-38.0-1.0,anomymised,6560c4cfd080ba12b16d8282,6564c8afe758abc3acda9083,10811,1A,man,NA,NA,Somebody says<br><em>Jane is arguing with Luke</em>,argue_active,rating_volition,-1,[0],The speaker identifies more with <br>Luke than Jane,The speaker identifies more with<br>Jane than Luke,right_to_left,active
/Users/lefoll/Documents/UzK/Workshops/Participating/2025_ReplicationGames/like_me_study_reproduction/R_scripts/scripts_and_data_original/Data_Preprocessing_original/EmpathyStudy/full_empathy_data/10811_M.csv,3458.2000000178814,NA,NA,NA,NA,survey-likert-extra-labels,72,345755,0.0-39.0-1.0,anomymised,6560c4cfd080ba12b16d8282,6564c8afe758abc3acda9083,10811,1A,man,NA,NA,Somebody says<br><em>Ruth is shouting at Mike</em>,shout_active,rating_volition,1,[0],The speaker identifies more with <br>Ruth than Mike,The speaker identifies more with<br>Mike than Ruth,left_to_right,active
/Users/lefoll/Documents/UzK/Workshops/Participating/2025_ReplicationGames/like_me_study_reproduction/R_scripts/scripts_and_data_original/Data_Preprocessing_original/EmpathyStudy/full_empathy_data/10811_M.csv,5402,NA,NA,NA,NA,survey-likert-extra-labels,74,353168,0.0-40.0-1.0,anomymised,6560c4cfd080ba12b16d8282,6564c8afe758abc3acda9083,10811,1A,man,NA,NA,Somebody says<br><em>Mike is being copied by Fred</em>,copy_passive,rating_volition,1,[0],The speaker identifies more with <br>Mike than Fred,The speaker identifies more with<br>Fred than Mike,left_to_right,passive
/Users/lefoll/Documents/UzK/Workshops/Participating/2025_ReplicationGames/like_me_study_reproduction/R_scripts/scripts_and_data_original/Data_Preprocessing_original/EmpathyStudy/full_empathy_data/10811_M.csv,2355.0999999940395,NA,NA,NA,NA,survey-likert-extra-labels,76,357539,0.0-41.0-1.0,anomymised,6560c4cfd080ba12b16d8282,6564c8afe758abc3acda9083,10811,1A,man,NA,NA,Somebody says<br><em>Ruth is meeting Luke</em>,meet_active,rating_volition,1,[0],The speaker identifies more with <br>Ruth than Luke,The speaker identifies more with<br>Luke than Ruth,left_to_right,active
/Users/lefoll/Documents/UzK/Workshops/Participating/2025_ReplicationGames/like_me_study_reproduction/R_scripts/scripts_and_data_original/Data_Preprocessing_original/EmpathyStudy/full_empathy_data/10811_M.csv,4330.700000017881,NA,NA,NA,NA,survey-likert-extra-labels,78,363877,0.0-42.0-1.0,anomymised,6560c4cfd080ba12b16d8282,6564c8afe758abc3acda9083,10811,1A,man,NA,NA,Somebody says<br><em>Beth is dancing with Kate</em>,dance_active,rating_volition,1,[0],The speaker identifies more with <br>Beth than Kate,The speaker identifies more with<br>Kate than Beth,left_to_right,active
/Users/lefoll/Documents/UzK/Workshops/Participating/2025_ReplicationGames/like_me_study_reproduction/R_scripts/scripts_and_data_original/Data_Preprocessing_original/EmpathyStudy/full_empathy_data/10811_M.csv,1885.0999999940395,NA,NA,NA,NA,survey-likert-extra-labels,80,367765,0.0-43.0-1.0,anomymised,6560c4cfd080ba12b16d8282,6564c8afe758abc3acda9083,10811,1A,man,NA,NA,Somebody says<br><em>Fred and Dave are marrying each other</em>,marry_conjoined,rating_volition,-0,[0],The speaker identifies more with <br>Fred than Dave,The speaker identifies more with<br>Dave than Fred,left_to_right,conjoined
/Users/lefoll/Documents/UzK/Workshops/Participating/2025_ReplicationGames/like_me_study_reproduction/R_scripts/scripts_and_data_original/Data_Preprocessing_original/EmpathyStudy/full_empathy_data/10811_M.csv,4452.299999982119,NA,NA,NA,NA,survey-likert-extra-labels,82,374233,0.0-44.0-1.0,anomymised,6560c4cfd080ba12b16d8282,6564c8afe758abc3acda9083,10811,1A,man,NA,NA,Somebody says<br><em>Kate is greeting Beth</em>,greet_active,rating_volition,1,[0],The speaker identifies more with <br>Beth than Kate,The speaker identifies more with<br>Kate than Beth,right_to_left,active
/Users/lefoll/Documents/UzK/Workshops/Participating/2025_ReplicationGames/like_me_study_reproduction/R_scripts/scripts_and_data_original/Data_Preprocessing_original/EmpathyStudy/full_empathy_data/10811_M.csv,3511.5999999940395,NA,NA,NA,NA,survey-likert-extra-labels,84,379757,0.0-45.0-1.0,anomymised,6560c4cfd080ba12b16d8282,6564c8afe758abc3acda9083,10811,1A,man,NA,NA,Somebody says<br><em>Luke is talking to Kate</em>,talk_active,rating_volition,1,[0],The speaker identifies more with <br>Kate than Luke,The speaker identifies more with<br>Luke than Kate,right_to_left,active
/Users/lefoll/Documents/UzK/Workshops/Participating/2025_ReplicationGames/like_me_study_reproduction/R_scripts/scripts_and_data_original/Data_Preprocessing_original/EmpathyStudy/full_empathy_data/10811_M.csv,7556.0999999940395,NA,NA,NA,NA,survey-likert-extra-labels,86,389316,0.0-46.0-1.0,anomymised,6560c4cfd080ba12b16d8282,6564c8afe758abc3acda9083,10811,1A,man,NA,NA,Somebody says<br><em>Kate is feeding Luke,feed,rating_volition,-2,[0],Kate cooked for Luke,Luke cooked for Kate,NA,catch
/Users/lefoll/Documents/UzK/Workshops/Participating/2025_ReplicationGames/like_me_study_reproduction/R_scripts/scripts_and_data_original/Data_Preprocessing_original/EmpathyStudy/full_empathy_data/10811_M.csv,9865.09999999404,NA,NA,NA,NA,survey-likert-extra-labels,88,401204,0.0-47.0-1.0,anomymised,6560c4cfd080ba12b16d8282,6564c8afe758abc3acda9083,10811,1A,man,NA,NA,Somebody says<br><em>Luke is driving Fred,drive,rating_volition,2,[0],Luke is Fred's passenger,Fred is Luke's passenger,NA,catch
/Users/lefoll/Documents/UzK/Workshops/Participating/2025_ReplicationGames/like_me_study_reproduction/R_scripts/scripts_and_data_original/Data_Preprocessing_original/EmpathyStudy/full_empathy_data/10811_M.csv,1506.300000011921,NA,NA,NA,NA,survey-likert-extra-labels,90,404732,0.0-48.0-1.0,anomymised,6560c4cfd080ba12b16d8282,6564c8afe758abc3acda9083,10811,1A,man,NA,NA,Somebody says<br><em>Ruth and Dave are talking with each other</em>,talk_conjoined,rating_volition,0,[0],The speaker identifies more with <br>Dave than Ruth,The speaker identifies more with<br>Ruth than Dave,right_to_left,conjoined
/Users/lefoll/Documents/UzK/Workshops/Participating/2025_ReplicationGames/like_me_study_reproduction/R_scripts/scripts_and_data_original/Data_Preprocessing_original/EmpathyStudy/full_empathy_data/10811_M.csv,9709.59999999404,NA,NA,NA,NA,survey-likert-extra-labels,92,416452,0.0-49.0-1.0,anomymised,6560c4cfd080ba12b16d8282,6564c8afe758abc3acda9083,10811,1A,man,NA,NA,Somebody says<br><em>Beth is fighting with Ruth</em>,fight_active,rating_volition,-1,[0],The speaker identifies more with <br>Beth than Ruth,The speaker identifies more with<br>Ruth than Beth,left_to_right,active
/Users/lefoll/Documents/UzK/Workshops/Participating/2025_ReplicationGames/like_me_study_reproduction/R_scripts/scripts_and_data_original/Data_Preprocessing_original/EmpathyStudy/full_empathy_data/10811_M.csv,4407.0999999940395,NA,NA,NA,NA,survey-likert-extra-labels,94,422873,0.0-50.0-1.0,anomymised,6560c4cfd080ba12b16d8282,6564c8afe758abc3acda9083,10811,1A,man,NA,NA,Somebody says<br><em>Ruth is being seduced by Kate</em>,seduce_passive,rating_volition,-1,[0],The speaker identifies more with <br>Kate than Ruth,The speaker identifies more with<br>Ruth than Kate,right_to_left,passive
/Users/lefoll/Documents/UzK/Workshops/Participating/2025_ReplicationGames/like_me_study_reproduction/R_scripts/scripts_and_data_original/Data_Preprocessing_original/EmpathyStudy/full_empathy_data/10811_M.csv,4557.0999999940395,NA,NA,NA,NA,survey-likert-extra-labels,96,429442,0.0-51.0-1.0,anomymised,6560c4cfd080ba12b16d8282,6564c8afe758abc3acda9083,10811,1A,man,NA,NA,Somebody says<br><em>Beth is being kissed by Fred</em>,kiss_passive,rating_volition,-1,[0],The speaker identifies more with <br>Beth than Fred,The speaker identifies more with<br>Fred than Beth,left_to_right,passive
/Users/lefoll/Documents/UzK/Workshops/Participating/2025_ReplicationGames/like_me_study_reproduction/R_scripts/scripts_and_data_original/Data_Preprocessing_original/EmpathyStudy/full_empathy_data/10811_M.csv,5382.5999999940395,NA,NA,NA,NA,survey-likert-extra-labels,98,436833,0.0-52.0-1.0,anomymised,6560c4cfd080ba12b16d8282,6564c8afe758abc3acda9083,10811,1A,man,NA,NA,Somebody says<br><em>Jane is being greeted by Dave</em>,greet_passive,rating_volition,1,[0],The speaker identifies more with <br>Jane than Dave,The speaker identifies more with<br>Dave than Jane,left_to_right,passive
/Users/lefoll/Documents/UzK/Workshops/Participating/2025_ReplicationGames/like_me_study_reproduction/R_scripts/scripts_and_data_original/Data_Preprocessing_original/EmpathyStudy/full_empathy_data/10811_M.csv,3268.9000000059605,NA,NA,NA,NA,survey-likert-extra-labels,100,442107,0.0-53.0-1.0,anomymised,6560c4cfd080ba12b16d8282,6564c8afe758abc3acda9083,10811,1A,man,NA,NA,Somebody says<br><em>Ruth is marrying Fred</em>,marry_active,rating_volition,2,[0],The speaker identifies more with <br>Fred than Ruth,The speaker identifies more with<br>Ruth than Fred,right_to_left,active
/Users/lefoll/Documents/UzK/Workshops/Participating/2025_ReplicationGames/like_me_study_reproduction/R_scripts/scripts_and_data_original/Data_Preprocessing_original/EmpathyStudy/full_empathy_data/10811_M.csv,1295.1000000238419,NA,NA,NA,NA,survey-likert-extra-labels,102,445407,0.0-54.0-1.0,anomymised,6560c4cfd080ba12b16d8282,6564c8afe758abc3acda9083,10811,1A,man,NA,NA,Somebody says<br><em>Jane and Mike are fighting with each other</em>,fight_conjoined,rating_volition,-0,[0],The speaker identifies more with <br>Jane than Mike,The speaker identifies more with<br>Mike than Jane,left_to_right,conjoined
/Users/lefoll/Documents/UzK/Workshops/Participating/2025_ReplicationGames/like_me_study_reproduction/R_scripts/scripts_and_data_original/Data_Preprocessing_original/EmpathyStudy/full_empathy_data/10811_M.csv,4233.699999988079,NA,NA,NA,NA,survey-likert-extra-labels,104,451659,0.0-55.0-1.0,anomymised,6560c4cfd080ba12b16d8282,6564c8afe758abc3acda9083,10811,1A,man,NA,NA,Somebody says<br><em>Dave is hugging Kate</em>,hug_active,rating_volition,-1,[0],The speaker identifies more with <br>Kate than Dave,The speaker identifies more with<br>Dave than Kate,right_to_left,active
/Users/lefoll/Documents/UzK/Workshops/Participating/2025_ReplicationGames/like_me_study_reproduction/R_scripts/scripts_and_data_original/Data_Preprocessing_original/EmpathyStudy/full_empathy_data/11421_W.csv,13511.400000002235,NA,NA,NA,NA,survey-likert-extra-labels,8,166579,0.0-7.0-1.0,anomymised,6564584152624795c40b73cb,6564bdab9218a38ad04ae0c3,11421,1A,woman,NA,NA,Somebody says<br><em>Mike and Fred are hugging each other</em>,hug_conjoined,rating_volition,2,[0],The speaker identifies more with <br>Mike than Fred,The speaker identifies more with<br>Fred than Mike,left_to_right,conjoined
/Users/lefoll/Documents/UzK/Workshops/Participating/2025_ReplicationGames/like_me_study_reproduction/R_scripts/scripts_and_data_original/Data_Preprocessing_original/EmpathyStudy/full_empathy_data/11421_W.csv,9905.10000000149,NA,NA,NA,NA,survey-likert-extra-labels,10,178492,0.0-8.0-1.0,anomymised,6564584152624795c40b73cb,6564bdab9218a38ad04ae0c3,11421,1A,woman,NA,NA,Somebody says<br><em>Dave is dancing with Kate</em>,dance_active,rating_volition,2,[0],The speaker identifies more with <br>Dave than Kate,The speaker identifies more with<br>Kate than Dave,left_to_right,active
/Users/lefoll/Documents/UzK/Workshops/Participating/2025_ReplicationGames/like_me_study_reproduction/R_scripts/scripts_and_data_original/Data_Preprocessing_original/EmpathyStudy/full_empathy_data/11421_W.csv,7738.60000000149,NA,NA,NA,NA,survey-likert-extra-labels,12,188237,0.0-9.0-1.0,anomymised,6564584152624795c40b73cb,6564bdab9218a38ad04ae0c3,11421,1A,woman,NA,NA,Somebody says<br><em>Dave is being kissed by Mike</em>,kiss_passive,rating_volition,2,[0],The speaker identifies more with <br>Mike than Dave,The speaker identifies more with<br>Dave than Mike,right_to_left,passive
/Users/lefoll/Documents/UzK/Workshops/Participating/2025_ReplicationGames/like_me_study_reproduction/R_scripts/scripts_and_data_original/Data_Preprocessing_original/EmpathyStudy/full_empathy_data/11421_W.csv,7673.5,NA,NA,NA,NA,survey-likert-extra-labels,14,197914,0.0-10.0-1.0,anomymised,6564584152624795c40b73cb,6564bdab9218a38ad04ae0c3,11421,1A,woman,NA,NA,Somebody says<br><em>Luke and Fred are arguing with each other</em>,argue_conjoined,rating_volition,3,[0],The speaker identifies more with <br>Luke than Fred,The speaker identifies more with<br>Fred than Luke,left_to_right,conjoined
/Users/lefoll/Documents/UzK/Workshops/Participating/2025_ReplicationGames/like_me_study_reproduction/R_scripts/scripts_and_data_original/Data_Preprocessing_original/EmpathyStudy/full_empathy_data/11421_W.csv,17409.5,NA,NA,NA,NA,survey-likert-extra-labels,16,217331,0.0-11.0-1.0,anomymised,6564584152624795c40b73cb,6564bdab9218a38ad04ae0c3,11421,1A,woman,NA,NA,Somebody says<br><em>Ruth is shouting at Fred</em>,shout_active,rating_volition,0,[0],The speaker identifies more with <br>Fred than Ruth,The speaker identifies more with<br>Ruth than Fred,right_to_left,active
/Users/lefoll/Documents/UzK/Workshops/Participating/2025_ReplicationGames/like_me_study_reproduction/R_scripts/scripts_and_data_original/Data_Preprocessing_original/EmpathyStudy/full_empathy_data/11421_W.csv,7929.400000002235,NA,NA,NA,NA,survey-likert-extra-labels,18,227267,0.0-12.0-1.0,anomymised,6564584152624795c40b73cb,6564bdab9218a38ad04ae0c3,11421,1A,woman,NA,NA,Somebody says<br><em>Ruth is challenging Kate</em>,challenge_active,rating_volition,1,[0],The speaker identifies more with <br>Ruth than Kate,The speaker identifies more with<br>Kate than Ruth,left_to_right,active
/Users/lefoll/Documents/UzK/Workshops/Participating/2025_ReplicationGames/like_me_study_reproduction/R_scripts/scripts_and_data_original/Data_Preprocessing_original/EmpathyStudy/full_empathy_data/11421_W.csv,15859.400000002235,NA,NA,NA,NA,survey-likert-extra-labels,20,245146,0.0-13.0-1.0,anomymised,6564584152624795c40b73cb,6564bdab9218a38ad04ae0c3,11421,1A,woman,NA,NA,Somebody says<br><em>Fred is copying Beth</em>,copy_active,rating_volition,-1,[0],The speaker identifies more with <br>Beth than Fred,The speaker identifies more with<br>Fred than Beth,right_to_left,active
/Users/lefoll/Documents/UzK/Workshops/Participating/2025_ReplicationGames/like_me_study_reproduction/R_scripts/scripts_and_data_original/Data_Preprocessing_original/EmpathyStudy/full_empathy_data/11421_W.csv,4546,NA,NA,NA,NA,survey-likert-extra-labels,22,251698,0.0-14.0-1.0,anomymised,6564584152624795c40b73cb,6564bdab9218a38ad04ae0c3,11421,1A,woman,NA,NA,Somebody says<br><em>Jane is hugging Beth</em>,hug_active,rating_volition,3,[0],The speaker identifies more with <br>Beth than Jane,The speaker identifies more with<br>Jane than Beth,right_to_left,active
/Users/lefoll/Documents/UzK/Workshops/Participating/2025_ReplicationGames/like_me_study_reproduction/R_scripts/scripts_and_data_original/Data_Preprocessing_original/EmpathyStudy/full_empathy_data/11421_W.csv,10476.800000000745,NA,NA,NA,NA,survey-likert-extra-labels,24,264187,0.0-15.0-1.0,anomymised,6564584152624795c40b73cb,6564bdab9218a38ad04ae0c3,11421,1A,woman,NA,NA,Somebody says<br><em>Luke is driving Fred,drive,rating_volition,-2,[0],Luke is Fred's passenger,Fred is Luke's passenger,NA,catch
/Users/lefoll/Documents/UzK/Workshops/Participating/2025_ReplicationGames/like_me_study_reproduction/R_scripts/scripts_and_data_original/Data_Preprocessing_original/EmpathyStudy/full_empathy_data/11421_W.csv,6356.60000000149,NA,NA,NA,NA,survey-likert-extra-labels,26,272564,0.0-16.0-1.0,anomymised,6564584152624795c40b73cb,6564bdab9218a38ad04ae0c3,11421,1A,woman,NA,NA,Somebody says<br><em>Jane and Fred are fighting with each other</em>,fight_conjoined,rating_volition,2,[0],The speaker identifies more with <br>Fred than Jane,The speaker identifies more with<br>Jane than Fred,right_to_left,conjoined
/Users/lefoll/Documents/UzK/Workshops/Participating/2025_ReplicationGames/like_me_study_reproduction/R_scripts/scripts_and_data_original/Data_Preprocessing_original/EmpathyStudy/full_empathy_data/11421_W.csv,21207.699999999255,NA,NA,NA,NA,survey-likert-extra-labels,28,295778,0.0-17.0-1.0,anomymised,6564584152624795c40b73cb,6564bdab9218a38ad04ae0c3,11421,1A,woman,NA,NA,Somebody says<br><em>Beth is being hugged by Ruth</em>,hug_passive,rating_volition,1,[0],The speaker identifies more with <br>Beth than Ruth,The speaker identifies more with<br>Ruth than Beth,left_to_right,passive
/Users/lefoll/Documents/UzK/Workshops/Participating/2025_ReplicationGames/like_me_study_reproduction/R_scripts/scripts_and_data_original/Data_Preprocessing_original/EmpathyStudy/full_empathy_data/11421_W.csv,5470.39999999851,NA,NA,NA,NA,survey-likert-extra-labels,30,303259,0.0-18.0-1.0,anomymised,6564584152624795c40b73cb,6564bdab9218a38ad04ae0c3,11421,1A,woman,NA,NA,Somebody says<br><em>Beth is being copied by Luke</em>,copy_passive,rating_volition,1,[0],The speaker identifies more with <br>Luke than Beth,The speaker identifies more with<br>Beth than Luke,right_to_left,passive
/Users/lefoll/Documents/UzK/Workshops/Participating/2025_ReplicationGames/like_me_study_reproduction/R_scripts/scripts_and_data_original/Data_Preprocessing_original/EmpathyStudy/full_empathy_data/11421_W.csv,8532.699999999255,NA,NA,NA,NA,survey-likert-extra-labels,32,313803,0.0-19.0-1.0,anomymised,6564584152624795c40b73cb,6564bdab9218a38ad04ae0c3,11421,1A,woman,NA,NA,Somebody says<br><em>Jane is opposing Ruth</em>,oppose_active,rating_volition,2,[0],The speaker identifies more with <br>Ruth than Jane,The speaker identifies more with<br>Jane than Ruth,right_to_left,active
/Users/lefoll/Documents/UzK/Workshops/Participating/2025_ReplicationGames/like_me_study_reproduction/R_scripts/scripts_and_data_original/Data_Preprocessing_original/EmpathyStudy/full_empathy_data/11421_W.csv,9377.5,NA,NA,NA,NA,survey-likert-extra-labels,34,325210,0.0-20.0-1.0,anomymised,6564584152624795c40b73cb,6564bdab9218a38ad04ae0c3,11421,1A,woman,NA,NA,Somebody says<br><em>Fred is touching Jane</em>,touch_active,rating_volition,-1,[0],The speaker identifies more with <br>Jane than Fred,The speaker identifies more with<br>Fred than Jane,right_to_left,active
/Users/lefoll/Documents/UzK/Workshops/Participating/2025_ReplicationGames/like_me_study_reproduction/R_scripts/scripts_and_data_original/Data_Preprocessing_original/EmpathyStudy/full_empathy_data/11421_W.csv,5096.699999999255,NA,NA,NA,NA,survey-likert-extra-labels,36,332314,0.0-21.0-1.0,anomymised,6564584152624795c40b73cb,6564bdab9218a38ad04ae0c3,11421,1A,woman,NA,NA,Somebody says<br><em>Beth is arguing with Jane</em>,argue_active,rating_volition,2,[0],The speaker identifies more with <br>Jane than Beth,The speaker identifies more with<br>Beth than Jane,right_to_left,active
/Users/lefoll/Documents/UzK/Workshops/Participating/2025_ReplicationGames/like_me_study_reproduction/R_scripts/scripts_and_data_original/Data_Preprocessing_original/EmpathyStudy/full_empathy_data/11421_W.csv,4106.60000000149,NA,NA,NA,NA,survey-likert-extra-labels,38,338427,0.0-22.0-1.0,anomymised,6564584152624795c40b73cb,6564bdab9218a38ad04ae0c3,11421,1A,woman,NA,NA,Somebody says<br><em>Luke and Dave are talking with each other</em>,talk_conjoined,rating_volition,3,[0],The speaker identifies more with <br>Luke than Dave,The speaker identifies more with<br>Dave than Luke,left_to_right,conjoined
/Users/lefoll/Documents/UzK/Workshops/Participating/2025_ReplicationGames/like_me_study_reproduction/R_scripts/scripts_and_data_original/Data_Preprocessing_original/EmpathyStudy/full_empathy_data/11421_W.csv,3947.300000000745,NA,NA,NA,NA,survey-likert-extra-labels,40,344378,0.0-23.0-1.0,anomymised,6564584152624795c40b73cb,6564bdab9218a38ad04ae0c3,11421,1A,woman,NA,NA,Somebody says<br><em>Beth and Mike are dancing with each other</em>,dance_conjoined,rating_volition,2,[0],The speaker identifies more with <br>Beth than Mike,The speaker identifies more with<br>Mike than Beth,left_to_right,conjoined
/Users/lefoll/Documents/UzK/Workshops/Participating/2025_ReplicationGames/like_me_study_reproduction/R_scripts/scripts_and_data_original/Data_Preprocessing_original/EmpathyStudy/full_empathy_data/11421_W.csv,2573.199999999255,NA,NA,NA,NA,survey-likert-extra-labels,42,348956,0.0-24.0-1.0,anomymised,6564584152624795c40b73cb,6564bdab9218a38ad04ae0c3,11421,1A,woman,NA,NA,Somebody says<br><em>Mike is marrying Fred</em>,marry_active,rating_volition,3,[0],The speaker identifies more with <br>Fred than Mike,The speaker identifies more with<br>Mike than Fred,right_to_left,active
/Users/lefoll/Documents/UzK/Workshops/Participating/2025_ReplicationGames/like_me_study_reproduction/R_scripts/scripts_and_data_original/Data_Preprocessing_original/EmpathyStudy/full_empathy_data/11421_W.csv,5005.199999999255,NA,NA,NA,NA,survey-likert-extra-labels,44,355972,0.0-25.0-1.0,anomymised,6564584152624795c40b73cb,6564bdab9218a38ad04ae0c3,11421,1A,woman,NA,NA,Somebody says<br><em>Beth and Fred are shouting at each other</em>,shout_conjoined,rating_volition,2,[0],The speaker identifies more with <br>Fred than Beth,The speaker identifies more with<br>Beth than Fred,right_to_left,conjoined
/Users/lefoll/Documents/UzK/Workshops/Participating/2025_ReplicationGames/like_me_study_reproduction/R_scripts/scripts_and_data_original/Data_Preprocessing_original/EmpathyStudy/full_empathy_data/11421_W.csv,4385.5,NA,NA,NA,NA,survey-likert-extra-labels,46,362370,0.0-26.0-1.0,anomymised,6564584152624795c40b73cb,6564bdab9218a38ad04ae0c3,11421,1A,woman,NA,NA,Somebody says<br><em>Mike is shouting at Kate</em>,shout_active,rating_volition,-0,[0],The speaker identifies more with <br>Mike than Kate,The speaker identifies more with<br>Kate than Mike,left_to_right,active
/Users/lefoll/Documents/UzK/Workshops/Participating/2025_ReplicationGames/like_me_study_reproduction/R_scripts/scripts_and_data_original/Data_Preprocessing_original/EmpathyStudy/full_empathy_data/11421_W.csv,8259.800000000745,NA,NA,NA,NA,survey-likert-extra-labels,48,372642,0.0-27.0-1.0,anomymised,6564584152624795c40b73cb,6564bdab9218a38ad04ae0c3,11421,1A,woman,NA,NA,Somebody says<br><em>Dave is being touched by Luke</em>,touch_passive,rating_volition,2,[0],The speaker identifies more with <br>Dave than Luke,The speaker identifies more with<br>Luke than Dave,left_to_right,passive
/Users/lefoll/Documents/UzK/Workshops/Participating/2025_ReplicationGames/like_me_study_reproduction/R_scripts/scripts_and_data_original/Data_Preprocessing_original/EmpathyStudy/full_empathy_data/11421_W.csv,4939.79999999702,NA,NA,NA,NA,survey-likert-extra-labels,50,379587,0.0-28.0-1.0,anomymised,6564584152624795c40b73cb,6564bdab9218a38ad04ae0c3,11421,1A,woman,NA,NA,Somebody says<br><em>Luke is being greeted by Dave</em>,greet_passive,rating_volition,3,[0],The speaker identifies more with <br>Luke than Dave,The speaker identifies more with<br>Dave than Luke,left_to_right,passive
/Users/lefoll/Documents/UzK/Workshops/Participating/2025_ReplicationGames/like_me_study_reproduction/R_scripts/scripts_and_data_original/Data_Preprocessing_original/EmpathyStudy/full_empathy_data/11421_W.csv,3453.300000000745,NA,NA,NA,NA,survey-likert-extra-labels,52,385050,0.0-29.0-1.0,anomymised,6564584152624795c40b73cb,6564bdab9218a38ad04ae0c3,11421,1A,woman,NA,NA,Somebody says<br><em>Kate is meeting Jane</em>,meet_active,rating_volition,3,[0],The speaker identifies more with <br>Kate than Jane,The speaker identifies more with<br>Jane than Kate,left_to_right,active
/Users/lefoll/Documents/UzK/Workshops/Participating/2025_ReplicationGames/like_me_study_reproduction/R_scripts/scripts_and_data_original/Data_Preprocessing_original/EmpathyStudy/full_empathy_data/11421_W.csv,4555.300000000745,NA,NA,NA,NA,survey-likert-extra-labels,54,391611,0.0-30.0-1.0,anomymised,6564584152624795c40b73cb,6564bdab9218a38ad04ae0c3,11421,1A,woman,NA,NA,Somebody says<br><em>Mike is being challenged by Dave</em>,challenge_passive,rating_volition,1,[0],The speaker identifies more with <br>Dave than Mike,The speaker identifies more with<br>Mike than Dave,right_to_left,passive
/Users/lefoll/Documents/UzK/Workshops/Participating/2025_ReplicationGames/like_me_study_reproduction/R_scripts/scripts_and_data_original/Data_Preprocessing_original/EmpathyStudy/full_empathy_data/11421_W.csv,5193.599999997765,NA,NA,NA,NA,survey-likert-extra-labels,56,398810,0.0-31.0-1.0,anomymised,6564584152624795c40b73cb,6564bdab9218a38ad04ae0c3,11421,1A,woman,NA,NA,Somebody says<br><em>Jane is seducing Beth</em>,seduce_active,rating_volition,-1,[0],The speaker identifies more with <br>Beth than Jane,The speaker identifies more with<br>Jane than Beth,right_to_left,active
/Users/lefoll/Documents/UzK/Workshops/Participating/2025_ReplicationGames/like_me_study_reproduction/R_scripts/scripts_and_data_original/Data_Preprocessing_original/EmpathyStudy/full_empathy_data/11421_W.csv,5347,NA,NA,NA,NA,survey-likert-extra-labels,58,406162,0.0-32.0-1.0,anomymised,6564584152624795c40b73cb,6564bdab9218a38ad04ae0c3,11421,1A,woman,NA,NA,Somebody says<br><em>Dave and Jane are flirting with each other</em>,flirt_conjoined,rating_volition,3,[0],The speaker identifies more with <br>Dave than Jane,The speaker identifies more with<br>Jane than Dave,left_to_right,conjoined
/Users/lefoll/Documents/UzK/Workshops/Participating/2025_ReplicationGames/like_me_study_reproduction/R_scripts/scripts_and_data_original/Data_Preprocessing_original/EmpathyStudy/full_empathy_data/11421_W.csv,7197.300000000745,NA,NA,NA,NA,survey-likert-extra-labels,60,415380,0.0-33.0-1.0,anomymised,6564584152624795c40b73cb,6564bdab9218a38ad04ae0c3,11421,1A,woman,NA,NA,Somebody says<br><em>Mike is reminding Beth,remind,rating_volition,-3,[0],Mike is telling Beth again,Beth is telling Mike again,NA,catch
/Users/lefoll/Documents/UzK/Workshops/Participating/2025_ReplicationGames/like_me_study_reproduction/R_scripts/scripts_and_data_original/Data_Preprocessing_original/EmpathyStudy/full_empathy_data/11421_W.csv,6212,NA,NA,NA,NA,survey-likert-extra-labels,62,423597,0.0-34.0-1.0,anomymised,6564584152624795c40b73cb,6564bdab9218a38ad04ae0c3,11421,1A,woman,NA,NA,Somebody says<br><em>Mike is kissing Luke</em>,kiss_active,rating_volition,2,[0],The speaker identifies more with <br>Luke than Mike,The speaker identifies more with<br>Mike than Luke,right_to_left,active
/Users/lefoll/Documents/UzK/Workshops/Participating/2025_ReplicationGames/like_me_study_reproduction/R_scripts/scripts_and_data_original/Data_Preprocessing_original/EmpathyStudy/full_empathy_data/11421_W.csv,19296.60000000149,NA,NA,NA,NA,survey-likert-extra-labels,64,444900,0.0-35.0-1.0,anomymised,6564584152624795c40b73cb,6564bdab9218a38ad04ae0c3,11421,1A,woman,NA,NA,Somebody says<br><em>Kate is being shouted at by Dave</em>,shout_passive,rating_volition,-0,[0],The speaker identifies more with <br>Kate than Dave,The speaker identifies more with<br>Dave than Kate,left_to_right,passive
/Users/lefoll/Documents/UzK/Workshops/Participating/2025_ReplicationGames/like_me_study_reproduction/R_scripts/scripts_and_data_original/Data_Preprocessing_original/EmpathyStudy/full_empathy_data/11421_W.csv,121606.19999999925,NA,NA,NA,NA,survey-likert-extra-labels,66,568514,0.0-36.0-1.0,anomymised,6564584152624795c40b73cb,6564bdab9218a38ad04ae0c3,11421,1A,woman,NA,NA,Somebody says<br><em>Kate and Fred are kissing each other</em>,kiss_conjoined,rating_volition,2,[0],The speaker identifies more with <br>Fred than Kate,The speaker identifies more with<br>Kate than Fred,right_to_left,conjoined
/Users/lefoll/Documents/UzK/Workshops/Participating/2025_ReplicationGames/like_me_study_reproduction/R_scripts/scripts_and_data_original/Data_Preprocessing_original/EmpathyStudy/full_empathy_data/11421_W.csv,5172,NA,NA,NA,NA,survey-likert-extra-labels,68,575690,0.0-37.0-1.0,anomymised,6564584152624795c40b73cb,6564bdab9218a38ad04ae0c3,11421,1A,woman,NA,NA,Somebody says<br><em>Kate and Luke are playing with each other</em>,play_conjoined,rating_volition,3,[0],The speaker identifies more with <br>Luke than Kate,The speaker identifies more with<br>Kate than Luke,right_to_left,conjoined
/Users/lefoll/Documents/UzK/Workshops/Participating/2025_ReplicationGames/like_me_study_reproduction/R_scripts/scripts_and_data_original/Data_Preprocessing_original/EmpathyStudy/full_empathy_data/11421_W.csv,10070.400000002235,NA,NA,NA,NA,survey-likert-extra-labels,70,587771,0.0-38.0-1.0,anomymised,6564584152624795c40b73cb,6564bdab9218a38ad04ae0c3,11421,1A,woman,NA,NA,Somebody says<br><em>Jane is carrying Beth,carry,rating_volition,-3,[0],Jane is transporting Beth,Beth is transporting Jane,NA,catch
/Users/lefoll/Documents/UzK/Workshops/Participating/2025_ReplicationGames/like_me_study_reproduction/R_scripts/scripts_and_data_original/Data_Preprocessing_original/EmpathyStudy/full_empathy_data/11421_W.csv,3569.599999997765,NA,NA,NA,NA,survey-likert-extra-labels,72,593348,0.0-39.0-1.0,anomymised,6564584152624795c40b73cb,6564bdab9218a38ad04ae0c3,11421,1A,woman,NA,NA,Somebody says<br><em>Jane is teaching Dave,teach,rating_volition,-3,[0],Jane is educating Dave,Dave is educating Jane,NA,catch
/Users/lefoll/Documents/UzK/Workshops/Participating/2025_ReplicationGames/like_me_study_reproduction/R_scripts/scripts_and_data_original/Data_Preprocessing_original/EmpathyStudy/full_empathy_data/11421_W.csv,9729.599999997765,NA,NA,NA,NA,survey-likert-extra-labels,74,605082,0.0-40.0-1.0,anomymised,6564584152624795c40b73cb,6564bdab9218a38ad04ae0c3,11421,1A,woman,NA,NA,Somebody says<br><em>Kate is talking to Mike</em>,talk_active,rating_volition,3,[0],The speaker identifies more with <br>Mike than Kate,The speaker identifies more with<br>Kate than Mike,right_to_left,active
/Users/lefoll/Documents/UzK/Workshops/Participating/2025_ReplicationGames/like_me_study_reproduction/R_scripts/scripts_and_data_original/Data_Preprocessing_original/EmpathyStudy/full_empathy_data/11421_W.csv,4122.5,NA,NA,NA,NA,survey-likert-extra-labels,76,611210,0.0-41.0-1.0,anomymised,6564584152624795c40b73cb,6564bdab9218a38ad04ae0c3,11421,1A,woman,NA,NA,Somebody says<br><em>Jane is fighting with Ruth</em>,fight_active,rating_volition,2,[0],The speaker identifies more with <br>Jane than Ruth,The speaker identifies more with<br>Ruth than Jane,left_to_right,active
/Users/lefoll/Documents/UzK/Workshops/Participating/2025_ReplicationGames/like_me_study_reproduction/R_scripts/scripts_and_data_original/Data_Preprocessing_original/EmpathyStudy/full_empathy_data/11421_W.csv,9162.5,NA,NA,NA,NA,survey-likert-extra-labels,78,622380,0.0-42.0-1.0,anomymised,6564584152624795c40b73cb,6564bdab9218a38ad04ae0c3,11421,1A,woman,NA,NA,Somebody says<br><em>Ruth is chasing Kate,chase,rating_volition,-3,[0],Ruth is behind Kate,Kate is behind Ruth,NA,catch
/Users/lefoll/Documents/UzK/Workshops/Participating/2025_ReplicationGames/like_me_study_reproduction/R_scripts/scripts_and_data_original/Data_Preprocessing_original/EmpathyStudy/full_empathy_data/11421_W.csv,7074.89999999851,NA,NA,NA,NA,survey-likert-extra-labels,80,631466,0.0-43.0-1.0,anomymised,6564584152624795c40b73cb,6564bdab9218a38ad04ae0c3,11421,1A,woman,NA,NA,Somebody says<br><em>Kate is being looked at by Dave</em>,look_passive,rating_volition,3,[0],The speaker identifies more with <br>Dave than Kate,The speaker identifies more with<br>Kate than Dave,right_to_left,passive
/Users/lefoll/Documents/UzK/Workshops/Participating/2025_ReplicationGames/like_me_study_reproduction/R_scripts/scripts_and_data_original/Data_Preprocessing_original/EmpathyStudy/full_empathy_data/11421_W.csv,4315.70000000298,NA,NA,NA,NA,survey-likert-extra-labels,82,637788,0.0-44.0-1.0,anomymised,6564584152624795c40b73cb,6564bdab9218a38ad04ae0c3,11421,1A,woman,NA,NA,Somebody says<br><em>Ruth is being seduced by Jane</em>,seduce_passive,rating_volition,2,[0],The speaker identifies more with <br>Ruth than Jane,The speaker identifies more with<br>Jane than Ruth,left_to_right,passive
/Users/lefoll/Documents/UzK/Workshops/Participating/2025_ReplicationGames/like_me_study_reproduction/R_scripts/scripts_and_data_original/Data_Preprocessing_original/EmpathyStudy/full_empathy_data/11421_W.csv,4737.900000002235,NA,NA,NA,NA,survey-likert-extra-labels,84,644531,0.0-45.0-1.0,anomymised,6564584152624795c40b73cb,6564bdab9218a38ad04ae0c3,11421,1A,woman,NA,NA,Somebody says<br><em>Mike is posing for Dave,pose,rating_volition,-3,[0],Mike is modelling for Dave,Dave is modelling for Mike,NA,catch
/Users/lefoll/Documents/UzK/Workshops/Participating/2025_ReplicationGames/like_me_study_reproduction/R_scripts/scripts_and_data_original/Data_Preprocessing_original/EmpathyStudy/full_empathy_data/11421_W.csv,6847.400000002235,NA,NA,NA,NA,survey-likert-extra-labels,86,653386,0.0-46.0-1.0,anomymised,6564584152624795c40b73cb,6564bdab9218a38ad04ae0c3,11421,1A,woman,NA,NA,Somebody says<br><em>Beth and Jane are touching each other</em>,touch_conjoined,rating_volition,2,[0],The speaker identifies more with <br>Beth than Jane,The speaker identifies more with<br>Jane than Beth,left_to_right,conjoined
/Users/lefoll/Documents/UzK/Workshops/Participating/2025_ReplicationGames/like_me_study_reproduction/R_scripts/scripts_and_data_original/Data_Preprocessing_original/EmpathyStudy/full_empathy_data/11421_W.csv,5459.60000000149,NA,NA,NA,NA,survey-likert-extra-labels,88,660849,0.0-47.0-1.0,anomymised,6564584152624795c40b73cb,6564bdab9218a38ad04ae0c3,11421,1A,woman,NA,NA,Somebody says<br><em>Fred is greeting Kate</em>,greet_active,rating_volition,3,[0],The speaker identifies more with <br>Kate than Fred,The speaker identifies more with<br>Fred than Kate,right_to_left,active
/Users/lefoll/Documents/UzK/Workshops/Participating/2025_ReplicationGames/like_me_study_reproduction/R_scripts/scripts_and_data_original/Data_Preprocessing_original/EmpathyStudy/full_empathy_data/11421_W.csv,4602.800000000745,NA,NA,NA,NA,survey-likert-extra-labels,90,667458,0.0-48.0-1.0,anomymised,6564584152624795c40b73cb,6564bdab9218a38ad04ae0c3,11421,1A,woman,NA,NA,Somebody says<br><em>Luke is being opposed by Jane</em>,oppose_passive,rating_volition,3,[0],The speaker identifies more with <br>Jane than Luke,The speaker identifies more with<br>Luke than Jane,right_to_left,passive
/Users/lefoll/Documents/UzK/Workshops/Participating/2025_ReplicationGames/like_me_study_reproduction/R_scripts/scripts_and_data_original/Data_Preprocessing_original/EmpathyStudy/full_empathy_data/11421_W.csv,7958.10000000149,NA,NA,NA,NA,survey-likert-extra-labels,92,677420,0.0-49.0-1.0,anomymised,6564584152624795c40b73cb,6564bdab9218a38ad04ae0c3,11421,1A,woman,NA,NA,Somebody says<br><em>Jane and Ruth are meeting each other</em>,meet_conjoined,rating_volition,2,[0],The speaker identifies more with <br>Jane than Ruth,The speaker identifies more with<br>Ruth than Jane,left_to_right,conjoined
/Users/lefoll/Documents/UzK/Workshops/Participating/2025_ReplicationGames/like_me_study_reproduction/R_scripts/scripts_and_data_original/Data_Preprocessing_original/EmpathyStudy/full_empathy_data/11421_W.csv,3377.5,NA,NA,NA,NA,survey-likert-extra-labels,94,682803,0.0-50.0-1.0,anomymised,6564584152624795c40b73cb,6564bdab9218a38ad04ae0c3,11421,1A,woman,NA,NA,Somebody says<br><em>Mike is playing with Beth</em>,play_active,rating_volition,2,[0],The speaker identifies more with <br>Mike than Beth,The speaker identifies more with<br>Beth than Mike,left_to_right,active
/Users/lefoll/Documents/UzK/Workshops/Participating/2025_ReplicationGames/like_me_study_reproduction/R_scripts/scripts_and_data_original/Data_Preprocessing_original/EmpathyStudy/full_empathy_data/11421_W.csv,3548.2000000029802,NA,NA,NA,NA,survey-likert-extra-labels,96,688355,0.0-51.0-1.0,anomymised,6564584152624795c40b73cb,6564bdab9218a38ad04ae0c3,11421,1A,woman,NA,NA,Somebody says<br><em>Fred is hiring Ruth,hire,rating_volition,-3,[0],Fred is employing Ruth,Ruth is employing Fred,NA,catch
/Users/lefoll/Documents/UzK/Workshops/Participating/2025_ReplicationGames/like_me_study_reproduction/R_scripts/scripts_and_data_original/Data_Preprocessing_original/EmpathyStudy/full_empathy_data/11421_W.csv,5048.79999999702,NA,NA,NA,NA,survey-likert-extra-labels,98,695409,0.0-52.0-1.0,anomymised,6564584152624795c40b73cb,6564bdab9218a38ad04ae0c3,11421,1A,woman,NA,NA,Somebody says<br><em>Kate is looking at Jane</em>,look_active,rating_volition,-1,[0],The speaker identifies more with <br>Kate than Jane,The speaker identifies more with<br>Jane than Kate,left_to_right,active
/Users/lefoll/Documents/UzK/Workshops/Participating/2025_ReplicationGames/like_me_study_reproduction/R_scripts/scripts_and_data_original/Data_Preprocessing_original/EmpathyStudy/full_empathy_data/11421_W.csv,4874.70000000298,NA,NA,NA,NA,survey-likert-extra-labels,100,702290,0.0-53.0-1.0,anomymised,6564584152624795c40b73cb,6564bdab9218a38ad04ae0c3,11421,1A,woman,NA,NA,Somebody says<br><em>Dave and Mike are marrying each other</em>,marry_conjoined,rating_volition,3,[0],The speaker identifies more with <br>Dave than Mike,The speaker identifies more with<br>Mike than Dave,left_to_right,conjoined
/Users/lefoll/Documents/UzK/Workshops/Participating/2025_ReplicationGames/like_me_study_reproduction/R_scripts/scripts_and_data_original/Data_Preprocessing_original/EmpathyStudy/full_empathy_data/11421_W.csv,5355.300000000745,NA,NA,NA,NA,survey-likert-extra-labels,102,709652,0.0-54.0-1.0,anomymised,6564584152624795c40b73cb,6564bdab9218a38ad04ae0c3,11421,1A,woman,NA,NA,Somebody says<br><em>Kate is flirting with Luke</em>,flirt_active,rating_volition,3,[0],The speaker identifies more with <br>Kate than Luke,The speaker identifies more with<br>Luke than Kate,left_to_right,active
/Users/lefoll/Documents/UzK/Workshops/Participating/2025_ReplicationGames/like_me_study_reproduction/R_scripts/scripts_and_data_original/Data_Preprocessing_original/EmpathyStudy/full_empathy_data/11421_W.csv,6122.5,NA,NA,NA,NA,survey-likert-extra-labels,104,717779,0.0-55.0-1.0,anomymised,6564584152624795c40b73cb,6564bdab9218a38ad04ae0c3,11421,1A,woman,NA,NA,Somebody says<br><em>Kate is feeding Luke,feed,rating_volition,-3,[0],Kate cooked for Luke,Luke cooked for Kate,NA,catch
/Users/lefoll/Documents/UzK/Workshops/Participating/2025_ReplicationGames/like_me_study_reproduction/R_scripts/scripts_and_data_original/Data_Preprocessing_original/EmpathyStudy/full_empathy_data/1253_W.csv,7213,NA,NA,NA,NA,survey-likert-extra-labels,8,106132,0.0-7.0-1.0,anomymised,6560c4db814364f7465ce092,65644e7127dc5d95e0cae86f,1253,1A,woman,NA,NA,Somebody says<br><em>Jane is carrying Beth,carry,rating_volition,-3,[0],Jane is transporting Beth,Beth is transporting Jane,NA,catch
/Users/lefoll/Documents/UzK/Workshops/Participating/2025_ReplicationGames/like_me_study_reproduction/R_scripts/scripts_and_data_original/Data_Preprocessing_original/EmpathyStudy/full_empathy_data/1253_W.csv,6485,NA,NA,NA,NA,survey-likert-extra-labels,10,114753,0.0-8.0-1.0,anomymised,6560c4db814364f7465ce092,65644e7127dc5d95e0cae86f,1253,1A,woman,NA,NA,Somebody says<br><em>Mike is marrying Ruth</em>,marry_active,rating_volition,3,[0],The speaker identifies more with <br>Mike than Ruth,The speaker identifies more with<br>Ruth than Mike,left_to_right,active
/Users/lefoll/Documents/UzK/Workshops/Participating/2025_ReplicationGames/like_me_study_reproduction/R_scripts/scripts_and_data_original/Data_Preprocessing_original/EmpathyStudy/full_empathy_data/1253_W.csv,11898,NA,NA,NA,NA,survey-likert-extra-labels,12,128663,0.0-9.0-1.0,anomymised,6560c4db814364f7465ce092,65644e7127dc5d95e0cae86f,1253,1A,woman,NA,NA,Somebody says<br><em>Dave and Fred are touching each other</em>,touch_conjoined,rating_volition,0,[0],The speaker identifies more with <br>Fred than Dave,The speaker identifies more with<br>Dave than Fred,right_to_left,conjoined
/Users/lefoll/Documents/UzK/Workshops/Participating/2025_ReplicationGames/like_me_study_reproduction/R_scripts/scripts_and_data_original/Data_Preprocessing_original/EmpathyStudy/full_empathy_data/1253_W.csv,6601,NA,NA,NA,NA,survey-likert-extra-labels,14,137294,0.0-10.0-1.0,anomymised,6560c4db814364f7465ce092,65644e7127dc5d95e0cae86f,1253,1A,woman,NA,NA,Somebody says<br><em>Ruth is chasing Kate,chase,rating_volition,-3,[0],Ruth is behind Kate,Kate is behind Ruth,NA,catch
/Users/lefoll/Documents/UzK/Workshops/Participating/2025_ReplicationGames/like_me_study_reproduction/R_scripts/scripts_and_data_original/Data_Preprocessing_original/EmpathyStudy/full_empathy_data/1253_W.csv,5741,NA,NA,NA,NA,survey-likert-extra-labels,16,145044,0.0-11.0-1.0,anomymised,6560c4db814364f7465ce092,65644e7127dc5d95e0cae86f,1253,1A,woman,NA,NA,Somebody says<br><em>Fred is greeting Beth</em>,greet_active,rating_volition,3,[0],The speaker identifies more with <br>Beth than Fred,The speaker identifies more with<br>Fred than Beth,right_to_left,active
/Users/lefoll/Documents/UzK/Workshops/Participating/2025_ReplicationGames/like_me_study_reproduction/R_scripts/scripts_and_data_original/Data_Preprocessing_original/EmpathyStudy/full_empathy_data/1253_W.csv,9245,NA,NA,NA,NA,survey-likert-extra-labels,18,156292,0.0-12.0-1.0,anomymised,6560c4db814364f7465ce092,65644e7127dc5d95e0cae86f,1253,1A,woman,NA,NA,Somebody says<br><em>Ruth and Fred are dancing with each other</em>,dance_conjoined,rating_volition,2,[0],The speaker identifies more with <br>Fred than Ruth,The speaker identifies more with<br>Ruth than Fred,right_to_left,conjoined
/Users/lefoll/Documents/UzK/Workshops/Participating/2025_ReplicationGames/like_me_study_reproduction/R_scripts/scripts_and_data_original/Data_Preprocessing_original/EmpathyStudy/full_empathy_data/1253_W.csv,9126,NA,NA,NA,NA,survey-likert-extra-labels,20,167421,0.0-13.0-1.0,anomymised,6560c4db814364f7465ce092,65644e7127dc5d95e0cae86f,1253,1A,woman,NA,NA,Somebody says<br><em>Jane is being looked at by Fred</em>,look_passive,rating_volition,3,[0],The speaker identifies more with <br>Fred than Jane,The speaker identifies more with<br>Jane than Fred,right_to_left,passive
/Users/lefoll/Documents/UzK/Workshops/Participating/2025_ReplicationGames/like_me_study_reproduction/R_scripts/scripts_and_data_original/Data_Preprocessing_original/EmpathyStudy/full_empathy_data/1253_W.csv,5635,NA,NA,NA,NA,survey-likert-extra-labels,22,175057,0.0-14.0-1.0,anomymised,6560c4db814364f7465ce092,65644e7127dc5d95e0cae86f,1253,1A,woman,NA,NA,Somebody says<br><em>Kate is being kissed by Mike</em>,kiss_passive,rating_volition,3,[0],The speaker identifies more with <br>Kate than Mike,The speaker identifies more with<br>Mike than Kate,left_to_right,passive
/Users/lefoll/Documents/UzK/Workshops/Participating/2025_ReplicationGames/like_me_study_reproduction/R_scripts/scripts_and_data_original/Data_Preprocessing_original/EmpathyStudy/full_empathy_data/1253_W.csv,6905,NA,NA,NA,NA,survey-likert-extra-labels,24,183974,0.0-15.0-1.0,anomymised,6560c4db814364f7465ce092,65644e7127dc5d95e0cae86f,1253,1A,woman,NA,NA,Somebody says<br><em>Jane and Dave are flirting with each other</em>,flirt_conjoined,rating_volition,1,[0],The speaker identifies more with <br>Jane than Dave,The speaker identifies more with<br>Dave than Jane,left_to_right,conjoined
/Users/lefoll/Documents/UzK/Workshops/Participating/2025_ReplicationGames/like_me_study_reproduction/R_scripts/scripts_and_data_original/Data_Preprocessing_original/EmpathyStudy/full_empathy_data/1253_W.csv,8625,NA,NA,NA,NA,survey-likert-extra-labels,26,194607,0.0-16.0-1.0,anomymised,6560c4db814364f7465ce092,65644e7127dc5d95e0cae86f,1253,1A,woman,NA,NA,Somebody says<br><em>Beth is looking at Kate</em>,look_active,rating_volition,3,[0],The speaker identifies more with <br>Beth than Kate,The speaker identifies more with<br>Kate than Beth,left_to_right,active
/Users/lefoll/Documents/UzK/Workshops/Participating/2025_ReplicationGames/like_me_study_reproduction/R_scripts/scripts_and_data_original/Data_Preprocessing_original/EmpathyStudy/full_empathy_data/1253_W.csv,14372,NA,NA,NA,NA,survey-likert-extra-labels,28,210989,0.0-17.0-1.0,anomymised,6560c4db814364f7465ce092,65644e7127dc5d95e0cae86f,1253,1A,woman,NA,NA,Somebody says<br><em>Kate and Beth are fighting with each other</em>,fight_conjoined,rating_volition,1,[0],The speaker identifies more with <br>Beth than Kate,The speaker identifies more with<br>Kate than Beth,right_to_left,conjoined
/Users/lefoll/Documents/UzK/Workshops/Participating/2025_ReplicationGames/like_me_study_reproduction/R_scripts/scripts_and_data_original/Data_Preprocessing_original/EmpathyStudy/full_empathy_data/1253_W.csv,14950,NA,NA,NA,NA,survey-likert-extra-labels,30,227943,0.0-18.0-1.0,anomymised,6560c4db814364f7465ce092,65644e7127dc5d95e0cae86f,1253,1A,woman,NA,NA,Somebody says<br><em>Beth is arguing with Ruth</em>,argue_active,rating_volition,-2,[0],The speaker identifies more with <br>Beth than Ruth,The speaker identifies more with<br>Ruth than Beth,left_to_right,active
/Users/lefoll/Documents/UzK/Workshops/Participating/2025_ReplicationGames/like_me_study_reproduction/R_scripts/scripts_and_data_original/Data_Preprocessing_original/EmpathyStudy/full_empathy_data/1253_W.csv,10428,NA,NA,NA,NA,survey-likert-extra-labels,32,240379,0.0-19.0-1.0,anomymised,6560c4db814364f7465ce092,65644e7127dc5d95e0cae86f,1253,1A,woman,NA,NA,Somebody says<br><em>Ruth is hugging Kate</em>,hug_active,rating_volition,2,[0],The speaker identifies more with <br>Kate than Ruth,The speaker identifies more with<br>Ruth than Kate,right_to_left,active
/Users/lefoll/Documents/UzK/Workshops/Participating/2025_ReplicationGames/like_me_study_reproduction/R_scripts/scripts_and_data_original/Data_Preprocessing_original/EmpathyStudy/full_empathy_data/1253_W.csv,8175,NA,NA,NA,NA,survey-likert-extra-labels,34,250560,0.0-20.0-1.0,anomymised,6560c4db814364f7465ce092,65644e7127dc5d95e0cae86f,1253,1A,woman,NA,NA,Somebody says<br><em>Beth is meeting Dave</em>,meet_active,rating_volition,3,[0],The speaker identifies more with <br>Dave than Beth,The speaker identifies more with<br>Beth than Dave,right_to_left,active
/Users/lefoll/Documents/UzK/Workshops/Participating/2025_ReplicationGames/like_me_study_reproduction/R_scripts/scripts_and_data_original/Data_Preprocessing_original/EmpathyStudy/full_empathy_data/1253_W.csv,17060,NA,NA,NA,NA,survey-likert-extra-labels,36,269628,0.0-21.0-1.0,anomymised,6560c4db814364f7465ce092,65644e7127dc5d95e0cae86f,1253,1A,woman,NA,NA,Somebody says<br><em>Dave and Ruth are shouting at each other</em>,shout_conjoined,rating_volition,2,[0],The speaker identifies more with <br>Ruth than Dave,The speaker identifies more with<br>Dave than Ruth,right_to_left,conjoined
/Users/lefoll/Documents/UzK/Workshops/Participating/2025_ReplicationGames/like_me_study_reproduction/R_scripts/scripts_and_data_original/Data_Preprocessing_original/EmpathyStudy/full_empathy_data/1253_W.csv,35129,NA,NA,NA,NA,survey-likert-extra-labels,38,306762,0.0-22.0-1.0,anomymised,6560c4db814364f7465ce092,65644e7127dc5d95e0cae86f,1253,1A,woman,NA,NA,Somebody says<br><em>Mike is challenging Beth</em>,challenge_active,rating_volition,-1,[0],The speaker identifies more with <br>Mike than Beth,The speaker identifies more with<br>Beth than Mike,left_to_right,active
/Users/lefoll/Documents/UzK/Workshops/Participating/2025_ReplicationGames/like_me_study_reproduction/R_scripts/scripts_and_data_original/Data_Preprocessing_original/EmpathyStudy/full_empathy_data/1253_W.csv,5039,NA,NA,NA,NA,survey-likert-extra-labels,40,313817,0.0-23.0-1.0,anomymised,6560c4db814364f7465ce092,65644e7127dc5d95e0cae86f,1253,1A,woman,NA,NA,Somebody says<br><em>Mike is being opposed by Beth</em>,oppose_passive,rating_volition,2,[0],The speaker identifies more with <br>Mike than Beth,The speaker identifies more with<br>Beth than Mike,left_to_right,passive
/Users/lefoll/Documents/UzK/Workshops/Participating/2025_ReplicationGames/like_me_study_reproduction/R_scripts/scripts_and_data_original/Data_Preprocessing_original/EmpathyStudy/full_empathy_data/1253_W.csv,10620,NA,NA,NA,NA,survey-likert-extra-labels,42,326444,0.0-24.0-1.0,anomymised,6560c4db814364f7465ce092,65644e7127dc5d95e0cae86f,1253,1A,woman,NA,NA,Somebody says<br><em>Kate is seducing Mike</em>,seduce_active,rating_volition,0,[0],The speaker identifies more with <br>Mike than Kate,The speaker identifies more with<br>Kate than Mike,right_to_left,active
/Users/lefoll/Documents/UzK/Workshops/Participating/2025_ReplicationGames/like_me_study_reproduction/R_scripts/scripts_and_data_original/Data_Preprocessing_original/EmpathyStudy/full_empathy_data/1253_W.csv,10881,NA,NA,NA,NA,survey-likert-extra-labels,44,339337,0.0-25.0-1.0,anomymised,6560c4db814364f7465ce092,65644e7127dc5d95e0cae86f,1253,1A,woman,NA,NA,Somebody says<br><em>Jane is copying Fred</em>,copy_active,rating_volition,-2,[0],The speaker identifies more with <br>Jane than Fred,The speaker identifies more with<br>Fred than Jane,left_to_right,active
/Users/lefoll/Documents/UzK/Workshops/Participating/2025_ReplicationGames/like_me_study_reproduction/R_scripts/scripts_and_data_original/Data_Preprocessing_original/EmpathyStudy/full_empathy_data/1253_W.csv,10874,NA,NA,NA,NA,survey-likert-extra-labels,46,352215,0.0-26.0-1.0,anomymised,6560c4db814364f7465ce092,65644e7127dc5d95e0cae86f,1253,1A,woman,NA,NA,Somebody says<br><em>Kate is feeding Luke,feed,rating_volition,0,[0],Kate cooked for Luke,Luke cooked for Kate,NA,catch
/Users/lefoll/Documents/UzK/Workshops/Participating/2025_ReplicationGames/like_me_study_reproduction/R_scripts/scripts_and_data_original/Data_Preprocessing_original/EmpathyStudy/full_empathy_data/1253_W.csv,57401,NA,NA,NA,NA,survey-likert-extra-labels,48,411621,0.0-27.0-1.0,anomymised,6560c4db814364f7465ce092,65644e7127dc5d95e0cae86f,1253,1A,woman,NA,NA,Somebody says<br><em>Fred is fighting with Ruth</em>,fight_active,rating_volition,1,[0],The speaker identifies more with <br>Ruth than Fred,The speaker identifies more with<br>Fred than Ruth,right_to_left,active
/Users/lefoll/Documents/UzK/Workshops/Participating/2025_ReplicationGames/like_me_study_reproduction/R_scripts/scripts_and_data_original/Data_Preprocessing_original/EmpathyStudy/full_empathy_data/1253_W.csv,7586,NA,NA,NA,NA,survey-likert-extra-labels,50,421208,0.0-28.0-1.0,anomymised,6560c4db814364f7465ce092,65644e7127dc5d95e0cae86f,1253,1A,woman,NA,NA,Somebody says<br><em>Jane and Ruth are meeting each other</em>,meet_conjoined,rating_volition,2,[0],The speaker identifies more with <br>Jane than Ruth,The speaker identifies more with<br>Ruth than Jane,left_to_right,conjoined
/Users/lefoll/Documents/UzK/Workshops/Participating/2025_ReplicationGames/like_me_study_reproduction/R_scripts/scripts_and_data_original/Data_Preprocessing_original/EmpathyStudy/full_empathy_data/1253_W.csv,9710,NA,NA,NA,NA,survey-likert-extra-labels,52,432931,0.0-29.0-1.0,anomymised,6560c4db814364f7465ce092,65644e7127dc5d95e0cae86f,1253,1A,woman,NA,NA,Somebody says<br><em>Luke is being challenged by Fred</em>,challenge_passive,rating_volition,2,[0],The speaker identifies more with <br>Fred than Luke,The speaker identifies more with<br>Luke than Fred,right_to_left,passive
/Users/lefoll/Documents/UzK/Workshops/Participating/2025_ReplicationGames/like_me_study_reproduction/R_scripts/scripts_and_data_original/Data_Preprocessing_original/EmpathyStudy/full_empathy_data/1253_W.csv,7916,NA,NA,NA,NA,survey-likert-extra-labels,54,442989,0.0-30.0-1.0,anomymised,6560c4db814364f7465ce092,65644e7127dc5d95e0cae86f,1253,1A,woman,NA,NA,Somebody says<br><em>Jane is teaching Dave,teach,rating_volition,-3,[0],Jane is educating Dave,Dave is educating Jane,NA,catch
/Users/lefoll/Documents/UzK/Workshops/Participating/2025_ReplicationGames/like_me_study_reproduction/R_scripts/scripts_and_data_original/Data_Preprocessing_original/EmpathyStudy/full_empathy_data/1253_W.csv,55454,NA,NA,NA,NA,survey-likert-extra-labels,56,500446,0.0-31.0-1.0,anomymised,6560c4db814364f7465ce092,65644e7127dc5d95e0cae86f,1253,1A,woman,NA,NA,Somebody says<br><em>Dave is playing with Ruth</em>,play_active,rating_volition,3,[0],The speaker identifies more with <br>Ruth than Dave,The speaker identifies more with<br>Dave than Ruth,right_to_left,active
/Users/lefoll/Documents/UzK/Workshops/Participating/2025_ReplicationGames/like_me_study_reproduction/R_scripts/scripts_and_data_original/Data_Preprocessing_original/EmpathyStudy/full_empathy_data/1253_W.csv,3567,NA,NA,NA,NA,survey-likert-extra-labels,58,506023,0.0-32.0-1.0,anomymised,6560c4db814364f7465ce092,65644e7127dc5d95e0cae86f,1253,1A,woman,NA,NA,Somebody says<br><em>Luke is flirting with Mike</em>,flirt_active,rating_volition,3,[0],The speaker identifies more with <br>Mike than Luke,The speaker identifies more with<br>Luke than Mike,right_to_left,active
/Users/lefoll/Documents/UzK/Workshops/Participating/2025_ReplicationGames/like_me_study_reproduction/R_scripts/scripts_and_data_original/Data_Preprocessing_original/EmpathyStudy/full_empathy_data/1253_W.csv,6311,NA,NA,NA,NA,survey-likert-extra-labels,60,514347,0.0-33.0-1.0,anomymised,6560c4db814364f7465ce092,65644e7127dc5d95e0cae86f,1253,1A,woman,NA,NA,Somebody says<br><em>Fred is talking to Jane</em>,talk_active,rating_volition,3,[0],The speaker identifies more with <br>Jane than Fred,The speaker identifies more with<br>Fred than Jane,right_to_left,active
/Users/lefoll/Documents/UzK/Workshops/Participating/2025_ReplicationGames/like_me_study_reproduction/R_scripts/scripts_and_data_original/Data_Preprocessing_original/EmpathyStudy/full_empathy_data/1253_W.csv,3413,NA,NA,NA,NA,survey-likert-extra-labels,62,519764,0.0-34.0-1.0,anomymised,6560c4db814364f7465ce092,65644e7127dc5d95e0cae86f,1253,1A,woman,NA,NA,Somebody says<br><em>Kate and Fred are marrying each other</em>,marry_conjoined,rating_volition,0,[0],The speaker identifies more with <br>Fred than Kate,The speaker identifies more with<br>Kate than Fred,right_to_left,conjoined
/Users/lefoll/Documents/UzK/Workshops/Participating/2025_ReplicationGames/like_me_study_reproduction/R_scripts/scripts_and_data_original/Data_Preprocessing_original/EmpathyStudy/full_empathy_data/1253_W.csv,6862,NA,NA,NA,NA,survey-likert-extra-labels,64,528668,0.0-35.0-1.0,anomymised,6560c4db814364f7465ce092,65644e7127dc5d95e0cae86f,1253,1A,woman,NA,NA,Somebody says<br><em>Beth is touching Fred</em>,touch_active,rating_volition,1,[0],The speaker identifies more with <br>Fred than Beth,The speaker identifies more with<br>Beth than Fred,right_to_left,active
/Users/lefoll/Documents/UzK/Workshops/Participating/2025_ReplicationGames/like_me_study_reproduction/R_scripts/scripts_and_data_original/Data_Preprocessing_original/EmpathyStudy/full_empathy_data/1253_W.csv,3005,NA,NA,NA,NA,survey-likert-extra-labels,66,533678,0.0-36.0-1.0,anomymised,6560c4db814364f7465ce092,65644e7127dc5d95e0cae86f,1253,1A,woman,NA,NA,Somebody says<br><em>Mike is being copied by Kate</em>,copy_passive,rating_volition,3,[0],The speaker identifies more with <br>Mike than Kate,The speaker identifies more with<br>Kate than Mike,left_to_right,passive
/Users/lefoll/Documents/UzK/Workshops/Participating/2025_ReplicationGames/like_me_study_reproduction/R_scripts/scripts_and_data_original/Data_Preprocessing_original/EmpathyStudy/full_empathy_data/1253_W.csv,14893,NA,NA,NA,NA,survey-likert-extra-labels,68,550576,0.0-37.0-1.0,anomymised,6560c4db814364f7465ce092,65644e7127dc5d95e0cae86f,1253,1A,woman,NA,NA,Somebody says<br><em>Fred is hiring Ruth,hire,rating_volition,-3,[0],Fred is employing Ruth,Ruth is employing Fred,NA,catch
/Users/lefoll/Documents/UzK/Workshops/Participating/2025_ReplicationGames/like_me_study_reproduction/R_scripts/scripts_and_data_original/Data_Preprocessing_original/EmpathyStudy/full_empathy_data/1253_W.csv,8626,NA,NA,NA,NA,survey-likert-extra-labels,70,561216,0.0-38.0-1.0,anomymised,6560c4db814364f7465ce092,65644e7127dc5d95e0cae86f,1253,1A,woman,NA,NA,Somebody says<br><em>Luke is shouting at Beth</em>,shout_active,rating_volition,-0,[0],The speaker identifies more with <br>Luke than Beth,The speaker identifies more with<br>Beth than Luke,left_to_right,active
/Users/lefoll/Documents/UzK/Workshops/Participating/2025_ReplicationGames/like_me_study_reproduction/R_scripts/scripts_and_data_original/Data_Preprocessing_original/EmpathyStudy/full_empathy_data/1253_W.csv,10896,NA,NA,NA,NA,survey-likert-extra-labels,72,574123,0.0-39.0-1.0,anomymised,6560c4db814364f7465ce092,65644e7127dc5d95e0cae86f,1253,1A,woman,NA,NA,Somebody says<br><em>Mike is reminding Beth,remind,rating_volition,-3,[0],Mike is telling Beth again,Beth is telling Mike again,NA,catch
/Users/lefoll/Documents/UzK/Workshops/Participating/2025_ReplicationGames/like_me_study_reproduction/R_scripts/scripts_and_data_original/Data_Preprocessing_original/EmpathyStudy/full_empathy_data/1253_W.csv,6772,NA,NA,NA,NA,survey-likert-extra-labels,74,582910,0.0-40.0-1.0,anomymised,6560c4db814364f7465ce092,65644e7127dc5d95e0cae86f,1253,1A,woman,NA,NA,Somebody says<br><em>Mike is posing for Dave,pose,rating_volition,-3,[0],Mike is modelling for Dave,Dave is modelling for Mike,NA,catch
/Users/lefoll/Documents/UzK/Workshops/Participating/2025_ReplicationGames/like_me_study_reproduction/R_scripts/scripts_and_data_original/Data_Preprocessing_original/EmpathyStudy/full_empathy_data/1253_W.csv,6635,NA,NA,NA,NA,survey-likert-extra-labels,76,591556,0.0-41.0-1.0,anomymised,6560c4db814364f7465ce092,65644e7127dc5d95e0cae86f,1253,1A,woman,NA,NA,Somebody says<br><em>Ruth and Mike are talking with each other</em>,talk_conjoined,rating_volition,3,[0],The speaker identifies more with <br>Ruth than Mike,The speaker identifies more with<br>Mike than Ruth,left_to_right,conjoined
/Users/lefoll/Documents/UzK/Workshops/Participating/2025_ReplicationGames/like_me_study_reproduction/R_scripts/scripts_and_data_original/Data_Preprocessing_original/EmpathyStudy/full_empathy_data/1253_W.csv,6155,NA,NA,NA,NA,survey-likert-extra-labels,78,599715,0.0-42.0-1.0,anomymised,6560c4db814364f7465ce092,65644e7127dc5d95e0cae86f,1253,1A,woman,NA,NA,Somebody says<br><em>Ruth is dancing with Dave</em>,dance_active,rating_volition,3,[0],The speaker identifies more with <br>Ruth than Dave,The speaker identifies more with<br>Dave than Ruth,left_to_right,active
/Users/lefoll/Documents/UzK/Workshops/Participating/2025_ReplicationGames/like_me_study_reproduction/R_scripts/scripts_and_data_original/Data_Preprocessing_original/EmpathyStudy/full_empathy_data/1253_W.csv,11735,NA,NA,NA,NA,survey-likert-extra-labels,80,613456,0.0-43.0-1.0,anomymised,6560c4db814364f7465ce092,65644e7127dc5d95e0cae86f,1253,1A,woman,NA,NA,Somebody says<br><em>Mike and Ruth are kissing each other</em>,kiss_conjoined,rating_volition,1,[0],The speaker identifies more with <br>Ruth than Mike,The speaker identifies more with<br>Mike than Ruth,right_to_left,conjoined
/Users/lefoll/Documents/UzK/Workshops/Participating/2025_ReplicationGames/like_me_study_reproduction/R_scripts/scripts_and_data_original/Data_Preprocessing_original/EmpathyStudy/full_empathy_data/1253_W.csv,9623,NA,NA,NA,NA,survey-likert-extra-labels,82,625084,0.0-44.0-1.0,anomymised,6560c4db814364f7465ce092,65644e7127dc5d95e0cae86f,1253,1A,woman,NA,NA,Somebody says<br><em>Dave is being shouted at by Jane</em>,shout_passive,rating_volition,3,[0],The speaker identifies more with <br>Dave than Jane,The speaker identifies more with<br>Jane than Dave,left_to_right,passive
/Users/lefoll/Documents/UzK/Workshops/Participating/2025_ReplicationGames/like_me_study_reproduction/R_scripts/scripts_and_data_original/Data_Preprocessing_original/EmpathyStudy/full_empathy_data/1253_W.csv,6001,NA,NA,NA,NA,survey-likert-extra-labels,84,633227,0.0-45.0-1.0,anomymised,6560c4db814364f7465ce092,65644e7127dc5d95e0cae86f,1253,1A,woman,NA,NA,Somebody says<br><em>Ruth is shouting at Mike</em>,shout_active,rating_volition,3,[0],The speaker identifies more with <br>Ruth than Mike,The speaker identifies more with<br>Mike than Ruth,left_to_right,active
/Users/lefoll/Documents/UzK/Workshops/Participating/2025_ReplicationGames/like_me_study_reproduction/R_scripts/scripts_and_data_original/Data_Preprocessing_original/EmpathyStudy/full_empathy_data/1253_W.csv,7486,NA,NA,NA,NA,survey-likert-extra-labels,86,642722,0.0-46.0-1.0,anomymised,6560c4db814364f7465ce092,65644e7127dc5d95e0cae86f,1253,1A,woman,NA,NA,Somebody says<br><em>Kate is being hugged by Luke</em>,hug_passive,rating_volition,1,[0],The speaker identifies more with <br>Kate than Luke,The speaker identifies more with<br>Luke than Kate,left_to_right,passive
/Users/lefoll/Documents/UzK/Workshops/Participating/2025_ReplicationGames/like_me_study_reproduction/R_scripts/scripts_and_data_original/Data_Preprocessing_original/EmpathyStudy/full_empathy_data/1253_W.csv,4243,NA,NA,NA,NA,survey-likert-extra-labels,88,648970,0.0-47.0-1.0,anomymised,6560c4db814364f7465ce092,65644e7127dc5d95e0cae86f,1253,1A,woman,NA,NA,Somebody says<br><em>Jane and Mike are arguing with each other</em>,argue_conjoined,rating_volition,-0,[0],The speaker identifies more with <br>Jane than Mike,The speaker identifies more with<br>Mike than Jane,left_to_right,conjoined
/Users/lefoll/Documents/UzK/Workshops/Participating/2025_ReplicationGames/like_me_study_reproduction/R_scripts/scripts_and_data_original/Data_Preprocessing_original/EmpathyStudy/full_empathy_data/1253_W.csv,4677,NA,NA,NA,NA,survey-likert-extra-labels,90,655660,0.0-48.0-1.0,anomymised,6560c4db814364f7465ce092,65644e7127dc5d95e0cae86f,1253,1A,woman,NA,NA,Somebody says<br><em>Mike and Dave are playing with each other</em>,play_conjoined,rating_volition,-0,[0],The speaker identifies more with <br>Mike than Dave,The speaker identifies more with<br>Dave than Mike,left_to_right,conjoined
/Users/lefoll/Documents/UzK/Workshops/Participating/2025_ReplicationGames/like_me_study_reproduction/R_scripts/scripts_and_data_original/Data_Preprocessing_original/EmpathyStudy/full_empathy_data/1253_W.csv,18972,NA,NA,NA,NA,survey-likert-extra-labels,92,676647,0.0-49.0-1.0,anomymised,6560c4db814364f7465ce092,65644e7127dc5d95e0cae86f,1253,1A,woman,NA,NA,Somebody says<br><em>Beth is being touched by Jane</em>,touch_passive,rating_volition,3,[0],The speaker identifies more with <br>Jane than Beth,The speaker identifies more with<br>Beth than Jane,right_to_left,passive
/Users/lefoll/Documents/UzK/Workshops/Participating/2025_ReplicationGames/like_me_study_reproduction/R_scripts/scripts_and_data_original/Data_Preprocessing_original/EmpathyStudy/full_empathy_data/1253_W.csv,4623,NA,NA,NA,NA,survey-likert-extra-labels,94,683377,0.0-50.0-1.0,anomymised,6560c4db814364f7465ce092,65644e7127dc5d95e0cae86f,1253,1A,woman,NA,NA,Somebody says<br><em>Beth is kissing Ruth</em>,kiss_active,rating_volition,3,[0],The speaker identifies more with <br>Ruth than Beth,The speaker identifies more with<br>Beth than Ruth,right_to_left,active
/Users/lefoll/Documents/UzK/Workshops/Participating/2025_ReplicationGames/like_me_study_reproduction/R_scripts/scripts_and_data_original/Data_Preprocessing_original/EmpathyStudy/full_empathy_data/1253_W.csv,51345,NA,NA,NA,NA,survey-likert-extra-labels,96,736725,0.0-51.0-1.0,anomymised,6560c4db814364f7465ce092,65644e7127dc5d95e0cae86f,1253,1A,woman,NA,NA,Somebody says<br><em>Kate is being greeted by Dave</em>,greet_passive,rating_volition,3,[0],The speaker identifies more with <br>Dave than Kate,The speaker identifies more with<br>Kate than Dave,right_to_left,passive
/Users/lefoll/Documents/UzK/Workshops/Participating/2025_ReplicationGames/like_me_study_reproduction/R_scripts/scripts_and_data_original/Data_Preprocessing_original/EmpathyStudy/full_empathy_data/1253_W.csv,14582,NA,NA,NA,NA,survey-likert-extra-labels,98,753520,0.0-52.0-1.0,anomymised,6560c4db814364f7465ce092,65644e7127dc5d95e0cae86f,1253,1A,woman,NA,NA,Somebody says<br><em>Mike and Jane are hugging each other</em>,hug_conjoined,rating_volition,0,[0],The speaker identifies more with <br>Jane than Mike,The speaker identifies more with<br>Mike than Jane,right_to_left,conjoined
/Users/lefoll/Documents/UzK/Workshops/Participating/2025_ReplicationGames/like_me_study_reproduction/R_scripts/scripts_and_data_original/Data_Preprocessing_original/EmpathyStudy/full_empathy_data/1253_W.csv,5845,NA,NA,NA,NA,survey-likert-extra-labels,100,761378,0.0-53.0-1.0,anomymised,6560c4db814364f7465ce092,65644e7127dc5d95e0cae86f,1253,1A,woman,NA,NA,Somebody says<br><em>Jane is being seduced by Beth</em>,seduce_passive,rating_volition,3,[0],The speaker identifies more with <br>Beth than Jane,The speaker identifies more with<br>Jane than Beth,right_to_left,passive
/Users/lefoll/Documents/UzK/Workshops/Participating/2025_ReplicationGames/like_me_study_reproduction/R_scripts/scripts_and_data_original/Data_Preprocessing_original/EmpathyStudy/full_empathy_data/1253_W.csv,7995,NA,NA,NA,NA,survey-likert-extra-labels,102,771384,0.0-54.0-1.0,anomymised,6560c4db814364f7465ce092,65644e7127dc5d95e0cae86f,1253,1A,woman,NA,NA,Somebody says<br><em>Luke is driving Fred,drive,rating_volition,3,[0],Luke is Fred's passenger,Fred is Luke's passenger,NA,catch
/Users/lefoll/Documents/UzK/Workshops/Participating/2025_ReplicationGames/like_me_study_reproduction/R_scripts/scripts_and_data_original/Data_Preprocessing_original/EmpathyStudy/full_empathy_data/1253_W.csv,7029,NA,NA,NA,NA,survey-likert-extra-labels,104,780477,0.0-55.0-1.0,anomymised,6560c4db814364f7465ce092,65644e7127dc5d95e0cae86f,1253,1A,woman,NA,NA,Somebody says<br><em>Jane is opposing Kate</em>,oppose_active,rating_volition,3,[0],The speaker identifies more with <br>Jane than Kate,The speaker identifies more with<br>Kate than Jane,left_to_right,active
/Users/lefoll/Documents/UzK/Workshops/Participating/2025_ReplicationGames/like_me_study_reproduction/R_scripts/scripts_and_data_original/Data_Preprocessing_original/EmpathyStudy/full_empathy_data/14353_W.csv,22793.100000023842,NA,NA,NA,NA,survey-likert-extra-labels,8,101053,0.0-7.0-1.0,anomymised,6564584152624795c40b73cb,65645eb43de7f9dbf5928590,14353,1A,woman,NA,NA,Somebody says<br><em>Ruth is being looked at by Fred</em>,look_passive,rating_volition,2,[0],The speaker identifies more with <br>Fred than Ruth,The speaker identifies more with<br>Ruth than Fred,right_to_left,passive
/Users/lefoll/Documents/UzK/Workshops/Participating/2025_ReplicationGames/like_me_study_reproduction/R_scripts/scripts_and_data_original/Data_Preprocessing_original/EmpathyStudy/full_empathy_data/14353_W.csv,10780.100000023842,NA,NA,NA,NA,survey-likert-extra-labels,10,113845,0.0-8.0-1.0,anomymised,6564584152624795c40b73cb,65645eb43de7f9dbf5928590,14353,1A,woman,NA,NA,Somebody says<br><em>Jane is carrying Beth,carry,rating_volition,-2,[0],Jane is transporting Beth,Beth is transporting Jane,NA,catch
/Users/lefoll/Documents/UzK/Workshops/Participating/2025_ReplicationGames/like_me_study_reproduction/R_scripts/scripts_and_data_original/Data_Preprocessing_original/EmpathyStudy/full_empathy_data/14353_W.csv,9096.5,NA,NA,NA,NA,survey-likert-extra-labels,12,124949,0.0-9.0-1.0,anomymised,6564584152624795c40b73cb,65645eb43de7f9dbf5928590,14353,1A,woman,NA,NA,Somebody says<br><em>Ruth is challenging Beth</em>,challenge_active,rating_volition,-2,[0],The speaker identifies more with <br>Ruth than Beth,The speaker identifies more with<br>Beth than Ruth,left_to_right,active
/Users/lefoll/Documents/UzK/Workshops/Participating/2025_ReplicationGames/like_me_study_reproduction/R_scripts/scripts_and_data_original/Data_Preprocessing_original/EmpathyStudy/full_empathy_data/14353_W.csv,6114.300000011921,NA,NA,NA,NA,survey-likert-extra-labels,14,133077,0.0-10.0-1.0,anomymised,6564584152624795c40b73cb,65645eb43de7f9dbf5928590,14353,1A,woman,NA,NA,Somebody says<br><em>Kate is being seduced by Luke</em>,seduce_passive,rating_volition,2,[0],The speaker identifies more with <br>Kate than Luke,The speaker identifies more with<br>Luke than Kate,left_to_right,passive
/Users/lefoll/Documents/UzK/Workshops/Participating/2025_ReplicationGames/like_me_study_reproduction/R_scripts/scripts_and_data_original/Data_Preprocessing_original/EmpathyStudy/full_empathy_data/14353_W.csv,7886.799999952316,NA,NA,NA,NA,survey-likert-extra-labels,16,142982,0.0-11.0-1.0,anomymised,6564584152624795c40b73cb,65645eb43de7f9dbf5928590,14353,1A,woman,NA,NA,Somebody says<br><em>Luke is touching Beth</em>,touch_active,rating_volition,-2,[0],The speaker identifies more with <br>Luke than Beth,The speaker identifies more with<br>Beth than Luke,left_to_right,active
/Users/lefoll/Documents/UzK/Workshops/Participating/2025_ReplicationGames/like_me_study_reproduction/R_scripts/scripts_and_data_original/Data_Preprocessing_original/EmpathyStudy/full_empathy_data/14353_W.csv,10566.399999976158,NA,NA,NA,NA,survey-likert-extra-labels,18,155566,0.0-12.0-1.0,anomymised,6564584152624795c40b73cb,65645eb43de7f9dbf5928590,14353,1A,woman,NA,NA,Somebody says<br><em>Beth is looking at Jane</em>,look_active,rating_volition,2,[0],The speaker identifies more with <br>Jane than Beth,The speaker identifies more with<br>Beth than Jane,right_to_left,active
/Users/lefoll/Documents/UzK/Workshops/Participating/2025_ReplicationGames/like_me_study_reproduction/R_scripts/scripts_and_data_original/Data_Preprocessing_original/EmpathyStudy/full_empathy_data/14353_W.csv,4014.400000035763,NA,NA,NA,NA,survey-likert-extra-labels,20,161591,0.0-13.0-1.0,anomymised,6564584152624795c40b73cb,65645eb43de7f9dbf5928590,14353,1A,woman,NA,NA,Somebody says<br><em>Kate and Jane are meeting each other</em>,meet_conjoined,rating_volition,0,[0],The speaker identifies more with <br>Jane than Kate,The speaker identifies more with<br>Kate than Jane,right_to_left,conjoined
/Users/lefoll/Documents/UzK/Workshops/Participating/2025_ReplicationGames/like_me_study_reproduction/R_scripts/scripts_and_data_original/Data_Preprocessing_original/EmpathyStudy/full_empathy_data/14353_W.csv,5022.699999988079,NA,NA,NA,NA,survey-likert-extra-labels,22,168623,0.0-14.0-1.0,anomymised,6564584152624795c40b73cb,65645eb43de7f9dbf5928590,14353,1A,woman,NA,NA,Somebody says<br><em>Luke is arguing with Mike</em>,argue_active,rating_volition,2,[0],The speaker identifies more with <br>Mike than Luke,The speaker identifies more with<br>Luke than Mike,right_to_left,active
/Users/lefoll/Documents/UzK/Workshops/Participating/2025_ReplicationGames/like_me_study_reproduction/R_scripts/scripts_and_data_original/Data_Preprocessing_original/EmpathyStudy/full_empathy_data/14353_W.csv,1760.5999999642372,NA,NA,NA,NA,survey-likert-extra-labels,24,172391,0.0-15.0-1.0,anomymised,6564584152624795c40b73cb,65645eb43de7f9dbf5928590,14353,1A,woman,NA,NA,Somebody says<br><em>Luke and Mike are dancing with each other</em>,dance_conjoined,rating_volition,0,[0],The speaker identifies more with <br>Mike than Luke,The speaker identifies more with<br>Luke than Mike,right_to_left,conjoined
/Users/lefoll/Documents/UzK/Workshops/Participating/2025_ReplicationGames/like_me_study_reproduction/R_scripts/scripts_and_data_original/Data_Preprocessing_original/EmpathyStudy/full_empathy_data/14353_W.csv,1974,NA,NA,NA,NA,survey-likert-extra-labels,26,176369,0.0-16.0-1.0,anomymised,6564584152624795c40b73cb,65645eb43de7f9dbf5928590,14353,1A,woman,NA,NA,Somebody says<br><em>Ruth and Kate are fighting with each other</em>,fight_conjoined,rating_volition,0,[0],The speaker identifies more with <br>Kate than Ruth,The speaker identifies more with<br>Ruth than Kate,right_to_left,conjoined
/Users/lefoll/Documents/UzK/Workshops/Participating/2025_ReplicationGames/like_me_study_reproduction/R_scripts/scripts_and_data_original/Data_Preprocessing_original/EmpathyStudy/full_empathy_data/14353_W.csv,4023.699999988079,NA,NA,NA,NA,survey-likert-extra-labels,28,182407,0.0-17.0-1.0,anomymised,6564584152624795c40b73cb,65645eb43de7f9dbf5928590,14353,1A,woman,NA,NA,Somebody says<br><em>Luke is being shouted at by Kate</em>,shout_passive,rating_volition,3,[0],The speaker identifies more with <br>Luke than Kate,The speaker identifies more with<br>Kate than Luke,left_to_right,passive
/Users/lefoll/Documents/UzK/Workshops/Participating/2025_ReplicationGames/like_me_study_reproduction/R_scripts/scripts_and_data_original/Data_Preprocessing_original/EmpathyStudy/full_empathy_data/14353_W.csv,1823.199999988079,NA,NA,NA,NA,survey-likert-extra-labels,30,186238,0.0-18.0-1.0,anomymised,6564584152624795c40b73cb,65645eb43de7f9dbf5928590,14353,1A,woman,NA,NA,Somebody says<br><em>Ruth and Beth are arguing with each other</em>,argue_conjoined,rating_volition,0,[0],The speaker identifies more with <br>Beth than Ruth,The speaker identifies more with<br>Ruth than Beth,right_to_left,conjoined
/Users/lefoll/Documents/UzK/Workshops/Participating/2025_ReplicationGames/like_me_study_reproduction/R_scripts/scripts_and_data_original/Data_Preprocessing_original/EmpathyStudy/full_empathy_data/14353_W.csv,3171,NA,NA,NA,NA,survey-likert-extra-labels,32,191422,0.0-19.0-1.0,anomymised,6564584152624795c40b73cb,65645eb43de7f9dbf5928590,14353,1A,woman,NA,NA,Somebody says<br><em>Fred is shouting at Kate</em>,shout_active,rating_volition,-3,[0],The speaker identifies more with <br>Fred than Kate,The speaker identifies more with<br>Kate than Fred,left_to_right,active
/Users/lefoll/Documents/UzK/Workshops/Participating/2025_ReplicationGames/like_me_study_reproduction/R_scripts/scripts_and_data_original/Data_Preprocessing_original/EmpathyStudy/full_empathy_data/14353_W.csv,1652.300000011921,NA,NA,NA,NA,survey-likert-extra-labels,34,195078,0.0-20.0-1.0,anomymised,6564584152624795c40b73cb,65645eb43de7f9dbf5928590,14353,1A,woman,NA,NA,Somebody says<br><em>Jane and Dave are playing with each other</em>,play_conjoined,rating_volition,0,[0],The speaker identifies more with <br>Dave than Jane,The speaker identifies more with<br>Jane than Dave,right_to_left,conjoined
/Users/lefoll/Documents/UzK/Workshops/Participating/2025_ReplicationGames/like_me_study_reproduction/R_scripts/scripts_and_data_original/Data_Preprocessing_original/EmpathyStudy/full_empathy_data/14353_W.csv,5888.800000011921,NA,NA,NA,NA,survey-likert-extra-labels,36,202974,0.0-21.0-1.0,anomymised,6564584152624795c40b73cb,65645eb43de7f9dbf5928590,14353,1A,woman,NA,NA,Somebody says<br><em>Jane is playing with Dave</em>,play_active,rating_volition,-3,[0],The speaker identifies more with <br>Dave than Jane,The speaker identifies more with<br>Jane than Dave,right_to_left,active
/Users/lefoll/Documents/UzK/Workshops/Participating/2025_ReplicationGames/like_me_study_reproduction/R_scripts/scripts_and_data_original/Data_Preprocessing_original/EmpathyStudy/full_empathy_data/14353_W.csv,2900.300000011921,NA,NA,NA,NA,survey-likert-extra-labels,38,207887,0.0-22.0-1.0,anomymised,6564584152624795c40b73cb,65645eb43de7f9dbf5928590,14353,1A,woman,NA,NA,Somebody says<br><em>Kate is seducing Dave</em>,seduce_active,rating_volition,-3,[0],The speaker identifies more with <br>Dave than Kate,The speaker identifies more with<br>Kate than Dave,right_to_left,active
/Users/lefoll/Documents/UzK/Workshops/Participating/2025_ReplicationGames/like_me_study_reproduction/R_scripts/scripts_and_data_original/Data_Preprocessing_original/EmpathyStudy/full_empathy_data/14353_W.csv,10297.599999964237,NA,NA,NA,NA,survey-likert-extra-labels,40,220191,0.0-23.0-1.0,anomymised,6564584152624795c40b73cb,65645eb43de7f9dbf5928590,14353,1A,woman,NA,NA,Somebody says<br><em>Ruth is marrying Kate</em>,marry_active,rating_volition,2,[0],The speaker identifies more with <br>Ruth than Kate,The speaker identifies more with<br>Kate than Ruth,left_to_right,active
/Users/lefoll/Documents/UzK/Workshops/Participating/2025_ReplicationGames/like_me_study_reproduction/R_scripts/scripts_and_data_original/Data_Preprocessing_original/EmpathyStudy/full_empathy_data/14353_W.csv,3137.7999999523163,NA,NA,NA,NA,survey-likert-extra-labels,42,225336,0.0-24.0-1.0,anomymised,6564584152624795c40b73cb,65645eb43de7f9dbf5928590,14353,1A,woman,NA,NA,Somebody says<br><em>Mike is shouting at Fred</em>,shout_active,rating_volition,-3,[0],The speaker identifies more with <br>Fred than Mike,The speaker identifies more with<br>Mike than Fred,right_to_left,active
/Users/lefoll/Documents/UzK/Workshops/Participating/2025_ReplicationGames/like_me_study_reproduction/R_scripts/scripts_and_data_original/Data_Preprocessing_original/EmpathyStudy/full_empathy_data/14353_W.csv,6671.099999964237,NA,NA,NA,NA,survey-likert-extra-labels,44,234024,0.0-25.0-1.0,anomymised,6564584152624795c40b73cb,65645eb43de7f9dbf5928590,14353,1A,woman,NA,NA,Somebody says<br><em>Kate is being hugged by Luke</em>,hug_passive,rating_volition,2,[0],The speaker identifies more with <br>Luke than Kate,The speaker identifies more with<br>Kate than Luke,right_to_left,passive
/Users/lefoll/Documents/UzK/Workshops/Participating/2025_ReplicationGames/like_me_study_reproduction/R_scripts/scripts_and_data_original/Data_Preprocessing_original/EmpathyStudy/full_empathy_data/14353_W.csv,2671.600000023842,NA,NA,NA,NA,survey-likert-extra-labels,46,238704,0.0-26.0-1.0,anomymised,6564584152624795c40b73cb,65645eb43de7f9dbf5928590,14353,1A,woman,NA,NA,Somebody says<br><em>Ruth is being challenged by Dave</em>,challenge_passive,rating_volition,2,[0],The speaker identifies more with <br>Dave than Ruth,The speaker identifies more with<br>Ruth than Dave,right_to_left,passive
/Users/lefoll/Documents/UzK/Workshops/Participating/2025_ReplicationGames/like_me_study_reproduction/R_scripts/scripts_and_data_original/Data_Preprocessing_original/EmpathyStudy/full_empathy_data/14353_W.csv,6477.400000035763,NA,NA,NA,NA,survey-likert-extra-labels,48,247201,0.0-27.0-1.0,anomymised,6564584152624795c40b73cb,65645eb43de7f9dbf5928590,14353,1A,woman,NA,NA,Somebody says<br><em>Jane is being copied by Ruth</em>,copy_passive,rating_volition,2,[0],The speaker identifies more with <br>Jane than Ruth,The speaker identifies more with<br>Ruth than Jane,left_to_right,passive
/Users/lefoll/Documents/UzK/Workshops/Participating/2025_ReplicationGames/like_me_study_reproduction/R_scripts/scripts_and_data_original/Data_Preprocessing_original/EmpathyStudy/full_empathy_data/14353_W.csv,22925.30000001192,NA,NA,NA,NA,survey-likert-extra-labels,50,272138,0.0-28.0-1.0,anomymised,6564584152624795c40b73cb,65645eb43de7f9dbf5928590,14353,1A,woman,NA,NA,Somebody says<br><em>Fred is greeting Ruth</em>,greet_active,rating_volition,-2,[0],The speaker identifies more with <br>Fred than Ruth,The speaker identifies more with<br>Ruth than Fred,left_to_right,active
/Users/lefoll/Documents/UzK/Workshops/Participating/2025_ReplicationGames/like_me_study_reproduction/R_scripts/scripts_and_data_original/Data_Preprocessing_original/EmpathyStudy/full_empathy_data/14353_W.csv,7413.699999988079,NA,NA,NA,NA,survey-likert-extra-labels,52,281570,0.0-29.0-1.0,anomymised,6564584152624795c40b73cb,65645eb43de7f9dbf5928590,14353,1A,woman,NA,NA,Somebody says<br><em>Jane is being kissed by Kate</em>,kiss_passive,rating_volition,2,[0],The speaker identifies more with <br>Kate than Jane,The speaker identifies more with<br>Jane than Kate,right_to_left,passive
/Users/lefoll/Documents/UzK/Workshops/Participating/2025_ReplicationGames/like_me_study_reproduction/R_scripts/scripts_and_data_original/Data_Preprocessing_original/EmpathyStudy/full_empathy_data/14353_W.csv,6504.299999952316,NA,NA,NA,NA,survey-likert-extra-labels,54,290090,0.0-30.0-1.0,anomymised,6564584152624795c40b73cb,65645eb43de7f9dbf5928590,14353,1A,woman,NA,NA,Somebody says<br><em>Beth is talking to Mike</em>,talk_active,rating_volition,0,[0],The speaker identifies more with <br>Mike than Beth,The speaker identifies more with<br>Beth than Mike,right_to_left,active
/Users/lefoll/Documents/UzK/Workshops/Participating/2025_ReplicationGames/like_me_study_reproduction/R_scripts/scripts_and_data_original/Data_Preprocessing_original/EmpathyStudy/full_empathy_data/14353_W.csv,2333.099999964237,NA,NA,NA,NA,survey-likert-extra-labels,56,294427,0.0-31.0-1.0,anomymised,6564584152624795c40b73cb,65645eb43de7f9dbf5928590,14353,1A,woman,NA,NA,Somebody says<br><em>Fred and Ruth are hugging each other</em>,hug_conjoined,rating_volition,0,[0],The speaker identifies more with <br>Ruth than Fred,The speaker identifies more with<br>Fred than Ruth,right_to_left,conjoined
/Users/lefoll/Documents/UzK/Workshops/Participating/2025_ReplicationGames/like_me_study_reproduction/R_scripts/scripts_and_data_original/Data_Preprocessing_original/EmpathyStudy/full_empathy_data/14353_W.csv,5566.799999952316,NA,NA,NA,NA,survey-likert-extra-labels,58,302012,0.0-32.0-1.0,anomymised,6564584152624795c40b73cb,65645eb43de7f9dbf5928590,14353,1A,woman,NA,NA,Somebody says<br><em>Ruth is dancing with Mike</em>,dance_active,rating_volition,-1,[0],The speaker identifies more with <br>Mike than Ruth,The speaker identifies more with<br>Ruth than Mike,right_to_left,active
/Users/lefoll/Documents/UzK/Workshops/Participating/2025_ReplicationGames/like_me_study_reproduction/R_scripts/scripts_and_data_original/Data_Preprocessing_original/EmpathyStudy/full_empathy_data/14353_W.csv,5625.600000023842,NA,NA,NA,NA,survey-likert-extra-labels,60,309651,0.0-33.0-1.0,anomymised,6564584152624795c40b73cb,65645eb43de7f9dbf5928590,14353,1A,woman,NA,NA,Somebody says<br><em>Ruth is hugging Dave</em>,hug_active,rating_volition,-2,[0],The speaker identifies more with <br>Dave than Ruth,The speaker identifies more with<br>Ruth than Dave,right_to_left,active
/Users/lefoll/Documents/UzK/Workshops/Participating/2025_ReplicationGames/like_me_study_reproduction/R_scripts/scripts_and_data_original/Data_Preprocessing_original/EmpathyStudy/full_empathy_data/14353_W.csv,1548.300000011921,NA,NA,NA,NA,survey-likert-extra-labels,62,313211,0.0-34.0-1.0,anomymised,6564584152624795c40b73cb,65645eb43de7f9dbf5928590,14353,1A,woman,NA,NA,Somebody says<br><em>Fred and Mike are flirting with each other</em>,flirt_conjoined,rating_volition,0,[0],The speaker identifies more with <br>Mike than Fred,The speaker identifies more with<br>Fred than Mike,right_to_left,conjoined
