"rt","stimulus","button_pressed","trial_type","trial_index","time_elapsed","internal_node_id","subject","list","condition","ppt_gender","url","key_press","sentence_type","verb","test_part","responses","question_order","left_part","right_part"
"2866.9099999997343","Welcome to the experiment. Press Continue to begin.","0","html-button-response","0","2878","0.0-0.0","16575","4A","conjoined","man","","","","","","","","",""
"44530.4299999998","","","external-html","1","48475","0.0-1.0","16575","4A","conjoined","man","consent.html","","","","","","","",""
"17489.805000000168","<p>Welcome.</p><p>In this experiment we will ask you to imagine some situations.</p><p>Each trial starts with a description of an event.</p><p>Then you will see alternative descriptions of that event, and you will rate on a scale how best they match the original description.</p><p>You will give your answer by clicking a button on a rating scale.</p><p>To do this task, you will have to use your imagination to visualise these events.</p><br><p>Ready?</p>","0","html-button-response","2","65972","0.0-2.0","16575","4A","conjoined","man","","","","","","","","",""
"2734.0949999997974","<p>Before the experiment starts, you will watch an example trial. Press 'Continue'.</p>","0","html-button-response","3","69710","0.0-3.0","16575","4A","conjoined","man","","","","","","","","",""
"null","The police officer is arresting the robber","","html-keyboard-response","4","72717","0.0-4.0","16575","4A","conjoined","man","","null","","","","","","",""
"49607.77000000054","<img src='img/Example-trial.jpg' style='height:550px;''></img>","0","html-button-response","5","122330","0.0-5.0","16575","4A","conjoined","man","","","","","","","","",""
"4647.919999999431","<p>Ready to start the experiment?</p><br><p><strong>Remember to give an answer by clicking a button on the rating scale.</strong></p><p>Press 'Continue' to begin.</p>","0","html-button-response","6","127983","0.0-6.0","16575","4A","conjoined","man","","","","","","","","",""
"null","Jane and Beth are fighting each other","","html-keyboard-response","7","130993","0.0-7.0-0.0","16575","4A","conjoined","man","","null","W2 and W4 are fighting each other","fight1","sentence","","","",""
"23323.23499999984","","","survey-likert-extra-labels","8","154333","0.0-7.0-2.0","16575","4A","conjoined","man","","","W2 and W4 are fighting each other","fight1","rating_volition","{""Q0"":3}","[0]","W4 wanted to fight W2","W2 wanted to fight W4"
"11031.735000000452","","","survey-likert-extra-labels","9","165375","0.0-7.0-3.0-0.0","16575","4A","conjoined","man","","","W2 and W4 are fighting each other","fight1","rating_causation","{""Q0"":3}","[0]","W4 started the fight with W2","W2 started the fight with W4"
"null","Luke and Kate are flirting with each other","","html-keyboard-response","10","167380","0.0-8.0-0.0","16575","4A","conjoined","man","","null","M1 and W3 are flirting with each other","flirt3","sentence","","","",""
"36235.05000000025","","","survey-likert-extra-labels","11","203619","0.0-8.0-2.0","16575","4A","conjoined","man","","","M1 and W3 are flirting with each other","flirt3","rating_volition","{""Q0"":3}","[0]","M1 wanted to flirt with W3","W3 wanted to flirt with M1"
"11239.595000000001","","","survey-likert-extra-labels","12","214866","0.0-8.0-3.0-0.0","16575","4A","conjoined","man","","","M1 and W3 are flirting with each other","flirt3","rating_causation","{""Q0"":3}","[0]","M1 started flirting with W3 first","W3 started flirting with M1 first"
"null","Fred and Luke are kissing each other","","html-keyboard-response","13","216873","0.0-9.0-0.0","16575","4A","conjoined","man","","null","M3 and M1 are kissing each other","kiss2","sentence","","","",""
"6367.63999999949","","","survey-likert-extra-labels","14","223246","0.0-9.0-1.0-0.0","16575","4A","conjoined","man","","","M3 and M1 are kissing each other","kiss2","rating_causation","{""Q0"":3}","[0]","M3 asked to kiss M1","M1 asked to kiss M3"
"9274.805000000022","","","survey-likert-extra-labels","15","232528","0.0-9.0-2.0","16575","4A","conjoined","man","","","M3 and M1 are kissing each other","kiss2","rating_volition","{""Q0"":3}","[0]","M3 wanted to kiss M1","M1 wanted to kiss M3"
"null","Beth and Mike are kissing each other","","html-keyboard-response","16","234533","0.0-10.0-0.0","16575","4A","conjoined","man","","null","W4 and M2 are kissing each other","kiss3","sentence","","","",""
"4843.3350000004575","","","survey-likert-extra-labels","17","239381","0.0-10.0-2.0","16575","4A","conjoined","man","","","W4 and M2 are kissing each other","kiss3","rating_volition","{""Q0"":3}","[0]","W4 wanted to kiss M2","M2 wanted to kiss W4"
"9513.745000000228","","","survey-likert-extra-labels","18","248921","0.0-10.0-3.0-0.0","16575","4A","conjoined","man","","","W4 and M2 are kissing each other","kiss3","rating_causation","{""Q0"":3}","[0]","W4 asked to kiss M2","M2 asked to kiss W4"
"null","Dave and Jane are kissing each other","","html-keyboard-response","19","250927","0.0-11.0-0.0","16575","4A","conjoined","man","","null","M4 and W2 are kissing each other","kiss4","sentence","","","",""
"8698.325000000303","","","survey-likert-extra-labels","20","259633","0.0-11.0-1.0-0.0","16575","4A","conjoined","man","","","M4 and W2 are kissing each other","kiss4","rating_causation","{""Q0"":3}","[0]","M4 asked to kiss W2","W2 asked to kiss M4"
"15500.109999999986","","","survey-likert-extra-labels","21","275148","0.0-11.0-2.0","16575","4A","conjoined","man","","","M4 and W2 are kissing each other","kiss4","rating_volition","{""Q0"":3}","[0]","M4 wanted to kiss W2","W2 wanted to kiss M4"
"null","Ruth and Kate are arguing with each other","","html-keyboard-response","22","277155","0.0-12.0-0.0","16575","4A","conjoined","man","","null","W1 and W3 are arguing with each other","argue1","sentence","","","",""
"4004.6100000009174","","","survey-likert-extra-labels","23","281167","0.0-12.0-2.0","16575","4A","conjoined","man","","","W1 and W3 are arguing with each other","argue1","rating_volition","{""Q0"":3}","[0]","W3 wanted to argue with W1","W1 wanted to argue with W3"
"9373.140000000596","","","survey-likert-extra-labels","24","290549","0.0-12.0-3.0-0.0","16575","4A","conjoined","man","","","W1 and W3 are arguing with each other","argue1","rating_causation","{""Q0"":3}","[0]","W3 started an argument with W1","W1 started an argument with W3"
"null","Jane is teaching Dave","","html-keyboard-response","25","292558","0.0-13.0-0.0","16575","4A","conjoined","man","","null","W2 is teaching M4","teach","sentence","","","",""
"19073.449999999837","","","survey-likert-extra-labels","26","311637","0.0-13.0-2.0","16575","4A","conjoined","man","","","W2 is teaching M4","teach","rating_volition","{""Q0"":0}","[0]","W2 is educating M4","M4 is educating W2"
"25743.500000000466","","","survey-likert-extra-labels","27","337391","0.0-13.0-3.0-0.0","16575","4A","conjoined","man","","","W2 is teaching M4","teach","rating_causation","{""Q0"":6}","[0]","W2 is learning from M4","M4 is learning from W2"
"null","Jane is carrying Beth","","html-keyboard-response","28","339399","0.0-14.0-0.0","16575","4A","conjoined","man","","null","W2 is carrying W4","carry","sentence","","","",""
"23449.89500000159","","","survey-likert-extra-labels","29","362854","0.0-14.0-1.0-0.0","16575","4A","conjoined","man","","","W2 is carrying W4","carry","rating_causation","{""Q0"":6}","[0]","W2 is being moved by W4","W4 is being moved by W2"
"15504.424999999173","","","survey-likert-extra-labels","30","378371","0.0-14.0-2.0","16575","4A","conjoined","man","","","W2 is carrying W4","carry","rating_volition","{""Q0"":0}","[0]","W2 is transporting W4","W4 is transporting W2"
"null","Ruth and Fred are marrying each other","","html-keyboard-response","31","380378","0.0-15.0-0.0","16575","4A","conjoined","man","","null","W1 and M3 are marrying each other","marry3","sentence","","","",""
"6719.65499999898","","","survey-likert-extra-labels","32","387105","0.0-15.0-1.0-0.0","16575","4A","conjoined","man","","","W1 and M3 are marrying each other","marry3","rating_causation","{""Q0"":3}","[0]","W1 asked to marry M3","M3 asked to marry W1"
"8328.47500000021","","","survey-likert-extra-labels","33","395447","0.0-15.0-2.0","16575","4A","conjoined","man","","","W1 and M3 are marrying each other","marry3","rating_volition","{""Q0"":3}","[0]","W1 wanted to marry M3","M3 wanted to marry W1"
"null","Luke and Fred are arguing with each other","","html-keyboard-response","34","397454","0.0-16.0-0.0","16575","4A","conjoined","man","","null","M1 and M3 are arguing with each other","argue2","sentence","","","",""
"6098.640000000189","","","survey-likert-extra-labels","35","403558","0.0-16.0-1.0-0.0","16575","4A","conjoined","man","","","M1 and M3 are arguing with each other","argue2","rating_causation","{""Q0"":3}","[0]","M3 started an argument with M1","M1 started an argument with M3"
"9320.589999999327","","","survey-likert-extra-labels","36","412886","0.0-16.0-2.0","16575","4A","conjoined","man","","","M1 and M3 are arguing with each other","argue2","rating_volition","{""Q0"":3}","[0]","M3 wanted to argue with M1","M1 wanted to argue with M3"
"null","Luke is driving Fred","","html-keyboard-response","37","414890","0.0-17.0-0.0","16575","4A","conjoined","man","","null","M1 is driving M3","drive","sentence","","","",""
"13349.480000000738","","","survey-likert-extra-labels","38","428245","0.0-17.0-2.0","16575","4A","conjoined","man","","","M1 is driving M3","drive","rating_volition","{""Q0"":0}","[0]","M3 is M1's passenger","M1 is M3's passenger"
"12587.07499999943","","","survey-likert-extra-labels","39","440840","0.0-17.0-3.0-0.0","16575","4A","conjoined","man","","","M1 is driving M3","drive","rating_causation","{""Q0"":6}","[0]","M3 is taking M1 somewhere","M1 is taking M3 somewhere"
"null","Dave and Jane are talking to each other","","html-keyboard-response","40","442845","0.0-18.0-0.0","16575","4A","conjoined","man","","null","M4 and W2 are talking to each other","talk3","sentence","","","",""
"14368.669999999809","","","survey-likert-extra-labels","41","457220","0.0-18.0-2.0","16575","4A","conjoined","man","","","M4 and W2 are talking to each other","talk3","rating_volition","{""Q0"":3}","[0]","M4 wanted to talk to W2","W2 wanted to talk to M4"
"7036.584999999846","","","survey-likert-extra-labels","42","464267","0.0-18.0-3.0-0.0","16575","4A","conjoined","man","","","M4 and W2 are talking to each other","talk3","rating_causation","{""Q0"":3}","[0]","M4 started a conversation with W2","W2 started a conversation with M4"
"null","Beth and Jane are marrying each other","","html-keyboard-response","43","466271","0.0-19.0-0.0","16575","4A","conjoined","man","","null","W4 and W2 are marrying each other","marry1","sentence","","","",""
"4991.519999999553","","","survey-likert-extra-labels","44","471268","0.0-19.0-1.0-0.0","16575","4A","conjoined","man","","","W4 and W2 are marrying each other","marry1","rating_causation","{""Q0"":3}","[0]","W4 asked to marry W2","W2 asked to marry W4"
"32313.745000001276","","","survey-likert-extra-labels","45","503589","0.0-19.0-2.0","16575","4A","conjoined","man","","","W4 and W2 are marrying each other","marry1","rating_volition","{""Q0"":3}","[0]","W4 wanted to marry W2","W2 wanted to marry W4"
"null","Kate is feeding Luke","","html-keyboard-response","46","505596","0.0-20.0-0.0","16575","4A","conjoined","man","","null","W3 is feeding M1","feed","sentence","","","",""
"28533.45000000077","","","survey-likert-extra-labels","47","534135","0.0-20.0-2.0","16575","4A","conjoined","man","","","W3 is feeding M1","feed","rating_volition","{""Q0"":0}","[0]","W3 is giving M1 food","M1 is giving W3 food"
"32930.915000000736","","","survey-likert-extra-labels","48","567072","0.0-20.0-3.0-0.0","16575","4A","conjoined","man","","","W3 is feeding M1","feed","rating_causation","{""Q0"":6}","[0]","W3 is eating M1's food","M1 is eating W3's food"
"null","Luke and Kate are marrying each other","","html-keyboard-response","49","569077","0.0-21.0-0.0","16575","4A","conjoined","man","","null","M1 and W3 are marrying each other","marry4","sentence","","","",""
"5938.729999999865","","","survey-likert-extra-labels","50","575021","0.0-21.0-2.0","16575","4A","conjoined","man","","","M1 and W3 are marrying each other","marry4","rating_volition","{""Q0"":3}","[0]","M1 wanted to marry W3","W3 wanted to marry M1"
"8559.714999999385","","","survey-likert-extra-labels","51","583588","0.0-21.0-3.0-0.0","16575","4A","conjoined","man","","","M1 and W3 are marrying each other","marry4","rating_causation","{""Q0"":3}","[0]","M1 asked to marry W3","W3 asked to marry M1"
"null","Kate and Luke are fighting each other","","html-keyboard-response","52","585595","0.0-22.0-0.0","16575","4A","conjoined","man","","null","W3 and M1 are fighting each other","fight3","sentence","","","",""
"5828.1150000002235","","","survey-likert-extra-labels","53","591429","0.0-22.0-2.0","16575","4A","conjoined","man","","","W3 and M1 are fighting each other","fight3","rating_volition","{""Q0"":3}","[0]","M1 wanted to fight W3","W3 wanted to fight M1"
"6697.990000000573","","","survey-likert-extra-labels","54","598135","0.0-22.0-3.0-0.0","16575","4A","conjoined","man","","","W3 and M1 are fighting each other","fight3","rating_causation","{""Q0"":3}","[0]","M1 started the fight with W3","W3 started the fight with M1"
"null","Dave and Mike are marrying each other","","html-keyboard-response","55","600141","0.0-23.0-0.0","16575","4A","conjoined","man","","null","M4 and M2 are marrying each other","marry2","sentence","","","",""
"6358.920000000624","","","survey-likert-extra-labels","56","606505","0.0-23.0-1.0-0.0","16575","4A","conjoined","man","","","M4 and M2 are marrying each other","marry2","rating_causation","{""Q0"":3}","[0]","M4 asked to marry M2","M2 asked to marry M4"
"7752.63999999885","","","survey-likert-extra-labels","57","614267","0.0-23.0-2.0","16575","4A","conjoined","man","","","M4 and M2 are marrying each other","marry2","rating_volition","{""Q0"":3}","[0]","M4 wanted to marry M2","M2 wanted to marry M4"
"null","Mike and Dave are fighting each other","","html-keyboard-response","58","616271","0.0-24.0-0.0","16575","4A","conjoined","man","","null","M2 and M4 are fighting each other","fight2","sentence","","","",""
"4939.824999999488","","","survey-likert-extra-labels","59","621217","0.0-24.0-2.0","16575","4A","conjoined","man","","","M2 and M4 are fighting each other","fight2","rating_volition","{""Q0"":3}","[0]","M4 wanted to fight M2","M2 wanted to fight M4"
"5862.819999998552","","","survey-likert-extra-labels","60","627088","0.0-24.0-3.0-0.0","16575","4A","conjoined","man","","","M2 and M4 are fighting each other","fight2","rating_causation","{""Q0"":3}","[0]","M4 started the fight with M2","M2 started the fight with M4"
"null","Dave and Mike are touching each other","","html-keyboard-response","61","629094","0.0-25.0-0.0","16575","4A","conjoined","man","","null","M4 and M2 are touching each other","touch2","sentence","","","",""
"6231.020000001066","","","survey-likert-extra-labels","62","635331","0.0-25.0-2.0","16575","4A","conjoined","man","","","M4 and M2 are touching each other","touch2","rating_volition","{""Q0"":3}","[0]","M4 wanted to touch M2","M2 wanted to touch M4"
"5875.215000000084","","","survey-likert-extra-labels","63","641215","0.0-25.0-3.0-0.0","16575","4A","conjoined","man","","","M4 and M2 are touching each other","touch2","rating_causation","{""Q0"":3}","[0]","M4 asked to touch M2","M2 asked to touch M4"
"null","Fred and Ruth are playing with each other","","html-keyboard-response","64","643222","0.0-26.0-0.0","16575","4A","conjoined","man","","null","M3 and W1 are playing with each other","play3","sentence","","","",""
"5771.604999999865","","","survey-likert-extra-labels","65","648999","0.0-26.0-1.0-0.0","16575","4A","conjoined","man","","","M3 and W1 are playing with each other","play3","rating_causation","{""Q0"":3}","[0]","W1 asked to play with M3","M3 asked to play with W1"
"5935.385000000708","","","survey-likert-extra-labels","66","654944","0.0-26.0-2.0","16575","4A","conjoined","man","","","M3 and W1 are playing with each other","play3","rating_volition","{""Q0"":3}","[0]","W1 wanted to play with M3","M3 wanted to play with W1"
"null","Jane and Dave are shouting at each other","","html-keyboard-response","67","656950","0.0-27.0-0.0","16575","4A","conjoined","man","","null","W2 and M4 are shouting at each other","shout4","sentence","","","",""
"8710.785000001197","","","survey-likert-extra-labels","68","665670","0.0-27.0-2.0","16575","4A","conjoined","man","","","W2 and M4 are shouting at each other","shout4","rating_volition","{""Q0"":3}","[0]","M4 wanted to shout at W2","W2 wanted to shout at M4"
"5060.929999999586","","","survey-likert-extra-labels","69","670749","0.0-27.0-3.0-0.0","16575","4A","conjoined","man","","","W2 and M4 are shouting at each other","shout4","rating_causation","{""Q0"":3}","[0]","M4 shouted at W2 first","W2 shouted at M4 first"
"null","Ruth is chasing Kate","","html-keyboard-response","70","672757","0.0-28.0-0.0","16575","4A","conjoined","man","","null","W1 is chasing W3","chase","sentence","","","",""
"18186.705000000075","","","survey-likert-extra-labels","71","690950","0.0-28.0-1.0-0.0","16575","4A","conjoined","man","","","W1 is chasing W3","chase","rating_causation","{""Q0"":6}","[0]","W1 is running away from W3","W3 is running away from W1"
"16039.479999999516","","","survey-likert-extra-labels","72","706999","0.0-28.0-2.0","16575","4A","conjoined","man","","","W1 is chasing W3","chase","rating_volition","{""Q0"":0}","[0]","W1 is behind W3","W3 is behind W1"
"null","Beth and Jane are flirting with each other","","html-keyboard-response","73","709005","0.0-29.0-0.0","16575","4A","conjoined","man","","null","W4 and W2 are flirting with each other","flirt1","sentence","","","",""
"5318.955000000657","","","survey-likert-extra-labels","74","714329","0.0-29.0-2.0","16575","4A","conjoined","man","","","W4 and W2 are flirting with each other","flirt1","rating_volition","{""Q0"":3}","[0]","W4 wanted to flirt with W2","W2 wanted to flirt with W4"
"6990.83000000054","","","survey-likert-extra-labels","75","721328","0.0-29.0-3.0-0.0","16575","4A","conjoined","man","","","W4 and W2 are flirting with each other","flirt1","rating_causation","{""Q0"":3}","[0]","W4 started flirting with W2 first","W2 started flirting with W4 first"
"null","Dave and Jane are dancing with each other","","html-keyboard-response","76","723333","0.0-30.0-0.0","16575","4A","conjoined","man","","null","M4 and W2 are dancing with each other","dance3","sentence","","","",""
"6170.89499999932","","","survey-likert-extra-labels","77","729509","0.0-30.0-1.0-0.0","16575","4A","conjoined","man","","","M4 and W2 are dancing with each other","dance3","rating_causation","{""Q0"":3}","[0]","M4 asked W2 to dance","W2 asked M4 to dance"
"5226.8800000002375","","","survey-likert-extra-labels","78","734744","0.0-30.0-2.0","16575","4A","conjoined","man","","","M4 and W2 are dancing with each other","dance3","rating_volition","{""Q0"":3}","[0]","M4 wanted to dance with W2","W2 wanted to dance with M4"
"null","Mike and Dave are playing with each other","","html-keyboard-response","79","736752","0.0-31.0-0.0","16575","4A","conjoined","man","","null","M2 and M4 are playing with each other","play2","sentence","","","",""
"4010.5299999995623","","","survey-likert-extra-labels","80","740768","0.0-31.0-1.0-0.0","16575","4A","conjoined","man","","","M2 and M4 are playing with each other","play2","rating_causation","{""Q0"":3}","[0]","M4 asked to play with M2","M2 asked to play with M4"
"6785.640000000014","","","survey-likert-extra-labels","81","747562","0.0-31.0-2.0","16575","4A","conjoined","man","","","M2 and M4 are playing with each other","play2","rating_volition","{""Q0"":3}","[0]","M4 wanted to play with M2","M2 wanted to play with M4"
"null","Kate and Ruth are kissing each other","","html-keyboard-response","82","749568","0.0-32.0-0.0","16575","4A","conjoined","man","","null","W3 and W1 are kissing each other","kiss1","sentence","","","",""
"5648.665000000619","","","survey-likert-extra-labels","83","755221","0.0-32.0-2.0","16575","4A","conjoined","man","","","W3 and W1 are kissing each other","kiss1","rating_volition","{""Q0"":3}","[0]","W3 wanted to kiss W1","W1 wanted to kiss W3"
"7920.950000001467","","","survey-likert-extra-labels","84","763149","0.0-32.0-3.0-0.0","16575","4A","conjoined","man","","","W3 and W1 are kissing each other","kiss1","rating_causation","{""Q0"":3}","[0]","W3 asked to kiss W1","W1 asked to kiss W3"
"null","Mike and Beth are shouting at each other","","html-keyboard-response","85","765154","0.0-33.0-0.0","16575","4A","conjoined","man","","null","M2 and W4 are shouting at each other","shout3","sentence","","","",""
"4224.899999999208","","","survey-likert-extra-labels","86","769385","0.0-33.0-2.0","16575","4A","conjoined","man","","","M2 and W4 are shouting at each other","shout3","rating_volition","{""Q0"":3}","[0]","W4 wanted to shout at M2","M2 wanted to shout at W4"
"7079.534999998868","","","survey-likert-extra-labels","87","776473","0.0-33.0-3.0-0.0","16575","4A","conjoined","man","","","M2 and W4 are shouting at each other","shout3","rating_causation","{""Q0"":3}","[0]","W4 shouted at M2 first","M2 shouted at W4 first"
"null","Beth and Mike are dancing with each other","","html-keyboard-response","88","778479","0.0-34.0-0.0","16575","4A","conjoined","man","","null","W4 and M2 are dancing with each other","dance4","sentence","","","",""
"3726.9699999997392","","","survey-likert-extra-labels","89","782212","0.0-34.0-2.0","16575","4A","conjoined","man","","","W4 and M2 are dancing with each other","dance4","rating_volition","{""Q0"":3}","[0]","W4 wanted to dance with M2","M2 wanted to dance with W4"
"5859.480000001029","","","survey-likert-extra-labels","90","788077","0.0-34.0-3.0-0.0","16575","4A","conjoined","man","","","W4 and M2 are dancing with each other","dance4","rating_causation","{""Q0"":3}","[0]","W4 asked M2 to dance","M2 asked W4 to dance"
"null","Dave and Mike are flirting with each other","","html-keyboard-response","91","790082","0.0-35.0-0.0","16575","4A","conjoined","man","","null","M4 and M2 are flirting with each other","flirt2","sentence","","","",""
"4785.835000000661","","","survey-likert-extra-labels","92","794873","0.0-35.0-2.0","16575","4A","conjoined","man","","","M4 and M2 are flirting with each other","flirt2","rating_volition","{""Q0"":3}","[0]","M4 wanted to flirt with M2","M2 wanted to flirt with M4"
"8412.515000000014","","","survey-likert-extra-labels","93","803293","0.0-35.0-3.0-0.0","16575","4A","conjoined","man","","","M4 and M2 are flirting with each other","flirt2","rating_causation","{""Q0"":3}","[0]","M4 started flirting with M2 first","M2 started flirting with M4 first"
"null","Fred and Ruth are fighting each other","","html-keyboard-response","94","805298","0.0-36.0-0.0","16575","4A","conjoined","man","","null","M3 and W1 are fighting each other","fight4","sentence","","","",""
"5278.519999999786","","","survey-likert-extra-labels","95","810582","0.0-36.0-1.0-0.0","16575","4A","conjoined","man","","","M3 and W1 are fighting each other","fight4","rating_causation","{""Q0"":3}","[0]","W1 started the fight with M3","M3 started the fight with W1"
"6562.700000000419","","","survey-likert-extra-labels","96","817152","0.0-36.0-2.0","16575","4A","conjoined","man","","","M3 and W1 are fighting each other","fight4","rating_volition","{""Q0"":3}","[0]","W1 wanted to fight M3","M3 wanted to fight W1"
"null","Ruth and Fred are flirting with each other","","html-keyboard-response","97","819157","0.0-37.0-0.0","16575","4A","conjoined","man","","null","W1 and M3 are flirting with each other","flirt4","sentence","","","",""
"4535.329999998794","","","survey-likert-extra-labels","98","823704","0.0-37.0-2.0","16575","4A","conjoined","man","","","W1 and M3 are flirting with each other","flirt4","rating_volition","{""Q0"":3}","[0]","W1 wanted to flirt with M3","M3 wanted to flirt with W1"
"5394.694999999017","","","survey-likert-extra-labels","99","829106","0.0-37.0-3.0-0.0","16575","4A","conjoined","man","","","W1 and M3 are flirting with each other","flirt4","rating_causation","{""Q0"":3}","[0]","W1 started flirting with M3 first","M3 started flirting with W1 first"
"null","Fred is hiring Ruth","","html-keyboard-response","100","831113","0.0-38.0-0.0","16575","4A","conjoined","man","","null","M3 is hiring W1","hire","sentence","","","",""
"7510.000000000233","","","survey-likert-extra-labels","101","838628","0.0-38.0-2.0","16575","4A","conjoined","man","","","M3 is hiring W1","hire","rating_volition","{""Q0"":0}","[0]","M3 is employing W1","W1 is employing M3"
"12723.710000000312","","","survey-likert-extra-labels","102","851359","0.0-38.0-3.0-0.0","16575","4A","conjoined","man","","","M3 is hiring W1","hire","rating_causation","{""Q0"":6}","[0]","M3 will work for W1","W1 will work for M3"
"null","Mike and Beth are arguing with each other","","html-keyboard-response","103","853364","0.0-39.0-0.0","16575","4A","conjoined","man","","null","M2 and W4 are arguing with each other","argue4","sentence","","","",""
"5444.39999999851","","","survey-likert-extra-labels","104","858814","0.0-39.0-2.0","16575","4A","conjoined","man","","","M2 and W4 are arguing with each other","argue4","rating_volition","{""Q0"":3}","[0]","W4 wanted to argue with M2","M2 wanted to argue with W4"
"5098.340000000433","","","survey-likert-extra-labels","105","863922","0.0-39.0-3.0-0.0","16575","4A","conjoined","man","","","M2 and W4 are arguing with each other","argue4","rating_causation","{""Q0"":3}","[0]","W4 started an argument with M2","M2 started an argument with W4"
"null","Luke and Fred are shouting at each other","","html-keyboard-response","106","865930","0.0-40.0-0.0","16575","4A","conjoined","man","","null","M1 and M3 are shouting at each other","shout2","sentence","","","",""
"4412.550000000978","","","survey-likert-extra-labels","107","870348","0.0-40.0-1.0-0.0","16575","4A","conjoined","man","","","M1 and M3 are shouting at each other","shout2","rating_causation","{""Q0"":3}","[0]","M3 shouted at M1 first","M1 shouted at M3 first"
"4585.829999999958","","","survey-likert-extra-labels","108","874941","0.0-40.0-2.0","16575","4A","conjoined","man","","","M1 and M3 are shouting at each other","shout2","rating_volition","{""Q0"":3}","[0]","M3 wanted to shout at M1","M1 wanted to shout at M3"
"null","Mike is reminding Beth","","html-keyboard-response","109","876947","0.0-41.0-0.0","16575","4A","conjoined","man","","null","M2 is reminding W4","remind","sentence","","","",""
"20592.055000000983","","","survey-likert-extra-labels","110","897544","0.0-41.0-1.0-0.0","16575","4A","conjoined","man","","","M2 is reminding W4","remind","rating_causation","{""Q0"":3}","[0]","M2 is remembering","W4 is remembering"
"70933.95999999845","","","survey-likert-extra-labels","111","968487","0.0-41.0-2.0","16575","4A","conjoined","man","","","M2 is reminding W4","remind","rating_volition","{""Q0"":0}","[0]","M2 is telling W4 again","W4 is telling M2 again"
"null","Jane and Dave are arguing with each other","","html-keyboard-response","112","970494","0.0-42.0-0.0","16575","4A","conjoined","man","","null","W2 and M4 are arguing with each other","argue3","sentence","","","",""
"6423.0299999999115","","","survey-likert-extra-labels","113","976922","0.0-42.0-2.0","16575","4A","conjoined","man","","","W2 and M4 are arguing with each other","argue3","rating_volition","{""Q0"":3}","[0]","M4 wanted to argue with W2","W2 wanted to argue with M4"
"5879.525000000256","","","survey-likert-extra-labels","114","982808","0.0-42.0-3.0-0.0","16575","4A","conjoined","man","","","W2 and M4 are arguing with each other","argue3","rating_causation","{""Q0"":3}","[0]","M4 started an argument with W2","W2 started an argument with M4"
"null","Kate and Luke are playing with each other","","html-keyboard-response","115","984815","0.0-43.0-0.0","16575","4A","conjoined","man","","null","W3 and M1 are playing with each other","play4","sentence","","","",""
"5327.71999999939","","","survey-likert-extra-labels","116","990150","0.0-43.0-1.0-0.0","16575","4A","conjoined","man","","","W3 and M1 are playing with each other","play4","rating_causation","{""Q0"":3}","[0]","M1 asked to play with W3","W3 asked to play with M1"
"10577.619999999995","","","survey-likert-extra-labels","117","1000737","0.0-43.0-2.0","16575","4A","conjoined","man","","","W3 and M1 are playing with each other","play4","rating_volition","{""Q0"":3}","[0]","M1 wanted to play with W3","W3 wanted to play with M1"
"null","Fred and Luke are dancing with each other","","html-keyboard-response","118","1002744","0.0-44.0-0.0","16575","4A","conjoined","man","","null","M3 and M1 are dancing with each other","dance2","sentence","","","",""
"4392.1599999994505","","","survey-likert-extra-labels","119","1007145","0.0-44.0-2.0","16575","4A","conjoined","man","","","M3 and M1 are dancing with each other","dance2","rating_volition","{""Q0"":3}","[0]","M3 wanted to dance with M1","M1 wanted to dance with M3"
"5499.314999999129","","","survey-likert-extra-labels","120","1012654","0.0-44.0-3.0-0.0","16575","4A","conjoined","man","","","M3 and M1 are dancing with each other","dance2","rating_causation","{""Q0"":3}","[0]","M3 asked M1 to dance","M1 asked M3 to dance"
"null","Kate and Ruth are dancing with each other","","html-keyboard-response","121","1014667","0.0-45.0-0.0","16575","4A","conjoined","man","","null","W3 and W1 are dancing with each other","dance1","sentence","","","",""
"5872.44500000088","","","survey-likert-extra-labels","122","1020546","0.0-45.0-2.0","16575","4A","conjoined","man","","","W3 and W1 are dancing with each other","dance1","rating_volition","{""Q0"":3}","[0]","W3 wanted to dance with W1","W1 wanted to dance with W3"
"4623.055000000051","","","survey-likert-extra-labels","123","1025176","0.0-45.0-3.0-0.0","16575","4A","conjoined","man","","","W3 and W1 are dancing with each other","dance1","rating_causation","{""Q0"":3}","[0]","W3 asked W1 to dance","W1 asked W3 to dance"
"null","Ruth and Kate are shouting at each other","","html-keyboard-response","124","1027181","0.0-46.0-0.0","16575","4A","conjoined","man","","null","W1 and W3 are shouting at each other","shout1","sentence","","","",""
"4470.85999999952","","","survey-likert-extra-labels","125","1031657","0.0-46.0-2.0","16575","4A","conjoined","man","","","W1 and W3 are shouting at each other","shout1","rating_volition","{""Q0"":3}","[0]","W3 wanted to shout at W1","W1 wanted to shout at W3"
"6621.5449999999255","","","survey-likert-extra-labels","126","1038290","0.0-46.0-3.0-0.0","16575","4A","conjoined","man","","","W1 and W3 are shouting at each other","shout1","rating_causation","{""Q0"":3}","[0]","W3 shouted at W1 first","W1 shouted at W3 first"
"null","Beth and Jane are touching each other","","html-keyboard-response","127","1040295","0.0-47.0-0.0","16575","4A","conjoined","man","","null","W4 and W2 are touching each other","touch1","sentence","","","",""
"5728.709999999381","","","survey-likert-extra-labels","128","1046029","0.0-47.0-2.0","16575","4A","conjoined","man","","","W4 and W2 are touching each other","touch1","rating_volition","{""Q0"":3}","[0]","W4 wanted to touch W2","W2 wanted to touch W4"
"5318.025000000489","","","survey-likert-extra-labels","129","1051354","0.0-47.0-3.0-0.0","16575","4A","conjoined","man","","","W4 and W2 are touching each other","touch1","rating_causation","{""Q0"":3}","[0]","W4 asked to touch W2","W2 asked to touch W4"
"null","Jane and Beth are playing with each other","","html-keyboard-response","130","1053360","0.0-48.0-0.0","16575","4A","conjoined","man","","null","W2 and W4 are playing with each other","play1","sentence","","","",""
"5617.485000000568","","","survey-likert-extra-labels","131","1058984","0.0-48.0-2.0","16575","4A","conjoined","man","","","W2 and W4 are playing with each other","play1","rating_volition","{""Q0"":3}","[0]","W4 wanted to play with W2","W2 wanted to play with W4"
"8562.495000000112","","","survey-likert-extra-labels","132","1067571","0.0-48.0-3.0-0.0","16575","4A","conjoined","man","","","W2 and W4 are playing with each other","play1","rating_causation","{""Q0"":3}","[0]","W4 asked to play with W2","W2 asked to play with W4"
"null","Mike is posing for Dave","","html-keyboard-response","133","1069576","0.0-49.0-0.0","16575","4A","conjoined","man","","null","M2 is posing for M4","pose","sentence","","","",""
"20602.430000000633","","","survey-likert-extra-labels","134","1090186","0.0-49.0-2.0","16575","4A","conjoined","man","","","M2 is posing for M4","pose","rating_volition","{""Q0"":0}","[0]","M2 is modelling for M4","M4 is modelling for M2"
"22398.67000000039","","","survey-likert-extra-labels","135","1112596","0.0-49.0-3.0-0.0","16575","4A","conjoined","man","","","M2 is posing for M4","pose","rating_causation","{""Q0"":0}","[0]","M2 is photographing M4","M4 is photographing M2"
"null","Ruth and Fred are touching each other","","html-keyboard-response","136","1114601","0.0-50.0-0.0","16575","4A","conjoined","man","","null","W1 and M3 are touching each other","touch4","sentence","","","",""
"3513.6350000011735","","","survey-likert-extra-labels","137","1118119","0.0-50.0-2.0","16575","4A","conjoined","man","","","W1 and M3 are touching each other","touch4","rating_volition","{""Q0"":3}","[0]","W1 wanted to touch M3","M3 wanted to touch W1"
"9565.694999999367","","","survey-likert-extra-labels","138","1127701","0.0-50.0-3.0-0.0","16575","4A","conjoined","man","","","W1 and M3 are touching each other","touch4","rating_causation","{""Q0"":3}","[0]","W1 asked to touch M3","M3 asked to touch W1"
"null","Fred and Luke are talking to each other","","html-keyboard-response","139","1129709","0.0-51.0-0.0","16575","4A","conjoined","man","","null","M3 and M1 are talking to each other","talk2","sentence","","","",""
"5897.549999999581","","","survey-likert-extra-labels","140","1135612","0.0-51.0-2.0","16575","4A","conjoined","man","","","M3 and M1 are talking to each other","talk2","rating_volition","{""Q0"":3}","[0]","M3 wanted to talk to M1","M1 wanted to talk to M3"
"6955.550000000745","","","survey-likert-extra-labels","141","1142577","0.0-51.0-3.0-0.0","16575","4A","conjoined","man","","","M3 and M1 are talking to each other","talk2","rating_causation","{""Q0"":3}","[0]","M3 started a conversation with M1","M1 started a conversation with M3"
"null","Luke and Kate are touching each other","","html-keyboard-response","142","1144582","0.0-52.0-0.0","16575","4A","conjoined","man","","null","M1 and W3 are touching each other","touch3","sentence","","","",""
"3978.3249999999534","","","survey-likert-extra-labels","143","1148566","0.0-52.0-2.0","16575","4A","conjoined","man","","","M1 and W3 are touching each other","touch3","rating_volition","{""Q0"":3}","[0]","M1 wanted to touch W3","W3 wanted to touch M1"
"5618.570000000531","","","survey-likert-extra-labels","144","1154194","0.0-52.0-3.0-0.0","16575","4A","conjoined","man","","","M1 and W3 are touching each other","touch3","rating_causation","{""Q0"":3}","[0]","M1 asked to touch W3","W3 asked to touch M1"
"null","Beth and Mike are talking to each other","","html-keyboard-response","145","1156199","0.0-53.0-0.0","16575","4A","conjoined","man","","null","W4 and M2 are talking to each other","talk4","sentence","","","",""
"6833.969999999739","","","survey-likert-extra-labels","146","1163038","0.0-53.0-1.0-0.0","16575","4A","conjoined","man","","","W4 and M2 are talking to each other","talk4","rating_causation","{""Q0"":3}","[0]","W4 started a conversation with M2","M2 started a conversation with W4"
"5457.785000000615","","","survey-likert-extra-labels","147","1168503","0.0-53.0-2.0","16575","4A","conjoined","man","","","W4 and M2 are talking to each other","talk4","rating_volition","{""Q0"":3}","[0]","W4 wanted to talk to M2","M2 wanted to talk to W4"
"null","Kate and Ruth are talking to each other","","html-keyboard-response","148","1170507","0.0-54.0-0.0","16575","4A","conjoined","man","","null","W3 and W1 are talking to each other","talk1","sentence","","","",""
"4916.530000000494","","","survey-likert-extra-labels","149","1175429","0.0-54.0-1.0-0.0","16575","4A","conjoined","man","","","W3 and W1 are talking to each other","talk1","rating_causation","{""Q0"":3}","[0]","W3 started a conversation with W1","W1 started a conversation with W3"
"7350.6500000003725","","","survey-likert-extra-labels","150","1182787","0.0-54.0-2.0","16575","4A","conjoined","man","","","W3 and W1 are talking to each other","talk1","rating_volition","{""Q0"":3}","[0]","W3 wanted to talk to W1","W1 wanted to talk to W3"
"3146.9200000010896","<p>Thank you for completing that task.</p><p>The final part of this session is a short questionnaire.</p><p>Press Continue.</p>","0","html-button-response","151","1185939","0.0-55.0","16575","4A","conjoined","man","","","","","","","","",""
"55022.490000001155","","","survey-text","152","1241982","0.0-56.0","16575","4A","conjoined","man","","","","","demographics","{""Q0"":""66"",""Q1"":""English"",""Q2"":""English"",""Q3"":""England"",""Q4"":""British"",""Q5"":""White"",""Q6"":""Male""}","","",""
"2618.5549999990035","<p>Have you lived in the UK for the last 5 years or more?</p>","0","html-button-response","153","1244605","0.0-57.0","16575","4A","conjoined","man","","","","","fiveyears","","","",""
"7637.899999999674","","","survey-text","154","1253253","0.0-58.0","16575","4A","conjoined","man","","","","","worker_id","{""Q0"":""5d24cf6110577200016ac8f9""}","","",""
"41431.29500000016","","","external-html","155","1294763","0.0-59.0","16575","4A","conjoined","man","debrief.html","","","","","","","",""
