"rt","stimulus","button_pressed","trial_type","trial_index","time_elapsed","internal_node_id","subject","list","condition","ppt_gender","url","key_press","sentence_type","verb","test_part","responses","question_order","left_part","right_part"
"2952.23999999871","Welcome to the experiment. Press Continue to begin.","0","html-button-response","0","2956","0.0-0.0","19861","3A","conjoined","man","","","","","","","","",""
"60601.45499999999","","","external-html","1","64625","0.0-1.0","19861","3A","conjoined","man","consent.html","","","","","","","",""
"14343.409999999494","<p>Welcome.</p><p>In this experiment we will ask you to imagine some situations.</p><p>Each trial starts with a description of an event.</p><p>Then you will see alternative descriptions of that event, and you will rate on a scale how best they match the original description.</p><p>You will give your answer by clicking a button on a rating scale.</p><p>To do this task, you will have to use your imagination to visualise these events.</p><br><p>Ready?</p>","0","html-button-response","2","78972","0.0-2.0","19861","3A","conjoined","man","","","","","","","","",""
"53943.984999999884","<p>Before the experiment starts, you will watch an example trial. Press 'Continue'.</p>","0","html-button-response","3","133919","0.0-3.0","19861","3A","conjoined","man","","","","","","","","",""
"null","The police officer is arresting the robber","","html-keyboard-response","4","136925","0.0-4.0","19861","3A","conjoined","man","","null","","","","","","",""
"20428.730000001437","<img src='img/Example-trial.jpg' style='height:550px;''></img>","0","html-button-response","5","157356","0.0-5.0","19861","3A","conjoined","man","","","","","","","","",""
"4954.240000000951","<p>Ready to start the experiment?</p><br><p><strong>Remember to give an answer by clicking a button on the rating scale.</strong></p><p>Press 'Continue' to begin.</p>","0","html-button-response","6","163312","0.0-6.0","19861","3A","conjoined","man","","","","","","","","",""
"null","Kate and Luke are fighting each other","","html-keyboard-response","7","166330","0.0-7.0-0.0","19861","3A","conjoined","man","","null","W3 and M1 are fighting each other","fight3","sentence","","","",""
"17389.774999999645","","","survey-likert-extra-labels","8","183725","0.0-7.0-1.0-0.0","19861","3A","conjoined","man","","","W3 and M1 are fighting each other","fight3","rating_causation","{""Q0"":3}","[0]","W3 started the fight with M1","M1 started the fight with W3"
"11420.760000000882","","","survey-likert-extra-labels","9","195149","0.0-7.0-2.0","19861","3A","conjoined","man","","","W3 and M1 are fighting each other","fight3","rating_volition","{""Q0"":3}","[0]","W3 wanted to fight M1","M1 wanted to fight W3"
"null","Dave and Mike are flirting with each other","","html-keyboard-response","10","197154","0.0-8.0-0.0","19861","3A","conjoined","man","","null","M4 and M2 are flirting with each other","flirt2","sentence","","","",""
"9402.565000000322","","","survey-likert-extra-labels","11","206559","0.0-8.0-1.0-0.0","19861","3A","conjoined","man","","","M4 and M2 are flirting with each other","flirt2","rating_causation","{""Q0"":3}","[0]","M2 started flirting with M4 first","M4 started flirting with M2 first"
"5007.090000000957","","","survey-likert-extra-labels","12","211572","0.0-8.0-2.0","19861","3A","conjoined","man","","","M4 and M2 are flirting with each other","flirt2","rating_volition","{""Q0"":3}","[0]","M2 wanted to flirt with M4","M4 wanted to flirt with M2"
"null","Beth and Jane are touching each other","","html-keyboard-response","13","213576","0.0-9.0-0.0","19861","3A","conjoined","man","","null","W4 and W2 are touching each other","touch1","sentence","","","",""
"8736.02500000014","","","survey-likert-extra-labels","14","222316","0.0-9.0-2.0","19861","3A","conjoined","man","","","W4 and W2 are touching each other","touch1","rating_volition","{""Q0"":3}","[0]","W2 wanted to touch W4","W4 wanted to touch W2"
"10827.704999999667","","","survey-likert-extra-labels","15","233149","0.0-9.0-3.0-0.0","19861","3A","conjoined","man","","","W4 and W2 are touching each other","touch1","rating_causation","{""Q0"":3}","[0]","W2 asked to touch W4","W4 asked to touch W2"
"null","Dave and Jane are dancing with each other","","html-keyboard-response","16","235152","0.0-10.0-0.0","19861","3A","conjoined","man","","null","M4 and W2 are dancing with each other","dance3","sentence","","","",""
"7502.8750000001455","","","survey-likert-extra-labels","17","242657","0.0-10.0-2.0","19861","3A","conjoined","man","","","M4 and W2 are dancing with each other","dance3","rating_volition","{""Q0"":3}","[0]","W2 wanted to dance with M4","M4 wanted to dance with W2"
"9837.620000000228","","","survey-likert-extra-labels","18","252499","0.0-10.0-3.0-0.0","19861","3A","conjoined","man","","","M4 and W2 are dancing with each other","dance3","rating_causation","{""Q0"":3}","[0]","W2 asked M4 to dance","M4 asked W2 to dance"
"null","Beth and Jane are playing with each other","","html-keyboard-response","19","254502","0.0-11.0-0.0","19861","3A","conjoined","man","","null","W4 and W2 are playing with each other","play1","sentence","","","",""
"5638.710000001069","","","survey-likert-extra-labels","20","260143","0.0-11.0-1.0-0.0","19861","3A","conjoined","man","","","W4 and W2 are playing with each other","play1","rating_causation","{""Q0"":3}","[0]","W2 asked to play with W4","W4 asked to play with W2"
"6124.845000000263","","","survey-likert-extra-labels","21","266273","0.0-11.0-2.0","19861","3A","conjoined","man","","","W4 and W2 are playing with each other","play1","rating_volition","{""Q0"":3}","[0]","W2 wanted to play with W4","W4 wanted to play with W2"
"null","Luke is driving Fred","","html-keyboard-response","22","268276","0.0-12.0-0.0","19861","3A","conjoined","man","","null","M1 is driving M3","drive","sentence","","","",""
"21844.21499999921","","","survey-likert-extra-labels","23","290122","0.0-12.0-1.0-0.0","19861","3A","conjoined","man","","","M1 is driving M3","drive","rating_causation","{""Q0"":4}","[0]","M3 is taking M1 somewhere","M1 is taking M3 somewhere"
"10301.47000000038","","","survey-likert-extra-labels","24","300427","0.0-12.0-2.0","19861","3A","conjoined","man","","","M1 is driving M3","drive","rating_volition","{""Q0"":0}","[0]","M3 is M1's passenger","M1 is M3's passenger"
"null","Beth and Jane are flirting with each other","","html-keyboard-response","25","302431","0.0-13.0-0.0","19861","3A","conjoined","man","","null","W4 and W2 are flirting with each other","flirt1","sentence","","","",""
"6683.570000001055","","","survey-likert-extra-labels","26","309118","0.0-13.0-1.0-0.0","19861","3A","conjoined","man","","","W4 and W2 are flirting with each other","flirt1","rating_causation","{""Q0"":3}","[0]","W2 started flirting with W4 first","W4 started flirting with W2 first"
"6582.045000001031","","","survey-likert-extra-labels","27","315703","0.0-13.0-2.0","19861","3A","conjoined","man","","","W4 and W2 are flirting with each other","flirt1","rating_volition","{""Q0"":3}","[0]","W2 wanted to flirt with W4","W4 wanted to flirt with W2"
"null","Fred is hiring Ruth","","html-keyboard-response","28","317756","0.0-14.0-0.0","19861","3A","conjoined","man","","null","M3 is hiring W1","hire","sentence","","","",""
"110426.10000000062","","","survey-likert-extra-labels","29","428185","0.0-14.0-1.0-0.0","19861","3A","conjoined","man","","","M3 is hiring W1","hire","rating_causation","{""Q0"":5}","[0]","M3 will work for W1","W1 will work for M3"
"8469.559999999532","","","survey-likert-extra-labels","30","436658","0.0-14.0-2.0","19861","3A","conjoined","man","","","M3 is hiring W1","hire","rating_volition","{""Q0"":0}","[0]","M3 is employing W1","W1 is employing M3"
"null","Mike is reminding Beth","","html-keyboard-response","31","438662","0.0-15.0-0.0","19861","3A","conjoined","man","","null","M2 is reminding W4","remind","sentence","","","",""
"8512.164999998291","","","survey-likert-extra-labels","32","447183","0.0-15.0-1.0-0.0","19861","3A","conjoined","man","","","M2 is reminding W4","remind","rating_causation","{""Q0"":3}","[0]","M2 is remembering","W4 is remembering"
"9351.090000000142","","","survey-likert-extra-labels","33","456538","0.0-15.0-2.0","19861","3A","conjoined","man","","","M2 is reminding W4","remind","rating_volition","{""Q0"":0}","[0]","M2 is telling W4 again","W4 is telling M2 again"
"null","Luke and Fred are arguing with each other","","html-keyboard-response","34","458542","0.0-16.0-0.0","19861","3A","conjoined","man","","null","M1 and M3 are arguing with each other","argue2","sentence","","","",""
"12646.134999999078","","","survey-likert-extra-labels","35","471189","0.0-16.0-2.0","19861","3A","conjoined","man","","","M1 and M3 are arguing with each other","argue2","rating_volition","{""Q0"":3}","[0]","M1 wanted to argue with M3","M3 wanted to argue with M1"
"93251.95499999967","","","survey-likert-extra-labels","36","564444","0.0-16.0-3.0-0.0","19861","3A","conjoined","man","","","M1 and M3 are arguing with each other","argue2","rating_causation","{""Q0"":3}","[0]","M1 started an argument with M3","M3 started an argument with M1"
"null","Ruth and Fred are touching each other","","html-keyboard-response","37","566449","0.0-17.0-0.0","19861","3A","conjoined","man","","null","W1 and M3 are touching each other","touch4","sentence","","","",""
"6998.504999999539","","","survey-likert-extra-labels","38","573451","0.0-17.0-1.0-0.0","19861","3A","conjoined","man","","","W1 and M3 are touching each other","touch4","rating_causation","{""Q0"":3}","[0]","M3 asked to touch W1","W1 asked to touch M3"
"6741.24499999918","","","survey-likert-extra-labels","39","580196","0.0-17.0-2.0","19861","3A","conjoined","man","","","W1 and M3 are touching each other","touch4","rating_volition","{""Q0"":3}","[0]","M3 wanted to touch W1","W1 wanted to touch M3"
"null","Kate and Ruth are talking to each other","","html-keyboard-response","40","582199","0.0-18.0-0.0","19861","3A","conjoined","man","","null","W3 and W1 are talking to each other","talk1","sentence","","","",""
"59632.760000000475","","","survey-likert-extra-labels","41","641836","0.0-18.0-2.0","19861","3A","conjoined","man","","","W3 and W1 are talking to each other","talk1","rating_volition","{""Q0"":3}","[0]","W1 wanted to talk to W3","W3 wanted to talk to W1"
"7591.855000000563","","","survey-likert-extra-labels","42","649431","0.0-18.0-3.0-0.0","19861","3A","conjoined","man","","","W3 and W1 are talking to each other","talk1","rating_causation","{""Q0"":3}","[0]","W1 started a conversation with W3","W3 started a conversation with W1"
"null","Dave and Mike are touching each other","","html-keyboard-response","43","651434","0.0-19.0-0.0","19861","3A","conjoined","man","","null","M4 and M2 are touching each other","touch2","sentence","","","",""
"44735.13499999908","","","survey-likert-extra-labels","44","696172","0.0-19.0-1.0-0.0","19861","3A","conjoined","man","","","M4 and M2 are touching each other","touch2","rating_causation","{""Q0"":3}","[0]","M2 asked to touch M4","M4 asked to touch M2"
"3083.8600000006845","","","survey-likert-extra-labels","45","699259","0.0-19.0-2.0","19861","3A","conjoined","man","","","M4 and M2 are touching each other","touch2","rating_volition","{""Q0"":3}","[0]","M2 wanted to touch M4","M4 wanted to touch M2"
"null","Luke and Fred are kissing each other","","html-keyboard-response","46","701263","0.0-20.0-0.0","19861","3A","conjoined","man","","null","M1 and M3 are kissing each other","kiss2","sentence","","","",""
"4674.510000000708","","","survey-likert-extra-labels","47","705940","0.0-20.0-1.0-0.0","19861","3A","conjoined","man","","","M1 and M3 are kissing each other","kiss2","rating_causation","{""Q0"":3}","[0]","M1 asked to kiss M3","M3 asked to kiss M1"
"5680.425000000396","","","survey-likert-extra-labels","48","711624","0.0-20.0-2.0","19861","3A","conjoined","man","","","M1 and M3 are kissing each other","kiss2","rating_volition","{""Q0"":3}","[0]","M1 wanted to kiss M3","M3 wanted to kiss M1"
"null","Ruth and Fred are flirting with each other","","html-keyboard-response","49","713639","0.0-21.0-0.0","19861","3A","conjoined","man","","null","W1 and M3 are flirting with each other","flirt4","sentence","","","",""
"6931.264999999199","","","survey-likert-extra-labels","50","720573","0.0-21.0-2.0","19861","3A","conjoined","man","","","W1 and M3 are flirting with each other","flirt4","rating_volition","{""Q0"":3}","[0]","M3 wanted to flirt with W1","W1 wanted to flirt with M3"
"3108.974999999162","","","survey-likert-extra-labels","51","723686","0.0-21.0-3.0-0.0","19861","3A","conjoined","man","","","W1 and M3 are flirting with each other","flirt4","rating_causation","{""Q0"":3}","[0]","M3 started flirting with W1 first","W1 started flirting with M3 first"
"null","Kate and Ruth are dancing with each other","","html-keyboard-response","52","725687","0.0-22.0-0.0","19861","3A","conjoined","man","","null","W3 and W1 are dancing with each other","dance1","sentence","","","",""
"5155.650000000605","","","survey-likert-extra-labels","53","730845","0.0-22.0-1.0-0.0","19861","3A","conjoined","man","","","W3 and W1 are dancing with each other","dance1","rating_causation","{""Q0"":3}","[0]","W1 asked W3 to dance","W3 asked W1 to dance"
"5601.329999999609","","","survey-likert-extra-labels","54","736450","0.0-22.0-2.0","19861","3A","conjoined","man","","","W3 and W1 are dancing with each other","dance1","rating_volition","{""Q0"":3}","[0]","W1 wanted to dance with W3","W3 wanted to dance with W1"
"null","Ruth is chasing Kate","","html-keyboard-response","55","738464","0.0-23.0-0.0","19861","3A","conjoined","man","","null","W1 is chasing W3","chase","sentence","","","",""
"11240.649999999674","","","survey-likert-extra-labels","56","749708","0.0-23.0-1.0-0.0","19861","3A","conjoined","man","","","W1 is chasing W3","chase","rating_causation","{""Q0"":4}","[0]","W1 is running away from W3","W3 is running away from W1"
"6199.024999999907","","","survey-likert-extra-labels","57","755911","0.0-23.0-2.0","19861","3A","conjoined","man","","","W1 is chasing W3","chase","rating_volition","{""Q0"":3}","[0]","W1 is behind W3","W3 is behind W1"
"null","Mike and Dave are fighting each other","","html-keyboard-response","58","757915","0.0-24.0-0.0","19861","3A","conjoined","man","","null","M2 and M4 are fighting each other","fight2","sentence","","","",""
"7340.5300000013085","","","survey-likert-extra-labels","59","765259","0.0-24.0-1.0-0.0","19861","3A","conjoined","man","","","M2 and M4 are fighting each other","fight2","rating_causation","{""Q0"":3}","[0]","M2 started the fight with M4","M4 started the fight with M2"
"3437.2199999998556","","","survey-likert-extra-labels","60","768699","0.0-24.0-2.0","19861","3A","conjoined","man","","","M2 and M4 are fighting each other","fight2","rating_volition","{""Q0"":3}","[0]","M2 wanted to fight M4","M4 wanted to fight M2"
"null","Mike and Dave are marrying each other","","html-keyboard-response","61","770702","0.0-25.0-0.0","19861","3A","conjoined","man","","null","M2 and M4 are marrying each other","marry2","sentence","","","",""
"6814.490000000689","","","survey-likert-extra-labels","62","777519","0.0-25.0-2.0","19861","3A","conjoined","man","","","M2 and M4 are marrying each other","marry2","rating_volition","{""Q0"":3}","[0]","M2 wanted to marry M4","M4 wanted to marry M2"
"4086.2649999998976","","","survey-likert-extra-labels","63","781608","0.0-25.0-3.0-0.0","19861","3A","conjoined","man","","","M2 and M4 are marrying each other","marry2","rating_causation","{""Q0"":3}","[0]","M2 asked to marry M4","M4 asked to marry M2"
"null","Jane is carrying Beth","","html-keyboard-response","64","783611","0.0-26.0-0.0","19861","3A","conjoined","man","","null","W2 is carrying W4","carry","sentence","","","",""
"14468.099999999977","","","survey-likert-extra-labels","65","798082","0.0-26.0-1.0-0.0","19861","3A","conjoined","man","","","W2 is carrying W4","carry","rating_causation","{""Q0"":4}","[0]","W2 is being moved by W4","W4 is being moved by W2"
"9557.719999998924","","","survey-likert-extra-labels","66","807643","0.0-26.0-2.0","19861","3A","conjoined","man","","","W2 is carrying W4","carry","rating_volition","{""Q0"":2}","[0]","W2 is transporting W4","W4 is transporting W2"
"null","Fred and Ruth are marrying each other","","html-keyboard-response","67","809756","0.0-27.0-0.0","19861","3A","conjoined","man","","null","M3 and W1 are marrying each other","marry3","sentence","","","",""
"76441.67000000016","","","survey-likert-extra-labels","68","886200","0.0-27.0-2.0","19861","3A","conjoined","man","","","M3 and W1 are marrying each other","marry3","rating_volition","{""Q0"":3}","[0]","M3 wanted to marry W1","W1 wanted to marry M3"
"2839.1699999993434","","","survey-likert-extra-labels","69","889043","0.0-27.0-3.0-0.0","19861","3A","conjoined","man","","","M3 and W1 are marrying each other","marry3","rating_causation","{""Q0"":3}","[0]","M3 asked to marry W1","W1 asked to marry M3"
"null","Kate and Luke are marrying each other","","html-keyboard-response","70","891046","0.0-28.0-0.0","19861","3A","conjoined","man","","null","W3 and M1 are marrying each other","marry4","sentence","","","",""
"5048.839999999502","","","survey-likert-extra-labels","71","896098","0.0-28.0-1.0-0.0","19861","3A","conjoined","man","","","W3 and M1 are marrying each other","marry4","rating_causation","{""Q0"":3}","[0]","W3 asked to marry M1","M1 asked to marry W3"
"3288.9300000006333","","","survey-likert-extra-labels","72","899391","0.0-28.0-2.0","19861","3A","conjoined","man","","","W3 and M1 are marrying each other","marry4","rating_volition","{""Q0"":3}","[0]","W3 wanted to marry M1","M1 wanted to marry W3"
"null","Mike and Beth are arguing with each other","","html-keyboard-response","73","901396","0.0-29.0-0.0","19861","3A","conjoined","man","","null","M2 and W4 are arguing with each other","argue4","sentence","","","",""
"3690.5050000004703","","","survey-likert-extra-labels","74","905089","0.0-29.0-2.0","19861","3A","conjoined","man","","","M2 and W4 are arguing with each other","argue4","rating_volition","{""Q0"":3}","[0]","M2 wanted to argue with W4","W4 wanted to argue with M2"
"5766.0599999999395","","","survey-likert-extra-labels","75","910858","0.0-29.0-3.0-0.0","19861","3A","conjoined","man","","","M2 and W4 are arguing with each other","argue4","rating_causation","{""Q0"":3}","[0]","M2 started an argument with W4","W4 started an argument with M2"
"null","Beth and Mike are shouting at each other","","html-keyboard-response","76","912861","0.0-30.0-0.0","19861","3A","conjoined","man","","null","W4 and M2 are shouting at each other","shout3","sentence","","","",""
"5243.040000001201","","","survey-likert-extra-labels","77","918106","0.0-30.0-1.0-0.0","19861","3A","conjoined","man","","","W4 and M2 are shouting at each other","shout3","rating_causation","{""Q0"":3}","[0]","M2 shouted at W4 first","W4 shouted at M2 first"
"3880.414999999688","","","survey-likert-extra-labels","78","921991","0.0-30.0-2.0","19861","3A","conjoined","man","","","W4 and M2 are shouting at each other","shout3","rating_volition","{""Q0"":3}","[0]","M2 wanted to shout at W4","W4 wanted to shout at M2"
"null","Luke and Kate are touching each other","","html-keyboard-response","79","923995","0.0-31.0-0.0","19861","3A","conjoined","man","","null","M1 and W3 are touching each other","touch3","sentence","","","",""
"5019.594999999739","","","survey-likert-extra-labels","80","929018","0.0-31.0-2.0","19861","3A","conjoined","man","","","M1 and W3 are touching each other","touch3","rating_volition","{""Q0"":3}","[0]","W3 wanted to touch M1","M1 wanted to touch W3"
"2864.3199999987846","","","survey-likert-extra-labels","81","931886","0.0-31.0-3.0-0.0","19861","3A","conjoined","man","","","M1 and W3 are touching each other","touch3","rating_causation","{""Q0"":3}","[0]","W3 asked to touch M1","M1 asked to touch W3"
"null","Dave and Jane are talking to each other","","html-keyboard-response","82","933889","0.0-32.0-0.0","19861","3A","conjoined","man","","null","M4 and W2 are talking to each other","talk3","sentence","","","",""
"6005.8000000008615","","","survey-likert-extra-labels","83","939896","0.0-32.0-2.0","19861","3A","conjoined","man","","","M4 and W2 are talking to each other","talk3","rating_volition","{""Q0"":3}","[0]","W2 wanted to talk to M4","M4 wanted to talk to W2"
"6770.010000000126","","","survey-likert-extra-labels","84","946670","0.0-32.0-3.0-0.0","19861","3A","conjoined","man","","","M4 and W2 are talking to each other","talk3","rating_causation","{""Q0"":3}","[0]","W2 started a conversation with M4","M4 started a conversation with W2"
"null","Fred and Luke are shouting at each other","","html-keyboard-response","85","948672","0.0-33.0-0.0","19861","3A","conjoined","man","","null","M3 and M1 are shouting at each other","shout2","sentence","","","",""
"3525.6200000003446","","","survey-likert-extra-labels","86","952200","0.0-33.0-1.0-0.0","19861","3A","conjoined","man","","","M3 and M1 are shouting at each other","shout2","rating_causation","{""Q0"":3}","[0]","M1 shouted at M3 first","M3 shouted at M1 first"
"2832.819999999716","","","survey-likert-extra-labels","87","955035","0.0-33.0-2.0","19861","3A","conjoined","man","","","M3 and M1 are shouting at each other","shout2","rating_volition","{""Q0"":3}","[0]","M1 wanted to shout at M3","M3 wanted to shout at M1"
"null","Ruth and Kate are arguing with each other","","html-keyboard-response","88","957052","0.0-34.0-0.0","19861","3A","conjoined","man","","null","W1 and W3 are arguing with each other","argue1","sentence","","","",""
"3513.3100000001723","","","survey-likert-extra-labels","89","960567","0.0-34.0-1.0-0.0","19861","3A","conjoined","man","","","W1 and W3 are arguing with each other","argue1","rating_causation","{""Q0"":3}","[0]","W1 started an argument with W3","W3 started an argument with W1"
"7996.644999999204","","","survey-likert-extra-labels","90","968568","0.0-34.0-2.0","19861","3A","conjoined","man","","","W1 and W3 are arguing with each other","argue1","rating_volition","{""Q0"":3}","[0]","W1 wanted to argue with W3","W3 wanted to argue with W1"
"null","Dave and Mike are playing with each other","","html-keyboard-response","91","970572","0.0-35.0-0.0","19861","3A","conjoined","man","","null","M4 and M2 are playing with each other","play2","sentence","","","",""
"8882.975000000442","","","survey-likert-extra-labels","92","979459","0.0-35.0-1.0-0.0","19861","3A","conjoined","man","","","M4 and M2 are playing with each other","play2","rating_causation","{""Q0"":3}","[0]","M2 asked to play with M4","M4 asked to play with M2"
"2934.155000000843","","","survey-likert-extra-labels","93","982397","0.0-35.0-2.0","19861","3A","conjoined","man","","","M4 and M2 are playing with each other","play2","rating_volition","{""Q0"":3}","[0]","M2 wanted to play with M4","M4 wanted to play with M2"
"null","Kate is feeding Luke","","html-keyboard-response","94","984399","0.0-36.0-0.0","19861","3A","conjoined","man","","null","W3 is feeding M1","feed","sentence","","","",""
"13097.085000001243","","","survey-likert-extra-labels","95","997498","0.0-36.0-1.0-0.0","19861","3A","conjoined","man","","","W3 is feeding M1","feed","rating_causation","{""Q0"":4}","[0]","W3 is eating M1's food","M1 is eating W3's food"
"10475.57500000042","","","survey-likert-extra-labels","96","1007977","0.0-36.0-2.0","19861","3A","conjoined","man","","","W3 is feeding M1","feed","rating_volition","{""Q0"":0}","[0]","W3 is giving M1 food","M1 is giving W3 food"
"null","Ruth and Kate are kissing each other","","html-keyboard-response","97","1010756","0.0-37.0-0.0","19861","3A","conjoined","man","","null","W1 and W3 are kissing each other","kiss1","sentence","","","",""
"96938.7499999993","","","survey-likert-extra-labels","98","1107698","0.0-37.0-1.0-0.0","19861","3A","conjoined","man","","","W1 and W3 are kissing each other","kiss1","rating_causation","{""Q0"":3}","[0]","W1 asked to kiss W3","W3 asked to kiss W1"
"4359.0800000000745","","","survey-likert-extra-labels","99","1112061","0.0-37.0-2.0","19861","3A","conjoined","man","","","W1 and W3 are kissing each other","kiss1","rating_volition","{""Q0"":3}","[0]","W1 wanted to kiss W3","W3 wanted to kiss W1"
"null","Jane and Dave are kissing each other","","html-keyboard-response","100","1114066","0.0-38.0-0.0","19861","3A","conjoined","man","","null","W2 and M4 are kissing each other","kiss4","sentence","","","",""
"3219.624999999767","","","survey-likert-extra-labels","101","1117288","0.0-38.0-1.0-0.0","19861","3A","conjoined","man","","","W2 and M4 are kissing each other","kiss4","rating_causation","{""Q0"":3}","[0]","W2 asked to kiss M4","M4 asked to kiss W2"
"4235.764999999432","","","survey-likert-extra-labels","102","1121527","0.0-38.0-2.0","19861","3A","conjoined","man","","","W2 and M4 are kissing each other","kiss4","rating_volition","{""Q0"":3}","[0]","W2 wanted to kiss M4","M4 wanted to kiss W2"
"null","Fred and Luke are dancing with each other","","html-keyboard-response","103","1123530","0.0-39.0-0.0","19861","3A","conjoined","man","","null","M3 and M1 are dancing with each other","dance2","sentence","","","",""
"4727.244999999879","","","survey-likert-extra-labels","104","1128259","0.0-39.0-1.0-0.0","19861","3A","conjoined","man","","","M3 and M1 are dancing with each other","dance2","rating_causation","{""Q0"":3}","[0]","M1 asked M3 to dance","M3 asked M1 to dance"
"7117.65000000014","","","survey-likert-extra-labels","105","1135380","0.0-39.0-2.0","19861","3A","conjoined","man","","","M3 and M1 are dancing with each other","dance2","rating_volition","{""Q0"":3}","[0]","M1 wanted to dance with M3","M3 wanted to dance with M1"
"null","Mike is posing for Dave","","html-keyboard-response","106","1137384","0.0-40.0-0.0","19861","3A","conjoined","man","","null","M2 is posing for M4","pose","sentence","","","",""
"8115.700000000186","","","survey-likert-extra-labels","107","1145502","0.0-40.0-2.0","19861","3A","conjoined","man","","","M2 is posing for M4","pose","rating_volition","{""Q0"":1}","[0]","M2 is modelling for M4","M4 is modelling for M2"
"7986.399999999907","","","survey-likert-extra-labels","108","1153494","0.0-40.0-3.0-0.0","19861","3A","conjoined","man","","","M2 is posing for M4","pose","rating_causation","{""Q0"":3}","[0]","M2 is photographing M4","M4 is photographing M2"
"null","Kate and Ruth are shouting at each other","","html-keyboard-response","109","1155498","0.0-41.0-0.0","19861","3A","conjoined","man","","null","W3 and W1 are shouting at each other","shout1","sentence","","","",""
"4359.414999998873","","","survey-likert-extra-labels","110","1159859","0.0-41.0-1.0-0.0","19861","3A","conjoined","man","","","W3 and W1 are shouting at each other","shout1","rating_causation","{""Q0"":3}","[0]","W1 shouted at W3 first","W3 shouted at W1 first"
"3942.6800000001676","","","survey-likert-extra-labels","111","1163806","0.0-41.0-2.0","19861","3A","conjoined","man","","","W3 and W1 are shouting at each other","shout1","rating_volition","{""Q0"":3}","[0]","W1 wanted to shout at W3","W3 wanted to shout at W1"
"null","Fred and Luke are talking to each other","","html-keyboard-response","112","1165811","0.0-42.0-0.0","19861","3A","conjoined","man","","null","M3 and M1 are talking to each other","talk2","sentence","","","",""
"5518.690000000643","","","survey-likert-extra-labels","113","1171332","0.0-42.0-1.0-0.0","19861","3A","conjoined","man","","","M3 and M1 are talking to each other","talk2","rating_causation","{""Q0"":3}","[0]","M1 started a conversation with M3","M3 started a conversation with M1"
"6280.705000001006","","","survey-likert-extra-labels","114","1177618","0.0-42.0-2.0","19861","3A","conjoined","man","","","M3 and M1 are talking to each other","talk2","rating_volition","{""Q0"":3}","[0]","M1 wanted to talk to M3","M3 wanted to talk to M1"
"null","Mike and Beth are kissing each other","","html-keyboard-response","115","1179622","0.0-43.0-0.0","19861","3A","conjoined","man","","null","M2 and W4 are kissing each other","kiss3","sentence","","","",""
"3634.324999999022","","","survey-likert-extra-labels","116","1183259","0.0-43.0-1.0-0.0","19861","3A","conjoined","man","","","M2 and W4 are kissing each other","kiss3","rating_causation","{""Q0"":3}","[0]","M2 asked to kiss W4","W4 asked to kiss M2"
"3662.0750000001863","","","survey-likert-extra-labels","117","1186927","0.0-43.0-2.0","19861","3A","conjoined","man","","","M2 and W4 are kissing each other","kiss3","rating_volition","{""Q0"":3}","[0]","M2 wanted to kiss W4","W4 wanted to kiss M2"
"null","Jane and Beth are marrying each other","","html-keyboard-response","118","1188930","0.0-44.0-0.0","19861","3A","conjoined","man","","null","W2 and W4 are marrying each other","marry1","sentence","","","",""
"3690.730000000214","","","survey-likert-extra-labels","119","1192624","0.0-44.0-2.0","19861","3A","conjoined","man","","","W2 and W4 are marrying each other","marry1","rating_volition","{""Q0"":3}","[0]","W2 wanted to marry W4","W4 wanted to marry W2"
"3042.3549999995157","","","survey-likert-extra-labels","120","1195672","0.0-44.0-3.0-0.0","19861","3A","conjoined","man","","","W2 and W4 are marrying each other","marry1","rating_causation","{""Q0"":3}","[0]","W2 asked to marry W4","W4 asked to marry W2"
"null","Beth and Mike are talking to each other","","html-keyboard-response","121","1197675","0.0-45.0-0.0","19861","3A","conjoined","man","","null","W4 and M2 are talking to each other","talk4","sentence","","","",""
"3079.1999999999534","","","survey-likert-extra-labels","122","1200757","0.0-45.0-2.0","19861","3A","conjoined","man","","","W4 and M2 are talking to each other","talk4","rating_volition","{""Q0"":3}","[0]","M2 wanted to talk to W4","W4 wanted to talk to M2"
"6758.289999999572","","","survey-likert-extra-labels","123","1207519","0.0-45.0-3.0-0.0","19861","3A","conjoined","man","","","W4 and M2 are talking to each other","talk4","rating_causation","{""Q0"":3}","[0]","M2 started a conversation with W4","W4 started a conversation with M2"
"null","Fred and Ruth are fighting each other","","html-keyboard-response","124","1209524","0.0-46.0-0.0","19861","3A","conjoined","man","","null","M3 and W1 are fighting each other","fight4","sentence","","","",""
"3198.8700000001118","","","survey-likert-extra-labels","125","1212725","0.0-46.0-2.0","19861","3A","conjoined","man","","","M3 and W1 are fighting each other","fight4","rating_volition","{""Q0"":3}","[0]","M3 wanted to fight W1","W1 wanted to fight M3"
"2508.4649999989197","","","survey-likert-extra-labels","126","1215237","0.0-46.0-3.0-0.0","19861","3A","conjoined","man","","","M3 and W1 are fighting each other","fight4","rating_causation","{""Q0"":3}","[0]","M3 started the fight with W1","W1 started the fight with M3"
"null","Jane and Beth are fighting each other","","html-keyboard-response","127","1217756","0.0-47.0-0.0","19861","3A","conjoined","man","","null","W2 and W4 are fighting each other","fight1","sentence","","","",""
"161502.94500000007","","","survey-likert-extra-labels","128","1379261","0.0-47.0-2.0","19861","3A","conjoined","man","","","W2 and W4 are fighting each other","fight1","rating_volition","{""Q0"":3}","[0]","W2 wanted to fight W4","W4 wanted to fight W2"
"3891.5500000002794","","","survey-likert-extra-labels","129","1383156","0.0-47.0-3.0-0.0","19861","3A","conjoined","man","","","W2 and W4 are fighting each other","fight1","rating_causation","{""Q0"":3}","[0]","W2 started the fight with W4","W4 started the fight with W2"
"null","Dave and Jane are shouting at each other","","html-keyboard-response","130","1385160","0.0-48.0-0.0","19861","3A","conjoined","man","","null","M4 and W2 are shouting at each other","shout4","sentence","","","",""
"12712.030000000726","","","survey-likert-extra-labels","131","1397874","0.0-48.0-2.0","19861","3A","conjoined","man","","","M4 and W2 are shouting at each other","shout4","rating_volition","{""Q0"":3}","[0]","W2 wanted to shout at M4","M4 wanted to shout at W2"
"2701.645000001183","","","survey-likert-extra-labels","132","1400579","0.0-48.0-3.0-0.0","19861","3A","conjoined","man","","","M4 and W2 are shouting at each other","shout4","rating_causation","{""Q0"":3}","[0]","W2 shouted at M4 first","M4 shouted at W2 first"
"null","Luke and Kate are flirting with each other","","html-keyboard-response","133","1402586","0.0-49.0-0.0","19861","3A","conjoined","man","","null","M1 and W3 are flirting with each other","flirt3","sentence","","","",""
"3932.2350000003353","","","survey-likert-extra-labels","134","1406525","0.0-49.0-2.0","19861","3A","conjoined","man","","","M1 and W3 are flirting with each other","flirt3","rating_volition","{""Q0"":3}","[0]","W3 wanted to flirt with M1","M1 wanted to flirt with W3"
"2461.0449999999255","","","survey-likert-extra-labels","135","1408990","0.0-49.0-3.0-0.0","19861","3A","conjoined","man","","","M1 and W3 are flirting with each other","flirt3","rating_causation","{""Q0"":3}","[0]","W3 started flirting with M1 first","M1 started flirting with W3 first"
"null","Jane and Dave are arguing with each other","","html-keyboard-response","136","1410992","0.0-50.0-0.0","19861","3A","conjoined","man","","null","W2 and M4 are arguing with each other","argue3","sentence","","","",""
"3121.0950000004377","","","survey-likert-extra-labels","137","1414116","0.0-50.0-2.0","19861","3A","conjoined","man","","","W2 and M4 are arguing with each other","argue3","rating_volition","{""Q0"":3}","[0]","W2 wanted to argue with M4","M4 wanted to argue with W2"
"3017.319999998901","","","survey-likert-extra-labels","138","1417136","0.0-50.0-3.0-0.0","19861","3A","conjoined","man","","","W2 and M4 are arguing with each other","argue3","rating_causation","{""Q0"":3}","[0]","W2 started an argument with M4","M4 started an argument with W2"
"null","Luke and Kate are playing with each other","","html-keyboard-response","139","1419138","0.0-51.0-0.0","19861","3A","conjoined","man","","null","M1 and W3 are playing with each other","play4","sentence","","","",""
"7589.214999999851","","","survey-likert-extra-labels","140","1426729","0.0-51.0-1.0-0.0","19861","3A","conjoined","man","","","M1 and W3 are playing with each other","play4","rating_causation","{""Q0"":3}","[0]","W3 asked to play with M1","M1 asked to play with W3"
"3726.795000000624","","","survey-likert-extra-labels","141","1430459","0.0-51.0-2.0","19861","3A","conjoined","man","","","M1 and W3 are playing with each other","play4","rating_volition","{""Q0"":3}","[0]","W3 wanted to play with M1","M1 wanted to play with W3"
"null","Ruth and Fred are playing with each other","","html-keyboard-response","142","1432463","0.0-52.0-0.0","19861","3A","conjoined","man","","null","W1 and M3 are playing with each other","play3","sentence","","","",""
"3126.875","","","survey-likert-extra-labels","143","1435593","0.0-52.0-2.0","19861","3A","conjoined","man","","","W1 and M3 are playing with each other","play3","rating_volition","{""Q0"":3}","[0]","M3 wanted to play with W1","W1 wanted to play with M3"
"1799.1500000008382","","","survey-likert-extra-labels","144","1437403","0.0-52.0-3.0-0.0","19861","3A","conjoined","man","","","W1 and M3 are playing with each other","play3","rating_causation","{""Q0"":3}","[0]","M3 asked to play with W1","W1 asked to play with M3"
"null","Jane is teaching Dave","","html-keyboard-response","145","1439406","0.0-53.0-0.0","19861","3A","conjoined","man","","null","W2 is teaching M4","teach","sentence","","","",""
"13923.08000000054","","","survey-likert-extra-labels","146","1453332","0.0-53.0-2.0","19861","3A","conjoined","man","","","W2 is teaching M4","teach","rating_volition","{""Q0"":0}","[0]","W2 is educating M4","M4 is educating W2"
"13416.440000000875","","","survey-likert-extra-labels","147","1466753","0.0-53.0-3.0-0.0","19861","3A","conjoined","man","","","W2 is teaching M4","teach","rating_causation","{""Q0"":5}","[0]","W2 is learning from M4","M4 is learning from W2"
"null","Beth and Mike are dancing with each other","","html-keyboard-response","148","1468758","0.0-54.0-0.0","19861","3A","conjoined","man","","null","W4 and M2 are dancing with each other","dance4","sentence","","","",""
"6907.724999999162","","","survey-likert-extra-labels","149","1475669","0.0-54.0-1.0-0.0","19861","3A","conjoined","man","","","W4 and M2 are dancing with each other","dance4","rating_causation","{""Q0"":3}","[0]","M2 asked W4 to dance","W4 asked M2 to dance"
"5375.819999999367","","","survey-likert-extra-labels","150","1481048","0.0-54.0-2.0","19861","3A","conjoined","man","","","W4 and M2 are dancing with each other","dance4","rating_volition","{""Q0"":3}","[0]","M2 wanted to dance with W4","W4 wanted to dance with M2"
"3740.7949999996927","<p>Thank you for completing that task.</p><p>The final part of this session is a short questionnaire.</p><p>Press Continue.</p>","0","html-button-response","151","1484792","0.0-55.0","19861","3A","conjoined","man","","","","","","","","",""
"55935.64499999955","","","survey-text","152","1541748","0.0-56.0","19861","3A","conjoined","man","","","","","demographics","{""Q0"":""53"",""Q1"":""english"",""Q2"":""english"",""Q3"":""england"",""Q4"":""british"",""Q5"":""asian"",""Q6"":""male""}","","",""
"3185.215000001481","<p>Have you lived in the UK for the last 5 years or more?</p>","0","html-button-response","153","1544936","0.0-57.0","19861","3A","conjoined","man","","","","","fiveyears","","","",""
"11727.565000001108","","","survey-text","154","1557673","0.0-58.0","19861","3A","conjoined","man","","","","","worker_id","{""Q0"":""5c635a08e30ff200016badb9""}","","",""
"46290.81500000018","","","external-html","155","1604078","0.0-59.0","19861","3A","conjoined","man","debrief.html","","","","","","","",""
