"rt","stimulus","button_pressed","trial_type","trial_index","time_elapsed","internal_node_id","subject","list","condition","ppt_gender","url","key_press","sentence_type","verb","test_part","responses","question_order","left_part","right_part"
"1210.6500000227243","Welcome to the experiment. Press Continue to begin.","0","html-button-response","0","1219","0.0-0.0","2162","1A","conjoined","woman","","","","","","","","",""
"22584.075000020675","","","external-html","1","24851","0.0-1.0","2162","1A","conjoined","woman","consent.html","","","","","","","",""
"12740.619999996852","<p>Welcome.</p><p>In this experiment we will ask you to imagine some situations.</p><p>Each trial starts with a description of an event.</p><p>Then you will see alternative descriptions of that event, and you will rate on a scale how best they match the original description.</p><p>You will give your answer by clicking a button on a rating scale.</p><p>To do this task, you will have to use your imagination to visualise these events.</p><br><p>Ready?</p>","0","html-button-response","2","37595","0.0-2.0","2162","1A","conjoined","woman","","","","","","","","",""
"1548.819999967236","<p>Before the experiment starts, you will watch an example trial. Press 'Continue'.</p>","0","html-button-response","3","40148","0.0-3.0","2162","1A","conjoined","woman","","","","","","","","",""
"null","The police officer is arresting the robber","","html-keyboard-response","4","43160","0.0-4.0","2162","1A","conjoined","woman","","null","","","","","","",""
"13230.804999999236","<img src='img/Example-trial.jpg' style='height:550px;''></img>","0","html-button-response","5","56397","0.0-5.0","2162","1A","conjoined","woman","","","","","","","","",""
"1625.4550000303425","<p>Ready to start the experiment?</p><br><p><strong>Remember to give an answer by clicking a button on the rating scale.</strong></p><p>Press 'Continue' to begin.</p>","0","html-button-response","6","59030","0.0-6.0","2162","1A","conjoined","woman","","","","","","","","",""
"null","Fred and Ruth are touching each other","","html-keyboard-response","7","62042","0.0-7.0-0.0","2162","1A","conjoined","woman","","null","M3 and W1 are touching each other","touch4","sentence","","","",""
"4941.630000015721","","","survey-likert-extra-labels","8","66992","0.0-7.0-1.0-0.0","2162","1A","conjoined","woman","","","M3 and W1 are touching each other","touch4","rating_causation","{""Q0"":3}","[0]","M3 asked to touch W1","W1 asked to touch M3"
"7525.069999974221","","","survey-likert-extra-labels","9","74523","0.0-7.0-2.0","2162","1A","conjoined","woman","","","M3 and W1 are touching each other","touch4","rating_volition","{""Q0"":0}","[0]","M3 wanted to touch W1","W1 wanted to touch M3"
"null","Kate and Luke are touching each other","","html-keyboard-response","10","76529","0.0-8.0-0.0","2162","1A","conjoined","woman","","null","W3 and M1 are touching each other","touch3","sentence","","","",""
"7316.359999997076","","","survey-likert-extra-labels","11","83849","0.0-8.0-2.0","2162","1A","conjoined","woman","","","W3 and M1 are touching each other","touch3","rating_volition","{""Q0"":3}","[0]","W3 wanted to touch M1","M1 wanted to touch W3"
"3138.72500002617","","","survey-likert-extra-labels","12","86994","0.0-8.0-3.0-0.0","2162","1A","conjoined","woman","","","W3 and M1 are touching each other","touch3","rating_causation","{""Q0"":0}","[0]","W3 asked to touch M1","M1 asked to touch W3"
"null","Fred and Ruth are flirting with each other","","html-keyboard-response","13","88999","0.0-9.0-0.0","2162","1A","conjoined","woman","","null","M3 and W1 are flirting with each other","flirt4","sentence","","","",""
"5188.020000001416","","","survey-likert-extra-labels","14","94190","0.0-9.0-1.0-0.0","2162","1A","conjoined","woman","","","M3 and W1 are flirting with each other","flirt4","rating_causation","{""Q0"":0}","[0]","M3 started flirting with W1 first","W1 started flirting with M3 first"
"2992.530000046827","","","survey-likert-extra-labels","15","97189","0.0-9.0-2.0","2162","1A","conjoined","woman","","","M3 and W1 are flirting with each other","flirt4","rating_volition","{""Q0"":6}","[0]","M3 wanted to flirt with W1","W1 wanted to flirt with M3"
"null","Beth and Mike are kissing each other","","html-keyboard-response","16","99195","0.0-10.0-0.0","2162","1A","conjoined","woman","","null","W4 and M2 are kissing each other","kiss3","sentence","","","",""
"3757.744999951683","","","survey-likert-extra-labels","17","102957","0.0-10.0-2.0","2162","1A","conjoined","woman","","","W4 and M2 are kissing each other","kiss3","rating_volition","{""Q0"":0}","[0]","M2 wanted to kiss W4","W4 wanted to kiss M2"
"3223.3000000123866","","","survey-likert-extra-labels","18","106187","0.0-10.0-3.0-0.0","2162","1A","conjoined","woman","","","W4 and M2 are kissing each other","kiss3","rating_causation","{""Q0"":6}","[0]","M2 asked to kiss W4","W4 asked to kiss M2"
"null","Kate and Ruth are kissing each other","","html-keyboard-response","19","108192","0.0-11.0-0.0","2162","1A","conjoined","woman","","null","W3 and W1 are kissing each other","kiss1","sentence","","","",""
"6243.789999978617","","","survey-likert-extra-labels","20","114440","0.0-11.0-1.0-0.0","2162","1A","conjoined","woman","","","W3 and W1 are kissing each other","kiss1","rating_causation","{""Q0"":0}","[0]","W1 asked to kiss W3","W3 asked to kiss W1"
"3671.135000011418","","","survey-likert-extra-labels","21","118115","0.0-11.0-2.0","2162","1A","conjoined","woman","","","W3 and W1 are kissing each other","kiss1","rating_volition","{""Q0"":6}","[0]","W1 wanted to kiss W3","W3 wanted to kiss W1"
"null","Mike is posing for Dave","","html-keyboard-response","22","120121","0.0-12.0-0.0","2162","1A","conjoined","woman","","null","M2 is posing for M4","pose","sentence","","","",""
"5441.334999981336","","","survey-likert-extra-labels","23","125566","0.0-12.0-1.0-0.0","2162","1A","conjoined","woman","","","M2 is posing for M4","pose","rating_causation","{""Q0"":6}","[0]","M2 is photographing M4","M4 is photographing M2"
"3535.4999999981374","","","survey-likert-extra-labels","24","129108","0.0-12.0-2.0","2162","1A","conjoined","woman","","","M2 is posing for M4","pose","rating_volition","{""Q0"":0}","[0]","M2 is modelling for M4","M4 is modelling for M2"
"null","Kate and Luke are flirting with each other","","html-keyboard-response","25","131115","0.0-13.0-0.0","2162","1A","conjoined","woman","","null","W3 and M1 are flirting with each other","flirt3","sentence","","","",""
"3951.0649999720044","","","survey-likert-extra-labels","26","135070","0.0-13.0-1.0-0.0","2162","1A","conjoined","woman","","","W3 and M1 are flirting with each other","flirt3","rating_causation","{""Q0"":6}","[0]","W3 started flirting with M1 first","M1 started flirting with W3 first"
"2365.334999980405","","","survey-likert-extra-labels","27","137441","0.0-13.0-2.0","2162","1A","conjoined","woman","","","W3 and M1 are flirting with each other","flirt3","rating_volition","{""Q0"":0}","[0]","W3 wanted to flirt with M1","M1 wanted to flirt with W3"
"null","Jane is carrying Beth","","html-keyboard-response","28","139448","0.0-14.0-0.0","2162","1A","conjoined","woman","","null","W2 is carrying W4","carry","sentence","","","",""
"4523.125000006985","","","survey-likert-extra-labels","29","143975","0.0-14.0-1.0-0.0","2162","1A","conjoined","woman","","","W2 is carrying W4","carry","rating_causation","{""Q0"":0}","[0]","W2 is being moved by W4","W4 is being moved by W2"
"3292.604999965988","","","survey-likert-extra-labels","30","147273","0.0-14.0-2.0","2162","1A","conjoined","woman","","","W2 is carrying W4","carry","rating_volition","{""Q0"":0}","[0]","W2 is transporting W4","W4 is transporting W2"
"null","Mike is reminding Beth","","html-keyboard-response","31","149279","0.0-15.0-0.0","2162","1A","conjoined","woman","","null","M2 is reminding W4","remind","sentence","","","",""
"3595.320000022184","","","survey-likert-extra-labels","32","152878","0.0-15.0-1.0-0.0","2162","1A","conjoined","woman","","","M2 is reminding W4","remind","rating_causation","{""Q0"":0}","[0]","M2 is remembering","W4 is remembering"
"3642.2350000357255","","","survey-likert-extra-labels","33","156527","0.0-15.0-2.0","2162","1A","conjoined","woman","","","M2 is reminding W4","remind","rating_volition","{""Q0"":0}","[0]","M2 is telling W4 again","W4 is telling M2 again"
"null","Ruth and Fred are marrying each other","","html-keyboard-response","34","158533","0.0-16.0-0.0","2162","1A","conjoined","woman","","null","W1 and M3 are marrying each other","marry3","sentence","","","",""
"3081.164999981411","","","survey-likert-extra-labels","35","161619","0.0-16.0-2.0","2162","1A","conjoined","woman","","","W1 and M3 are marrying each other","marry3","rating_volition","{""Q0"":0}","[0]","M3 wanted to marry W1","W1 wanted to marry M3"
"3378.1350000062957","","","survey-likert-extra-labels","36","165003","0.0-16.0-3.0-0.0","2162","1A","conjoined","woman","","","W1 and M3 are marrying each other","marry3","rating_causation","{""Q0"":0}","[0]","M3 asked to marry W1","W1 asked to marry M3"
"null","Fred and Luke are arguing with each other","","html-keyboard-response","37","167009","0.0-17.0-0.0","2162","1A","conjoined","woman","","null","M3 and M1 are arguing with each other","argue2","sentence","","","",""
"3816.950000007637","","","survey-likert-extra-labels","38","170830","0.0-17.0-2.0","2162","1A","conjoined","woman","","","M3 and M1 are arguing with each other","argue2","rating_volition","{""Q0"":0}","[0]","M1 wanted to argue with M3","M3 wanted to argue with M1"
"2618.49500000244","","","survey-likert-extra-labels","39","173454","0.0-17.0-3.0-0.0","2162","1A","conjoined","woman","","","M3 and M1 are arguing with each other","argue2","rating_causation","{""Q0"":6}","[0]","M1 started an argument with M3","M3 started an argument with M1"
"null","Mike and Beth are talking to each other","","html-keyboard-response","40","175460","0.0-18.0-0.0","2162","1A","conjoined","woman","","null","M2 and W4 are talking to each other","talk4","sentence","","","",""
"3140.160000009928","","","survey-likert-extra-labels","41","178603","0.0-18.0-1.0-0.0","2162","1A","conjoined","woman","","","M2 and W4 are talking to each other","talk4","rating_causation","{""Q0"":0}","[0]","M2 started a conversation with W4","W4 started a conversation with M2"
"4535.135000012815","","","survey-likert-extra-labels","42","183143","0.0-18.0-2.0","2162","1A","conjoined","woman","","","M2 and W4 are talking to each other","talk4","rating_volition","{""Q0"":6}","[0]","M2 wanted to talk to W4","W4 wanted to talk to M2"
"null","Beth and Mike are arguing with each other","","html-keyboard-response","43","185147","0.0-19.0-0.0","2162","1A","conjoined","woman","","null","W4 and M2 are arguing with each other","argue4","sentence","","","",""
"3026.860000041779","","","survey-likert-extra-labels","44","188178","0.0-19.0-1.0-0.0","2162","1A","conjoined","woman","","","W4 and M2 are arguing with each other","argue4","rating_causation","{""Q0"":0}","[0]","M2 started an argument with W4","W4 started an argument with M2"
"2334.855000022799","","","survey-likert-extra-labels","45","190519","0.0-19.0-2.0","2162","1A","conjoined","woman","","","W4 and M2 are arguing with each other","argue4","rating_volition","{""Q0"":6}","[0]","M2 wanted to argue with W4","W4 wanted to argue with M2"
"null","Luke and Kate are marrying each other","","html-keyboard-response","46","192524","0.0-20.0-0.0","2162","1A","conjoined","woman","","null","M1 and W3 are marrying each other","marry4","sentence","","","",""
"3891.0399999585934","","","survey-likert-extra-labels","47","196419","0.0-20.0-2.0","2162","1A","conjoined","woman","","","M1 and W3 are marrying each other","marry4","rating_volition","{""Q0"":0}","[0]","W3 wanted to marry M1","M1 wanted to marry W3"
"2390.3700000373647","","","survey-likert-extra-labels","48","198815","0.0-20.0-3.0-0.0","2162","1A","conjoined","woman","","","M1 and W3 are marrying each other","marry4","rating_causation","{""Q0"":6}","[0]","W3 asked to marry M1","M1 asked to marry W3"
"null","Jane and Dave are dancing with each other","","html-keyboard-response","49","200824","0.0-21.0-0.0","2162","1A","conjoined","woman","","null","W2 and M4 are dancing with each other","dance3","sentence","","","",""
"3476.7049999791197","","","survey-likert-extra-labels","50","204304","0.0-21.0-2.0","2162","1A","conjoined","woman","","","W2 and M4 are dancing with each other","dance3","rating_volition","{""Q0"":0}","[0]","W2 wanted to dance with M4","M4 wanted to dance with W2"
"3920.624999969732","","","survey-likert-extra-labels","51","208230","0.0-21.0-3.0-0.0","2162","1A","conjoined","woman","","","W2 and M4 are dancing with each other","dance3","rating_causation","{""Q0"":6}","[0]","W2 asked M4 to dance","M4 asked W2 to dance"
"null","Mike and Dave are flirting with each other","","html-keyboard-response","52","210236","0.0-22.0-0.0","2162","1A","conjoined","woman","","null","M2 and M4 are flirting with each other","flirt2","sentence","","","",""
"7389.270000043325","","","survey-likert-extra-labels","53","217629","0.0-22.0-2.0","2162","1A","conjoined","woman","","","M2 and M4 are flirting with each other","flirt2","rating_volition","{""Q0"":0}","[0]","M2 wanted to flirt with M4","M4 wanted to flirt with M2"
"2510.1399999693967","","","survey-likert-extra-labels","54","220146","0.0-22.0-3.0-0.0","2162","1A","conjoined","woman","","","M2 and M4 are flirting with each other","flirt2","rating_causation","{""Q0"":5}","[0]","M2 started flirting with M4 first","M4 started flirting with M2 first"
"null","Ruth and Kate are dancing with each other","","html-keyboard-response","55","222150","0.0-23.0-0.0","2162","1A","conjoined","woman","","null","W1 and W3 are dancing with each other","dance1","sentence","","","",""
"3599.739999976009","","","survey-likert-extra-labels","56","225753","0.0-23.0-2.0","2162","1A","conjoined","woman","","","W1 and W3 are dancing with each other","dance1","rating_volition","{""Q0"":0}","[0]","W1 wanted to dance with W3","W3 wanted to dance with W1"
"4426.780000037979","","","survey-likert-extra-labels","57","230187","0.0-23.0-3.0-0.0","2162","1A","conjoined","woman","","","W1 and W3 are dancing with each other","dance1","rating_causation","{""Q0"":6}","[0]","W1 asked W3 to dance","W3 asked W1 to dance"
"null","Fred is hiring Ruth","","html-keyboard-response","58","232194","0.0-24.0-0.0","2162","1A","conjoined","woman","","null","M3 is hiring W1","hire","sentence","","","",""
"4747.1650000079535","","","survey-likert-extra-labels","59","236948","0.0-24.0-1.0-0.0","2162","1A","conjoined","woman","","","M3 is hiring W1","hire","rating_causation","{""Q0"":6}","[0]","M3 will work for W1","W1 will work for M3"
"8608.670000045095","","","survey-likert-extra-labels","60","245562","0.0-24.0-2.0","2162","1A","conjoined","woman","","","M3 is hiring W1","hire","rating_volition","{""Q0"":0}","[0]","M3 is employing W1","W1 is employing M3"
"null","Dave and Jane are kissing each other","","html-keyboard-response","61","247568","0.0-25.0-0.0","2162","1A","conjoined","woman","","null","M4 and W2 are kissing each other","kiss4","sentence","","","",""
"2880.1450000028126","","","survey-likert-extra-labels","62","250452","0.0-25.0-2.0","2162","1A","conjoined","woman","","","M4 and W2 are kissing each other","kiss4","rating_volition","{""Q0"":0}","[0]","W2 wanted to kiss M4","M4 wanted to kiss W2"
"2416.1500000045635","","","survey-likert-extra-labels","63","252874","0.0-25.0-3.0-0.0","2162","1A","conjoined","woman","","","M4 and W2 are kissing each other","kiss4","rating_causation","{""Q0"":6}","[0]","W2 asked to kiss M4","M4 asked to kiss W2"
"null","Mike and Beth are shouting at each other","","html-keyboard-response","64","254880","0.0-26.0-0.0","2162","1A","conjoined","woman","","null","M2 and W4 are shouting at each other","shout3","sentence","","","",""
"2811.2099999561906","","","survey-likert-extra-labels","65","257695","0.0-26.0-1.0-0.0","2162","1A","conjoined","woman","","","M2 and W4 are shouting at each other","shout3","rating_causation","{""Q0"":0}","[0]","M2 shouted at W4 first","W4 shouted at M2 first"
"1979.399999952875","","","survey-likert-extra-labels","66","259681","0.0-26.0-2.0","2162","1A","conjoined","woman","","","M2 and W4 are shouting at each other","shout3","rating_volition","{""Q0"":6}","[0]","M2 wanted to shout at W4","W4 wanted to shout at M2"
"null","Jane and Beth are flirting with each other","","html-keyboard-response","67","261685","0.0-27.0-0.0","2162","1A","conjoined","woman","","null","W2 and W4 are flirting with each other","flirt1","sentence","","","",""
"2737.970000016503","","","survey-likert-extra-labels","68","264427","0.0-27.0-2.0","2162","1A","conjoined","woman","","","W2 and W4 are flirting with each other","flirt1","rating_volition","{""Q0"":0}","[0]","W2 wanted to flirt with W4","W4 wanted to flirt with W2"
"2351.6949999611825","","","survey-likert-extra-labels","69","266789","0.0-27.0-3.0-0.0","2162","1A","conjoined","woman","","","W2 and W4 are flirting with each other","flirt1","rating_causation","{""Q0"":6}","[0]","W2 started flirting with W4 first","W4 started flirting with W2 first"
"null","Kate is feeding Luke","","html-keyboard-response","70","268793","0.0-28.0-0.0","2162","1A","conjoined","woman","","null","W3 is feeding M1","feed","sentence","","","",""
"6165.015000035055","","","survey-likert-extra-labels","71","274963","0.0-28.0-1.0-0.0","2162","1A","conjoined","woman","","","W3 is feeding M1","feed","rating_causation","{""Q0"":6}","[0]","W3 is eating M1's food","M1 is eating W3's food"
"5849.824999982957","","","survey-likert-extra-labels","72","280820","0.0-28.0-2.0","2162","1A","conjoined","woman","","","W3 is feeding M1","feed","rating_volition","{""Q0"":0}","[0]","W3 is giving M1 food","M1 is giving W3 food"
"null","Luke and Fred are dancing with each other","","html-keyboard-response","73","282825","0.0-29.0-0.0","2162","1A","conjoined","woman","","null","M1 and M3 are dancing with each other","dance2","sentence","","","",""
"3549.6799999964423","","","survey-likert-extra-labels","74","286379","0.0-29.0-1.0-0.0","2162","1A","conjoined","woman","","","M1 and M3 are dancing with each other","dance2","rating_causation","{""Q0"":0}","[0]","M1 asked M3 to dance","M3 asked M1 to dance"
"5378.474999975879","","","survey-likert-extra-labels","75","291763","0.0-29.0-2.0","2162","1A","conjoined","woman","","","M1 and M3 are dancing with each other","dance2","rating_volition","{""Q0"":0}","[0]","M1 wanted to dance with M3","M3 wanted to dance with M1"
"null","Jane and Dave are talking to each other","","html-keyboard-response","76","293768","0.0-30.0-0.0","2162","1A","conjoined","woman","","null","W2 and M4 are talking to each other","talk3","sentence","","","",""
"3256.859999964945","","","survey-likert-extra-labels","77","297029","0.0-30.0-1.0-0.0","2162","1A","conjoined","woman","","","W2 and M4 are talking to each other","talk3","rating_causation","{""Q0"":0}","[0]","W2 started a conversation with M4","M4 started a conversation with W2"
"2281.390000018291","","","survey-likert-extra-labels","78","299315","0.0-30.0-2.0","2162","1A","conjoined","woman","","","W2 and M4 are talking to each other","talk3","rating_volition","{""Q0"":6}","[0]","W2 wanted to talk to M4","M4 wanted to talk to W2"
"null","Jane and Beth are playing with each other","","html-keyboard-response","79","301322","0.0-31.0-0.0","2162","1A","conjoined","woman","","null","W2 and W4 are playing with each other","play1","sentence","","","",""
"2460.0000000209548","","","survey-likert-extra-labels","80","303786","0.0-31.0-1.0-0.0","2162","1A","conjoined","woman","","","W2 and W4 are playing with each other","play1","rating_causation","{""Q0"":0}","[0]","W2 asked to play with W4","W4 asked to play with W2"
"1836.139999970328","","","survey-likert-extra-labels","81","305629","0.0-31.0-2.0","2162","1A","conjoined","woman","","","W2 and W4 are playing with each other","play1","rating_volition","{""Q0"":6}","[0]","W2 wanted to play with W4","W4 wanted to play with W2"
"null","Mike and Beth are dancing with each other","","html-keyboard-response","82","307636","0.0-32.0-0.0","2162","1A","conjoined","woman","","null","M2 and W4 are dancing with each other","dance4","sentence","","","",""
"2290.689999994356","","","survey-likert-extra-labels","83","309930","0.0-32.0-1.0-0.0","2162","1A","conjoined","woman","","","M2 and W4 are dancing with each other","dance4","rating_causation","{""Q0"":0}","[0]","M2 asked W4 to dance","W4 asked M2 to dance"
"3837.725000048522","","","survey-likert-extra-labels","84","313774","0.0-32.0-2.0","2162","1A","conjoined","woman","","","M2 and W4 are dancing with each other","dance4","rating_volition","{""Q0"":6}","[0]","M2 wanted to dance with W4","W4 wanted to dance with M2"
"null","Kate and Ruth are arguing with each other","","html-keyboard-response","85","315781","0.0-33.0-0.0","2162","1A","conjoined","woman","","null","W3 and W1 are arguing with each other","argue1","sentence","","","",""
"1709.0249999891967","","","survey-likert-extra-labels","86","317494","0.0-33.0-2.0","2162","1A","conjoined","woman","","","W3 and W1 are arguing with each other","argue1","rating_volition","{""Q0"":0}","[0]","W1 wanted to argue with W3","W3 wanted to argue with W1"
"4013.794999977108","","","survey-likert-extra-labels","87","321512","0.0-33.0-3.0-0.0","2162","1A","conjoined","woman","","","W3 and W1 are arguing with each other","argue1","rating_causation","{""Q0"":6}","[0]","W1 started an argument with W3","W3 started an argument with W1"
"null","Mike and Dave are playing with each other","","html-keyboard-response","88","323519","0.0-34.0-0.0","2162","1A","conjoined","woman","","null","M2 and M4 are playing with each other","play2","sentence","","","",""
"3413.475000008475","","","survey-likert-extra-labels","89","326936","0.0-34.0-1.0-0.0","2162","1A","conjoined","woman","","","M2 and M4 are playing with each other","play2","rating_causation","{""Q0"":0}","[0]","M2 asked to play with M4","M4 asked to play with M2"
"2222.119999991264","","","survey-likert-extra-labels","90","329167","0.0-34.0-2.0","2162","1A","conjoined","woman","","","M2 and M4 are playing with each other","play2","rating_volition","{""Q0"":5}","[0]","M2 wanted to play with M4","M4 wanted to play with M2"
"null","Ruth is chasing Kate","","html-keyboard-response","91","331172","0.0-35.0-0.0","2162","1A","conjoined","woman","","null","W1 is chasing W3","chase","sentence","","","",""
"7081.9050000282","","","survey-likert-extra-labels","92","338258","0.0-35.0-1.0-0.0","2162","1A","conjoined","woman","","","W1 is chasing W3","chase","rating_causation","{""Q0"":6}","[0]","W1 is running away from W3","W3 is running away from W1"
"2831.18999999715","","","survey-likert-extra-labels","93","341095","0.0-35.0-2.0","2162","1A","conjoined","woman","","","W1 is chasing W3","chase","rating_volition","{""Q0"":0}","[0]","W1 is behind W3","W3 is behind W1"
"null","Luke is driving Fred","","html-keyboard-response","94","343100","0.0-36.0-0.0","2162","1A","conjoined","woman","","null","M1 is driving M3","drive","sentence","","","",""
"3696.8850000412203","","","survey-likert-extra-labels","95","346800","0.0-36.0-1.0-0.0","2162","1A","conjoined","woman","","","M1 is driving M3","drive","rating_causation","{""Q0"":6}","[0]","M3 is taking M1 somewhere","M1 is taking M3 somewhere"
"5494.490000011865","","","survey-likert-extra-labels","96","352303","0.0-36.0-2.0","2162","1A","conjoined","woman","","","M1 is driving M3","drive","rating_volition","{""Q0"":0}","[0]","M3 is M1's passenger","M1 is M3's passenger"
"null","Beth and Jane are marrying each other","","html-keyboard-response","97","354308","0.0-37.0-0.0","2162","1A","conjoined","woman","","null","W4 and W2 are marrying each other","marry1","sentence","","","",""
"3850.5199999781325","","","survey-likert-extra-labels","98","358162","0.0-37.0-2.0","2162","1A","conjoined","woman","","","W4 and W2 are marrying each other","marry1","rating_volition","{""Q0"":3}","[0]","W2 wanted to marry W4","W4 wanted to marry W2"
"5137.390000047162","","","survey-likert-extra-labels","99","363304","0.0-37.0-3.0-0.0","2162","1A","conjoined","woman","","","W4 and W2 are marrying each other","marry1","rating_causation","{""Q0"":3}","[0]","W2 asked to marry W4","W4 asked to marry W2"
"null","Fred and Luke are kissing each other","","html-keyboard-response","100","365312","0.0-38.0-0.0","2162","1A","conjoined","woman","","null","M3 and M1 are kissing each other","kiss2","sentence","","","",""
"1339.395000017248","","","survey-likert-extra-labels","101","366655","0.0-38.0-2.0","2162","1A","conjoined","woman","","","M3 and M1 are kissing each other","kiss2","rating_volition","{""Q0"":3}","[0]","M1 wanted to kiss M3","M3 wanted to kiss M1"
"2184.929999988526","","","survey-likert-extra-labels","102","368845","0.0-38.0-3.0-0.0","2162","1A","conjoined","woman","","","M3 and M1 are kissing each other","kiss2","rating_causation","{""Q0"":3}","[0]","M1 asked to kiss M3","M3 asked to kiss M1"
"null","Beth and Jane are fighting each other","","html-keyboard-response","103","370851","0.0-39.0-0.0","2162","1A","conjoined","woman","","null","W4 and W2 are fighting each other","fight1","sentence","","","",""
"1546.4999999967404","","","survey-likert-extra-labels","104","372401","0.0-39.0-2.0","2162","1A","conjoined","woman","","","W4 and W2 are fighting each other","fight1","rating_volition","{""Q0"":3}","[0]","W2 wanted to fight W4","W4 wanted to fight W2"
"2202.7450000168756","","","survey-likert-extra-labels","105","374608","0.0-39.0-3.0-0.0","2162","1A","conjoined","woman","","","W4 and W2 are fighting each other","fight1","rating_causation","{""Q0"":3}","[0]","W2 started the fight with W4","W4 started the fight with W2"
"null","Ruth and Kate are talking to each other","","html-keyboard-response","106","376616","0.0-40.0-0.0","2162","1A","conjoined","woman","","null","W1 and W3 are talking to each other","talk1","sentence","","","",""
"2881.185000005644","","","survey-likert-extra-labels","107","379501","0.0-40.0-1.0-0.0","2162","1A","conjoined","woman","","","W1 and W3 are talking to each other","talk1","rating_causation","{""Q0"":3}","[0]","W1 started a conversation with W3","W3 started a conversation with W1"
"1342.2300000092946","","","survey-likert-extra-labels","108","380848","0.0-40.0-2.0","2162","1A","conjoined","woman","","","W1 and W3 are talking to each other","talk1","rating_volition","{""Q0"":3}","[0]","W1 wanted to talk to W3","W3 wanted to talk to W1"
"null","Fred and Ruth are playing with each other","","html-keyboard-response","109","382851","0.0-41.0-0.0","2162","1A","conjoined","woman","","null","M3 and W1 are playing with each other","play3","sentence","","","",""
"1452.1500000264496","","","survey-likert-extra-labels","110","384307","0.0-41.0-1.0-0.0","2162","1A","conjoined","woman","","","M3 and W1 are playing with each other","play3","rating_causation","{""Q0"":3}","[0]","M3 asked to play with W1","W1 asked to play with M3"
"1476.3099999981932","","","survey-likert-extra-labels","111","385788","0.0-41.0-2.0","2162","1A","conjoined","woman","","","M3 and W1 are playing with each other","play3","rating_volition","{""Q0"":3}","[0]","M3 wanted to play with W1","W1 wanted to play with M3"
"null","Dave and Mike are fighting each other","","html-keyboard-response","112","387794","0.0-42.0-0.0","2162","1A","conjoined","woman","","null","M4 and M2 are fighting each other","fight2","sentence","","","",""
"5749.479999998584","","","survey-likert-extra-labels","113","393548","0.0-42.0-1.0-0.0","2162","1A","conjoined","woman","","","M4 and M2 are fighting each other","fight2","rating_causation","{""Q0"":3}","[0]","M2 started the fight with M4","M4 started the fight with M2"
"1784.9000000278465","","","survey-likert-extra-labels","114","395340","0.0-42.0-2.0","2162","1A","conjoined","woman","","","M4 and M2 are fighting each other","fight2","rating_volition","{""Q0"":3}","[0]","M2 wanted to fight M4","M4 wanted to fight M2"
"null","Ruth and Fred are fighting each other","","html-keyboard-response","115","397354","0.0-43.0-0.0","2162","1A","conjoined","woman","","null","W1 and M3 are fighting each other","fight4","sentence","","","",""
"2670.7600000081584","","","survey-likert-extra-labels","116","400028","0.0-43.0-2.0","2162","1A","conjoined","woman","","","W1 and M3 are fighting each other","fight4","rating_volition","{""Q0"":3}","[0]","M3 wanted to fight W1","W1 wanted to fight M3"
"1710.2299999678507","","","survey-likert-extra-labels","117","401743","0.0-43.0-3.0-0.0","2162","1A","conjoined","woman","","","W1 and M3 are fighting each other","fight4","rating_causation","{""Q0"":3}","[0]","M3 started the fight with W1","W1 started the fight with M3"
"null","Kate and Luke are playing with each other","","html-keyboard-response","118","403747","0.0-44.0-0.0","2162","1A","conjoined","woman","","null","W3 and M1 are playing with each other","play4","sentence","","","",""
"2275.405000022147","","","survey-likert-extra-labels","119","406025","0.0-44.0-1.0-0.0","2162","1A","conjoined","woman","","","W3 and M1 are playing with each other","play4","rating_causation","{""Q0"":3}","[0]","W3 asked to play with M1","M1 asked to play with W3"
"1593.735000002198","","","survey-likert-extra-labels","120","407624","0.0-44.0-2.0","2162","1A","conjoined","woman","","","W3 and M1 are playing with each other","play4","rating_volition","{""Q0"":3}","[0]","W3 wanted to play with M1","M1 wanted to play with W3"
"null","Dave and Jane are arguing with each other","","html-keyboard-response","121","409628","0.0-45.0-0.0","2162","1A","conjoined","woman","","null","M4 and W2 are arguing with each other","argue3","sentence","","","",""
"4357.610000006389","","","survey-likert-extra-labels","122","413989","0.0-45.0-2.0","2162","1A","conjoined","woman","","","M4 and W2 are arguing with each other","argue3","rating_volition","{""Q0"":3}","[0]","W2 wanted to argue with M4","M4 wanted to argue with W2"
"1370.2850000117905","","","survey-likert-extra-labels","123","415365","0.0-45.0-3.0-0.0","2162","1A","conjoined","woman","","","M4 and W2 are arguing with each other","argue3","rating_causation","{""Q0"":3}","[0]","W2 started an argument with M4","M4 started an argument with W2"
"null","Mike and Dave are touching each other","","html-keyboard-response","124","417372","0.0-46.0-0.0","2162","1A","conjoined","woman","","null","M2 and M4 are touching each other","touch2","sentence","","","",""
"1973.9950000075623","","","survey-likert-extra-labels","125","419349","0.0-46.0-2.0","2162","1A","conjoined","woman","","","M2 and M4 are touching each other","touch2","rating_volition","{""Q0"":3}","[0]","M2 wanted to touch M4","M4 wanted to touch M2"
"1408.289999992121","","","survey-likert-extra-labels","126","420763","0.0-46.0-3.0-0.0","2162","1A","conjoined","woman","","","M2 and M4 are touching each other","touch2","rating_causation","{""Q0"":3}","[0]","M2 asked to touch M4","M4 asked to touch M2"
"null","Jane is teaching Dave","","html-keyboard-response","127","422766","0.0-47.0-0.0","2162","1A","conjoined","woman","","null","W2 is teaching M4","teach","sentence","","","",""
"4456.56500000041","","","survey-likert-extra-labels","128","427226","0.0-47.0-1.0-0.0","2162","1A","conjoined","woman","","","W2 is teaching M4","teach","rating_causation","{""Q0"":6}","[0]","W2 is learning from M4","M4 is learning from W2"
"2598.505000001751","","","survey-likert-extra-labels","129","429831","0.0-47.0-2.0","2162","1A","conjoined","woman","","","W2 is teaching M4","teach","rating_volition","{""Q0"":0}","[0]","W2 is educating M4","M4 is educating W2"
"null","Luke and Kate are fighting each other","","html-keyboard-response","130","431838","0.0-48.0-0.0","2162","1A","conjoined","woman","","null","M1 and W3 are fighting each other","fight3","sentence","","","",""
"4684.940000006463","","","survey-likert-extra-labels","131","436526","0.0-48.0-2.0","2162","1A","conjoined","woman","","","M1 and W3 are fighting each other","fight3","rating_volition","{""Q0"":3}","[0]","W3 wanted to fight M1","M1 wanted to fight W3"
"1059.339999977965","","","survey-likert-extra-labels","132","437592","0.0-48.0-3.0-0.0","2162","1A","conjoined","woman","","","M1 and W3 are fighting each other","fight3","rating_causation","{""Q0"":3}","[0]","W3 started the fight with M1","M1 started the fight with W3"
"null","Luke and Fred are talking to each other","","html-keyboard-response","133","439597","0.0-49.0-0.0","2162","1A","conjoined","woman","","null","M1 and M3 are talking to each other","talk2","sentence","","","",""
"2745.3649999806657","","","survey-likert-extra-labels","134","442347","0.0-49.0-1.0-0.0","2162","1A","conjoined","woman","","","M1 and M3 are talking to each other","talk2","rating_causation","{""Q0"":3}","[0]","M1 started a conversation with M3","M3 started a conversation with M1"
"1062.9450000124052","","","survey-likert-extra-labels","135","443416","0.0-49.0-2.0","2162","1A","conjoined","woman","","","M1 and M3 are talking to each other","talk2","rating_volition","{""Q0"":3}","[0]","M1 wanted to talk to M3","M3 wanted to talk to M1"
"null","Jane and Dave are shouting at each other","","html-keyboard-response","136","445423","0.0-50.0-0.0","2162","1A","conjoined","woman","","null","W2 and M4 are shouting at each other","shout4","sentence","","","",""
"1959.7999999532476","","","survey-likert-extra-labels","137","447386","0.0-50.0-1.0-0.0","2162","1A","conjoined","woman","","","W2 and M4 are shouting at each other","shout4","rating_causation","{""Q0"":3}","[0]","W2 shouted at M4 first","M4 shouted at W2 first"
"1351.3699999894015","","","survey-likert-extra-labels","138","448743","0.0-50.0-2.0","2162","1A","conjoined","woman","","","W2 and M4 are shouting at each other","shout4","rating_volition","{""Q0"":3}","[0]","W2 wanted to shout at M4","M4 wanted to shout at W2"
"null","Ruth and Kate are shouting at each other","","html-keyboard-response","139","450747","0.0-51.0-0.0","2162","1A","conjoined","woman","","null","W1 and W3 are shouting at each other","shout1","sentence","","","",""
"1896.4750000159256","","","survey-likert-extra-labels","140","452647","0.0-51.0-1.0-0.0","2162","1A","conjoined","woman","","","W1 and W3 are shouting at each other","shout1","rating_causation","{""Q0"":3}","[0]","W1 shouted at W3 first","W3 shouted at W1 first"
"1447.9300000239164","","","survey-likert-extra-labels","141","454100","0.0-51.0-2.0","2162","1A","conjoined","woman","","","W1 and W3 are shouting at each other","shout1","rating_volition","{""Q0"":3}","[0]","W1 wanted to shout at W3","W3 wanted to shout at W1"
"null","Jane and Beth are touching each other","","html-keyboard-response","142","456107","0.0-52.0-0.0","2162","1A","conjoined","woman","","null","W2 and W4 are touching each other","touch1","sentence","","","",""
"2232.185000029858","","","survey-likert-extra-labels","143","458343","0.0-52.0-1.0-0.0","2162","1A","conjoined","woman","","","W2 and W4 are touching each other","touch1","rating_causation","{""Q0"":3}","[0]","W2 asked to touch W4","W4 asked to touch W2"
"2076.5799999935552","","","survey-likert-extra-labels","144","460425","0.0-52.0-2.0","2162","1A","conjoined","woman","","","W2 and W4 are touching each other","touch1","rating_volition","{""Q0"":3}","[0]","W2 wanted to touch W4","W4 wanted to touch W2"
"null","Luke and Fred are shouting at each other","","html-keyboard-response","145","462429","0.0-53.0-0.0","2162","1A","conjoined","woman","","null","M1 and M3 are shouting at each other","shout2","sentence","","","",""
"1450.4249999881722","","","survey-likert-extra-labels","146","463883","0.0-53.0-1.0-0.0","2162","1A","conjoined","woman","","","M1 and M3 are shouting at each other","shout2","rating_causation","{""Q0"":3}","[0]","M1 shouted at M3 first","M3 shouted at M1 first"
"1767.4750000005588","","","survey-likert-extra-labels","147","465656","0.0-53.0-2.0","2162","1A","conjoined","woman","","","M1 and M3 are shouting at each other","shout2","rating_volition","{""Q0"":3}","[0]","M1 wanted to shout at M3","M3 wanted to shout at M1"
"null","Dave and Mike are marrying each other","","html-keyboard-response","148","467662","0.0-54.0-0.0","2162","1A","conjoined","woman","","null","M4 and M2 are marrying each other","marry2","sentence","","","",""
"1932.7400000183843","","","survey-likert-extra-labels","149","469599","0.0-54.0-1.0-0.0","2162","1A","conjoined","woman","","","M4 and M2 are marrying each other","marry2","rating_causation","{""Q0"":3}","[0]","M2 asked to marry M4","M4 asked to marry M2"
"1127.985000028275","","","survey-likert-extra-labels","150","470733","0.0-54.0-2.0","2162","1A","conjoined","woman","","","M4 and M2 are marrying each other","marry2","rating_volition","{""Q0"":3}","[0]","M2 wanted to marry M4","M4 wanted to marry M2"
"1884.2799999983981","<p>Thank you for completing that task.</p><p>The final part of this session is a short questionnaire.</p><p>Press Continue.</p>","0","html-button-response","151","472621","0.0-55.0","2162","1A","conjoined","woman","","","","","","","","",""
"23158.320000045933","","","survey-text","152","496815","0.0-56.0","2162","1A","conjoined","woman","","","","","demographics","{""Q0"":""22"",""Q1"":""English"",""Q2"":""English"",""Q3"":""UK"",""Q4"":""English"",""Q5"":""Mixed"",""Q6"":""Female""}","","",""
"1753.3299999777228","<p>Have you lived in the UK for the last 5 years or more?</p>","0","html-button-response","153","498572","0.0-57.0","2162","1A","conjoined","woman","","","","","fiveyears","","","",""
"10300.884999975096","","","survey-text","154","509883","0.0-58.0","2162","1A","conjoined","woman","","","","","worker_id","{""Q0"":""5fbd7423906ec414e7fa36a7""}","","",""
"17884.375000023283","","","external-html","155","528081","0.0-59.0","2162","1A","conjoined","woman","debrief.html","","","","","","","",""
