"rt","stimulus","button_pressed","trial_type","trial_index","time_elapsed","internal_node_id","subject","list","condition","ppt_gender","url","key_press","sentence_type","verb","test_part","responses","question_order","left_part","right_part"
"2661.309999995865","Welcome to the experiment. Press Continue to begin.","0","html-button-response","0","2664","0.0-0.0","29855","4A","conjoined","man","","","","","","","","",""
"8703.564999974333","","","external-html","1","12396","0.0-1.0","29855","4A","conjoined","man","consent.html","","","","","","","",""
"3414.150000025984","<p>Welcome.</p><p>In this experiment we will ask you to imagine some situations.</p><p>Each trial starts with a description of an event.</p><p>Then you will see alternative descriptions of that event, and you will rate on a scale how best they match the original description.</p><p>You will give your answer by clicking a button on a rating scale.</p><p>To do this task, you will have to use your imagination to visualise these events.</p><br><p>Ready?</p>","0","html-button-response","2","15811","0.0-2.0","29855","4A","conjoined","man","","","","","","","","",""
"3145.8800000254996","<p>Before the experiment starts, you will watch an example trial. Press 'Continue'.</p>","0","html-button-response","3","19959","0.0-3.0","29855","4A","conjoined","man","","","","","","","","",""
"null","The police officer is arresting the robber","","html-keyboard-response","4","22987","0.0-4.0","29855","4A","conjoined","man","","null","","","","","","",""
"11879.500000039116","<img src='img/Example-trial.jpg' style='height:550px;''></img>","0","html-button-response","5","34867","0.0-5.0","29855","4A","conjoined","man","","","","","","","","",""
"1183.2799999974668","<p>Ready to start the experiment?</p><br><p><strong>Remember to give an answer by clicking a button on the rating scale.</strong></p><p>Press 'Continue' to begin.</p>","0","html-button-response","6","37056","0.0-6.0","29855","4A","conjoined","man","","","","","","","","",""
"null","Ruth and Kate are arguing with each other","","html-keyboard-response","7","40083","0.0-7.0-0.0","29855","4A","conjoined","man","","null","W1 and W3 are arguing with each other","argue1","sentence","","","",""
"689678.5350000137","","","survey-likert-extra-labels","8","729763","0.0-7.0-2.0","29855","4A","conjoined","man","","","W1 and W3 are arguing with each other","argue1","rating_volition","{""Q0"":3}","[0]","W3 wanted to argue with W1","W1 wanted to argue with W3"
"6785.535000031814","","","survey-likert-extra-labels","9","736551","0.0-7.0-3.0-0.0","29855","4A","conjoined","man","","","W1 and W3 are arguing with each other","argue1","rating_causation","{""Q0"":3}","[0]","W3 started an argument with W1","W1 started an argument with W3"
"null","Dave and Mike are marrying each other","","html-keyboard-response","10","738553","0.0-8.0-0.0","29855","4A","conjoined","man","","null","M4 and M2 are marrying each other","marry2","sentence","","","",""
"7873.215000028722","","","survey-likert-extra-labels","11","746427","0.0-8.0-2.0","29855","4A","conjoined","man","","","M4 and M2 are marrying each other","marry2","rating_volition","{""Q0"":3}","[0]","M4 wanted to marry M2","M2 wanted to marry M4"
"4206.034999981057","","","survey-likert-extra-labels","12","750635","0.0-8.0-3.0-0.0","29855","4A","conjoined","man","","","M4 and M2 are marrying each other","marry2","rating_causation","{""Q0"":3}","[0]","M4 asked to marry M2","M2 asked to marry M4"
"null","Dave and Jane are dancing with each other","","html-keyboard-response","13","752649","0.0-9.0-0.0","29855","4A","conjoined","man","","null","M4 and W2 are dancing with each other","dance3","sentence","","","",""
"10032.839999999851","","","survey-likert-extra-labels","14","762683","0.0-9.0-1.0-0.0","29855","4A","conjoined","man","","","M4 and W2 are dancing with each other","dance3","rating_causation","{""Q0"":3}","[0]","M4 asked W2 to dance","W2 asked M4 to dance"
"2017.954999988433","","","survey-likert-extra-labels","15","764703","0.0-9.0-2.0","29855","4A","conjoined","man","","","M4 and W2 are dancing with each other","dance3","rating_volition","{""Q0"":3}","[0]","M4 wanted to dance with W2","W2 wanted to dance with M4"
"null","Dave and Jane are kissing each other","","html-keyboard-response","16","766705","0.0-10.0-0.0","29855","4A","conjoined","man","","null","M4 and W2 are kissing each other","kiss4","sentence","","","",""
"39753.519999969285","","","survey-likert-extra-labels","17","806459","0.0-10.0-2.0","29855","4A","conjoined","man","","","M4 and W2 are kissing each other","kiss4","rating_volition","{""Q0"":3}","[0]","M4 wanted to kiss W2","W2 wanted to kiss M4"
"4590.049999998882","","","survey-likert-extra-labels","18","811051","0.0-10.0-3.0-0.0","29855","4A","conjoined","man","","","M4 and W2 are kissing each other","kiss4","rating_causation","{""Q0"":3}","[0]","M4 asked to kiss W2","W2 asked to kiss M4"
"null","Ruth is chasing Kate","","html-keyboard-response","19","813052","0.0-11.0-0.0","29855","4A","conjoined","man","","null","W1 is chasing W3","chase","sentence","","","",""
"15113.284999970347","","","survey-likert-extra-labels","20","828167","0.0-11.0-2.0","29855","4A","conjoined","man","","","W1 is chasing W3","chase","rating_volition","{""Q0"":0}","[0]","W1 is behind W3","W3 is behind W1"
"4261.869999987539","","","survey-likert-extra-labels","21","832431","0.0-11.0-3.0-0.0","29855","4A","conjoined","man","","","W1 is chasing W3","chase","rating_causation","{""Q0"":6}","[0]","W1 is running away from W3","W3 is running away from W1"
"null","Mike and Dave are fighting each other","","html-keyboard-response","22","834433","0.0-12.0-0.0","29855","4A","conjoined","man","","null","M2 and M4 are fighting each other","fight2","sentence","","","",""
"3717.115000006743","","","survey-likert-extra-labels","23","838151","0.0-12.0-2.0","29855","4A","conjoined","man","","","M2 and M4 are fighting each other","fight2","rating_volition","{""Q0"":3}","[0]","M4 wanted to fight M2","M2 wanted to fight M4"
"9310.465000045951","","","survey-likert-extra-labels","24","847463","0.0-12.0-3.0-0.0","29855","4A","conjoined","man","","","M2 and M4 are fighting each other","fight2","rating_causation","{""Q0"":3}","[0]","M4 started the fight with M2","M2 started the fight with M4"
"null","Ruth and Fred are marrying each other","","html-keyboard-response","25","849476","0.0-13.0-0.0","29855","4A","conjoined","man","","null","W1 and M3 are marrying each other","marry3","sentence","","","",""
"8257.244999986142","","","survey-likert-extra-labels","26","857735","0.0-13.0-2.0","29855","4A","conjoined","man","","","W1 and M3 are marrying each other","marry3","rating_volition","{""Q0"":3}","[0]","W1 wanted to marry M3","M3 wanted to marry W1"
"3225.97999998834","","","survey-likert-extra-labels","27","860963","0.0-13.0-3.0-0.0","29855","4A","conjoined","man","","","W1 and M3 are marrying each other","marry3","rating_causation","{""Q0"":3}","[0]","W1 asked to marry M3","M3 asked to marry W1"
"null","Luke and Kate are marrying each other","","html-keyboard-response","28","862975","0.0-14.0-0.0","29855","4A","conjoined","man","","null","M1 and W3 are marrying each other","marry4","sentence","","","",""
"3550.4150000051595","","","survey-likert-extra-labels","29","866526","0.0-14.0-1.0-0.0","29855","4A","conjoined","man","","","M1 and W3 are marrying each other","marry4","rating_causation","{""Q0"":3}","[0]","M1 asked to marry W3","W3 asked to marry M1"
"10493.830000050366","","","survey-likert-extra-labels","30","877022","0.0-14.0-2.0","29855","4A","conjoined","man","","","M1 and W3 are marrying each other","marry4","rating_volition","{""Q0"":3}","[0]","M1 wanted to marry W3","W3 wanted to marry M1"
"null","Kate and Ruth are kissing each other","","html-keyboard-response","31","879026","0.0-15.0-0.0","29855","4A","conjoined","man","","null","W3 and W1 are kissing each other","kiss1","sentence","","","",""
"3619.1649999818765","","","survey-likert-extra-labels","32","882646","0.0-15.0-1.0-0.0","29855","4A","conjoined","man","","","W3 and W1 are kissing each other","kiss1","rating_causation","{""Q0"":3}","[0]","W3 asked to kiss W1","W1 asked to kiss W3"
"4190.499999967869","","","survey-likert-extra-labels","33","886838","0.0-15.0-2.0","29855","4A","conjoined","man","","","W3 and W1 are kissing each other","kiss1","rating_volition","{""Q0"":3}","[0]","W3 wanted to kiss W1","W1 wanted to kiss W3"
"null","Beth and Jane are marrying each other","","html-keyboard-response","34","888841","0.0-16.0-0.0","29855","4A","conjoined","man","","null","W4 and W2 are marrying each other","marry1","sentence","","","",""
"3420.484999951441","","","survey-likert-extra-labels","35","892262","0.0-16.0-1.0-0.0","29855","4A","conjoined","man","","","W4 and W2 are marrying each other","marry1","rating_causation","{""Q0"":3}","[0]","W4 asked to marry W2","W2 asked to marry W4"
"3826.1249999632128","","","survey-likert-extra-labels","36","896090","0.0-16.0-2.0","29855","4A","conjoined","man","","","W4 and W2 are marrying each other","marry1","rating_volition","{""Q0"":3}","[0]","W4 wanted to marry W2","W2 wanted to marry W4"
"null","Beth and Mike are talking to each other","","html-keyboard-response","37","898092","0.0-17.0-0.0","29855","4A","conjoined","man","","null","W4 and M2 are talking to each other","talk4","sentence","","","",""
"4837.07000000868","","","survey-likert-extra-labels","38","902930","0.0-17.0-2.0","29855","4A","conjoined","man","","","W4 and M2 are talking to each other","talk4","rating_volition","{""Q0"":3}","[0]","W4 wanted to talk to M2","M2 wanted to talk to W4"
"3750.3100000321865","","","survey-likert-extra-labels","39","906682","0.0-17.0-3.0-0.0","29855","4A","conjoined","man","","","W4 and M2 are talking to each other","talk4","rating_causation","{""Q0"":3}","[0]","W4 started a conversation with M2","M2 started a conversation with W4"
"null","Mike and Dave are playing with each other","","html-keyboard-response","40","908684","0.0-18.0-0.0","29855","4A","conjoined","man","","null","M2 and M4 are playing with each other","play2","sentence","","","",""
"3033.430000010412","","","survey-likert-extra-labels","41","911719","0.0-18.0-1.0-0.0","29855","4A","conjoined","man","","","M2 and M4 are playing with each other","play2","rating_causation","{""Q0"":3}","[0]","M4 asked to play with M2","M2 asked to play with M4"
"2457.779999997001","","","survey-likert-extra-labels","42","914178","0.0-18.0-2.0","29855","4A","conjoined","man","","","M2 and M4 are playing with each other","play2","rating_volition","{""Q0"":3}","[0]","M4 wanted to play with M2","M2 wanted to play with M4"
"null","Fred and Ruth are playing with each other","","html-keyboard-response","43","916193","0.0-19.0-0.0","29855","4A","conjoined","man","","null","M3 and W1 are playing with each other","play3","sentence","","","",""
"3832.2949999710545","","","survey-likert-extra-labels","44","920026","0.0-19.0-2.0","29855","4A","conjoined","man","","","M3 and W1 are playing with each other","play3","rating_volition","{""Q0"":3}","[0]","W1 wanted to play with M3","M3 wanted to play with W1"
"3257.7999999630265","","","survey-likert-extra-labels","45","923286","0.0-19.0-3.0-0.0","29855","4A","conjoined","man","","","M3 and W1 are playing with each other","play3","rating_causation","{""Q0"":3}","[0]","W1 asked to play with M3","M3 asked to play with W1"
"null","Mike and Beth are arguing with each other","","html-keyboard-response","46","925300","0.0-20.0-0.0","29855","4A","conjoined","man","","null","M2 and W4 are arguing with each other","argue4","sentence","","","",""
"4605.459999991581","","","survey-likert-extra-labels","47","929906","0.0-20.0-1.0-0.0","29855","4A","conjoined","man","","","M2 and W4 are arguing with each other","argue4","rating_causation","{""Q0"":3}","[0]","W4 started an argument with M2","M2 started an argument with W4"
"2817.990000010468","","","survey-likert-extra-labels","48","932726","0.0-20.0-2.0","29855","4A","conjoined","man","","","M2 and W4 are arguing with each other","argue4","rating_volition","{""Q0"":3}","[0]","W4 wanted to argue with M2","M2 wanted to argue with W4"
"null","Fred and Luke are talking to each other","","html-keyboard-response","49","934739","0.0-21.0-0.0","29855","4A","conjoined","man","","null","M3 and M1 are talking to each other","talk2","sentence","","","",""
"5034.370000008494","","","survey-likert-extra-labels","50","939774","0.0-21.0-1.0-0.0","29855","4A","conjoined","man","","","M3 and M1 are talking to each other","talk2","rating_causation","{""Q0"":3}","[0]","M3 started a conversation with M1","M1 started a conversation with M3"
"4134.034999995492","","","survey-likert-extra-labels","51","943910","0.0-21.0-2.0","29855","4A","conjoined","man","","","M3 and M1 are talking to each other","talk2","rating_volition","{""Q0"":3}","[0]","M3 wanted to talk to M1","M1 wanted to talk to M3"
"null","Luke and Fred are shouting at each other","","html-keyboard-response","52","945918","0.0-22.0-0.0","29855","4A","conjoined","man","","null","M1 and M3 are shouting at each other","shout2","sentence","","","",""
"5574.789999984205","","","survey-likert-extra-labels","53","951494","0.0-22.0-2.0","29855","4A","conjoined","man","","","M1 and M3 are shouting at each other","shout2","rating_volition","{""Q0"":3}","[0]","M3 wanted to shout at M1","M1 wanted to shout at M3"
"2289.8450000211596","","","survey-likert-extra-labels","54","953786","0.0-22.0-3.0-0.0","29855","4A","conjoined","man","","","M1 and M3 are shouting at each other","shout2","rating_causation","{""Q0"":3}","[0]","M3 shouted at M1 first","M1 shouted at M3 first"
"null","Kate and Luke are fighting each other","","html-keyboard-response","55","955791","0.0-23.0-0.0","29855","4A","conjoined","man","","null","W3 and M1 are fighting each other","fight3","sentence","","","",""
"4530.45000002021","","","survey-likert-extra-labels","56","960322","0.0-23.0-2.0","29855","4A","conjoined","man","","","W3 and M1 are fighting each other","fight3","rating_volition","{""Q0"":3}","[0]","M1 wanted to fight W3","W3 wanted to fight M1"
"1650.11000004597","","","survey-likert-extra-labels","57","961974","0.0-23.0-3.0-0.0","29855","4A","conjoined","man","","","W3 and M1 are fighting each other","fight3","rating_causation","{""Q0"":3}","[0]","M1 started the fight with W3","W3 started the fight with M1"
"null","Mike and Beth are shouting at each other","","html-keyboard-response","58","963977","0.0-24.0-0.0","29855","4A","conjoined","man","","null","M2 and W4 are shouting at each other","shout3","sentence","","","",""
"4860.454999958165","","","survey-likert-extra-labels","59","968838","0.0-24.0-2.0","29855","4A","conjoined","man","","","M2 and W4 are shouting at each other","shout3","rating_volition","{""Q0"":3}","[0]","W4 wanted to shout at M2","M2 wanted to shout at W4"
"4998.08499997016","","","survey-likert-extra-labels","60","973838","0.0-24.0-3.0-0.0","29855","4A","conjoined","man","","","M2 and W4 are shouting at each other","shout3","rating_causation","{""Q0"":3}","[0]","W4 shouted at M2 first","M2 shouted at W4 first"
"null","Beth and Jane are flirting with each other","","html-keyboard-response","61","975840","0.0-25.0-0.0","29855","4A","conjoined","man","","null","W4 and W2 are flirting with each other","flirt1","sentence","","","",""
"13192.970000032801","","","survey-likert-extra-labels","62","989035","0.0-25.0-1.0-0.0","29855","4A","conjoined","man","","","W4 and W2 are flirting with each other","flirt1","rating_causation","{""Q0"":3}","[0]","W4 started flirting with W2 first","W2 started flirting with W4 first"
"4470.045000023674","","","survey-likert-extra-labels","63","993507","0.0-25.0-2.0","29855","4A","conjoined","man","","","W4 and W2 are flirting with each other","flirt1","rating_volition","{""Q0"":3}","[0]","W4 wanted to flirt with W2","W2 wanted to flirt with W4"
"null","Dave and Jane are talking to each other","","html-keyboard-response","64","995514","0.0-26.0-0.0","29855","4A","conjoined","man","","null","M4 and W2 are talking to each other","talk3","sentence","","","",""
"7799.705000012182","","","survey-likert-extra-labels","65","1003315","0.0-26.0-1.0-0.0","29855","4A","conjoined","man","","","M4 and W2 are talking to each other","talk3","rating_causation","{""Q0"":3}","[0]","M4 started a conversation with W2","W2 started a conversation with M4"
"3666.3249999983236","","","survey-likert-extra-labels","66","1006983","0.0-26.0-2.0","29855","4A","conjoined","man","","","M4 and W2 are talking to each other","talk3","rating_volition","{""Q0"":3}","[0]","M4 wanted to talk to W2","W2 wanted to talk to M4"
"null","Fred and Ruth are fighting each other","","html-keyboard-response","67","1008993","0.0-27.0-0.0","29855","4A","conjoined","man","","null","M3 and W1 are fighting each other","fight4","sentence","","","",""
"9348.995000007562","","","survey-likert-extra-labels","68","1018343","0.0-27.0-2.0","29855","4A","conjoined","man","","","M3 and W1 are fighting each other","fight4","rating_volition","{""Q0"":3}","[0]","W1 wanted to fight M3","M3 wanted to fight W1"
"3282.0400000200607","","","survey-likert-extra-labels","69","1021627","0.0-27.0-3.0-0.0","29855","4A","conjoined","man","","","M3 and W1 are fighting each other","fight4","rating_causation","{""Q0"":3}","[0]","W1 started the fight with M3","M3 started the fight with W1"
"null","Jane and Beth are playing with each other","","html-keyboard-response","70","1023629","0.0-28.0-0.0","29855","4A","conjoined","man","","null","W2 and W4 are playing with each other","play1","sentence","","","",""
"6925.174999982119","","","survey-likert-extra-labels","71","1030555","0.0-28.0-2.0","29855","4A","conjoined","man","","","W2 and W4 are playing with each other","play1","rating_volition","{""Q0"":3}","[0]","W4 wanted to play with W2","W2 wanted to play with W4"
"12878.049999999348","","","survey-likert-extra-labels","72","1043435","0.0-28.0-3.0-0.0","29855","4A","conjoined","man","","","W2 and W4 are playing with each other","play1","rating_causation","{""Q0"":1}","[0]","W4 asked to play with W2","W2 asked to play with W4"
"null","Mike is reminding Beth","","html-keyboard-response","73","1045437","0.0-29.0-0.0","29855","4A","conjoined","man","","null","M2 is reminding W4","remind","sentence","","","",""
"5952.864999999292","","","survey-likert-extra-labels","74","1051391","0.0-29.0-2.0","29855","4A","conjoined","man","","","M2 is reminding W4","remind","rating_volition","{""Q0"":0}","[0]","M2 is telling W4 again","W4 is telling M2 again"
"5421.860000002198","","","survey-likert-extra-labels","75","1056815","0.0-29.0-3.0-0.0","29855","4A","conjoined","man","","","M2 is reminding W4","remind","rating_causation","{""Q0"":6}","[0]","M2 is remembering","W4 is remembering"
"null","Dave and Mike are flirting with each other","","html-keyboard-response","76","1059794","0.0-30.0-0.0","29855","4A","conjoined","man","","null","M4 and M2 are flirting with each other","flirt2","sentence","","","",""
"23826.989999972284","","","survey-likert-extra-labels","77","1083623","0.0-30.0-2.0","29855","4A","conjoined","man","","","M4 and M2 are flirting with each other","flirt2","rating_volition","{""Q0"":3}","[0]","M4 wanted to flirt with M2","M2 wanted to flirt with M4"
"3054.019999981392","","","survey-likert-extra-labels","78","1086679","0.0-30.0-3.0-0.0","29855","4A","conjoined","man","","","M4 and M2 are flirting with each other","flirt2","rating_causation","{""Q0"":3}","[0]","M4 started flirting with M2 first","M2 started flirting with M4 first"
"null","Kate and Ruth are dancing with each other","","html-keyboard-response","79","1088681","0.0-31.0-0.0","29855","4A","conjoined","man","","null","W3 and W1 are dancing with each other","dance1","sentence","","","",""
"2903.6099999793805","","","survey-likert-extra-labels","80","1091587","0.0-31.0-1.0-0.0","29855","4A","conjoined","man","","","W3 and W1 are dancing with each other","dance1","rating_causation","{""Q0"":3}","[0]","W3 asked W1 to dance","W1 asked W3 to dance"
"1250.4049999988638","","","survey-likert-extra-labels","81","1092839","0.0-31.0-2.0","29855","4A","conjoined","man","","","W3 and W1 are dancing with each other","dance1","rating_volition","{""Q0"":3}","[0]","W3 wanted to dance with W1","W1 wanted to dance with W3"
"null","Jane and Beth are fighting each other","","html-keyboard-response","82","1094849","0.0-32.0-0.0","29855","4A","conjoined","man","","null","W2 and W4 are fighting each other","fight1","sentence","","","",""
"2784.4050000421703","","","survey-likert-extra-labels","83","1097635","0.0-32.0-2.0","29855","4A","conjoined","man","","","W2 and W4 are fighting each other","fight1","rating_volition","{""Q0"":3}","[0]","W4 wanted to fight W2","W2 wanted to fight W4"
"3059.0749999973923","","","survey-likert-extra-labels","84","1100695","0.0-32.0-3.0-0.0","29855","4A","conjoined","man","","","W2 and W4 are fighting each other","fight1","rating_causation","{""Q0"":3}","[0]","W4 started the fight with W2","W2 started the fight with W4"
"null","Jane and Dave are shouting at each other","","html-keyboard-response","85","1102699","0.0-33.0-0.0","29855","4A","conjoined","man","","null","W2 and M4 are shouting at each other","shout4","sentence","","","",""
"3202.6399999740534","","","survey-likert-extra-labels","86","1105903","0.0-33.0-1.0-0.0","29855","4A","conjoined","man","","","W2 and M4 are shouting at each other","shout4","rating_causation","{""Q0"":3}","[0]","M4 shouted at W2 first","W2 shouted at M4 first"
"2658.2150000031106","","","survey-likert-extra-labels","87","1108563","0.0-33.0-2.0","29855","4A","conjoined","man","","","W2 and M4 are shouting at each other","shout4","rating_volition","{""Q0"":3}","[0]","M4 wanted to shout at W2","W2 wanted to shout at M4"
"null","Luke and Fred are arguing with each other","","html-keyboard-response","88","1110797","0.0-34.0-0.0","29855","4A","conjoined","man","","null","M1 and M3 are arguing with each other","argue2","sentence","","","",""
"94979.27999997046","","","survey-likert-extra-labels","89","1205779","0.0-34.0-1.0-0.0","29855","4A","conjoined","man","","","M1 and M3 are arguing with each other","argue2","rating_causation","{""Q0"":3}","[0]","M3 started an argument with M1","M1 started an argument with M3"
"1165.4700000071898","","","survey-likert-extra-labels","90","1206946","0.0-34.0-2.0","29855","4A","conjoined","man","","","M1 and M3 are arguing with each other","argue2","rating_volition","{""Q0"":3}","[0]","M3 wanted to argue with M1","M1 wanted to argue with M3"
"null","Ruth and Fred are flirting with each other","","html-keyboard-response","91","1208949","0.0-35.0-0.0","29855","4A","conjoined","man","","null","W1 and M3 are flirting with each other","flirt4","sentence","","","",""
"2640.6699999934062","","","survey-likert-extra-labels","92","1211591","0.0-35.0-2.0","29855","4A","conjoined","man","","","W1 and M3 are flirting with each other","flirt4","rating_volition","{""Q0"":3}","[0]","W1 wanted to flirt with M3","M3 wanted to flirt with W1"
"1558.5050000227056","","","survey-likert-extra-labels","93","1213151","0.0-35.0-3.0-0.0","29855","4A","conjoined","man","","","W1 and M3 are flirting with each other","flirt4","rating_causation","{""Q0"":3}","[0]","W1 started flirting with M3 first","M3 started flirting with W1 first"
"null","Jane is teaching Dave","","html-keyboard-response","94","1215153","0.0-36.0-0.0","29855","4A","conjoined","man","","null","W2 is teaching M4","teach","sentence","","","",""
"4677.109999989625","","","survey-likert-extra-labels","95","1219831","0.0-36.0-1.0-0.0","29855","4A","conjoined","man","","","W2 is teaching M4","teach","rating_causation","{""Q0"":6}","[0]","W2 is learning from M4","M4 is learning from W2"
"3181.579999974929","","","survey-likert-extra-labels","96","1223015","0.0-36.0-2.0","29855","4A","conjoined","man","","","W2 is teaching M4","teach","rating_volition","{""Q0"":0}","[0]","W2 is educating M4","M4 is educating W2"
"null","Fred is hiring Ruth","","html-keyboard-response","97","1225016","0.0-37.0-0.0","29855","4A","conjoined","man","","null","M3 is hiring W1","hire","sentence","","","",""
"4573.290000029374","","","survey-likert-extra-labels","98","1229591","0.0-37.0-2.0","29855","4A","conjoined","man","","","M3 is hiring W1","hire","rating_volition","{""Q0"":0}","[0]","M3 is employing W1","W1 is employing M3"
"5565.910000004806","","","survey-likert-extra-labels","99","1235159","0.0-37.0-3.0-0.0","29855","4A","conjoined","man","","","M3 is hiring W1","hire","rating_causation","{""Q0"":6}","[0]","M3 will work for W1","W1 will work for M3"
"null","Mike is posing for Dave","","html-keyboard-response","100","1237792","0.0-38.0-0.0","29855","4A","conjoined","man","","null","M2 is posing for M4","pose","sentence","","","",""
"130233.10500005027","","","survey-likert-extra-labels","101","1368026","0.0-38.0-1.0-0.0","29855","4A","conjoined","man","","","M2 is posing for M4","pose","rating_causation","{""Q0"":6}","[0]","M2 is photographing M4","M4 is photographing M2"
"5598.044999991544","","","survey-likert-extra-labels","102","1373627","0.0-38.0-2.0","29855","4A","conjoined","man","","","M2 is posing for M4","pose","rating_volition","{""Q0"":0}","[0]","M2 is modelling for M4","M4 is modelling for M2"
"null","Beth and Mike are kissing each other","","html-keyboard-response","103","1375629","0.0-39.0-0.0","29855","4A","conjoined","man","","null","W4 and M2 are kissing each other","kiss3","sentence","","","",""
"2836.6249999962747","","","survey-likert-extra-labels","104","1378467","0.0-39.0-2.0","29855","4A","conjoined","man","","","W4 and M2 are kissing each other","kiss3","rating_volition","{""Q0"":3}","[0]","W4 wanted to kiss M2","M2 wanted to kiss W4"
"1230.130000039935","","","survey-likert-extra-labels","105","1379699","0.0-39.0-3.0-0.0","29855","4A","conjoined","man","","","W4 and M2 are kissing each other","kiss3","rating_causation","{""Q0"":3}","[0]","W4 asked to kiss M2","M2 asked to kiss W4"
"null","Kate and Luke are playing with each other","","html-keyboard-response","106","1381700","0.0-40.0-0.0","29855","4A","conjoined","man","","null","W3 and M1 are playing with each other","play4","sentence","","","",""
"2181.8199999979697","","","survey-likert-extra-labels","107","1383883","0.0-40.0-1.0-0.0","29855","4A","conjoined","man","","","W3 and M1 are playing with each other","play4","rating_causation","{""Q0"":3}","[0]","M1 asked to play with W3","W3 asked to play with M1"
"1422.469999990426","","","survey-likert-extra-labels","108","1385307","0.0-40.0-2.0","29855","4A","conjoined","man","","","W3 and M1 are playing with each other","play4","rating_volition","{""Q0"":3}","[0]","M1 wanted to play with W3","W3 wanted to play with M1"
"null","Luke and Kate are touching each other","","html-keyboard-response","109","1387309","0.0-41.0-0.0","29855","4A","conjoined","man","","null","M1 and W3 are touching each other","touch3","sentence","","","",""
"2852.3200000054203","","","survey-likert-extra-labels","110","1390162","0.0-41.0-2.0","29855","4A","conjoined","man","","","M1 and W3 are touching each other","touch3","rating_volition","{""Q0"":3}","[0]","M1 wanted to touch W3","W3 wanted to touch M1"
"1470.3100000042468","","","survey-likert-extra-labels","111","1391635","0.0-41.0-3.0-0.0","29855","4A","conjoined","man","","","M1 and W3 are touching each other","touch3","rating_causation","{""Q0"":3}","[0]","M1 asked to touch W3","W3 asked to touch M1"
"null","Kate and Ruth are talking to each other","","html-keyboard-response","112","1393793","0.0-42.0-0.0","29855","4A","conjoined","man","","null","W3 and W1 are talking to each other","talk1","sentence","","","",""
"59424.10999996355","","","survey-likert-extra-labels","113","1453218","0.0-42.0-2.0","29855","4A","conjoined","man","","","W3 and W1 are talking to each other","talk1","rating_volition","{""Q0"":3}","[0]","W3 wanted to talk to W1","W1 wanted to talk to W3"
"2930.019999970682","","","survey-likert-extra-labels","114","1456151","0.0-42.0-3.0-0.0","29855","4A","conjoined","man","","","W3 and W1 are talking to each other","talk1","rating_causation","{""Q0"":3}","[0]","W3 started a conversation with W1","W1 started a conversation with W3"
"null","Beth and Jane are touching each other","","html-keyboard-response","115","1458152","0.0-43.0-0.0","29855","4A","conjoined","man","","null","W4 and W2 are touching each other","touch1","sentence","","","",""
"2176.760000002105","","","survey-likert-extra-labels","116","1460330","0.0-43.0-1.0-0.0","29855","4A","conjoined","man","","","W4 and W2 are touching each other","touch1","rating_causation","{""Q0"":3}","[0]","W4 asked to touch W2","W2 asked to touch W4"
"1170.4700000118464","","","survey-likert-extra-labels","117","1461502","0.0-43.0-2.0","29855","4A","conjoined","man","","","W4 and W2 are touching each other","touch1","rating_volition","{""Q0"":3}","[0]","W4 wanted to touch W2","W2 wanted to touch W4"
"null","Ruth and Kate are shouting at each other","","html-keyboard-response","118","1463504","0.0-44.0-0.0","29855","4A","conjoined","man","","null","W1 and W3 are shouting at each other","shout1","sentence","","","",""
"2313.6500000255182","","","survey-likert-extra-labels","119","1465818","0.0-44.0-2.0","29855","4A","conjoined","man","","","W1 and W3 are shouting at each other","shout1","rating_volition","{""Q0"":3}","[0]","W3 wanted to shout at W1","W1 wanted to shout at W3"
"1390.445000026375","","","survey-likert-extra-labels","120","1467210","0.0-44.0-3.0-0.0","29855","4A","conjoined","man","","","W1 and W3 are shouting at each other","shout1","rating_causation","{""Q0"":3}","[0]","W3 shouted at W1 first","W1 shouted at W3 first"
"null","Ruth and Fred are touching each other","","html-keyboard-response","121","1469224","0.0-45.0-0.0","29855","4A","conjoined","man","","null","W1 and M3 are touching each other","touch4","sentence","","","",""
"4009.56999999471","","","survey-likert-extra-labels","122","1473235","0.0-45.0-1.0-0.0","29855","4A","conjoined","man","","","W1 and M3 are touching each other","touch4","rating_causation","{""Q0"":3}","[0]","W1 asked to touch M3","M3 asked to touch W1"
"1738.065000041388","","","survey-likert-extra-labels","123","1474975","0.0-45.0-2.0","29855","4A","conjoined","man","","","W1 and M3 are touching each other","touch4","rating_volition","{""Q0"":3}","[0]","W1 wanted to touch M3","M3 wanted to touch W1"
"null","Luke is driving Fred","","html-keyboard-response","124","1476979","0.0-46.0-0.0","29855","4A","conjoined","man","","null","M1 is driving M3","drive","sentence","","","",""
"301982.43000003276","","","survey-likert-extra-labels","125","1778962","0.0-46.0-2.0","29855","4A","conjoined","man","","","M1 is driving M3","drive","rating_volition","{""Q0"":0}","[0]","M3 is M1's passenger","M1 is M3's passenger"
"4825.910000014119","","","survey-likert-extra-labels","126","1783790","0.0-46.0-3.0-0.0","29855","4A","conjoined","man","","","M1 is driving M3","drive","rating_causation","{""Q0"":0}","[0]","M3 is taking M1 somewhere","M1 is taking M3 somewhere"
"null","Dave and Mike are touching each other","","html-keyboard-response","127","1785795","0.0-47.0-0.0","29855","4A","conjoined","man","","null","M4 and M2 are touching each other","touch2","sentence","","","",""
"5037.615000037476","","","survey-likert-extra-labels","128","1790834","0.0-47.0-1.0-0.0","29855","4A","conjoined","man","","","M4 and M2 are touching each other","touch2","rating_causation","{""Q0"":3}","[0]","M4 asked to touch M2","M2 asked to touch M4"
"2545.8400000352412","","","survey-likert-extra-labels","129","1793382","0.0-47.0-2.0","29855","4A","conjoined","man","","","M4 and M2 are touching each other","touch2","rating_volition","{""Q0"":3}","[0]","M4 wanted to touch M2","M2 wanted to touch M4"
"null","Fred and Luke are dancing with each other","","html-keyboard-response","130","1795397","0.0-48.0-0.0","29855","4A","conjoined","man","","null","M3 and M1 are dancing with each other","dance2","sentence","","","",""
"2012.2550000087358","","","survey-likert-extra-labels","131","1797410","0.0-48.0-2.0","29855","4A","conjoined","man","","","M3 and M1 are dancing with each other","dance2","rating_volition","{""Q0"":3}","[0]","M3 wanted to dance with M1","M1 wanted to dance with M3"
"1166.4400000008754","","","survey-likert-extra-labels","132","1798578","0.0-48.0-3.0-0.0","29855","4A","conjoined","man","","","M3 and M1 are dancing with each other","dance2","rating_causation","{""Q0"":3}","[0]","M3 asked M1 to dance","M1 asked M3 to dance"
"null","Fred and Luke are kissing each other","","html-keyboard-response","133","1800594","0.0-49.0-0.0","29855","4A","conjoined","man","","null","M3 and M1 are kissing each other","kiss2","sentence","","","",""
"2823.129999975208","","","survey-likert-extra-labels","134","1803418","0.0-49.0-2.0","29855","4A","conjoined","man","","","M3 and M1 are kissing each other","kiss2","rating_volition","{""Q0"":3}","[0]","M3 wanted to kiss M1","M1 wanted to kiss M3"
"1794.1049999790266","","","survey-likert-extra-labels","135","1805214","0.0-49.0-3.0-0.0","29855","4A","conjoined","man","","","M3 and M1 are kissing each other","kiss2","rating_causation","{""Q0"":3}","[0]","M3 asked to kiss M1","M1 asked to kiss M3"
"null","Luke and Kate are flirting with each other","","html-keyboard-response","136","1807231","0.0-50.0-0.0","29855","4A","conjoined","man","","null","M1 and W3 are flirting with each other","flirt3","sentence","","","",""
"3653.7699999753386","","","survey-likert-extra-labels","137","1810886","0.0-50.0-1.0-0.0","29855","4A","conjoined","man","","","M1 and W3 are flirting with each other","flirt3","rating_causation","{""Q0"":3}","[0]","M1 started flirting with W3 first","W3 started flirting with M1 first"
"1446.219999983441","","","survey-likert-extra-labels","138","1812334","0.0-50.0-2.0","29855","4A","conjoined","man","","","M1 and W3 are flirting with each other","flirt3","rating_volition","{""Q0"":3}","[0]","M1 wanted to flirt with W3","W3 wanted to flirt with M1"
"null","Kate is feeding Luke","","html-keyboard-response","139","1814339","0.0-51.0-0.0","29855","4A","conjoined","man","","null","W3 is feeding M1","feed","sentence","","","",""
"2933.8100000168197","","","survey-likert-extra-labels","140","1817274","0.0-51.0-2.0","29855","4A","conjoined","man","","","W3 is feeding M1","feed","rating_volition","{""Q0"":0}","[0]","W3 is giving M1 food","M1 is giving W3 food"
"3386.2049999879673","","","survey-likert-extra-labels","141","1820662","0.0-51.0-3.0-0.0","29855","4A","conjoined","man","","","W3 is feeding M1","feed","rating_causation","{""Q0"":6}","[0]","W3 is eating M1's food","M1 is eating W3's food"
"null","Jane and Dave are arguing with each other","","html-keyboard-response","142","1822677","0.0-52.0-0.0","29855","4A","conjoined","man","","null","W2 and M4 are arguing with each other","argue3","sentence","","","",""
"2203.459999989718","","","survey-likert-extra-labels","143","1824882","0.0-52.0-1.0-0.0","29855","4A","conjoined","man","","","W2 and M4 are arguing with each other","argue3","rating_causation","{""Q0"":3}","[0]","M4 started an argument with W2","W2 started an argument with M4"
"1181.2950000166893","","","survey-likert-extra-labels","144","1826066","0.0-52.0-2.0","29855","4A","conjoined","man","","","W2 and M4 are arguing with each other","argue3","rating_volition","{""Q0"":3}","[0]","M4 wanted to argue with W2","W2 wanted to argue with M4"
"null","Beth and Mike are dancing with each other","","html-keyboard-response","145","1828068","0.0-53.0-0.0","29855","4A","conjoined","man","","null","W4 and M2 are dancing with each other","dance4","sentence","","","",""
"1908.7100000469945","","","survey-likert-extra-labels","146","1829978","0.0-53.0-1.0-0.0","29855","4A","conjoined","man","","","W4 and M2 are dancing with each other","dance4","rating_causation","{""Q0"":3}","[0]","W4 asked M2 to dance","M2 asked W4 to dance"
"1214.5049999817275","","","survey-likert-extra-labels","147","1831194","0.0-53.0-2.0","29855","4A","conjoined","man","","","W4 and M2 are dancing with each other","dance4","rating_volition","{""Q0"":3}","[0]","W4 wanted to dance with M2","M2 wanted to dance with W4"
"null","Jane is carrying Beth","","html-keyboard-response","148","1833202","0.0-54.0-0.0","29855","4A","conjoined","man","","null","W2 is carrying W4","carry","sentence","","","",""
"3014.804999984335","","","survey-likert-extra-labels","149","1836218","0.0-54.0-1.0-0.0","29855","4A","conjoined","man","","","W2 is carrying W4","carry","rating_causation","{""Q0"":6}","[0]","W2 is being moved by W4","W4 is being moved by W2"
"4994.445000018459","","","survey-likert-extra-labels","150","1841214","0.0-54.0-2.0","29855","4A","conjoined","man","","","W2 is carrying W4","carry","rating_volition","{""Q0"":0}","[0]","W2 is transporting W4","W4 is transporting W2"
"158078.4299999941","<p>Thank you for completing that task.</p><p>The final part of this session is a short questionnaire.</p><p>Press Continue.</p>","0","html-button-response","151","1999294","0.0-55.0","29855","4A","conjoined","man","","","","","","","","",""
"36308.390000020154","","","survey-text","152","2036606","0.0-56.0","29855","4A","conjoined","man","","","","","demographics","{""Q0"":""47"",""Q1"":""English "",""Q2"":""English"",""Q3"":""England "",""Q4"":""English"",""Q5"":""White "",""Q6"":""Male""}","","",""
"1374.0349999861792","<p>Have you lived in the UK for the last 5 years or more?</p>","0","html-button-response","153","2037981","0.0-57.0","29855","4A","conjoined","man","","","","","fiveyears","","","",""
"12122.855000023264","","","survey-text","154","2051109","0.0-58.0","29855","4A","conjoined","man","","","","","worker_id","{""Q0"":""5db403f9aa516e000a500822""}","","",""
"1991.5299999993294","","","external-html","155","2053153","0.0-59.0","29855","4A","conjoined","man","debrief.html","","","","","","","",""
