"rt","stimulus","button_pressed","trial_type","trial_index","time_elapsed","internal_node_id","subject","list","condition","ppt_gender","url","key_press","sentence_type","verb","test_part","responses","question_order","left_part","right_part"
"27092.00000000419","Welcome to the experiment. Press Continue to begin.","0","html-button-response","0","27100","0.0-0.0","3232","3A","conjoined","man","","","","","","","","",""
"14230.000000010477","","","external-html","1","43592","0.0-1.0","3232","3A","conjoined","man","consent.html","","","","","","","",""
"11368.999999991502","<p>Welcome.</p><p>In this experiment we will ask you to imagine some situations.</p><p>Each trial starts with a description of an event.</p><p>Then you will see alternative descriptions of that event, and you will rate on a scale how best they match the original description.</p><p>You will give your answer by clicking a button on a rating scale.</p><p>To do this task, you will have to use your imagination to visualise these events.</p><br><p>Ready?</p>","0","html-button-response","2","54965","0.0-2.0","3232","3A","conjoined","man","","","","","","","","",""
"3222.9999999981374","<p>Before the experiment starts, you will watch an example trial. Press 'Continue'.</p>","0","html-button-response","3","59192","0.0-3.0","3232","3A","conjoined","man","","","","","","","","",""
"null","The police officer is arresting the robber","","html-keyboard-response","4","62195","0.0-4.0","3232","3A","conjoined","man","","null","","","","","","",""
"11649.00000000489","<img src='img/Example-trial.jpg' style='height:550px;''></img>","0","html-button-response","5","73846","0.0-5.0","3232","3A","conjoined","man","","","","","","","","",""
"2504.9999999901047","<p>Ready to start the experiment?</p><br><p><strong>Remember to give an answer by clicking a button on the rating scale.</strong></p><p>Press 'Continue' to begin.</p>","0","html-button-response","6","77358","0.0-6.0","3232","3A","conjoined","man","","","","","","","","",""
"null","Kate and Ruth are dancing with each other","","html-keyboard-response","7","80391","0.0-7.0-0.0","3232","3A","conjoined","man","","null","W3 and W1 are dancing with each other","dance1","sentence","","","",""
"9315.000000002328","","","survey-likert-extra-labels","8","89802","0.0-7.0-1.0-0.0","3232","3A","conjoined","man","","","W3 and W1 are dancing with each other","dance1","rating_causation","{""Q0"":3}","[0]","W1 asked W3 to dance","W3 asked W1 to dance"
"5623.0000000068685","","","survey-likert-extra-labels","9","95439","0.0-7.0-2.0","3232","3A","conjoined","man","","","W3 and W1 are dancing with each other","dance1","rating_volition","{""Q0"":3}","[0]","W1 wanted to dance with W3","W3 wanted to dance with W1"
"null","Luke and Kate are flirting with each other","","html-keyboard-response","10","97456","0.0-8.0-0.0","3232","3A","conjoined","man","","null","M1 and W3 are flirting with each other","flirt3","sentence","","","",""
"5255.999999993946","","","survey-likert-extra-labels","11","102715","0.0-8.0-1.0-0.0","3232","3A","conjoined","man","","","M1 and W3 are flirting with each other","flirt3","rating_causation","{""Q0"":3}","[0]","W3 started flirting with M1 first","M1 started flirting with W3 first"
"6637.000000002445","","","survey-likert-extra-labels","12","109367","0.0-8.0-2.0","3232","3A","conjoined","man","","","M1 and W3 are flirting with each other","flirt3","rating_volition","{""Q0"":3}","[0]","W3 wanted to flirt with M1","M1 wanted to flirt with W3"
"null","Dave and Mike are playing with each other","","html-keyboard-response","13","111390","0.0-9.0-0.0","3232","3A","conjoined","man","","null","M4 and M2 are playing with each other","play2","sentence","","","",""
"4676.000000006752","","","survey-likert-extra-labels","14","116069","0.0-9.0-2.0","3232","3A","conjoined","man","","","M4 and M2 are playing with each other","play2","rating_volition","{""Q0"":3}","[0]","M2 wanted to play with M4","M4 wanted to play with M2"
"4399.999999994179","","","survey-likert-extra-labels","15","120484","0.0-9.0-3.0-0.0","3232","3A","conjoined","man","","","M4 and M2 are playing with each other","play2","rating_causation","{""Q0"":3}","[0]","M2 asked to play with M4","M4 asked to play with M2"
"null","Luke and Kate are touching each other","","html-keyboard-response","16","122510","0.0-10.0-0.0","3232","3A","conjoined","man","","null","M1 and W3 are touching each other","touch3","sentence","","","",""
"4022.000000011758","","","survey-likert-extra-labels","17","126535","0.0-10.0-1.0-0.0","3232","3A","conjoined","man","","","M1 and W3 are touching each other","touch3","rating_causation","{""Q0"":3}","[0]","W3 asked to touch M1","M1 asked to touch W3"
"3635.999999998603","","","survey-likert-extra-labels","18","130186","0.0-10.0-2.0","3232","3A","conjoined","man","","","M1 and W3 are touching each other","touch3","rating_volition","{""Q0"":3}","[0]","W3 wanted to touch M1","M1 wanted to touch W3"
"null","Luke is driving Fred","","html-keyboard-response","19","132206","0.0-11.0-0.0","3232","3A","conjoined","man","","null","M1 is driving M3","drive","sentence","","","",""
"7192.9999999993015","","","survey-likert-extra-labels","20","139402","0.0-11.0-2.0","3232","3A","conjoined","man","","","M1 is driving M3","drive","rating_volition","{""Q0"":0}","[0]","M3 is M1's passenger","M1 is M3's passenger"
"6914.000000004307","","","survey-likert-extra-labels","21","146329","0.0-11.0-3.0-0.0","3232","3A","conjoined","man","","","M1 is driving M3","drive","rating_causation","{""Q0"":6}","[0]","M3 is taking M1 somewhere","M1 is taking M3 somewhere"
"null","Kate is feeding Luke","","html-keyboard-response","22","148345","0.0-12.0-0.0","3232","3A","conjoined","man","","null","W3 is feeding M1","feed","sentence","","","",""
"4971.000000005006","","","survey-likert-extra-labels","23","153319","0.0-12.0-2.0","3232","3A","conjoined","man","","","W3 is feeding M1","feed","rating_volition","{""Q0"":0}","[0]","W3 is giving M1 food","M1 is giving W3 food"
"4823.999999993248","","","survey-likert-extra-labels","24","158157","0.0-12.0-3.0-0.0","3232","3A","conjoined","man","","","W3 is feeding M1","feed","rating_causation","{""Q0"":6}","[0]","W3 is eating M1's food","M1 is eating W3's food"
"null","Fred and Luke are shouting at each other","","html-keyboard-response","25","160179","0.0-13.0-0.0","3232","3A","conjoined","man","","null","M3 and M1 are shouting at each other","shout2","sentence","","","",""
"5502.000000007683","","","survey-likert-extra-labels","26","165684","0.0-13.0-2.0","3232","3A","conjoined","man","","","M3 and M1 are shouting at each other","shout2","rating_volition","{""Q0"":3}","[0]","M1 wanted to shout at M3","M3 wanted to shout at M1"
"3925.0000000029104","","","survey-likert-extra-labels","27","169622","0.0-13.0-3.0-0.0","3232","3A","conjoined","man","","","M3 and M1 are shouting at each other","shout2","rating_causation","{""Q0"":3}","[0]","M1 shouted at M3 first","M3 shouted at M1 first"
"null","Beth and Jane are flirting with each other","","html-keyboard-response","28","171638","0.0-14.0-0.0","3232","3A","conjoined","man","","null","W4 and W2 are flirting with each other","flirt1","sentence","","","",""
"4230.999999999767","","","survey-likert-extra-labels","29","175872","0.0-14.0-1.0-0.0","3232","3A","conjoined","man","","","W4 and W2 are flirting with each other","flirt1","rating_causation","{""Q0"":3}","[0]","W2 started flirting with W4 first","W4 started flirting with W2 first"
"3212.999999988824","","","survey-likert-extra-labels","30","179099","0.0-14.0-2.0","3232","3A","conjoined","man","","","W4 and W2 are flirting with each other","flirt1","rating_volition","{""Q0"":3}","[0]","W2 wanted to flirt with W4","W4 wanted to flirt with W2"
"null","Fred is hiring Ruth","","html-keyboard-response","31","181118","0.0-15.0-0.0","3232","3A","conjoined","man","","null","M3 is hiring W1","hire","sentence","","","",""
"5591.000000000349","","","survey-likert-extra-labels","32","186712","0.0-15.0-1.0-0.0","3232","3A","conjoined","man","","","M3 is hiring W1","hire","rating_causation","{""Q0"":6}","[0]","M3 will work for W1","W1 will work for M3"
"4084.999999991851","","","survey-likert-extra-labels","33","190811","0.0-15.0-2.0","3232","3A","conjoined","man","","","M3 is hiring W1","hire","rating_volition","{""Q0"":0}","[0]","M3 is employing W1","W1 is employing M3"
"null","Fred and Ruth are fighting each other","","html-keyboard-response","34","192826","0.0-16.0-0.0","3232","3A","conjoined","man","","null","M3 and W1 are fighting each other","fight4","sentence","","","",""
"2671.9999999913853","","","survey-likert-extra-labels","35","195501","0.0-16.0-2.0","3232","3A","conjoined","man","","","M3 and W1 are fighting each other","fight4","rating_volition","{""Q0"":3}","[0]","M3 wanted to fight W1","W1 wanted to fight M3"
"2485.000000000582","","","survey-likert-extra-labels","36","197999","0.0-16.0-3.0-0.0","3232","3A","conjoined","man","","","M3 and W1 are fighting each other","fight4","rating_causation","{""Q0"":3}","[0]","M3 started the fight with W1","W1 started the fight with M3"
"null","Mike and Dave are fighting each other","","html-keyboard-response","37","200011","0.0-17.0-0.0","3232","3A","conjoined","man","","null","M2 and M4 are fighting each other","fight2","sentence","","","",""
"2550.0000000029104","","","survey-likert-extra-labels","38","202566","0.0-17.0-1.0-0.0","3232","3A","conjoined","man","","","M2 and M4 are fighting each other","fight2","rating_causation","{""Q0"":3}","[0]","M2 started the fight with M4","M4 started the fight with M2"
"2635.999999998603","","","survey-likert-extra-labels","39","205215","0.0-17.0-2.0","3232","3A","conjoined","man","","","M2 and M4 are fighting each other","fight2","rating_volition","{""Q0"":3}","[0]","M2 wanted to fight M4","M4 wanted to fight M2"
"null","Ruth and Kate are kissing each other","","html-keyboard-response","40","207231","0.0-18.0-0.0","3232","3A","conjoined","man","","null","W1 and W3 are kissing each other","kiss1","sentence","","","",""
"3895.0000000040745","","","survey-likert-extra-labels","41","211129","0.0-18.0-2.0","3232","3A","conjoined","man","","","W1 and W3 are kissing each other","kiss1","rating_volition","{""Q0"":3}","[0]","W1 wanted to kiss W3","W3 wanted to kiss W1"
"2794.000000008964","","","survey-likert-extra-labels","42","213939","0.0-18.0-3.0-0.0","3232","3A","conjoined","man","","","W1 and W3 are kissing each other","kiss1","rating_causation","{""Q0"":3}","[0]","W1 asked to kiss W3","W3 asked to kiss W1"
"null","Jane is carrying Beth","","html-keyboard-response","43","215969","0.0-19.0-0.0","3232","3A","conjoined","man","","null","W2 is carrying W4","carry","sentence","","","",""
"9008.00000000163","","","survey-likert-extra-labels","44","224980","0.0-19.0-2.0","3232","3A","conjoined","man","","","W2 is carrying W4","carry","rating_volition","{""Q0"":0}","[0]","W2 is transporting W4","W4 is transporting W2"
"5498.0000000068685","","","survey-likert-extra-labels","45","230491","0.0-19.0-3.0-0.0","3232","3A","conjoined","man","","","W2 is carrying W4","carry","rating_causation","{""Q0"":6}","[0]","W2 is being moved by W4","W4 is being moved by W2"
"null","Jane and Beth are fighting each other","","html-keyboard-response","46","232512","0.0-20.0-0.0","3232","3A","conjoined","man","","null","W2 and W4 are fighting each other","fight1","sentence","","","",""
"2752.999999996973","","","survey-likert-extra-labels","47","235267","0.0-20.0-2.0","3232","3A","conjoined","man","","","W2 and W4 are fighting each other","fight1","rating_volition","{""Q0"":3}","[0]","W2 wanted to fight W4","W4 wanted to fight W2"
"2308.00000000454","","","survey-likert-extra-labels","48","237590","0.0-20.0-3.0-0.0","3232","3A","conjoined","man","","","W2 and W4 are fighting each other","fight1","rating_causation","{""Q0"":3}","[0]","W2 started the fight with W4","W4 started the fight with W2"
"null","Kate and Luke are marrying each other","","html-keyboard-response","49","239606","0.0-21.0-0.0","3232","3A","conjoined","man","","null","W3 and M1 are marrying each other","marry4","sentence","","","",""
"2858.0000000074506","","","survey-likert-extra-labels","50","242467","0.0-21.0-2.0","3232","3A","conjoined","man","","","W3 and M1 are marrying each other","marry4","rating_volition","{""Q0"":3}","[0]","W3 wanted to marry M1","M1 wanted to marry W3"
"4834.000000002561","","","survey-likert-extra-labels","51","247318","0.0-21.0-3.0-0.0","3232","3A","conjoined","man","","","W3 and M1 are marrying each other","marry4","rating_causation","{""Q0"":3}","[0]","W3 asked to marry M1","M1 asked to marry W3"
"null","Beth and Mike are shouting at each other","","html-keyboard-response","52","249344","0.0-22.0-0.0","3232","3A","conjoined","man","","null","W4 and M2 are shouting at each other","shout3","sentence","","","",""
"2472.0000000088476","","","survey-likert-extra-labels","53","251819","0.0-22.0-2.0","3232","3A","conjoined","man","","","W4 and M2 are shouting at each other","shout3","rating_volition","{""Q0"":3}","[0]","M2 wanted to shout at W4","W4 wanted to shout at M2"
"5175.00000000291","","","survey-likert-extra-labels","54","257007","0.0-22.0-3.0-0.0","3232","3A","conjoined","man","","","W4 and M2 are shouting at each other","shout3","rating_causation","{""Q0"":3}","[0]","M2 shouted at W4 first","W4 shouted at M2 first"
"null","Beth and Jane are touching each other","","html-keyboard-response","55","259034","0.0-23.0-0.0","3232","3A","conjoined","man","","null","W4 and W2 are touching each other","touch1","sentence","","","",""
"3006.999999997788","","","survey-likert-extra-labels","56","262044","0.0-23.0-1.0-0.0","3232","3A","conjoined","man","","","W4 and W2 are touching each other","touch1","rating_causation","{""Q0"":3}","[0]","W2 asked to touch W4","W4 asked to touch W2"
"3902.0000000018626","","","survey-likert-extra-labels","57","265958","0.0-23.0-2.0","3232","3A","conjoined","man","","","W4 and W2 are touching each other","touch1","rating_volition","{""Q0"":3}","[0]","W2 wanted to touch W4","W4 wanted to touch W2"
"null","Kate and Luke are fighting each other","","html-keyboard-response","58","267974","0.0-24.0-0.0","3232","3A","conjoined","man","","null","W3 and M1 are fighting each other","fight3","sentence","","","",""
"2815.0000000023283","","","survey-likert-extra-labels","59","270792","0.0-24.0-2.0","3232","3A","conjoined","man","","","W3 and M1 are fighting each other","fight3","rating_volition","{""Q0"":3}","[0]","W3 wanted to fight M1","M1 wanted to fight W3"
"2948.000000003958","","","survey-likert-extra-labels","60","273755","0.0-24.0-3.0-0.0","3232","3A","conjoined","man","","","W3 and M1 are fighting each other","fight3","rating_causation","{""Q0"":3}","[0]","W3 started the fight with M1","M1 started the fight with W3"
"null","Ruth is chasing Kate","","html-keyboard-response","61","275779","0.0-25.0-0.0","3232","3A","conjoined","man","","null","W1 is chasing W3","chase","sentence","","","",""
"7848.000000012689","","","survey-likert-extra-labels","62","283630","0.0-25.0-2.0","3232","3A","conjoined","man","","","W1 is chasing W3","chase","rating_volition","{""Q0"":0}","[0]","W1 is behind W3","W3 is behind W1"
"9300.00000000291","","","survey-likert-extra-labels","63","292945","0.0-25.0-3.0-0.0","3232","3A","conjoined","man","","","W1 is chasing W3","chase","rating_causation","{""Q0"":6}","[0]","W1 is running away from W3","W3 is running away from W1"
"null","Dave and Jane are shouting at each other","","html-keyboard-response","64","294959","0.0-26.0-0.0","3232","3A","conjoined","man","","null","M4 and W2 are shouting at each other","shout4","sentence","","","",""
"3570.9999999962747","","","survey-likert-extra-labels","65","298533","0.0-26.0-1.0-0.0","3232","3A","conjoined","man","","","M4 and W2 are shouting at each other","shout4","rating_causation","{""Q0"":3}","[0]","W2 shouted at M4 first","M4 shouted at W2 first"
"4561.000000001513","","","survey-likert-extra-labels","66","303108","0.0-26.0-2.0","3232","3A","conjoined","man","","","M4 and W2 are shouting at each other","shout4","rating_volition","{""Q0"":3}","[0]","W2 wanted to shout at M4","M4 wanted to shout at W2"
"null","Jane and Dave are arguing with each other","","html-keyboard-response","67","305124","0.0-27.0-0.0","3232","3A","conjoined","man","","null","W2 and M4 are arguing with each other","argue3","sentence","","","",""
"4333.999999988009","","","survey-likert-extra-labels","68","309460","0.0-27.0-1.0-0.0","3232","3A","conjoined","man","","","W2 and M4 are arguing with each other","argue3","rating_causation","{""Q0"":3}","[0]","W2 started an argument with M4","M4 started an argument with W2"
"2985.999999989872","","","survey-likert-extra-labels","69","312460","0.0-27.0-2.0","3232","3A","conjoined","man","","","W2 and M4 are arguing with each other","argue3","rating_volition","{""Q0"":3}","[0]","W2 wanted to argue with M4","M4 wanted to argue with W2"
"null","Beth and Mike are dancing with each other","","html-keyboard-response","70","314477","0.0-28.0-0.0","3232","3A","conjoined","man","","null","W4 and M2 are dancing with each other","dance4","sentence","","","",""
"3695.9999999962747","","","survey-likert-extra-labels","71","318176","0.0-28.0-2.0","3232","3A","conjoined","man","","","W4 and M2 are dancing with each other","dance4","rating_volition","{""Q0"":3}","[0]","M2 wanted to dance with W4","W4 wanted to dance with M2"
"2628.000000011525","","","survey-likert-extra-labels","72","320827","0.0-28.0-3.0-0.0","3232","3A","conjoined","man","","","W4 and M2 are dancing with each other","dance4","rating_causation","{""Q0"":3}","[0]","M2 asked W4 to dance","W4 asked M2 to dance"
"null","Kate and Ruth are talking to each other","","html-keyboard-response","73","322837","0.0-29.0-0.0","3232","3A","conjoined","man","","null","W3 and W1 are talking to each other","talk1","sentence","","","",""
"4073.000000003958","","","survey-likert-extra-labels","74","326913","0.0-29.0-1.0-0.0","3232","3A","conjoined","man","","","W3 and W1 are talking to each other","talk1","rating_causation","{""Q0"":3}","[0]","W1 started a conversation with W3","W3 started a conversation with W1"
"3112.9999999975553","","","survey-likert-extra-labels","75","330040","0.0-29.0-2.0","3232","3A","conjoined","man","","","W3 and W1 are talking to each other","talk1","rating_volition","{""Q0"":3}","[0]","W1 wanted to talk to W3","W3 wanted to talk to W1"
"null","Fred and Ruth are marrying each other","","html-keyboard-response","76","332054","0.0-30.0-0.0","3232","3A","conjoined","man","","null","M3 and W1 are marrying each other","marry3","sentence","","","",""
"2797.999999995227","","","survey-likert-extra-labels","77","334855","0.0-30.0-1.0-0.0","3232","3A","conjoined","man","","","M3 and W1 are marrying each other","marry3","rating_causation","{""Q0"":3}","[0]","M3 asked to marry W1","W1 asked to marry M3"
"2822.0000000001164","","","survey-likert-extra-labels","78","337691","0.0-30.0-2.0","3232","3A","conjoined","man","","","M3 and W1 are marrying each other","marry3","rating_volition","{""Q0"":3}","[0]","M3 wanted to marry W1","W1 wanted to marry M3"
"null","Jane and Beth are marrying each other","","html-keyboard-response","79","339712","0.0-31.0-0.0","3232","3A","conjoined","man","","null","W2 and W4 are marrying each other","marry1","sentence","","","",""
"2900.999999998021","","","survey-likert-extra-labels","80","342643","0.0-31.0-1.0-0.0","3232","3A","conjoined","man","","","W2 and W4 are marrying each other","marry1","rating_causation","{""Q0"":3}","[0]","W2 asked to marry W4","W4 asked to marry W2"
"3574.9999999970896","","","survey-likert-extra-labels","81","346231","0.0-31.0-2.0","3232","3A","conjoined","man","","","W2 and W4 are marrying each other","marry1","rating_volition","{""Q0"":3}","[0]","W2 wanted to marry W4","W4 wanted to marry W2"
"null","Kate and Ruth are shouting at each other","","html-keyboard-response","82","348256","0.0-32.0-0.0","3232","3A","conjoined","man","","null","W3 and W1 are shouting at each other","shout1","sentence","","","",""
"2661.000000007334","","","survey-likert-extra-labels","83","350920","0.0-32.0-2.0","3232","3A","conjoined","man","","","W3 and W1 are shouting at each other","shout1","rating_volition","{""Q0"":3}","[0]","W1 wanted to shout at W3","W3 wanted to shout at W1"
"3412.000000011176","","","survey-likert-extra-labels","84","354346","0.0-32.0-3.0-0.0","3232","3A","conjoined","man","","","W3 and W1 are shouting at each other","shout1","rating_causation","{""Q0"":3}","[0]","W1 shouted at W3 first","W3 shouted at W1 first"
"null","Luke and Fred are arguing with each other","","html-keyboard-response","85","356370","0.0-33.0-0.0","3232","3A","conjoined","man","","null","M1 and M3 are arguing with each other","argue2","sentence","","","",""
"2388.0000000062864","","","survey-likert-extra-labels","86","358762","0.0-33.0-1.0-0.0","3232","3A","conjoined","man","","","M1 and M3 are arguing with each other","argue2","rating_causation","{""Q0"":3}","[0]","M1 started an argument with M3","M3 started an argument with M1"
"2762.0000000024447","","","survey-likert-extra-labels","87","361537","0.0-33.0-2.0","3232","3A","conjoined","man","","","M1 and M3 are arguing with each other","argue2","rating_volition","{""Q0"":3}","[0]","M1 wanted to argue with M3","M3 wanted to argue with M1"
"null","Beth and Mike are talking to each other","","html-keyboard-response","88","363552","0.0-34.0-0.0","3232","3A","conjoined","man","","null","W4 and M2 are talking to each other","talk4","sentence","","","",""
"2692.9999999993015","","","survey-likert-extra-labels","89","366248","0.0-34.0-2.0","3232","3A","conjoined","man","","","W4 and M2 are talking to each other","talk4","rating_volition","{""Q0"":3}","[0]","M2 wanted to talk to W4","W4 wanted to talk to M2"
"3489.000000001397","","","survey-likert-extra-labels","90","369751","0.0-34.0-3.0-0.0","3232","3A","conjoined","man","","","W4 and M2 are talking to each other","talk4","rating_causation","{""Q0"":3}","[0]","M2 started a conversation with W4","W4 started a conversation with M2"
"null","Ruth and Fred are flirting with each other","","html-keyboard-response","91","371770","0.0-35.0-0.0","3232","3A","conjoined","man","","null","W1 and M3 are flirting with each other","flirt4","sentence","","","",""
"2841.0000000003492","","","survey-likert-extra-labels","92","374614","0.0-35.0-1.0-0.0","3232","3A","conjoined","man","","","W1 and M3 are flirting with each other","flirt4","rating_causation","{""Q0"":3}","[0]","M3 started flirting with W1 first","W1 started flirting with M3 first"
"3149.0000000048894","","","survey-likert-extra-labels","93","377776","0.0-35.0-2.0","3232","3A","conjoined","man","","","W1 and M3 are flirting with each other","flirt4","rating_volition","{""Q0"":3}","[0]","M3 wanted to flirt with W1","W1 wanted to flirt with M3"
"null","Jane is teaching Dave","","html-keyboard-response","94","379792","0.0-36.0-0.0","3232","3A","conjoined","man","","null","W2 is teaching M4","teach","sentence","","","",""
"4586.999999999534","","","survey-likert-extra-labels","95","384382","0.0-36.0-1.0-0.0","3232","3A","conjoined","man","","","W2 is teaching M4","teach","rating_causation","{""Q0"":6}","[0]","W2 is learning from M4","M4 is learning from W2"
"4271.000000007916","","","survey-likert-extra-labels","96","388667","0.0-36.0-2.0","3232","3A","conjoined","man","","","W2 is teaching M4","teach","rating_volition","{""Q0"":0}","[0]","W2 is educating M4","M4 is educating W2"
"null","Dave and Mike are flirting with each other","","html-keyboard-response","97","390684","0.0-37.0-0.0","3232","3A","conjoined","man","","null","M4 and M2 are flirting with each other","flirt2","sentence","","","",""
"2657.0000000065193","","","survey-likert-extra-labels","98","393344","0.0-37.0-2.0","3232","3A","conjoined","man","","","M4 and M2 are flirting with each other","flirt2","rating_volition","{""Q0"":3}","[0]","M2 wanted to flirt with M4","M4 wanted to flirt with M2"
"2364.000000001397","","","survey-likert-extra-labels","99","395721","0.0-37.0-3.0-0.0","3232","3A","conjoined","man","","","M4 and M2 are flirting with each other","flirt2","rating_causation","{""Q0"":3}","[0]","M2 started flirting with M4 first","M4 started flirting with M2 first"
"null","Mike and Beth are arguing with each other","","html-keyboard-response","100","397743","0.0-38.0-0.0","3232","3A","conjoined","man","","null","M2 and W4 are arguing with each other","argue4","sentence","","","",""
"2350.0000000058208","","","survey-likert-extra-labels","101","400096","0.0-38.0-1.0-0.0","3232","3A","conjoined","man","","","M2 and W4 are arguing with each other","argue4","rating_causation","{""Q0"":3}","[0]","M2 started an argument with W4","W4 started an argument with M2"
"2139.999999999418","","","survey-likert-extra-labels","102","402249","0.0-38.0-2.0","3232","3A","conjoined","man","","","M2 and W4 are arguing with each other","argue4","rating_volition","{""Q0"":3}","[0]","M2 wanted to argue with W4","W4 wanted to argue with M2"
"null","Mike and Beth are kissing each other","","html-keyboard-response","103","404270","0.0-39.0-0.0","3232","3A","conjoined","man","","null","M2 and W4 are kissing each other","kiss3","sentence","","","",""
"2762.9999999917345","","","survey-likert-extra-labels","104","407037","0.0-39.0-1.0-0.0","3232","3A","conjoined","man","","","M2 and W4 are kissing each other","kiss3","rating_causation","{""Q0"":3}","[0]","M2 asked to kiss W4","W4 asked to kiss M2"
"2272.000000011758","","","survey-likert-extra-labels","105","409323","0.0-39.0-2.0","3232","3A","conjoined","man","","","M2 and W4 are kissing each other","kiss3","rating_volition","{""Q0"":3}","[0]","M2 wanted to kiss W4","W4 wanted to kiss M2"
"null","Ruth and Fred are touching each other","","html-keyboard-response","106","411351","0.0-40.0-0.0","3232","3A","conjoined","man","","null","W1 and M3 are touching each other","touch4","sentence","","","",""
"2408.000000010361","","","survey-likert-extra-labels","107","413762","0.0-40.0-1.0-0.0","3232","3A","conjoined","man","","","W1 and M3 are touching each other","touch4","rating_causation","{""Q0"":3}","[0]","M3 asked to touch W1","W1 asked to touch M3"
"2485.000000000582","","","survey-likert-extra-labels","108","416261","0.0-40.0-2.0","3232","3A","conjoined","man","","","W1 and M3 are touching each other","touch4","rating_volition","{""Q0"":3}","[0]","M3 wanted to touch W1","W1 wanted to touch M3"
"null","Jane and Dave are kissing each other","","html-keyboard-response","109","418273","0.0-41.0-0.0","3232","3A","conjoined","man","","null","W2 and M4 are kissing each other","kiss4","sentence","","","",""
"4562.000000005355","","","survey-likert-extra-labels","110","422839","0.0-41.0-1.0-0.0","3232","3A","conjoined","man","","","W2 and M4 are kissing each other","kiss4","rating_causation","{""Q0"":3}","[0]","W2 asked to kiss M4","M4 asked to kiss W2"
"2514.999999999418","","","survey-likert-extra-labels","111","425367","0.0-41.0-2.0","3232","3A","conjoined","man","","","W2 and M4 are kissing each other","kiss4","rating_volition","{""Q0"":3}","[0]","W2 wanted to kiss M4","M4 wanted to kiss W2"
"null","Dave and Mike are touching each other","","html-keyboard-response","112","427378","0.0-42.0-0.0","3232","3A","conjoined","man","","null","M4 and M2 are touching each other","touch2","sentence","","","",""
"2197.0000000001164","","","survey-likert-extra-labels","113","429578","0.0-42.0-1.0-0.0","3232","3A","conjoined","man","","","M4 and M2 are touching each other","touch2","rating_causation","{""Q0"":3}","[0]","M2 asked to touch M4","M4 asked to touch M2"
"3588.999999992666","","","survey-likert-extra-labels","114","433180","0.0-42.0-2.0","3232","3A","conjoined","man","","","M4 and M2 are touching each other","touch2","rating_volition","{""Q0"":3}","[0]","M2 wanted to touch M4","M4 wanted to touch M2"
"null","Beth and Jane are playing with each other","","html-keyboard-response","115","435195","0.0-43.0-0.0","3232","3A","conjoined","man","","null","W4 and W2 are playing with each other","play1","sentence","","","",""
"2360.000000000582","","","survey-likert-extra-labels","116","437558","0.0-43.0-2.0","3232","3A","conjoined","man","","","W4 and W2 are playing with each other","play1","rating_volition","{""Q0"":3}","[0]","W2 wanted to play with W4","W4 wanted to play with W2"
"3671.9999999913853","","","survey-likert-extra-labels","117","441244","0.0-43.0-3.0-0.0","3232","3A","conjoined","man","","","W4 and W2 are playing with each other","play1","rating_causation","{""Q0"":3}","[0]","W2 asked to play with W4","W4 asked to play with W2"
"null","Ruth and Kate are arguing with each other","","html-keyboard-response","118","443257","0.0-44.0-0.0","3232","3A","conjoined","man","","null","W1 and W3 are arguing with each other","argue1","sentence","","","",""
"3146.999999997206","","","survey-likert-extra-labels","119","446407","0.0-44.0-1.0-0.0","3232","3A","conjoined","man","","","W1 and W3 are arguing with each other","argue1","rating_causation","{""Q0"":3}","[0]","W1 started an argument with W3","W3 started an argument with W1"
"2701.999999990221","","","survey-likert-extra-labels","120","449123","0.0-44.0-2.0","3232","3A","conjoined","man","","","W1 and W3 are arguing with each other","argue1","rating_volition","{""Q0"":3}","[0]","W1 wanted to argue with W3","W3 wanted to argue with W1"
"null","Luke and Kate are playing with each other","","html-keyboard-response","121","451142","0.0-45.0-0.0","3232","3A","conjoined","man","","null","M1 and W3 are playing with each other","play4","sentence","","","",""
"7027.999999991152","","","survey-likert-extra-labels","122","458174","0.0-45.0-1.0-0.0","3232","3A","conjoined","man","","","M1 and W3 are playing with each other","play4","rating_causation","{""Q0"":3}","[0]","W3 asked to play with M1","M1 asked to play with W3"
"3210.000000006403","","","survey-likert-extra-labels","123","461401","0.0-45.0-2.0","3232","3A","conjoined","man","","","M1 and W3 are playing with each other","play4","rating_volition","{""Q0"":3}","[0]","W3 wanted to play with M1","M1 wanted to play with W3"
"null","Mike is posing for Dave","","html-keyboard-response","124","463411","0.0-46.0-0.0","3232","3A","conjoined","man","","null","M2 is posing for M4","pose","sentence","","","",""
"9163.000000000466","","","survey-likert-extra-labels","125","472577","0.0-46.0-2.0","3232","3A","conjoined","man","","","M2 is posing for M4","pose","rating_volition","{""Q0"":0}","[0]","M2 is modelling for M4","M4 is modelling for M2"
"6964.9999999965075","","","survey-likert-extra-labels","126","479556","0.0-46.0-3.0-0.0","3232","3A","conjoined","man","","","M2 is posing for M4","pose","rating_causation","{""Q0"":6}","[0]","M2 is photographing M4","M4 is photographing M2"
"null","Fred and Luke are talking to each other","","html-keyboard-response","127","481572","0.0-47.0-0.0","3232","3A","conjoined","man","","null","M3 and M1 are talking to each other","talk2","sentence","","","",""
"3834.000000002561","","","survey-likert-extra-labels","128","485409","0.0-47.0-1.0-0.0","3232","3A","conjoined","man","","","M3 and M1 are talking to each other","talk2","rating_causation","{""Q0"":3}","[0]","M1 started a conversation with M3","M3 started a conversation with M1"
"4061.0000000015134","","","survey-likert-extra-labels","129","489485","0.0-47.0-2.0","3232","3A","conjoined","man","","","M3 and M1 are talking to each other","talk2","rating_volition","{""Q0"":3}","[0]","M1 wanted to talk to M3","M3 wanted to talk to M1"
"null","Ruth and Fred are playing with each other","","html-keyboard-response","130","491497","0.0-48.0-0.0","3232","3A","conjoined","man","","null","W1 and M3 are playing with each other","play3","sentence","","","",""
"3100.9999999951106","","","survey-likert-extra-labels","131","494601","0.0-48.0-2.0","3232","3A","conjoined","man","","","W1 and M3 are playing with each other","play3","rating_volition","{""Q0"":3}","[0]","M3 wanted to play with W1","W1 wanted to play with M3"
"24585.999999995693","","","survey-likert-extra-labels","132","519200","0.0-48.0-3.0-0.0","3232","3A","conjoined","man","","","W1 and M3 are playing with each other","play3","rating_causation","{""Q0"":3}","[0]","M3 asked to play with W1","W1 asked to play with M3"
"null","Mike and Dave are marrying each other","","html-keyboard-response","133","521213","0.0-49.0-0.0","3232","3A","conjoined","man","","null","M2 and M4 are marrying each other","marry2","sentence","","","",""
"3422.000000005937","","","survey-likert-extra-labels","134","524637","0.0-49.0-2.0","3232","3A","conjoined","man","","","M2 and M4 are marrying each other","marry2","rating_volition","{""Q0"":3}","[0]","M2 wanted to marry M4","M4 wanted to marry M2"
"2940.0000000023283","","","survey-likert-extra-labels","135","527591","0.0-49.0-3.0-0.0","3232","3A","conjoined","man","","","M2 and M4 are marrying each other","marry2","rating_causation","{""Q0"":3}","[0]","M2 asked to marry M4","M4 asked to marry M2"
"null","Dave and Jane are talking to each other","","html-keyboard-response","136","529609","0.0-50.0-0.0","3232","3A","conjoined","man","","null","M4 and W2 are talking to each other","talk3","sentence","","","",""
"4116.99999999837","","","survey-likert-extra-labels","137","533729","0.0-50.0-1.0-0.0","3232","3A","conjoined","man","","","M4 and W2 are talking to each other","talk3","rating_causation","{""Q0"":3}","[0]","W2 started a conversation with M4","M4 started a conversation with W2"
"4076.0000000009313","","","survey-likert-extra-labels","138","537820","0.0-50.0-2.0","3232","3A","conjoined","man","","","M4 and W2 are talking to each other","talk3","rating_volition","{""Q0"":3}","[0]","W2 wanted to talk to M4","M4 wanted to talk to W2"
"null","Mike is reminding Beth","","html-keyboard-response","139","539831","0.0-51.0-0.0","3232","3A","conjoined","man","","null","M2 is reminding W4","remind","sentence","","","",""
"13917.99999999057","","","survey-likert-extra-labels","140","553752","0.0-51.0-1.0-0.0","3232","3A","conjoined","man","","","M2 is reminding W4","remind","rating_causation","{""Q0"":0}","[0]","M2 is remembering","W4 is remembering"
"6514.999999999418","","","survey-likert-extra-labels","141","560282","0.0-51.0-2.0","3232","3A","conjoined","man","","","M2 is reminding W4","remind","rating_volition","{""Q0"":0}","[0]","M2 is telling W4 again","W4 is telling M2 again"
"null","Fred and Luke are dancing with each other","","html-keyboard-response","142","562306","0.0-52.0-0.0","3232","3A","conjoined","man","","null","M3 and M1 are dancing with each other","dance2","sentence","","","",""
"3013.0000000062864","","","survey-likert-extra-labels","143","565322","0.0-52.0-2.0","3232","3A","conjoined","man","","","M3 and M1 are dancing with each other","dance2","rating_volition","{""Q0"":3}","[0]","M1 wanted to dance with M3","M3 wanted to dance with M1"
"2737.0000000082655","","","survey-likert-extra-labels","144","568072","0.0-52.0-3.0-0.0","3232","3A","conjoined","man","","","M3 and M1 are dancing with each other","dance2","rating_causation","{""Q0"":3}","[0]","M1 asked M3 to dance","M3 asked M1 to dance"
"null","Dave and Jane are dancing with each other","","html-keyboard-response","145","570098","0.0-53.0-0.0","3232","3A","conjoined","man","","null","M4 and W2 are dancing with each other","dance3","sentence","","","",""
"2948.000000003958","","","survey-likert-extra-labels","146","573049","0.0-53.0-2.0","3232","3A","conjoined","man","","","M4 and W2 are dancing with each other","dance3","rating_volition","{""Q0"":3}","[0]","W2 wanted to dance with M4","M4 wanted to dance with W2"
"2875","","","survey-likert-extra-labels","147","575938","0.0-53.0-3.0-0.0","3232","3A","conjoined","man","","","M4 and W2 are dancing with each other","dance3","rating_causation","{""Q0"":3}","[0]","W2 asked M4 to dance","M4 asked W2 to dance"
"null","Luke and Fred are kissing each other","","html-keyboard-response","148","577950","0.0-54.0-0.0","3232","3A","conjoined","man","","null","M1 and M3 are kissing each other","kiss2","sentence","","","",""
"2885.000000009313","","","survey-likert-extra-labels","149","580838","0.0-54.0-2.0","3232","3A","conjoined","man","","","M1 and M3 are kissing each other","kiss2","rating_volition","{""Q0"":3}","[0]","M1 wanted to kiss M3","M3 wanted to kiss M1"
"2665.999999997439","","","survey-likert-extra-labels","150","583517","0.0-54.0-3.0-0.0","3232","3A","conjoined","man","","","M1 and M3 are kissing each other","kiss2","rating_causation","{""Q0"":3}","[0]","M1 asked to kiss M3","M3 asked to kiss M1"
"2436.0000000015134","<p>Thank you for completing that task.</p><p>The final part of this session is a short questionnaire.</p><p>Press Continue.</p>","0","html-button-response","151","585966","0.0-55.0","3232","3A","conjoined","man","","","","","","","","",""
"34661.999999996624","","","survey-text","152","621698","0.0-56.0","3232","3A","conjoined","man","","","","","demographics","{""Q0"":""47"",""Q1"":""English"",""Q2"":""English"",""Q3"":""England"",""Q4"":""British"",""Q5"":""White"",""Q6"":""Male""}","","",""
"2573.000000003958","<p>Have you lived in the UK for the last 5 years or more?</p>","0","html-button-response","153","624274","0.0-57.0","3232","3A","conjoined","man","","","","","fiveyears","","","",""
"9770.999999993364","","","survey-text","154","635070","0.0-58.0","3232","3A","conjoined","man","","","","","worker_id","{""Q0"":""5ca759bd6bbed400194aeb9a""}","","",""
"17898.000000001048","","","external-html","155","653049","0.0-59.0","3232","3A","conjoined","man","debrief.html","","","","","","","",""
