"rt","stimulus","button_pressed","trial_type","trial_index","time_elapsed","internal_node_id","subject","list","condition","ppt_gender","url","key_press","sentence_type","verb","test_part","responses","question_order","left_part","right_part"
"2567.5200000005134","Welcome to the experiment. Press Continue to begin.","0","html-button-response","0","2573","0.0-0.0","34510","2A","conjoined","woman","","","","","","","","",""
"15644.524999999703","","","external-html","1","19269","0.0-1.0","34510","2A","conjoined","woman","consent.html","","","","","","","",""
"10877.4599999997","<p>Welcome.</p><p>In this experiment we will ask you to imagine some situations.</p><p>Each trial starts with a description of an event.</p><p>Then you will see alternative descriptions of that event, and you will rate on a scale how best they match the original description.</p><p>You will give your answer by clicking a button on a rating scale.</p><p>To do this task, you will have to use your imagination to visualise these events.</p><br><p>Ready?</p>","0","html-button-response","2","30148","0.0-2.0","34510","2A","conjoined","woman","","","","","","","","",""
"3143.079999998008","<p>Before the experiment starts, you will watch an example trial. Press 'Continue'.</p>","0","html-button-response","3","34294","0.0-3.0","34510","2A","conjoined","woman","","","","","","","","",""
"null","The police officer is arresting the robber","","html-keyboard-response","4","37299","0.0-4.0","34510","2A","conjoined","woman","","null","","","","","","",""
"15078.505000001314","<img src='img/Example-trial.jpg' style='height:550px;''></img>","0","html-button-response","5","52379","0.0-5.0","34510","2A","conjoined","woman","","","","","","","","",""
"5408.419999999751","<p>Ready to start the experiment?</p><br><p><strong>Remember to give an answer by clicking a button on the rating scale.</strong></p><p>Press 'Continue' to begin.</p>","0","html-button-response","6","58790","0.0-6.0","34510","2A","conjoined","woman","","","","","","","","",""
"null","Beth and Mike are shouting at each other","","html-keyboard-response","7","61795","0.0-7.0-0.0","34510","2A","conjoined","woman","","null","W4 and M2 are shouting at each other","shout3","sentence","","","",""
"7309.535000000324","","","survey-likert-extra-labels","8","69107","0.0-7.0-2.0","34510","2A","conjoined","woman","","","W4 and M2 are shouting at each other","shout3","rating_volition","{""Q0"":3}","[0]","W4 wanted to shout at M2","M2 wanted to shout at W4"
"8819.195000000036","","","survey-likert-extra-labels","9","77933","0.0-7.0-3.0-0.0","34510","2A","conjoined","woman","","","W4 and M2 are shouting at each other","shout3","rating_causation","{""Q0"":3}","[0]","W4 shouted at M2 first","M2 shouted at W4 first"
"null","Ruth and Fred are playing with each other","","html-keyboard-response","10","79940","0.0-8.0-0.0","34510","2A","conjoined","woman","","null","W1 and M3 are playing with each other","play3","sentence","","","",""
"5781.30500000043","","","survey-likert-extra-labels","11","85723","0.0-8.0-2.0","34510","2A","conjoined","woman","","","W1 and M3 are playing with each other","play3","rating_volition","{""Q0"":3}","[0]","W1 wanted to play with M3","M3 wanted to play with W1"
"7904.469999997673","","","survey-likert-extra-labels","12","93635","0.0-8.0-3.0-0.0","34510","2A","conjoined","woman","","","W1 and M3 are playing with each other","play3","rating_causation","{""Q0"":3}","[0]","W1 asked to play with M3","M3 asked to play with W1"
"null","Jane and Dave are dancing with each other","","html-keyboard-response","13","95643","0.0-9.0-0.0","34510","2A","conjoined","woman","","null","W2 and M4 are dancing with each other","dance3","sentence","","","",""
"4140.735000000859","","","survey-likert-extra-labels","14","99785","0.0-9.0-2.0","34510","2A","conjoined","woman","","","W2 and M4 are dancing with each other","dance3","rating_volition","{""Q0"":3}","[0]","M4 wanted to dance with W2","W2 wanted to dance with M4"
"4707.130000002508","","","survey-likert-extra-labels","15","104499","0.0-9.0-3.0-0.0","34510","2A","conjoined","woman","","","W2 and M4 are dancing with each other","dance3","rating_causation","{""Q0"":3}","[0]","M4 asked W2 to dance","W2 asked M4 to dance"
"null","Dave and Mike are playing with each other","","html-keyboard-response","16","106508","0.0-10.0-0.0","34510","2A","conjoined","woman","","null","M4 and M2 are playing with each other","play2","sentence","","","",""
"4849.630000000616","","","survey-likert-extra-labels","17","111360","0.0-10.0-2.0","34510","2A","conjoined","woman","","","M4 and M2 are playing with each other","play2","rating_volition","{""Q0"":3}","[0]","M4 wanted to play with M2","M2 wanted to play with M4"
"3543.2399999990594","","","survey-likert-extra-labels","18","114910","0.0-10.0-3.0-0.0","34510","2A","conjoined","woman","","","M4 and M2 are playing with each other","play2","rating_causation","{""Q0"":3}","[0]","M4 asked to play with M2","M2 asked to play with M4"
"null","Fred and Ruth are flirting with each other","","html-keyboard-response","19","116918","0.0-11.0-0.0","34510","2A","conjoined","woman","","null","M3 and W1 are flirting with each other","flirt4","sentence","","","",""
"8172.145000000455","","","survey-likert-extra-labels","20","125091","0.0-11.0-1.0-0.0","34510","2A","conjoined","woman","","","M3 and W1 are flirting with each other","flirt4","rating_causation","{""Q0"":3}","[0]","W1 started flirting with M3 first","M3 started flirting with W1 first"
"4895.800000002055","","","survey-likert-extra-labels","21","129994","0.0-11.0-2.0","34510","2A","conjoined","woman","","","M3 and W1 are flirting with each other","flirt4","rating_volition","{""Q0"":3}","[0]","W1 wanted to flirt with M3","M3 wanted to flirt with W1"
"null","Ruth is chasing Kate","","html-keyboard-response","22","132001","0.0-12.0-0.0","34510","2A","conjoined","woman","","null","W1 is chasing W3","chase","sentence","","","",""
"8497.37499999901","","","survey-likert-extra-labels","23","140499","0.0-12.0-2.0","34510","2A","conjoined","woman","","","W1 is chasing W3","chase","rating_volition","{""Q0"":6}","[0]","W1 is behind W3","W3 is behind W1"
"5669.339999996737","","","survey-likert-extra-labels","24","146176","0.0-12.0-3.0-0.0","34510","2A","conjoined","woman","","","W1 is chasing W3","chase","rating_causation","{""Q0"":6}","[0]","W1 is running away from W3","W3 is running away from W1"
"null","Ruth and Kate are kissing each other","","html-keyboard-response","25","148183","0.0-13.0-0.0","34510","2A","conjoined","woman","","null","W1 and W3 are kissing each other","kiss1","sentence","","","",""
"5232.434999998077","","","survey-likert-extra-labels","26","153417","0.0-13.0-2.0","34510","2A","conjoined","woman","","","W1 and W3 are kissing each other","kiss1","rating_volition","{""Q0"":3}","[0]","W3 wanted to kiss W1","W1 wanted to kiss W3"
"7058.689999998023","","","survey-likert-extra-labels","27","160483","0.0-13.0-3.0-0.0","34510","2A","conjoined","woman","","","W1 and W3 are kissing each other","kiss1","rating_causation","{""Q0"":3}","[0]","W3 asked to kiss W1","W1 asked to kiss W3"
"null","Fred and Luke are arguing with each other","","html-keyboard-response","28","162490","0.0-14.0-0.0","34510","2A","conjoined","woman","","null","M3 and M1 are arguing with each other","argue2","sentence","","","",""
"4406.299999998737","","","survey-likert-extra-labels","29","166898","0.0-14.0-1.0-0.0","34510","2A","conjoined","woman","","","M3 and M1 are arguing with each other","argue2","rating_causation","{""Q0"":3}","[0]","M3 started an argument with M1","M1 started an argument with M3"
"4000.735000001441","","","survey-likert-extra-labels","30","170907","0.0-14.0-2.0","34510","2A","conjoined","woman","","","M3 and M1 are arguing with each other","argue2","rating_volition","{""Q0"":3}","[0]","M3 wanted to argue with M1","M1 wanted to argue with M3"
"null","Mike and Dave are flirting with each other","","html-keyboard-response","31","172915","0.0-15.0-0.0","34510","2A","conjoined","woman","","null","M2 and M4 are flirting with each other","flirt2","sentence","","","",""
"3069.5549999982177","","","survey-likert-extra-labels","32","175987","0.0-15.0-2.0","34510","2A","conjoined","woman","","","M2 and M4 are flirting with each other","flirt2","rating_volition","{""Q0"":3}","[0]","M4 wanted to flirt with M2","M2 wanted to flirt with M4"
"3187.5200000031327","","","survey-likert-extra-labels","33","179181","0.0-15.0-3.0-0.0","34510","2A","conjoined","woman","","","M2 and M4 are flirting with each other","flirt2","rating_causation","{""Q0"":3}","[0]","M4 started flirting with M2 first","M2 started flirting with M4 first"
"null","Mike and Dave are marrying each other","","html-keyboard-response","34","181187","0.0-16.0-0.0","34510","2A","conjoined","woman","","null","M2 and M4 are marrying each other","marry2","sentence","","","",""
"6186.349999999948","","","survey-likert-extra-labels","35","187375","0.0-16.0-2.0","34510","2A","conjoined","woman","","","M2 and M4 are marrying each other","marry2","rating_volition","{""Q0"":3}","[0]","M4 wanted to marry M2","M2 wanted to marry M4"
"5540.66000000239","","","survey-likert-extra-labels","36","192922","0.0-16.0-3.0-0.0","34510","2A","conjoined","woman","","","M2 and M4 are marrying each other","marry2","rating_causation","{""Q0"":4}","[0]","M4 asked to marry M2","M2 asked to marry M4"
"null","Kate and Ruth are shouting at each other","","html-keyboard-response","37","194930","0.0-17.0-0.0","34510","2A","conjoined","woman","","null","W3 and W1 are shouting at each other","shout1","sentence","","","",""
"4202.725000002829","","","survey-likert-extra-labels","38","199134","0.0-17.0-1.0-0.0","34510","2A","conjoined","woman","","","W3 and W1 are shouting at each other","shout1","rating_causation","{""Q0"":3}","[0]","W3 shouted at W1 first","W1 shouted at W3 first"
"4419.060000000172","","","survey-likert-extra-labels","39","203561","0.0-17.0-2.0","34510","2A","conjoined","woman","","","W3 and W1 are shouting at each other","shout1","rating_volition","{""Q0"":3}","[0]","W3 wanted to shout at W1","W1 wanted to shout at W3"
"null","Luke and Fred are talking to each other","","html-keyboard-response","40","205568","0.0-18.0-0.0","34510","2A","conjoined","woman","","null","M1 and M3 are talking to each other","talk2","sentence","","","",""
"7302.79999999766","","","survey-likert-extra-labels","41","212872","0.0-18.0-1.0-0.0","34510","2A","conjoined","woman","","","M1 and M3 are talking to each other","talk2","rating_causation","{""Q0"":4}","[0]","M3 started a conversation with M1","M1 started a conversation with M3"
"6812.809999999445","","","survey-likert-extra-labels","42","219692","0.0-18.0-2.0","34510","2A","conjoined","woman","","","M1 and M3 are talking to each other","talk2","rating_volition","{""Q0"":4}","[0]","M3 wanted to talk to M1","M1 wanted to talk to M3"
"null","Jane and Beth are flirting with each other","","html-keyboard-response","43","221699","0.0-19.0-0.0","34510","2A","conjoined","woman","","null","W2 and W4 are flirting with each other","flirt1","sentence","","","",""
"3137.705000001006","","","survey-likert-extra-labels","44","224838","0.0-19.0-1.0-0.0","34510","2A","conjoined","woman","","","W2 and W4 are flirting with each other","flirt1","rating_causation","{""Q0"":3}","[0]","W4 started flirting with W2 first","W2 started flirting with W4 first"
"4416.099999998551","","","survey-likert-extra-labels","45","229261","0.0-19.0-2.0","34510","2A","conjoined","woman","","","W2 and W4 are flirting with each other","flirt1","rating_volition","{""Q0"":3}","[0]","W4 wanted to flirt with W2","W2 wanted to flirt with W4"
"null","Mike is posing for Dave","","html-keyboard-response","46","231267","0.0-20.0-0.0","34510","2A","conjoined","woman","","null","M2 is posing for M4","pose","sentence","","","",""
"10496.715000001132","","","survey-likert-extra-labels","47","241765","0.0-20.0-1.0-0.0","34510","2A","conjoined","woman","","","M2 is posing for M4","pose","rating_causation","{""Q0"":6}","[0]","M2 is photographing M4","M4 is photographing M2"
"8529.809999999998","","","survey-likert-extra-labels","48","250302","0.0-20.0-2.0","34510","2A","conjoined","woman","","","M2 is posing for M4","pose","rating_volition","{""Q0"":0}","[0]","M2 is modelling for M4","M4 is modelling for M2"
"null","Ruth and Kate are talking to each other","","html-keyboard-response","49","252310","0.0-21.0-0.0","34510","2A","conjoined","woman","","null","W1 and W3 are talking to each other","talk1","sentence","","","",""
"4018.0099999997765","","","survey-likert-extra-labels","50","256329","0.0-21.0-2.0","34510","2A","conjoined","woman","","","W1 and W3 are talking to each other","talk1","rating_volition","{""Q0"":3}","[0]","W3 wanted to talk to W1","W1 wanted to talk to W3"
"5113.994999999675","","","survey-likert-extra-labels","51","261450","0.0-21.0-3.0-0.0","34510","2A","conjoined","woman","","","W1 and W3 are talking to each other","talk1","rating_causation","{""Q0"":3}","[0]","W3 started a conversation with W1","W1 started a conversation with W3"
"null","Mike and Dave are touching each other","","html-keyboard-response","52","263457","0.0-22.0-0.0","34510","2A","conjoined","woman","","null","M2 and M4 are touching each other","touch2","sentence","","","",""
"5652.679999999236","","","survey-likert-extra-labels","53","269112","0.0-22.0-1.0-0.0","34510","2A","conjoined","woman","","","M2 and M4 are touching each other","touch2","rating_causation","{""Q0"":3}","[0]","M4 asked to touch M2","M2 asked to touch M4"
"3006.910000000091","","","survey-likert-extra-labels","54","272126","0.0-22.0-2.0","34510","2A","conjoined","woman","","","M2 and M4 are touching each other","touch2","rating_volition","{""Q0"":3}","[0]","M4 wanted to touch M2","M2 wanted to touch M4"
"null","Mike and Beth are kissing each other","","html-keyboard-response","55","274131","0.0-23.0-0.0","34510","2A","conjoined","woman","","null","M2 and W4 are kissing each other","kiss3","sentence","","","",""
"6826.6699999985285","","","survey-likert-extra-labels","56","280960","0.0-23.0-2.0","34510","2A","conjoined","woman","","","M2 and W4 are kissing each other","kiss3","rating_volition","{""Q0"":4}","[0]","W4 wanted to kiss M2","M2 wanted to kiss W4"
"5620.944999998785","","","survey-likert-extra-labels","57","286588","0.0-23.0-3.0-0.0","34510","2A","conjoined","woman","","","M2 and W4 are kissing each other","kiss3","rating_causation","{""Q0"":4}","[0]","W4 asked to kiss M2","M2 asked to kiss W4"
"null","Jane and Dave are talking to each other","","html-keyboard-response","58","288595","0.0-24.0-0.0","34510","2A","conjoined","woman","","null","W2 and M4 are talking to each other","talk3","sentence","","","",""
"4346.8900000007125","","","survey-likert-extra-labels","59","292944","0.0-24.0-1.0-0.0","34510","2A","conjoined","woman","","","W2 and M4 are talking to each other","talk3","rating_causation","{""Q0"":4}","[0]","M4 started a conversation with W2","W2 started a conversation with M4"
"4449.605000001611","","","survey-likert-extra-labels","60","297401","0.0-24.0-2.0","34510","2A","conjoined","woman","","","W2 and M4 are talking to each other","talk3","rating_volition","{""Q0"":4}","[0]","M4 wanted to talk to W2","W2 wanted to talk to M4"
"null","Jane is carrying Beth","","html-keyboard-response","61","299408","0.0-25.0-0.0","34510","2A","conjoined","woman","","null","W2 is carrying W4","carry","sentence","","","",""
"5171.985000000859","","","survey-likert-extra-labels","62","304581","0.0-25.0-2.0","34510","2A","conjoined","woman","","","W2 is carrying W4","carry","rating_volition","{""Q0"":0}","[0]","W2 is transporting W4","W4 is transporting W2"
"6215.7950000001","","","survey-likert-extra-labels","63","310804","0.0-25.0-3.0-0.0","34510","2A","conjoined","woman","","","W2 is carrying W4","carry","rating_causation","{""Q0"":6}","[0]","W2 is being moved by W4","W4 is being moved by W2"
"null","Dave and Jane are arguing with each other","","html-keyboard-response","64","312811","0.0-26.0-0.0","34510","2A","conjoined","woman","","null","M4 and W2 are arguing with each other","argue3","sentence","","","",""
"6582.159999998112","","","survey-likert-extra-labels","65","319396","0.0-26.0-1.0-0.0","34510","2A","conjoined","woman","","","M4 and W2 are arguing with each other","argue3","rating_causation","{""Q0"":2}","[0]","M4 started an argument with W2","W2 started an argument with M4"
"77263.94999999687","","","survey-likert-extra-labels","66","396667","0.0-26.0-2.0","34510","2A","conjoined","woman","","","M4 and W2 are arguing with each other","argue3","rating_volition","{""Q0"":3}","[0]","M4 wanted to argue with W2","W2 wanted to argue with M4"
"null","Mike and Beth are talking to each other","","html-keyboard-response","67","398675","0.0-27.0-0.0","34510","2A","conjoined","woman","","null","M2 and W4 are talking to each other","talk4","sentence","","","",""
"4306.329999999434","","","survey-likert-extra-labels","68","402983","0.0-27.0-2.0","34510","2A","conjoined","woman","","","M2 and W4 are talking to each other","talk4","rating_volition","{""Q0"":4}","[0]","W4 wanted to talk to M2","M2 wanted to talk to W4"
"3331.2150000020047","","","survey-likert-extra-labels","69","406326","0.0-27.0-3.0-0.0","34510","2A","conjoined","woman","","","M2 and W4 are talking to each other","talk4","rating_causation","{""Q0"":4}","[0]","W4 started a conversation with M2","M2 started a conversation with W4"
"null","Fred and Ruth are marrying each other","","html-keyboard-response","70","408332","0.0-28.0-0.0","34510","2A","conjoined","woman","","null","M3 and W1 are marrying each other","marry3","sentence","","","",""
"3568.310000002384","","","survey-likert-extra-labels","71","411902","0.0-28.0-2.0","34510","2A","conjoined","woman","","","M3 and W1 are marrying each other","marry3","rating_volition","{""Q0"":3}","[0]","W1 wanted to marry M3","M3 wanted to marry W1"
"2744.0999999999185","","","survey-likert-extra-labels","72","414655","0.0-28.0-3.0-0.0","34510","2A","conjoined","woman","","","M3 and W1 are marrying each other","marry3","rating_causation","{""Q0"":4}","[0]","W1 asked to marry M3","M3 asked to marry W1"
"null","Ruth and Fred are fighting each other","","html-keyboard-response","73","416662","0.0-29.0-0.0","34510","2A","conjoined","woman","","null","W1 and M3 are fighting each other","fight4","sentence","","","",""
"2482.7299999996903","","","survey-likert-extra-labels","74","419147","0.0-29.0-2.0","34510","2A","conjoined","woman","","","W1 and M3 are fighting each other","fight4","rating_volition","{""Q0"":3}","[0]","W1 wanted to fight M3","M3 wanted to fight W1"
"2343.3449999975273","","","survey-likert-extra-labels","75","421498","0.0-29.0-3.0-0.0","34510","2A","conjoined","woman","","","W1 and M3 are fighting each other","fight4","rating_causation","{""Q0"":3}","[0]","W1 started the fight with M3","M3 started the fight with W1"
"null","Fred and Ruth are touching each other","","html-keyboard-response","76","423504","0.0-30.0-0.0","34510","2A","conjoined","woman","","null","M3 and W1 are touching each other","touch4","sentence","","","",""
"1873.279999999795","","","survey-likert-extra-labels","77","425380","0.0-30.0-2.0","34510","2A","conjoined","woman","","","M3 and W1 are touching each other","touch4","rating_volition","{""Q0"":3}","[0]","W1 wanted to touch M3","M3 wanted to touch W1"
"4391.135000001697","","","survey-likert-extra-labels","78","429778","0.0-30.0-3.0-0.0","34510","2A","conjoined","woman","","","M3 and W1 are touching each other","touch4","rating_causation","{""Q0"":2}","[0]","W1 asked to touch M3","M3 asked to touch W1"
"null","Mike is reminding Beth","","html-keyboard-response","79","432508","0.0-31.0-0.0","34510","2A","conjoined","woman","","null","M2 is reminding W4","remind","sentence","","","",""
"14583.740000001853","","","survey-likert-extra-labels","80","447094","0.0-31.0-2.0","34510","2A","conjoined","woman","","","M2 is reminding W4","remind","rating_volition","{""Q0"":0}","[0]","M2 is telling W4 again","W4 is telling M2 again"
"9375.850000000384","","","survey-likert-extra-labels","81","456478","0.0-31.0-3.0-0.0","34510","2A","conjoined","woman","","","M2 is reminding W4","remind","rating_causation","{""Q0"":3}","[0]","M2 is remembering","W4 is remembering"
"null","Luke and Kate are playing with each other","","html-keyboard-response","82","458485","0.0-32.0-0.0","34510","2A","conjoined","woman","","null","M1 and W3 are playing with each other","play4","sentence","","","",""
"3336.380000000703","","","survey-likert-extra-labels","83","461823","0.0-32.0-2.0","34510","2A","conjoined","woman","","","M1 and W3 are playing with each other","play4","rating_volition","{""Q0"":3}","[0]","M1 wanted to play with W3","W3 wanted to play with M1"
"2060.125","","","survey-likert-extra-labels","84","463892","0.0-32.0-3.0-0.0","34510","2A","conjoined","woman","","","M1 and W3 are playing with each other","play4","rating_causation","{""Q0"":3}","[0]","M1 asked to play with W3","W3 asked to play with M1"
"null","Dave and Mike are fighting each other","","html-keyboard-response","85","465900","0.0-33.0-0.0","34510","2A","conjoined","woman","","null","M4 and M2 are fighting each other","fight2","sentence","","","",""
"4421.500000000407","","","survey-likert-extra-labels","86","470324","0.0-33.0-2.0","34510","2A","conjoined","woman","","","M4 and M2 are fighting each other","fight2","rating_volition","{""Q0"":3}","[0]","M4 wanted to fight M2","M2 wanted to fight M4"
"1912.0499999989988","","","survey-likert-extra-labels","87","472243","0.0-33.0-3.0-0.0","34510","2A","conjoined","woman","","","M4 and M2 are fighting each other","fight2","rating_causation","{""Q0"":3}","[0]","M4 started the fight with M2","M2 started the fight with M4"
"null","Kate and Luke are flirting with each other","","html-keyboard-response","88","474250","0.0-34.0-0.0","34510","2A","conjoined","woman","","null","W3 and M1 are flirting with each other","flirt3","sentence","","","",""
"4460.800000000745","","","survey-likert-extra-labels","89","478713","0.0-34.0-2.0","34510","2A","conjoined","woman","","","W3 and M1 are flirting with each other","flirt3","rating_volition","{""Q0"":3}","[0]","M1 wanted to flirt with W3","W3 wanted to flirt with M1"
"4623.069999997853","","","survey-likert-extra-labels","90","483343","0.0-34.0-3.0-0.0","34510","2A","conjoined","woman","","","W3 and M1 are flirting with each other","flirt3","rating_causation","{""Q0"":4}","[0]","M1 started flirting with W3 first","W3 started flirting with M1 first"
"null","Kate is feeding Luke","","html-keyboard-response","91","485351","0.0-35.0-0.0","34510","2A","conjoined","woman","","null","W3 is feeding M1","feed","sentence","","","",""
"5029.999999998836","","","survey-likert-extra-labels","92","490383","0.0-35.0-1.0-0.0","34510","2A","conjoined","woman","","","W3 is feeding M1","feed","rating_causation","{""Q0"":6}","[0]","W3 is eating M1's food","M1 is eating W3's food"
"3449.2800000007264","","","survey-likert-extra-labels","93","493840","0.0-35.0-2.0","34510","2A","conjoined","woman","","","W3 is feeding M1","feed","rating_volition","{""Q0"":0}","[0]","W3 is giving M1 food","M1 is giving W3 food"
"null","Kate and Ruth are arguing with each other","","html-keyboard-response","94","495847","0.0-36.0-0.0","34510","2A","conjoined","woman","","null","W3 and W1 are arguing with each other","argue1","sentence","","","",""
"1396.4549999982119","","","survey-likert-extra-labels","95","497246","0.0-36.0-2.0","34510","2A","conjoined","woman","","","W3 and W1 are arguing with each other","argue1","rating_volition","{""Q0"":3}","[0]","W3 wanted to argue with W1","W1 wanted to argue with W3"
"2554.965000002994","","","survey-likert-extra-labels","96","499808","0.0-36.0-3.0-0.0","34510","2A","conjoined","woman","","","W3 and W1 are arguing with each other","argue1","rating_causation","{""Q0"":3}","[0]","W3 started an argument with W1","W1 started an argument with W3"
"null","Jane and Dave are kissing each other","","html-keyboard-response","97","501815","0.0-37.0-0.0","34510","2A","conjoined","woman","","null","W2 and M4 are kissing each other","kiss4","sentence","","","",""
"3525.920000000042","","","survey-likert-extra-labels","98","505345","0.0-37.0-1.0-0.0","34510","2A","conjoined","woman","","","W2 and M4 are kissing each other","kiss4","rating_causation","{""Q0"":3}","[0]","M4 asked to kiss W2","W2 asked to kiss M4"
"3115.4349999997066","","","survey-likert-extra-labels","99","508468","0.0-37.0-2.0","34510","2A","conjoined","woman","","","W2 and M4 are kissing each other","kiss4","rating_volition","{""Q0"":3}","[0]","M4 wanted to kiss W2","W2 wanted to kiss M4"
"null","Kate and Luke are marrying each other","","html-keyboard-response","100","510475","0.0-38.0-0.0","34510","2A","conjoined","woman","","null","W3 and M1 are marrying each other","marry4","sentence","","","",""
"8067.459999998391","","","survey-likert-extra-labels","101","518544","0.0-38.0-1.0-0.0","34510","2A","conjoined","woman","","","W3 and M1 are marrying each other","marry4","rating_causation","{""Q0"":2}","[0]","M1 asked to marry W3","W3 asked to marry M1"
"2816.0549999993527","","","survey-likert-extra-labels","102","521367","0.0-38.0-2.0","34510","2A","conjoined","woman","","","W3 and M1 are marrying each other","marry4","rating_volition","{""Q0"":3}","[0]","M1 wanted to marry W3","W3 wanted to marry M1"
"null","Luke and Kate are fighting each other","","html-keyboard-response","103","523374","0.0-39.0-0.0","34510","2A","conjoined","woman","","null","M1 and W3 are fighting each other","fight3","sentence","","","",""
"2188.7549999991897","","","survey-likert-extra-labels","104","525566","0.0-39.0-2.0","34510","2A","conjoined","woman","","","M1 and W3 are fighting each other","fight3","rating_volition","{""Q0"":3}","[0]","M1 wanted to fight W3","W3 wanted to fight M1"
"2824.605000001611","","","survey-likert-extra-labels","105","528400","0.0-39.0-3.0-0.0","34510","2A","conjoined","woman","","","M1 and W3 are fighting each other","fight3","rating_causation","{""Q0"":3}","[0]","M1 started the fight with W3","W3 started the fight with M1"
"null","Beth and Jane are fighting each other","","html-keyboard-response","106","530406","0.0-40.0-0.0","34510","2A","conjoined","woman","","null","W4 and W2 are fighting each other","fight1","sentence","","","",""
"1691.0449999995762","","","survey-likert-extra-labels","107","532099","0.0-40.0-1.0-0.0","34510","2A","conjoined","woman","","","W4 and W2 are fighting each other","fight1","rating_causation","{""Q0"":3}","[0]","W4 started the fight with W2","W2 started the fight with W4"
"1992.6799999993527","","","survey-likert-extra-labels","108","534098","0.0-40.0-2.0","34510","2A","conjoined","woman","","","W4 and W2 are fighting each other","fight1","rating_volition","{""Q0"":3}","[0]","W4 wanted to fight W2","W2 wanted to fight W4"
"null","Dave and Jane are shouting at each other","","html-keyboard-response","109","536105","0.0-41.0-0.0","34510","2A","conjoined","woman","","null","M4 and W2 are shouting at each other","shout4","sentence","","","",""
"6842.410000001197","","","survey-likert-extra-labels","110","542949","0.0-41.0-1.0-0.0","34510","2A","conjoined","woman","","","M4 and W2 are shouting at each other","shout4","rating_causation","{""Q0"":2}","[0]","M4 shouted at W2 first","W2 shouted at M4 first"
"5297.780000000726","","","survey-likert-extra-labels","111","548254","0.0-41.0-2.0","34510","2A","conjoined","woman","","","M4 and W2 are shouting at each other","shout4","rating_volition","{""Q0"":2}","[0]","M4 wanted to shout at W2","W2 wanted to shout at M4"
"null","Beth and Mike are arguing with each other","","html-keyboard-response","112","550261","0.0-42.0-0.0","34510","2A","conjoined","woman","","null","W4 and M2 are arguing with each other","argue4","sentence","","","",""
"3284.984999998356","","","survey-likert-extra-labels","113","553547","0.0-42.0-1.0-0.0","34510","2A","conjoined","woman","","","W4 and M2 are arguing with each other","argue4","rating_causation","{""Q0"":3}","[0]","W4 started an argument with M2","M2 started an argument with W4"
"1869.7950000022538","","","survey-likert-extra-labels","114","555426","0.0-42.0-2.0","34510","2A","conjoined","woman","","","W4 and M2 are arguing with each other","argue4","rating_volition","{""Q0"":3}","[0]","W4 wanted to argue with M2","M2 wanted to argue with W4"
"null","Fred is hiring Ruth","","html-keyboard-response","115","557433","0.0-43.0-0.0","34510","2A","conjoined","woman","","null","M3 is hiring W1","hire","sentence","","","",""
"4431.130000000936","","","survey-likert-extra-labels","116","561866","0.0-43.0-1.0-0.0","34510","2A","conjoined","woman","","","M3 is hiring W1","hire","rating_causation","{""Q0"":6}","[0]","M3 will work for W1","W1 will work for M3"
"3037.4599999996135","","","survey-likert-extra-labels","117","564910","0.0-43.0-2.0","34510","2A","conjoined","woman","","","M3 is hiring W1","hire","rating_volition","{""Q0"":0}","[0]","M3 is employing W1","W1 is employing M3"
"null","Kate and Luke are touching each other","","html-keyboard-response","118","566916","0.0-44.0-0.0","34510","2A","conjoined","woman","","null","W3 and M1 are touching each other","touch3","sentence","","","",""
"5738.315000002389","","","survey-likert-extra-labels","119","572656","0.0-44.0-2.0","34510","2A","conjoined","woman","","","W3 and M1 are touching each other","touch3","rating_volition","{""Q0"":3}","[0]","M1 wanted to touch W3","W3 wanted to touch M1"
"3577.6499999992084","","","survey-likert-extra-labels","120","576241","0.0-44.0-3.0-0.0","34510","2A","conjoined","woman","","","W3 and M1 are touching each other","touch3","rating_causation","{""Q0"":4}","[0]","M1 asked to touch W3","W3 asked to touch M1"
"null","Jane is teaching Dave","","html-keyboard-response","121","578247","0.0-45.0-0.0","34510","2A","conjoined","woman","","null","W2 is teaching M4","teach","sentence","","","",""
"3456.060000000405","","","survey-likert-extra-labels","122","581705","0.0-45.0-1.0-0.0","34510","2A","conjoined","woman","","","W2 is teaching M4","teach","rating_causation","{""Q0"":6}","[0]","W2 is learning from M4","M4 is learning from W2"
"6789.824999999837","","","survey-likert-extra-labels","123","588501","0.0-45.0-2.0","34510","2A","conjoined","woman","","","W2 is teaching M4","teach","rating_volition","{""Q0"":0}","[0]","W2 is educating M4","M4 is educating W2"
"null","Jane and Beth are touching each other","","html-keyboard-response","124","590512","0.0-46.0-0.0","34510","2A","conjoined","woman","","null","W2 and W4 are touching each other","touch1","sentence","","","",""
"2157.2100000012433","","","survey-likert-extra-labels","125","592671","0.0-46.0-2.0","34510","2A","conjoined","woman","","","W2 and W4 are touching each other","touch1","rating_volition","{""Q0"":3}","[0]","W4 wanted to touch W2","W2 wanted to touch W4"
"2313.834999997285","","","survey-likert-extra-labels","126","594992","0.0-46.0-3.0-0.0","34510","2A","conjoined","woman","","","W2 and W4 are touching each other","touch1","rating_causation","{""Q0"":3}","[0]","W4 asked to touch W2","W2 asked to touch W4"
"null","Jane and Beth are marrying each other","","html-keyboard-response","127","596998","0.0-47.0-0.0","34510","2A","conjoined","woman","","null","W2 and W4 are marrying each other","marry1","sentence","","","",""
"6350.9349999985425","","","survey-likert-extra-labels","128","603351","0.0-47.0-1.0-0.0","34510","2A","conjoined","woman","","","W2 and W4 are marrying each other","marry1","rating_causation","{""Q0"":3}","[0]","W4 asked to marry W2","W2 asked to marry W4"
"4594.329999999842","","","survey-likert-extra-labels","129","607952","0.0-47.0-2.0","34510","2A","conjoined","woman","","","W2 and W4 are marrying each other","marry1","rating_volition","{""Q0"":3}","[0]","W4 wanted to marry W2","W2 wanted to marry W4"
"null","Fred and Luke are shouting at each other","","html-keyboard-response","130","609959","0.0-48.0-0.0","34510","2A","conjoined","woman","","null","M3 and M1 are shouting at each other","shout2","sentence","","","",""
"1738.8150000006426","","","survey-likert-extra-labels","131","611700","0.0-48.0-2.0","34510","2A","conjoined","woman","","","M3 and M1 are shouting at each other","shout2","rating_volition","{""Q0"":3}","[0]","M3 wanted to shout at M1","M1 wanted to shout at M3"
"2122.944999999134","","","survey-likert-extra-labels","132","613829","0.0-48.0-3.0-0.0","34510","2A","conjoined","woman","","","M3 and M1 are shouting at each other","shout2","rating_causation","{""Q0"":3}","[0]","M3 shouted at M1 first","M1 shouted at M3 first"
"null","Ruth and Kate are dancing with each other","","html-keyboard-response","133","615835","0.0-49.0-0.0","34510","2A","conjoined","woman","","null","W1 and W3 are dancing with each other","dance1","sentence","","","",""
"4377.239999998012","","","survey-likert-extra-labels","134","620214","0.0-49.0-1.0-0.0","34510","2A","conjoined","woman","","","W1 and W3 are dancing with each other","dance1","rating_causation","{""Q0"":4}","[0]","W3 asked W1 to dance","W1 asked W3 to dance"
"2395.954999999958","","","survey-likert-extra-labels","135","622617","0.0-49.0-2.0","34510","2A","conjoined","woman","","","W1 and W3 are dancing with each other","dance1","rating_volition","{""Q0"":3}","[0]","W3 wanted to dance with W1","W1 wanted to dance with W3"
"null","Luke and Fred are dancing with each other","","html-keyboard-response","136","624624","0.0-50.0-0.0","34510","2A","conjoined","woman","","null","M1 and M3 are dancing with each other","dance2","sentence","","","",""
"2652.9950000003446","","","survey-likert-extra-labels","137","627279","0.0-50.0-1.0-0.0","34510","2A","conjoined","woman","","","M1 and M3 are dancing with each other","dance2","rating_causation","{""Q0"":4}","[0]","M3 asked M1 to dance","M1 asked M3 to dance"
"2352.6749999983003","","","survey-likert-extra-labels","138","629639","0.0-50.0-2.0","34510","2A","conjoined","woman","","","M1 and M3 are dancing with each other","dance2","rating_volition","{""Q0"":3}","[0]","M3 wanted to dance with M1","M1 wanted to dance with M3"
"null","Mike and Beth are dancing with each other","","html-keyboard-response","139","631646","0.0-51.0-0.0","34510","2A","conjoined","woman","","null","M2 and W4 are dancing with each other","dance4","sentence","","","",""
"4560.639999999665","","","survey-likert-extra-labels","140","636209","0.0-51.0-2.0","34510","2A","conjoined","woman","","","M2 and W4 are dancing with each other","dance4","rating_volition","{""Q0"":4}","[0]","W4 wanted to dance with M2","M2 wanted to dance with W4"
"4887.819999999832","","","survey-likert-extra-labels","141","641103","0.0-51.0-3.0-0.0","34510","2A","conjoined","woman","","","M2 and W4 are dancing with each other","dance4","rating_causation","{""Q0"":4}","[0]","W4 asked M2 to dance","M2 asked W4 to dance"
"null","Beth and Jane are playing with each other","","html-keyboard-response","142","643110","0.0-52.0-0.0","34510","2A","conjoined","woman","","null","W4 and W2 are playing with each other","play1","sentence","","","",""
"1870.1999999976251","","","survey-likert-extra-labels","143","644982","0.0-52.0-2.0","34510","2A","conjoined","woman","","","W4 and W2 are playing with each other","play1","rating_volition","{""Q0"":3}","[0]","W4 wanted to play with W2","W2 wanted to play with W4"
"1851.814999998198","","","survey-likert-extra-labels","144","646841","0.0-52.0-3.0-0.0","34510","2A","conjoined","woman","","","W4 and W2 are playing with each other","play1","rating_causation","{""Q0"":3}","[0]","W4 asked to play with W2","W2 asked to play with W4"
"null","Luke is driving Fred","","html-keyboard-response","145","648848","0.0-53.0-0.0","34510","2A","conjoined","woman","","null","M1 is driving M3","drive","sentence","","","",""
"5640.559999999823","","","survey-likert-extra-labels","146","654490","0.0-53.0-2.0","34510","2A","conjoined","woman","","","M1 is driving M3","drive","rating_volition","{""Q0"":0}","[0]","M3 is M1's passenger","M1 is M3's passenger"
"5777.89499999932","","","survey-likert-extra-labels","147","660275","0.0-53.0-3.0-0.0","34510","2A","conjoined","woman","","","M1 is driving M3","drive","rating_causation","{""Q0"":6}","[0]","M3 is taking M1 somewhere","M1 is taking M3 somewhere"
"null","Luke and Fred are kissing each other","","html-keyboard-response","148","662282","0.0-54.0-0.0","34510","2A","conjoined","woman","","null","M1 and M3 are kissing each other","kiss2","sentence","","","",""
"3811.7400000010384","","","survey-likert-extra-labels","149","666096","0.0-54.0-1.0-0.0","34510","2A","conjoined","woman","","","M1 and M3 are kissing each other","kiss2","rating_causation","{""Q0"":4}","[0]","M3 asked to kiss M1","M1 asked to kiss M3"
"3778.6699999996927","","","survey-likert-extra-labels","150","669881","0.0-54.0-2.0","34510","2A","conjoined","woman","","","M1 and M3 are kissing each other","kiss2","rating_volition","{""Q0"":3}","[0]","M3 wanted to kiss M1","M1 wanted to kiss M3"
"5012.489999997313","<p>Thank you for completing that task.</p><p>The final part of this session is a short questionnaire.</p><p>Press Continue.</p>","0","html-button-response","151","674900","0.0-55.0","34510","2A","conjoined","woman","","","","","","","","",""
"31554.039999999106","","","survey-text","152","707469","0.0-56.0","34510","2A","conjoined","woman","","","","","demographics","{""Q0"":""53"",""Q1"":""english"",""Q2"":""english"",""Q3"":""scotland"",""Q4"":""scotland"",""Q5"":""white"",""Q6"":""female""}","","",""
"2436.215000001481","<p>Have you lived in the UK for the last 5 years or more?</p>","1","html-button-response","153","709908","0.0-57.0","34510","2A","conjoined","woman","","","","","fiveyears","","","",""
"12234.18500000122","","","survey-text","154","723147","0.0-58.0","34510","2A","conjoined","woman","","","","","worker_id","{""Q0"":""5dd650d749f6075e1eccc352""}","","",""
"4854.394999998389","","","external-html","155","728109","0.0-59.0","34510","2A","conjoined","woman","debrief.html","","","","","","","",""
